'Start Wavelength	183.907
'End Wavelength	1046.922
'Gate Delay	5.000
'Gate Width (ms)	1.050
'Laser Output Level	0.000
'X Position	0.000
'Y Position	0.000
'Z Position	0.000
'Grid Point Number	1.000
'Shot Number	100.000
183.907	-394.000
183.977	-70.000
184.047	-995
184.116	616
184.186	-385
184.256	16
184.325	-523
184.395	-97
184.465	928
184.534	409
184.604	-851
184.674	519
184.743	-231
184.813	332
184.883	-427
184.952	1062
185.022	-715
185.092	1135
185.161	27
185.231	737
185.301	311
185.370	2111
185.440	-639
185.509	65
185.579	-366
185.649	192
185.718	382
185.788	1457
185.857	-452
185.927	-694
185.996	-625
186.066	404
186.136	-379
186.205	819
186.275	153
186.344	843
186.414	-265
186.483	-119
186.553	714
186.622	1038
186.692	456
186.761	-64
186.831	883
186.900	210
186.970	-75
187.039	1070
187.109	1038
187.178	547
187.248	-608
187.317	401
187.387	153
187.456	598
187.526	907
187.595	1134
187.664	-82
187.734	862
187.803	298
187.873	1434
187.942	607
188.012	852
188.081	-470
188.150	1007
188.220	778
188.289	852
188.358	416
188.428	1042
188.497	-354
188.567	841
188.636	421
188.705	-198
188.775	-205
188.844	825
188.913	653
188.983	372
189.052	-51
189.121	821
189.191	99
189.260	1655
189.329	589
189.399	1192
189.468	352
189.537	-404
189.606	113
189.676	1486
189.745	649
189.814	1496
189.883	954
189.953	730
190.022	369
190.091	2623
190.161	3698
190.230	2534
190.299	-433
190.368	432
190.437	-502
190.507	999
190.576	-487
190.645	1006
190.714	-416
190.783	158
190.853	359
190.922	1293
190.991	-474
191.060	1535
191.129	454
191.198	1904
191.268	-238
191.337	575
191.406	1179
191.475	609
191.544	-574
191.613	1267
191.682	-661
191.752	869
191.821	-481
191.890	346
191.959	127
192.028	404
192.097	28
192.166	1178
192.235	-288
192.304	977
192.373	494
192.442	729
192.511	27
192.580	980
192.650	134
192.719	404
192.788	390
192.857	457
192.926	6
192.995	1073
193.064	256
193.133	1384
193.202	1815
193.271	1793
193.340	1249
193.409	2245
193.478	629
193.547	2139
193.615	2767
193.684	3209
193.753	1117
193.822	2091
193.891	775
193.960	1399
194.029	135
194.098	1234
194.167	-906
194.236	1179
194.305	-67
194.374	551
194.443	-767
194.512	1289
194.580	670
194.649	1130
194.718	1677
194.787	915
194.856	410
194.925	1586
194.994	1081
195.062	1680
195.131	581
195.200	1446
195.269	1447
195.338	1764
195.407	1057
195.475	402
195.544	1109
195.613	1301
195.682	908
195.751	1450
195.819	1310
195.888	2275
195.957	1431
196.026	2506
196.094	1544
196.163	1947
196.232	1017
196.301	1831
196.369	1121
196.438	1593
196.507	5
196.576	584
196.644	358
196.713	1213
196.782	782
196.850	1065
196.919	188
196.988	1515
197.056	628
197.125	1394
197.194	1003
197.262	1525
197.331	264
197.400	1167
197.468	-104
197.537	1466
197.606	128
197.674	2278
197.743	3896
197.812	1855
197.880	3425
197.949	3532
198.017	2909
198.086	3715
198.155	796
198.223	2068
198.292	3793
198.360	2637
198.429	372
198.497	1471
198.566	1714
198.635	5282
198.703	1991
198.772	1469
198.840	4049
198.909	6208
198.977	1354
199.046	1746
199.114	1072
199.183	2100
199.251	461
199.320	2011
199.388	434
199.457	1302
199.525	1079
199.594	1426
199.662	731
199.731	549
199.799	47
199.867	1685
199.936	153
200.004	1444
200.073	944
200.141	820
200.210	997
200.278	811
200.346	984
200.415	1559
200.483	952
200.552	1419
200.620	105
200.688	2242
200.757	734
200.825	1645
200.893	-191
200.962	1703
201.030	147
201.098	1088
201.167	1516
201.235	1944
201.303	532
201.372	1676
201.440	1175
201.508	2183
201.577	1916
201.645	1821
201.713	848
201.781	1411
201.850	1241
201.918	2030
201.986	496
202.055	1765
202.123	1037
202.191	1874
202.259	1498
202.327	1448
202.396	508
202.464	1011
202.532	2065
202.600	6631
202.669	4056
202.737	1881
202.805	309
202.873	1084
202.941	236
203.009	959
203.078	193
203.146	904
203.214	254
203.282	1185
203.350	769
203.418	1218
203.487	880
203.555	1272
203.623	474
203.691	1446
203.759	258
203.827	1013
203.895	1241
203.963	2143
204.031	1088
204.099	2051
204.168	774
204.236	2074
204.304	1275
204.372	2010
204.440	794
204.508	1188
204.576	868
204.644	2154
204.712	524
204.780	1692
204.848	1010
204.916	1534
204.984	1132
205.052	1715
205.120	1071
205.188	1308
205.256	479
205.324	2029
205.392	558
205.460	1567
205.528	876
205.596	1858
205.664	818
205.732	1384
205.799	5191
205.867	8926
205.935	1661
206.003	2373
206.071	769
206.139	2606
206.207	1177
206.275	1876
206.343	163
206.411	2294
206.478	1051
206.546	1745
206.614	1006
206.682	1580
206.750	515
206.818	1972
206.885	2061
206.953	1058
207.021	2032
207.089	1388
207.157	-324
207.225	1720
207.292	212
207.360	1516
207.428	1182
207.496	1606
207.563	1608
207.631	1593
207.699	649
207.767	1839
207.834	1040
207.902	1967
207.970	-56
208.038	2498
208.105	1171
208.173	1251
208.241	2487
208.309	3322
208.376	2204
208.444	4357
208.512	2423
208.579	1297
208.647	2701
208.715	3316
208.782	1617
208.850	2452
208.918	789
208.985	1750
209.053	1401
209.120	2105
209.188	1572
209.256	2185
209.323	1296
209.391	3222
209.459	3198
209.526	2014
209.594	1671
209.661	1905
209.729	634
209.796	2455
209.864	1716
209.932	1176
209.999	3216
210.067	3067
210.134	2259
210.202	3225
210.269	3483
210.337	3077
210.404	1370
210.472	1441
210.539	2066
210.607	2636
210.674	2073
210.742	2184
210.809	2454
210.877	3452
210.944	3774
211.012	2578
211.079	3308
211.146	2535
211.214	1745
211.281	3946
211.349	2964
211.416	3324
211.484	1958
211.551	2493
211.618	2554
211.686	2629
211.753	1449
211.821	2826
211.888	2628
211.955	3444
212.023	1496
212.090	2390
212.157	3115
212.225	2834
212.292	5105
212.359	10407
212.427	25259
212.494	13268
212.561	4667
212.629	3843
212.696	3050
212.763	3190
212.831	2410
212.898	3275
212.965	1407
213.032	2845
213.100	2679
213.167	3083
213.234	1995
213.301	2798
213.369	2482
213.436	3137
213.503	1841
213.570	3496
213.638	2834
213.705	2196
213.772	1564
213.839	3224
213.906	4236
213.973	3619
214.041	2799
214.108	4208
214.175	2889
214.242	2301
214.309	2466
214.376	3187
214.444	2200
214.511	3673
214.578	2369
214.645	3218
214.712	3177
214.779	3893
214.846	2388
214.913	3980
214.980	3654
215.048	3876
215.115	4788
215.182	4999
215.249	3255
215.316	3594
215.383	2219
215.450	3289
215.517	3340
215.584	3666
215.651	1911
215.718	3488
215.785	3333
215.852	3564
215.919	3398
215.986	3819
216.053	3049
216.120	2858
216.187	2805
216.254	4184
216.321	2795
216.388	3883
216.455	3328
216.522	4114
216.589	4049
216.656	7739
216.722	7508
216.789	5404
216.856	4525
216.923	4276
216.990	2559
217.057	3609
217.124	4813
217.191	4542
217.258	5082
217.324	6893
217.391	6073
217.458	6210
217.525	4314
217.592	4268
217.659	2247
217.725	4755
217.792	5048
217.859	6496
217.926	3269
217.993	3187
218.059	2699
218.126	3437
218.193	1855
218.260	2387
218.327	1613
218.393	3146
218.460	1780
218.527	2692
218.594	2104
218.660	6961
218.727	7282
218.794	3482
218.860	3028
218.927	2924
218.994	2444
219.061	2709
219.127	3462
219.194	6727
219.261	3435
219.327	2431
219.394	2199
219.461	1855
219.527	2140
219.594	4336
219.661	2305
219.727	2092
219.794	2393
219.860	2639
219.927	2364
219.994	5077
220.060	7413
220.127	6269
220.193	3415
220.260	3902
220.326	4318
220.393	7264
220.460	8927
220.526	7265
220.593	4031
220.659	5563
220.726	4433
220.792	13081
220.859	11549
220.925	12164
220.992	15648
221.058	17595
221.125	18117
221.191	13776
221.258	5434
221.324	4850
221.391	3415
221.457	3328
221.524	3027
221.590	5071
221.657	15349
221.723	12801
221.789	9792
221.856	10579
221.922	5502
221.989	5451
222.055	3064
222.121	2726
222.188	4743
222.254	4942
222.321	2165
222.387	1817
222.453	2226
222.520	3114
222.586	2632
222.652	3620
222.719	1610
222.785	4187
222.851	1654
222.918	2352
222.984	2824
223.050	3178
223.116	1624
223.183	3972
223.249	1444
223.315	2450
223.382	1450
223.448	2129
223.514	382
223.580	2044
223.647	1119
223.713	2396
223.779	1704
223.845	2724
223.911	1371
223.978	1395
224.044	2138
224.110	1446
224.176	2073
224.242	2561
224.309	-11
224.375	2726
224.441	1148
224.507	1890
224.573	1135
224.639	3218
224.705	485
224.772	2040
224.838	1251
224.904	3941
224.970	1941
225.036	3234
225.102	2211
225.168	3278
225.234	2121
225.300	2895
225.366	1900
225.432	2131
225.499	1407
225.565	2503
225.631	2251
225.697	2901
225.763	2606
225.829	4117
225.895	3790
225.961	6815
226.027	6282
226.093	4742
226.159	5414
226.225	7407
226.291	13474
226.357	25318
226.423	15516
226.489	9355
226.554	5341
226.620	5581
226.686	6254
226.752	11896
226.818	13657
226.884	32070
226.950	29175
227.016	12239
227.082	6929
227.148	6090
227.214	7230
227.279	6062
227.345	4008
227.411	5073
227.477	4328
227.543	8926
227.609	10546
227.674	7119
227.740	4171
227.806	4512
227.872	3320
227.938	4039
228.003	6966
228.069	5069
228.135	2114
228.201	3089
228.267	2169
228.332	4526
228.398	4948
228.464	4430
228.530	1846
228.595	2671
228.661	1948
228.727	6567
228.792	5013
228.858	3377
228.924	2409
228.990	5696
229.055	3484
229.121	5365
229.187	2802
229.252	4686
229.318	1896
229.384	4130
229.449	4391
229.515	1949
229.581	624
229.646	4729
229.712	3225
229.777	9210
229.843	9350
229.909	6551
229.974	6471
230.040	7037
230.105	4875
230.171	6417
230.236	7557
230.302	11099
230.368	8795
230.433	5205
230.499	4318
230.564	6700
230.630	3413
230.695	3788
230.761	3542
230.826	2108
230.892	6438
230.957	4025
231.023	2225
231.088	3756
231.154	3295
231.219	4608
231.284	5050
231.350	6936
231.415	2440
231.481	3477
231.546	2173
231.612	3974
231.677	1061
231.742	1366
231.808	4361
231.873	2682
231.939	394
232.004	7165
232.069	6475
232.135	4064
232.200	3295
232.265	3759
232.331	1081
232.396	2351
232.461	1654
232.527	2312
232.592	2513
232.657	3283
232.723	7127
232.788	6643
232.853	2557
232.918	2769
232.984	1048
233.049	3542
233.114	5887
233.179	7623
233.245	9318
233.310	13521
233.375	3011
233.440	4140
233.506	2222
233.571	2556
233.636	2645
233.701	2902
233.766	6774
233.832	12032
233.897	3816
233.962	4589
234.027	6407
234.092	4827
234.157	3016
234.222	4186
234.288	5933
234.353	24310
234.418	22812
234.483	14267
234.548	9301
234.613	6853
234.678	5831
234.743	6732
234.808	23523
234.873	18198
234.938	7676
235.004	5545
235.069	4666
235.134	5116
235.199	4521
235.264	3793
235.329	1729
235.394	4849
235.459	6104
235.524	6237
235.589	4616
235.654	3483
235.719	2205
235.784	4798
235.849	5023
235.913	13818
235.978	14306
236.043	18181
236.108	6877
236.173	5785
236.238	7013
236.303	3645
236.368	4031
236.433	7840
236.498	16211
236.563	8760
236.627	12149
236.692	41071
236.757	36658
236.822	16308
236.887	13994
236.952	10258
237.017	7026
237.081	10303
237.146	10649
237.211	18620
237.276	38483
237.341	73475
237.405	40301
237.470	16864
237.535	14688
237.600	8489
237.664	6497
237.729	5918
237.794	6169
237.859	13339
237.923	12605
237.988	8421
238.053	10830
238.118	13166
238.182	28365
238.247	31693
238.312	14598
238.376	11532
238.441	8309
238.506	8831
238.570	3660
238.635	5932
238.700	3527
238.764	4516
238.829	12948
238.893	20129
238.958	8094
239.023	7922
239.087	4246
239.152	6318
239.216	3589
239.281	4674
239.346	3786
239.410	4494
239.475	5208
239.539	28633
239.604	25685
239.668	9031
239.733	5015
239.797	7445
239.862	15793
239.926	27483
239.991	11615
240.055	6693
240.120	4599
240.184	6324
240.249	4315
240.313	4206
240.378	4265
240.442	17916
240.507	31480
240.571	10430
240.635	13264
240.700	20800
240.764	6647
240.829	5253
240.893	2843
240.957	5319
241.022	15904
241.086	32791
241.151	16649
241.215	5390
241.279	8525
241.344	17588
241.408	8455
241.472	6446
241.537	6841
241.601	6105
241.665	3051
241.730	4993
241.794	6146
241.858	5097
241.922	4461
241.987	5459
242.051	3955
242.115	4296
242.179	4742
242.244	4789
242.308	5284
242.372	5830
242.436	7460
242.501	5856
242.565	4757
242.629	4340
242.693	4757
242.757	3757
242.822	4672
242.886	5687
242.950	5456
243.014	6308
243.078	6042
243.142	6904
243.206	4648
243.271	6782
243.335	5403
243.399	9301
243.463	27657
243.527	82811
243.591	29120
243.655	12794
243.719	6819
243.783	8666
243.847	11406
243.911	17244
243.975	20150
244.040	15824
244.104	9828
244.168	5882
244.232	8947
244.296	14792
244.360	14582
244.424	9898
244.488	8276
244.552	8390
244.615	3855
244.679	5468
244.743	6088
244.807	8177
244.871	5346
244.935	5038
244.999	3030
245.063	6393
245.127	6305
245.191	10004
245.255	10751
245.319	8573
245.383	7515
245.446	7464
245.510	5105
245.574	6404
245.638	5328
245.702	5886
245.766	15713
245.829	10437
245.893	6677
245.957	6390
246.021	6338
246.085	7854
246.149	10025
246.212	20780
246.276	31751
246.340	15358
246.404	10678
246.467	11477
246.531	15514
246.595	11632
246.659	9247
246.722	8944
246.786	11616
246.850	12079
246.913	14889
246.977	7879
247.041	6767
247.104	8723
247.168	7464
247.232	19695
247.295	42212
247.359	23567
247.423	9450
247.486	18357
247.550	11250
247.614	9872
247.677	11968
247.741	9371
247.804	6457
247.868	9060
247.932	16055
247.995	40794
248.059	16379
248.122	8036
248.186	10705
248.249	18432
248.313	60450
248.376	68517
248.440	44399
248.503	18044
248.567	13926
248.630	19170
248.694	26358
248.757	33287
248.821	68188
248.884	44449
248.948	36558
249.011	53756
249.075	78432
249.138	72255
249.202	28724
249.265	19184
249.328	25845
249.392	17757
249.455	14212
249.519	11341
249.582	12598
249.645	21493
249.709	16849
249.772	11466
249.835	10994
249.899	14214
249.962	10370
250.025	9797
250.089	23161
250.152	37195
250.215	17857
250.279	13603
250.342	12888
250.405	12602
250.468	9988
250.532	15731
250.595	22107
250.658	70238
250.721	128049
250.785	48097
250.848	26245
250.911	16406
250.974	14166
251.038	18911
251.101	41167
251.164	23978
251.227	22658
251.290	21057
251.354	26779
251.417	98793
251.480	110034
251.543	69719
251.606	182917
251.669	152112
251.732	58406
251.795	57811
251.859	57808
251.922	119579
251.985	78504
252.048	29742
252.111	22501
252.174	21808
252.237	35966
252.300	82379
252.363	80734
252.426	160578
252.489	74892
252.552	41002
252.615	27608
252.678	28092
252.741	59312
252.804	73543
252.867	159968
252.930	105110
252.993	58179
253.056	34532
253.119	26944
253.182	21284
253.245	30951
253.308	26431
253.371	25726
253.434	25080
253.497	22341
253.559	38880
253.622	29931
253.685	35848
253.748	39937
253.811	19162
253.874	24770
253.937	25472
254.000	16727
254.062	26758
254.125	43079
254.188	37225
254.251	34515
254.314	17586
254.376	29227
254.439	34776
254.502	29727
254.565	28561
254.628	49662
254.690	33739
254.753	18495
254.816	16395
254.878	17039
254.941	29886
255.004	33506
255.067	15249
255.129	15690
255.192	10147
255.255	7785
255.317	11031
255.380	7668
255.443	6418
255.505	6082
255.568	6982
255.631	7164
255.693	8189
255.756	6071
255.819	6615
255.881	5388
255.944	6562
256.006	5549
256.069	5588
256.132	5593
256.194	9183
256.257	28087
256.319	22337
256.382	19504
256.444	10882
256.507	7771
256.569	6991
256.632	6691
256.694	14439
256.757	22020
256.819	64445
256.882	28696
256.944	14010
257.007	11663
257.069	14637
257.132	10400
257.194	8341
257.257	6894
257.319	8323
257.381	7147
257.444	19046
257.506	68916
257.569	90958
257.631	66008
257.693	34496
257.756	16244
257.818	16141
257.880	9631
257.943	8775
258.005	6870
258.067	7540
258.130	7040
258.192	9702
258.254	22282
258.317	14896
258.379	8541
258.441	22123
258.503	22699
258.566	30784
258.628	46082
258.690	11889
258.753	10911
258.815	19282
258.877	11540
258.939	7969
259.001	6573
259.064	6846
259.126	9777
259.188	16001
259.250	9712
259.312	13221
259.375	37254
259.437	26875
259.499	9278
259.561	8378
259.623	8767
259.685	8154
259.747	9202
259.809	27903
259.872	59912
259.934	79327
259.996	77358
260.058	23216
260.120	10938
260.182	8560
260.244	6350
260.306	7384
260.368	7114
260.430	7502
260.492	14689
260.554	34564
260.616	31367
260.678	39988
260.740	63718
260.802	17983
260.864	11222
260.926	10092
260.988	9743
261.050	10230
261.112	20317
261.174	57818
261.236	52613
261.298	17003
261.359	25640
261.421	43352
261.483	12462
261.545	10228
261.607	6195
261.669	7918
261.731	15497
261.793	43754
261.854	18716
261.916	12236
261.978	9034
262.040	12667
262.102	8909
262.164	17508
262.225	15681
262.287	8340
262.349	19677
262.411	19308
262.472	8638
262.534	17431
262.596	43334
262.658	14590
262.719	8281
262.781	11445
262.843	37824
262.904	19962
262.966	10966
263.028	14680
263.090	55532
263.151	157065
263.213	53775
263.275	28711
263.336	13509
263.398	10305
263.459	6990
263.521	8004
263.583	18655
263.644	15531
263.706	7130
263.767	5331
263.829	4083
263.891	4878
263.952	4163
264.014	3648
264.075	8273
264.137	22291
264.198	11747
264.260	5329
264.321	4786
264.383	14216
264.444	35643
264.506	12813
264.567	7424
264.629	11757
264.690	27501
264.752	12148
264.813	7060
264.875	5721
264.936	5821
264.998	4465
265.059	3989
265.120	5866
265.182	7809
265.243	29480
265.305	33187
265.366	10523
265.427	5104
265.489	6440
265.550	3314
265.611	6668
265.673	6378
265.734	6365
265.795	4353
265.857	4509
265.918	4661
265.979	9626
266.040	47675
266.102	46942
266.163	14310
266.224	13830
266.286	8186
266.347	6097
266.408	5571
266.469	8155
266.530	5233
266.592	5255
266.653	11048
266.714	22416
266.775	8051
266.836	6259
266.898	4356
266.959	8634
267.020	7199
267.081	5699
267.142	4240
267.203	4245
267.264	3905
267.326	6391
267.387	4339
267.448	4721
267.509	4361
267.570	5295
267.631	3567
267.692	3639
267.753	4044
267.814	5019
267.875	9113
267.936	26530
267.997	12218
268.058	11073
268.119	5969
268.180	7065
268.241	4545
268.302	4809
268.363	3955
268.424	5915
268.485	5019
268.546	5288
268.607	3033
268.668	3803
268.729	3347
268.790	4976
268.851	5691
268.912	15356
268.972	20601
269.033	11956
269.094	5118
269.155	4268
269.216	3415
269.277	6366
269.338	4198
269.398	5612
269.459	6316
269.520	9391
269.581	11767
269.642	14658
269.702	9917
269.763	7072
269.824	5075
269.885	7195
269.945	13249
270.006	6048
270.067	3726
270.128	5559
270.188	4473
270.249	4589
270.310	3548
270.370	4663
270.431	4359
270.492	3885
270.553	5074
270.613	13456
270.674	24029
270.734	12833
270.795	6097
270.856	10017
270.916	9268
270.977	6392
271.038	6653
271.098	8699
271.159	11312
271.219	14102
271.280	5198
271.340	5635
271.401	6886
271.462	23326
271.522	13794
271.583	7239
271.643	7124
271.704	7420
271.764	8195
271.825	18773
271.885	56788
271.946	83859
272.006	28595
272.066	34557
272.127	64716
272.187	22696
272.248	12142
272.308	12367
272.369	38593
272.429	26909
272.489	18841
272.550	21351
272.610	19452
272.671	17745
272.731	15277
272.791	30464
272.852	14612
272.912	12665
272.972	7105
273.033	7876
273.093	14115
273.153	13691
273.214	8445
273.274	10052
273.334	29187
273.394	65413
273.455	29042
273.515	24625
273.575	55300
273.635	26267
273.696	30678
273.756	62605
273.816	28461
273.876	16658
273.936	34146
273.997	70520
274.057	19331
274.117	13538
274.177	18316
274.237	71554
274.297	71092
274.358	55846
274.418	49119
274.478	41054
274.538	17406
274.598	15895
274.658	53199
274.718	76586
274.778	29903
274.838	15954
274.898	29840
274.958	102799
275.018	70358
275.078	46093
275.138	20069
275.198	12030
275.258	10070
275.318	12477
275.378	20806
275.438	23706
275.498	15243
275.558	38529
275.618	84445
275.678	50944
275.738	27672
275.798	23354
275.858	12595
275.918	7912
275.978	9390
276.038	9898
276.098	7863
276.157	15537
276.217	44355
276.277	23586
276.337	15287
276.397	9743
276.457	10317
276.517	8332
276.576	6848
276.636	6566
276.696	11661
276.756	28030
276.815	22597
276.875	11377
276.935	12248
276.995	11159
277.055	6448
277.114	7581
277.174	9818
277.234	34352
277.293	17845
277.353	11015
277.413	6192
277.472	8857
277.532	8636
277.592	10355
277.651	27515
277.711	63026
277.771	22014
277.830	64813
277.890	62706
277.950	38215
278.009	106984
278.069	44340
278.128	38184
278.188	63750
278.248	27577
278.307	62082
278.367	45636
278.426	16295
278.486	10728
278.545	9546
278.605	7559
278.664	8253
278.724	9017
278.783	21148
278.843	60544
278.902	21289
278.962	11839
279.021	15028
279.081	20264
279.140	21670
279.199	14863
279.259	14203
279.318	14948
279.378	20892
279.437	36392
279.496	115802
279.556	314894
279.615	293418
279.675	85043
279.734	48076
279.793	64985
279.853	99678
279.912	39881
279.971	22419
280.031	20422
280.090	32855
280.149	64192
280.208	53166
280.268	206426
280.327	252066
280.386	66148
280.445	42993
280.505	40804
280.564	22261
280.623	16877
280.682	21097
280.742	34110
280.801	14374
280.860	9995
280.919	9768
280.978	7784
281.037	9336
281.097	7064
281.156	8201
281.215	6926
281.274	10114
281.333	34691
281.392	33832
281.451	9320
281.510	7424
281.569	6912
281.628	6634
281.688	5833
281.747	8091
281.806	7967
281.865	6617
281.924	5181
281.983	6971
282.042	4690
282.101	4913
282.160	4791
282.219	4176
282.278	5617
282.337	22425
282.396	17863
282.454	7973
282.513	9191
282.572	33208
282.631	22257
282.690	8318
282.749	5829
282.808	9555
282.867	8303
282.926	9408
282.985	5104
283.043	4929
283.102	4952
283.161	7942
283.220	16419
283.279	39932
283.338	13806
283.396	8980
283.455	7343
283.514	8224
283.573	12837
283.631	10676
283.690	6508
283.749	6260
283.808	14225
283.866	20581
283.925	6901
283.984	7407
284.043	9658
284.101	13496
284.160	7336
284.219	12441
284.277	10004
284.336	14408
284.395	43485
284.453	43202
284.512	15029
284.570	20390
284.629	17027
284.688	16225
284.746	16714
284.805	20594
284.863	23398
284.922	31675
284.981	34655
285.039	49323
285.098	82992
285.156	183045
285.215	328478
285.273	326954
285.332	214660
285.390	115491
285.449	69946
285.507	49733
285.566	36433
285.624	28154
285.683	20829
285.741	17768
285.799	14372
285.858	14569
285.916	13086
285.975	11396
286.033	8715
286.091	7941
286.150	7182
286.208	8159
286.267	10120
286.325	9427
286.383	14216
286.442	12274
286.500	6458
286.558	6902
286.616	5940
286.675	8979
286.733	7809
286.791	8245
286.850	7621
286.908	11482
286.966	20913
287.024	10429
287.083	6517
287.141	5686
287.199	5909
287.257	11716
287.315	7623
287.374	8801
287.432	18803
287.490	14140
287.548	8788
287.606	7431
287.664	6486
287.723	10330
287.781	13976
287.839	8384
287.897	8669
287.955	11259
288.013	17702
288.071	39919
288.129	130181
288.187	378475
288.245	188413
288.303	59094
288.361	33672
288.419	27111
288.477	19457
288.535	13805
288.593	10304
288.651	8434
288.709	6166
288.767	7855
288.825	6272
288.883	5868
288.941	4513
288.999	5610
289.057	5094
289.115	5724
289.173	5382
289.231	5989
289.289	6719
289.346	6498
289.404	6139
289.462	11915
289.520	12923
289.578	7617
289.636	3368
289.694	4468
289.751	3898
289.809	3989
289.867	4822
289.925	6021
289.983	8314
290.040	4713
290.098	3149
290.156	6276
290.214	7475
290.271	4726
290.329	3539
290.387	3541
290.444	2931
290.502	3913
290.560	2962
290.617	4920
290.675	3711
290.733	4296
290.790	5402
290.848	4390
290.906	4718
290.963	5783
291.021	4626
291.078	5417
291.136	5873
291.194	16257
291.251	40346
291.309	12959
291.366	5435
291.424	6186
291.481	6349
291.539	6113
291.596	5068
291.654	3950
291.711	2686
291.769	5940
291.826	12180
291.884	9179
291.941	4797
291.999	5440
292.056	5633
292.114	7565
292.171	3873
292.228	5385
292.286	6813
292.343	14189
292.401	17807
292.458	11973
292.515	7038
292.573	8840
292.630	8093
292.687	9610
292.745	6507
292.802	9674
292.859	23429
292.917	41151
292.974	26484
293.031	10582
293.089	6581
293.146	5585
293.203	5432
293.260	5430
293.318	7869
293.375	12302
293.432	6304
293.489	5480
293.546	5403
293.604	9650
293.661	24451
293.718	64172
293.775	35392
293.832	17757
293.889	12901
293.947	17018
294.004	11686
294.061	11829
294.118	18524
294.175	38442
294.232	46251
294.289	20767
294.346	10243
294.403	9707
294.460	9011
294.517	8963
294.574	5801
294.631	6420
294.688	8185
294.745	19921
294.802	66096
294.859	78406
294.916	34750
294.973	24055
295.030	16361
295.087	14038
295.144	9010
295.201	8288
295.258	7412
295.315	10150
295.372	24713
295.429	53860
295.486	24799
295.542	14839
295.599	26374
295.656	53000
295.713	35169
295.770	50048
295.827	20969
295.883	11149
295.940	10305
295.997	17502
296.054	17491
296.111	9787
296.167	6076
296.224	5641
296.281	5376
296.338	4976
296.394	5540
296.451	9011
296.508	20039
296.564	44586
296.621	29624
296.678	49998
296.734	81858
296.791	33230
296.848	16397
296.904	17989
296.961	35435
297.018	55660
297.074	44656
297.131	17834
297.187	13316
297.244	18575
297.301	48355
297.357	97922
297.414	36789
297.470	16078
297.527	10456
297.583	9878
297.640	9896
297.696	7673
297.753	5936
297.809	6004
297.866	4446
297.922	5801
297.979	5485
298.035	6778
298.092	10902
298.148	30309
298.204	33272
298.261	17921
298.317	23766
298.374	66877
298.430	44397
298.486	21911
298.543	16824
298.599	14302
298.656	13275
298.712	21923
298.768	52963
298.824	42401
298.881	14667
298.937	10293
298.993	7861
299.050	11448
299.106	9002
299.162	8097
299.218	7886
299.275	7378
299.331	8482
299.387	16120
299.443	54557
299.500	66809
299.556	26480
299.612	14313
299.668	12173
299.724	15321
299.780	16234
299.837	11531
299.893	16125
299.949	48015
300.005	64226
300.061	49700
300.117	82605
300.173	45820
300.229	20729
300.285	24127
300.341	28476
300.397	16000
300.453	9815
300.510	8520
300.566	9532
300.622	12222
300.678	26410
300.734	55301
300.790	49121
300.845	62838
300.901	39089
300.957	52871
301.013	44880
301.069	18942
301.125	13513
301.181	15235
301.237	11574
301.293	7967
301.349	6627
301.405	6600
301.461	5728
301.516	8180
301.572	8239
301.628	16913
301.684	16423
301.740	21644
301.796	35829
301.851	25145
301.907	38867
301.963	44623
302.019	58892
302.074	156114
302.130	166333
302.186	75038
302.242	30317
302.297	20867
302.353	20609
302.409	34697
302.464	33909
302.520	27002
302.576	57983
302.631	72902
302.687	42642
302.743	19591
302.798	11472
302.854	9495
302.910	8956
302.965	12229
303.021	21469
303.076	21712
303.132	24804
303.187	32148
303.243	17016
303.299	8847
303.354	7015
303.410	8370
303.465	6468
303.521	7168
303.576	6742
303.632	10236
303.687	16837
303.743	49213
303.798	47851
303.853	19443
303.909	11929
303.964	10952
304.020	14171
304.075	25341
304.130	19518
304.186	36625
304.241	38561
304.297	31932
304.352	17346
304.358	16656
304.407	11057
304.449	11102
304.463	11118
304.518	11273
304.539	10852
304.573	10159
304.629	10648
304.630	10731
304.684	15428
304.720	30668
304.739	38092
304.794	62783
304.811	54296
304.850	33540
304.902	15988
304.905	14899
304.960	10430
304.992	9532
305.015	8944
305.071	10071
305.083	9832
305.126	8790
305.173	7293
305.181	7099
305.236	6040
305.264	6783
305.292	7568
305.347	9603
305.354	9788
305.402	10748
305.445	10842
305.457	10920
305.512	13120
305.535	13455
305.567	13837
305.622	15566
305.626	15839
305.678	25806
305.716	49068
305.733	56441
305.788	71171
305.807	61927
305.843	47476
305.897	55203
305.898	55208
305.953	59262
305.988	40321
306.008	30610
306.063	19532
306.078	17661
306.118	13526
306.168	10098
306.173	9843
306.228	7591
306.259	7484
306.283	7590
306.338	6719
306.349	7057
306.393	8334
306.440	8845
306.448	9040
306.503	11494
306.530	12424
306.558	17280
306.613	36751
306.620	39820
306.668	57015
306.711	68180
306.723	67650
306.778	54292
306.801	41478
306.833	28194
306.888	14415
306.892	13905
306.943	11143
306.982	9364
306.997	8973
307.052	9722
307.072	9686
307.107	11067
307.162	15923
307.163	15991
307.217	25949
307.253	32106
307.272	32664
307.327	34016
307.343	31324
307.381	26020
307.434	21800
307.436	22508
307.491	46157
307.524	67340
307.546	70184
307.600	65446
307.614	58036
307.655	35816
307.704	18455
307.710	18238
307.765	23311
307.795	29335
307.819	35327
307.874	56483
307.885	57539
307.929	44739
307.975	25171
307.984	24264
308.038	29066
308.065	33981
308.093	59682
308.148	122008
308.156	135982
308.202	203655
308.246	256428
308.257	251658
308.312	141379
308.336	101360
308.366	78601
308.421	55021
308.426	52339
308.475	33501
308.517	22917
308.530	21366
308.585	18497
308.607	17759
308.639	19464
308.694	23936
308.697	24301
308.748	50059
308.787	76237
308.803	74455
308.857	55312
308.877	44480
308.912	35616
308.967	29660
308.967	29596
309.021	40232
309.058	49397
309.076	62195
309.130	108280
309.148	125238
309.185	209978
309.238	346250
309.239	347213
309.293	377239
309.328	351223
309.348	304555
309.402	148448
309.418	109524
309.457	78990
309.508	51263
309.511	50960
309.566	53569
309.598	57060
309.620	72130
309.674	115084
309.688	126660
309.729	116974
309.778	92480
309.783	90308
309.837	61926
309.868	47788
309.892	58849
309.946	89546
309.959	98553
310.001	123790
310.049	147910
310.055	142663
310.109	82549
310.139	48533
310.163	39523
310.218	25236
310.229	22843
310.272	19323
310.319	15647
310.326	15347
310.381	14134
310.409	13535
310.435	13215
310.489	12434
310.499	12384
310.543	13589
310.589	14483
310.598	14458
310.652	14783
310.679	14559
310.706	12946
310.760	9665
310.769	9169
310.814	8154
310.859	7255
310.868	7506
310.923	8814
310.948	9488
310.977	11176
311.031	14366
311.038	14834
311.085	13755
311.128	12145
311.139	11994
311.193	11315
311.218	10941
311.247	10390
311.301	9380
311.308	9227
311.356	10005
311.398	10886
311.410	10698
311.464	9445
311.488	8928
311.518	9371
311.572	10053
311.578	10138
311.626	15294
311.668	19712
311.680	19626
311.734	18838
311.758	18454
311.788	18372
311.842	18184
311.847	18114
311.896	23422
311.937	28069
311.950	27539
312.004	24823
312.027	23525
312.058	19960
312.112	13546
312.117	12878
312.165	11936
312.207	11091
312.297	18324
312.386	13699
312.476	15202
312.566	34314
312.656	14733
312.745	10370
312.835	11472
312.925	13538
313.015	14335
313.104	15061
313.194	9725
313.284	11670
313.374	16740
313.463	15167
313.553	10810
313.643	9331
313.732	8493
313.822	8207
313.912	11328
314.001	13577
314.091	14726
314.180	21799
314.270	18267
314.360	22498
314.449	17685
314.539	10811
314.628	9912
314.718	13573
314.808	18362
314.897	10792
314.987	11449
315.076	16574
315.166	22179
315.255	20412
315.345	19513
315.434	19409
315.524	17714
315.613	21180
315.703	26846
315.792	38582
315.881	112227
315.971	39963
316.060	40915
316.150	61072
316.239	62362
316.328	21221
316.418	11504
316.507	12475
316.597	18738
316.686	16645
316.775	28813
316.865	63987
316.954	14556
317.043	8943
317.133	11847
317.222	9938
317.311	11135
317.400	9961
317.490	18230
317.579	21278
317.668	16229
317.757	26251
317.847	60117
317.936	194192
318.025	78187
318.114	48068
318.203	29523
318.293	37763
318.382	72070
318.471	53310
318.560	67365
318.649	120246
318.738	26724
318.828	23220
318.917	24941
319.006	28673
319.095	70398
319.184	152873
319.273	87962
319.362	49213
319.451	18490
319.540	17674
319.629	41832
319.718	68726
319.807	30227
319.896	54586
319.985	180690
320.074	66668
320.163	22629
320.252	40025
320.341	29842
320.430	25994
320.519	37008
320.608	21247
320.697	16764
320.786	17742
320.875	23835
320.964	32440
321.053	49492
321.142	70707
321.230	70545
321.319	53092
321.408	126523
321.497	51067
321.586	51793
321.675	63987
321.764	57787
321.852	36183
321.941	72638
322.030	46392
322.119	51213
322.207	130580
322.296	91546
322.385	45570
322.474	51841
322.562	153480
322.651	74970
322.740	60333
322.829	86994
322.917	89147
323.006	47808
323.095	41751
323.183	30463
323.272	46033
323.361	79020
323.449	225091
323.538	75855
323.626	169853
323.715	98408
323.804	44821
323.892	157505
323.981	82064
324.069	28986
324.158	88135
324.246	75328
324.335	29446
324.424	46689
324.512	18521
324.601	27076
324.689	59549
324.778	108482
324.866	67632
324.954	19235
325.043	19794
325.131	41242
325.220	69302
325.308	80219
325.397	57227
325.485	33618
325.574	13458
325.662	12211
325.750	14669
325.839	12276
325.927	10579
326.015	17611
326.104	30263
326.192	39534
326.280	11615
326.369	12358
326.457	20512
326.545	37296
326.634	15601
326.722	9743
326.810	11467
326.898	10954
326.987	13851
327.075	36304
327.163	37852
327.251	21197
327.340	40468
327.428	56292
327.516	13048
327.604	13174
327.692	12666
327.781	16940
327.869	30777
327.957	18314
328.045	17502
328.133	10101
328.221	15029
328.309	12685
328.397	11053
328.485	15901
328.574	22544
328.662	78205
328.750	44144
328.838	18925
328.926	10749
329.014	10485
329.102	17665
329.190	46582
329.278	29065
329.366	8244
329.454	7140
329.542	8438
329.630	7311
329.718	9480
329.806	13012
329.893	12430
329.981	11073
330.069	12066
330.157	34434
330.245	97811
330.333	49527
330.421	14712
330.509	24872
330.597	94226
330.684	57900
330.772	21959
330.860	30611
330.948	38777
331.036	16859
331.123	7891
331.211	8967
331.299	13823
331.387	33479
331.475	57249
331.562	18994
331.650	9336
331.738	14111
331.825	20249
331.913	9082
332.001	8660
332.089	15985
332.176	35142
332.264	87682
332.352	62160
332.439	18918
332.527	13913
332.614	11911
332.702	17449
332.790	13666
332.877	40421
332.965	80093
333.052	21848
333.140	23581
333.228	54078
333.315	15751
333.403	15506
333.490	51192
333.578	42529
333.665	61729
333.753	26455
333.840	11925
333.928	17343
334.015	54243
334.103	69322
334.190	194139
334.278	48701
334.365	26211
334.452	19127
334.540	12574
334.627	18583
334.715	29070
334.802	58228
334.889	278775
334.977	239562
335.064	35919
335.151	17525
335.239	17358
335.326	25049
335.413	92947
335.501	116394
335.588	19746
335.675	14357
335.762	19837
335.850	33140
335.937	27163
336.024	71975
336.111	276861
336.199	111026
336.286	24210
336.373	12546
336.460	9482
336.547	11126
336.635	13954
336.722	12666
336.809	12479
336.896	22556
336.983	66086
337.070	147192
337.157	189527
337.245	177868
337.332	113999
337.419	17260
337.506	11860
337.593	16448
337.680	51000
337.767	140776
337.854	43629
337.941	52302
338.028	69218
338.115	23923
338.202	27308
338.289	53373
338.376	182811
338.463	53504
338.550	86769
338.637	83968
338.724	39652
338.811	59028
338.898	13583
338.984	10317
339.071	14520
339.158	18062
339.245	47218
339.332	28595
339.419	43835
339.506	37193
339.593	7875
339.679	10706
339.766	9390
339.853	15560
339.940	35255
340.027	11446
340.113	12827
340.200	18803
340.287	13337
340.374	16950
340.460	30793
340.547	13789
340.634	25289
340.720	89039
340.807	47714
340.894	9141
340.980	11231
341.067	10975
341.154	13088
341.240	20465
341.327	44992
341.414	15689
341.500	15727
341.587	11587
341.674	11198
341.760	31431
341.847	35822
341.933	11722
342.020	5648
342.106	6640
342.193	12686
342.279	24213
342.366	17787
342.452	31016
342.539	17008
342.625	42384
342.712	96874
342.798	39414
342.885	16333
342.971	5999
343.058	5938
343.144	8212
343.230	7430
343.317	9935
343.403	7507
343.490	6165
343.576	6284
343.662	9180
343.749	11672
343.835	15380
343.921	30332
344.008	150930
344.094	306683
344.180	68449
344.267	32398
344.353	99424
344.439	103900
344.525	45869
344.612	18309
344.698	15046
344.784	11192
344.870	7621
344.957	10007
345.043	17729
345.129	14256
345.215	29499
345.301	16714
345.387	10713
345.474	6000
345.560	7397
345.646	11504
345.732	9698
345.818	12743
345.904	12100
345.990	13680
346.076	15137
346.162	29813
346.249	12611
346.335	8660
346.421	10887
346.507	41492
346.593	128102
346.679	29704
346.765	11042
346.851	11446
346.937	10345
347.023	8898
347.108	11610
347.194	10644
347.280	9937
347.366	14408
347.452	43333
347.538	156386
347.624	115302
347.710	98613
347.796	17724
347.882	10737
347.967	9628
348.053	14128
348.139	9879
348.225	8070
348.311	10356
348.397	7332
348.482	12580
348.568	13966
348.654	7614
348.740	12025
348.825	12785
348.911	20061
348.997	76484
349.083	136780
349.168	25325
349.254	12383
349.340	11075
349.425	7474
349.511	14500
349.597	17247
349.682	33850
349.768	100166
349.854	42615
349.939	10481
350.025	8404
350.110	6703
350.196	7104
350.282	5834
350.367	7076
350.453	19381
350.538	18824
350.624	15142
350.709	13177
350.795	8476
350.880	8951
350.966	11172
351.051	20250
351.137	14222
351.222	11689
351.308	35072
351.393	89853
351.479	24081
351.564	9608
351.649	9479
351.735	7592
351.820	6858
351.906	8836
351.991	15107
352.076	60995
352.162	83395
352.247	17499
352.332	13806
352.418	27508
352.503	34029
352.588	136456
352.673	106097
352.759	25261
352.844	12368
352.929	14924
353.014	20522
353.100	14967
353.185	30485
353.270	40769
353.355	34981
353.441	11146
353.526	14201
353.611	32983
353.696	37321
353.781	21267
353.866	10168
353.952	12707
354.037	32464
354.122	73302
354.207	66514
354.292	22803
354.377	10475
354.462	9220
354.547	15330
354.632	13544
354.717	23523
354.802	35365
354.887	13076
354.972	7395
355.057	6756
355.142	6241
355.227	11221
355.312	20773
355.397	49307
355.482	117586
355.567	51418
355.652	40552
355.737	42194
355.822	115468
355.907	85888
355.991	15194
356.076	10270
356.161	8287
356.246	8050
356.331	10124
356.416	28302
356.501	169699
356.585	161080
356.670	27305
356.755	18631
356.840	31998
356.924	141642
357.009	428093
357.094	151389
357.179	40363
357.263	26273
357.348	25901
357.433	25282
357.517	23767
357.602	18381
357.687	14594
357.771	22669
357.856	34622
357.941	28815
358.025	98741
358.110	383699
358.195	167218
358.279	30714
358.364	24489
358.448	89035
358.533	226413
358.617	159851
358.702	155424
358.787	55312
358.871	36272
358.956	28466
359.040	9153
359.125	7947
359.209	8960
359.294	16986
359.378	24190
359.462	26669
359.547	17604
359.631	13071
359.716	7697
359.800	9796
359.885	17894
359.969	11976
360.053	9167
360.138	9716
360.222	17272
360.306	35070
360.391	24427
360.475	34523
360.559	74415
360.644	88476
360.728	62995
360.812	100413
360.896	245487
360.981	112818
361.065	64886
361.149	18014
361.233	18165
361.318	15054
361.402	17006
361.486	14404
361.570	10698
361.654	17197
361.739	45745
361.823	174826
361.907	235901
361.991	44821
362.075	32090
362.159	69704
362.243	45653
362.327	43766
362.411	51655
362.495	29026
362.580	15234
362.664	10975
362.748	10913
362.832	13328
362.916	22985
363.000	79234
363.084	229335
363.168	287225
363.252	71208
363.336	28914
363.420	39890
363.503	133136
363.587	139995
363.671	28529
363.755	23306
363.839	33727
363.923	16054
364.007	37610
364.091	41038
364.175	54869
364.258	198985
364.342	137272
364.426	162266
364.510	88963
364.594	45245
364.677	55057
364.761	220052
364.845	140810
364.929	60281
365.013	48667
365.096	41350
365.180	48436
365.264	57561
365.347	195681
365.431	81267
365.515	27048
365.598	15270
365.682	12509
365.766	26877
365.849	31403
365.933	18457
366.017	22928
366.100	16869
366.184	8923
366.267	10671
366.351	9607
366.435	8829
366.518	6784
366.602	6845
366.685	10354
366.769	11964
366.852	24208
366.936	43082
367.019	23366
367.103	18814
367.186	34012
367.270	11695
367.353	6684
367.436	10111
367.520	8479
367.603	14463
367.687	23468
367.770	41416
367.853	22462
367.937	71030
368.020	108013
368.104	28371
368.187	31531
368.270	43630
368.353	38562
368.437	58026
368.520	131022
368.603	73462
368.687	89488
368.770	149758
368.853	38497
368.936	41946
369.020	38959
369.103	14695
369.186	10213
369.269	12059
369.352	28491
369.436	41035
369.519	25182
369.602	13087
369.685	13630
369.768	15488
369.851	11862
369.934	8519
370.018	14142
370.101	35721
370.184	25724
370.267	18441
370.350	36139
370.433	53280
370.516	124459
370.599	149454
370.682	55596
370.765	94458
370.848	105740
370.931	182620
371.014	66966
371.097	16546
371.180	12141
371.263	6518
371.346	6650
371.429	8712
371.511	10006
371.594	23932
371.677	35194
371.760	38701
371.843	32787
371.926	148325
372.009	306812
372.091	95421
372.174	76067
372.257	159894
372.340	60341
372.423	56831
372.505	60863
372.588	27203
372.671	63561
372.754	184578
372.836	85667
372.919	68928
373.002	124362
373.085	41178
373.167	34095
373.250	85423
373.332	166015
373.415	219126
373.498	419763
373.580	155029
373.663	231678
373.746	276797
373.828	65706
373.911	31992
373.993	36021
374.076	126026
374.159	110241
374.241	56160
374.324	162134
374.406	101236
374.489	132129
374.571	343445
374.654	135833
374.736	72685
374.819	214523
374.901	306191
374.983	290610
375.066	52531
375.148	25766
375.231	99521
375.313	178913
375.395	69738
375.478	18239
375.560	13374
375.643	19796
375.725	72638
375.807	278603
375.890	222852
375.972	114602
376.054	65481
376.136	105589
376.219	42641
376.301	84318
376.383	229259
376.465	83642
376.548	66258
376.630	76027
376.712	201640
376.794	83864
376.877	12012
376.959	9500
377.041	13079
377.123	30011
377.205	32494
377.287	8353
377.369	8385
377.452	9931
377.534	9407
377.616	9964
377.698	10442
377.780	7765
377.862	10656
377.944	10968
378.026	6453
378.108	7724
378.190	7396
378.272	7612
378.354	5222
378.436	6447
378.518	18846
378.600	64147
378.682	53447
378.764	116049
378.846	81923
378.928	27454
379.010	38698
379.091	19789
379.173	9576
379.255	9660
379.337	16348
379.419	56682
379.501	154909
379.583	59059
379.664	19230
379.746	45223
379.828	116162
379.910	152323
379.991	122478
380.073	22310
380.155	16040
380.237	12716
380.318	9166
380.400	11140
380.482	28352
380.564	43776
380.645	46200
380.727	41148
380.809	22185
380.890	15967
380.972	12688
381.053	12781
381.135	14951
381.217	42471
381.298	120293
381.380	55852
381.461	49944
381.543	208931
381.624	231723
381.706	44190
381.787	26899
381.869	29163
381.951	93761
382.032	329739
382.113	193736
382.195	49229
382.276	34876
382.358	76881
382.439	184578
382.521	199291
382.602	294275
382.684	137992
382.765	272372
382.846	300685
382.928	454258
383.009	237664
383.090	165202
383.172	607392
383.253	852173
383.334	296905
383.416	287687
383.497	142399
383.578	75744
383.659	144357
383.741	514119
383.822	1193565
383.903	590043
383.984	229715
384.066	356517
384.147	212670
384.228	47617
384.309	38970
384.390	29570
384.471	22199
384.553	24465
384.634	35437
384.715	34066
384.796	19077
384.877	24985
384.958	103543
385.039	121831
385.120	44220
385.201	20957
385.282	26627
385.363	28081
385.444	24261
385.525	44566
385.606	144632
385.687	111332
385.768	31783
385.849	42978
385.930	161082
386.011	247174
386.092	64490
386.173	18856
386.254	16573
386.335	17231
386.416	20692
386.496	73757
386.577	112327
386.658	42204
386.739	27958
386.820	25672
386.901	21336
386.981	18066
387.062	13679
387.143	29439
387.224	112505
387.304	99139
387.385	36832
387.466	26493
387.547	32182
387.627	22622
387.708	44781
387.789	190931
387.869	214723
387.950	53920
388.031	12950
388.111	13911
388.192	38295
388.273	57584
388.353	31593
388.434	19164
388.514	39226
388.595	165045
388.676	209655
388.756	106270
388.837	109256
388.917	64155
388.998	15062
389.078	14054
389.159	12142
389.239	12510
389.320	23262
389.400	20472
389.480	44757
389.561	115081
389.641	51740
389.722	22939
389.802	38138
389.883	50272
389.963	128940
390.043	83590
390.124	30537
390.204	44975
390.284	130445
390.365	80186
390.445	96168
390.525	221048
390.605	178212
390.686	62768
390.766	22561
390.846	12896
390.927	10080
391.007	11960
391.087	14501
391.167	14950
391.247	11982
391.328	26081
391.408	35865
391.488	24334
391.568	10288
391.648	18380
391.728	25368
391.808	24020
391.888	27228
391.969	64131
392.049	100738
392.129	44347
392.209	52968
392.289	123289
392.369	66929
392.449	62734
392.529	39240
392.609	31698
392.689	42097
392.769	123991
392.849	101224
392.929	79062
393.009	182821
393.089	135806
393.169	127764
393.248	402342
393.328	1263992
393.408	1233867
393.488	369775
393.568	115682
393.648	57315
393.728	38011
393.807	28013
393.887	23417
393.967	20092
394.047	23103
394.127	26699
394.206	36040
394.286	117518
394.366	491409
394.446	474362
394.525	99653
394.605	30591
394.685	32191
394.764	80969
394.844	138568
394.924	91739
395.003	29719
395.083	20081
395.163	17677
395.242	17234
395.322	17056
395.402	11779
395.481	18768
395.561	57938
395.640	155930
395.720	115546
395.799	154598
395.879	107933
395.958	49248
396.038	163282
396.117	640058
396.197	635471
396.276	184589
396.356	74437
396.435	63503
396.515	44725
396.594	59363
396.673	115515
396.753	414272
396.832	1133978
396.912	817158
396.991	214924
397.070	63767
397.150	35791
397.229	26004
397.308	34467
397.388	53279
397.467	26387
397.546	14002
397.625	12702
397.705	19570
397.784	21017
397.863	11423
397.942	8624
398.022	11801
398.101	50176
398.180	137658
398.259	69541
398.338	21094
398.417	14947
398.497	10901
398.576	11990
398.655	8169
398.734	8167
398.813	9809
398.892	45966
398.971	145362
399.050	66169
399.129	10126
399.208	6808
399.287	7227
399.366	6024
399.445	7233
399.524	7818
399.603	8247
399.682	20425
399.761	53724
399.840	155906
399.919	106288
399.998	16307
400.077	6686
400.156	6190
400.235	10456
400.313	8315
400.392	13346
400.471	63941
400.550	96613
400.629	25678
400.708	12871
400.786	13031
400.865	36952
400.944	40095
401.023	17838
401.102	4511
401.180	5523
401.259	6924
401.338	9713
401.416	13845
401.495	12460
401.574	9922
401.652	8281
401.731	14708
401.810	14876
401.888	6855
401.967	4363
402.046	7260
402.124	12552
402.203	17446
402.281	9290
402.360	15213
402.438	46766
402.517	31783
402.596	11406
402.674	12165
402.753	6821
402.831	6738
402.910	10464
402.988	49401
403.066	160000
403.145	83445
403.223	50604
403.302	133202
403.380	95732
403.459	101109
403.537	38314
403.615	14477
403.694	4419
403.772	5281
403.850	5507
403.929	3748
404.007	6154
404.085	19878
404.164	25396
404.242	7996
404.320	9691
404.398	19010
404.477	57222
404.555	251233
404.633	197725
404.711	28885
404.789	10628
404.868	10950
404.946	6781
405.024	4391
405.102	4191
405.180	3550
405.258	3830
405.336	5718
405.415	7322
405.493	19314
405.571	18700
405.649	6100
405.727	6033
405.805	11878
405.883	12560
405.961	12589
406.039	14725
406.117	7197
406.195	14818
406.273	65713
406.351	223461
406.429	122144
406.507	22675
406.585	9072
406.663	9874
406.740	14270
406.818	12111
406.896	6732
406.974	8329
407.052	22430
407.130	137106
407.208	175301
407.285	32312
407.363	7503
407.441	7473
407.519	6593
407.596	9144
407.674	23709
407.752	59547
407.830	60622
407.907	29095
407.985	12179
408.063	5946
408.141	5309
408.218	13076
408.296	15218
408.373	11810
408.451	11304
408.529	9881
408.606	4931
408.684	4027
408.762	3638
408.839	2606
408.917	3327
408.994	4080
409.072	5024
409.149	5284
409.227	10462
409.304	12933
409.382	8813
409.459	9610
409.537	16229
409.614	13492
409.692	8959
409.769	10782
409.846	17043
409.924	22151
410.001	15963
410.079	10195
410.156	6773
410.233	7825
410.311	5508
410.388	6181
410.465	8952
410.543	9245
410.620	5459
410.697	8144
410.775	10363
410.852	5387
410.929	10823
411.006	14865
411.083	8908
411.161	22290
411.238	22881
411.315	12165
411.392	5716
411.469	11379
411.547	12426
411.624	6078
411.701	5798
411.778	8986
411.855	22411
411.932	10786
412.009	5306
412.086	5990
412.163	7432
412.240	9851
412.317	13093
412.394	10710
412.471	4089
412.548	3842
412.625	5524
412.702	8636
412.779	18184
412.856	10937
412.933	3295
413.010	4363
413.087	11925
413.164	62234
413.241	81048
413.318	20170
413.395	12102
413.471	20026
413.548	7994
413.625	5676
413.702	9287
413.779	7265
413.855	2531
413.932	2097
414.009	2400
414.086	3426
414.162	4225
414.239	11131
414.316	58837
414.393	125749
414.469	40131
414.546	5523
414.623	3050
414.699	3941
414.776	7799
414.853	3671
414.929	6490
415.006	5783
415.082	8199
415.159	6744
415.236	4307
415.312	5424
415.389	14502
415.465	20873
415.542	8574
415.618	6124
415.695	12972
415.771	8509
415.848	8545
415.924	7863
416.000	5602
416.077	5100
416.153	2311
416.230	1364
416.306	2122
416.383	4556
416.459	4639
416.535	1819
416.612	2694
416.688	3610
416.764	4059
416.841	3698
416.917	3849
416.993	4559
417.069	7463
417.146	9926
417.222	12661
417.298	7682
417.374	4854
417.451	6615
417.527	8988
417.603	10803
417.679	7606
417.755	5421
417.831	2869
417.908	2588
417.984	3495
418.060	3681
418.136	17394
418.212	23493
418.288	7717
418.364	4815
418.440	5293
418.516	10622
418.592	15766
418.668	29578
418.744	43326
418.820	28653
418.896	7269
418.972	3757
419.048	5639
419.124	19636
419.200	13669
419.276	4059
419.352	1976
419.428	3023
419.504	6047
419.579	9112
419.655	6361
419.731	7430
419.807	27983
419.883	50514
419.959	31231
420.034	8937
420.110	20561
420.186	79717
420.262	56238
420.337	11259
420.413	8959
420.489	4597
420.565	4772
420.640	4405
420.716	5705
420.792	3875
420.867	6065
420.943	5018
421.019	13353
421.094	10120
421.170	5189
421.245	3974
421.321	6199
421.397	6205
421.472	12214
421.548	30525
421.623	21994
421.699	10592
421.774	10338
421.850	9144
421.925	17902
422.001	15672
422.076	12107
422.152	15545
422.227	24480
422.302	27086
422.378	39113
422.453	70023
422.529	169997
422.604	447853
422.679	649003
422.755	448649
422.830	171882
422.905	68829
422.981	39090
423.056	25674
423.131	17991
423.207	14244
423.282	17514
423.357	30676
423.432	20640
423.508	21180
423.583	46153
423.658	30666
423.733	11592
423.808	14073
423.883	15861
423.959	12761
424.034	11185
424.109	9119
424.184	5184
424.259	4376
424.334	4103
424.409	3994
424.484	5058
424.559	6570
424.634	6068
424.709	10110
424.784	11677
424.859	7574
424.934	14563
425.009	59085
425.084	91489
425.159	31570
425.234	6938
425.309	3020
425.384	6237
425.459	8848
425.534	5448
425.609	5739
425.683	3943
425.758	3530
425.833	6272
425.908	8851
425.983	37381
426.058	97134
426.132	38971
426.207	9205
426.282	13889
426.357	12210
426.431	4836
426.506	4686
426.581	5920
426.655	5868
426.730	5224
426.805	5269
426.879	5440
426.954	6487
427.029	17352
427.103	89328
427.178	196581
427.253	76306
427.327	10232
427.402	11720
427.476	23206
427.551	10152
427.625	7302
427.700	7982
427.774	4795
427.849	6390
427.923	4800
427.998	4361
428.072	7126
428.147	16955
428.221	64453
428.296	159442
428.370	72485
428.444	14497
428.519	18573
428.593	36849
428.667	28546
428.742	35522
428.816	34967
428.890	110424
428.965	146085
429.039	50127
429.113	40387
429.188	15330
429.262	5557
429.336	15680
429.410	46482
429.485	28164
429.559	30637
429.633	23374
429.707	7925
429.781	25209
429.855	130733
429.930	181886
430.004	103645
430.078	154454
430.152	126384
430.226	196564
430.300	173918
430.374	29323
430.448	14307
430.522	51384
430.596	140814
430.670	81680
430.744	194794
430.818	257359
430.892	52725
430.966	11303
431.040	6411
431.114	3717
431.188	4066
431.262	5220
431.336	5050
431.410	17886
431.484	48274
431.557	28587
431.631	5967
431.705	6505
431.779	30685
431.853	131439
431.927	83217
432.000	10441
432.074	5376
432.148	8234
432.222	7118
432.295	3429
432.369	5003
432.443	12875
432.516	81690
432.590	187095
432.664	63749
432.737	10254
432.811	3652
432.885	1987
432.958	3038
433.032	2776
433.106	2283
433.179	1717
433.253	1170
433.326	2801
433.400	1201
433.473	2694
433.547	1739
433.620	3416
433.694	11008
433.767	10359
433.841	4822
433.914	2185
433.988	1506
434.061	3551
434.134	2742
434.208	1394
434.281	1429
434.355	2224
434.428	2436
434.501	2384
434.575	1609
434.648	3776
434.721	2487
434.795	1407
434.868	1885
434.941	856
435.014	1193
435.088	2330
435.161	5405
435.234	11071
435.307	14145
435.381	6640
435.454	6285
435.527	9197
435.600	8366
435.673	6487
435.746	3542
435.819	2420
435.892	3111
435.966	1770
436.039	2393
436.112	2783
436.185	2270
436.258	1404
436.331	1100
436.404	1536
436.477	1364
436.550	969
436.623	1313
436.696	1591
436.769	2942
436.842	3458
436.915	4080
436.987	7899
437.060	3417
437.133	1338
437.206	587
437.279	2010
437.352	1544
437.425	1694
437.498	4197
437.570	11972
437.643	10700
437.716	2844
437.789	2403
437.861	10181
437.934	29272
438.007	11900
438.080	3131
438.152	4695
438.225	14170
438.298	101509
438.370	248924
438.443	95837
438.516	26060
438.588	5605
438.661	2456
438.734	2352
438.806	4645
438.879	5705
438.951	8459
439.024	14549
439.096	5466
439.169	2056
439.241	1631
439.314	3029
439.386	6444
439.459	12115
439.531	18821
439.604	6685
439.676	2195
439.749	1753
439.821	2087
439.893	1420
439.966	2662
440.038	5051
440.110	5738
440.183	3167
440.255	2520
440.327	7430
440.400	46621
440.472	173391
440.544	100086
440.617	13748
440.689	10698
440.761	16145
440.833	23889
440.905	14235
440.978	2869
441.050	1778
441.122	2167
441.194	2129
441.266	2515
441.338	2034
441.411	9843
441.483	61097
441.555	83574
441.627	17290
441.699	10739
441.771	11105
441.843	4958
441.915	1970
441.987	1911
442.059	1999
442.131	5237
442.203	8665
442.275	11750
442.347	8333
442.419	13008
442.491	67957
442.563	160011
442.635	67855
442.706	48225
442.778	33550
442.850	6930
442.922	4023
442.994	6781
443.066	10958
443.137	8073
443.209	6067
443.281	9763
443.353	23511
443.425	86901
443.496	287629
443.568	262725
443.640	92561
443.711	19978
443.783	8870
443.855	5704
443.926	2788
443.998	4720
444.070	6955
444.141	7063
444.213	11527
444.285	14285
444.356	13377
444.428	10696
444.499	4248
444.571	2872
444.642	2460
444.714	5075
444.785	10954
444.857	13572
444.928	31150
445.000	17091
445.071	22552
445.143	25207
445.214	15560
445.285	25696
445.357	70407
445.428	196698
445.500	413748
445.571	261303
445.642	133467
445.714	60314
445.785	51665
445.856	17537
445.928	16484
445.999	12858
446.070	9465
446.141	10930
446.213	14722
446.284	7190
446.355	7754
446.426	4577
446.497	6111
446.569	10222
446.640	17408
446.711	13168
446.782	4833
446.853	9101
446.924	8660
446.995	6039
447.066	5600
447.138	11285
447.209	6103
447.280	1493
447.351	1658
447.422	1779
447.493	4988
447.564	7042
447.635	12116
447.706	4141
447.777	1630
447.847	992
447.918	1806
447.989	5938
448.060	8503
448.131	21921
448.202	18457
448.273	13396
448.344	5161
448.414	3904
448.485	3434
448.556	2241
448.627	1401
448.698	1980
448.768	1002
448.839	3130
448.910	10331
448.981	8883
449.051	4745
449.122	1951
449.193	1427
449.263	2268
449.334	2800
449.405	5453
449.475	15529
449.546	9653
449.616	12307
449.687	9636
449.758	2585
449.828	2600
449.899	2740
449.969	1882
450.040	2294
450.110	4571
450.181	5841
450.251	2743
450.322	2027
450.392	2014
450.463	2691
450.533	1462
450.604	2247
450.674	2147
450.744	2966
450.815	1792
450.885	2609
450.955	2197
451.026	2077
451.096	2542
451.166	4664
451.237	14994
451.307	33304
451.377	12182
451.447	2444
451.518	2158
451.588	2982
451.658	3062
451.728	8689
451.799	35724
451.869	36292
451.939	7666
452.009	2334
452.079	1738
452.149	3387
452.219	9755
452.289	42580
452.360	27658
452.430	5868
452.500	6286
452.570	7025
452.640	11328
452.710	33601
452.780	45622
452.850	33458
452.920	29629
452.990	9226
453.060	6559
453.129	8972
453.199	12669
453.269	47267
453.339	88143
453.409	129060
453.479	139662
453.549	201244
453.619	210791
453.688	76677
453.758	13422
453.828	5174
453.898	4076
453.968	3761
454.037	2553
454.087	2938
454.107	3087
454.168	2100
454.177	1942
454.247	2152
454.249	2171
454.316	2362
454.330	2872
454.386	4688
454.411	10671
454.456	20532
454.492	24491
454.525	28083
454.574	14140
454.595	8116
454.655	3916
454.665	3276
454.734	4978
454.736	5191
454.804	11651
454.817	16637
454.873	36738
454.898	38697
454.943	41880
454.979	28525
455.013	16630
455.060	9289
455.082	6288
455.141	7525
455.152	7569
455.221	26112
455.222	26402
455.291	45243
455.303	41435
455.360	23830
455.384	25118
455.430	26736
455.465	24419
455.499	22051
455.546	29389
455.569	32463
455.627	22133
455.638	20410
455.707	4796
455.708	4802
455.777	3843
455.789	3762
455.846	3183
455.869	2924
455.916	2399
455.950	3124
455.985	3740
456.031	3935
456.054	4028
456.112	3212
456.124	3088
456.193	2607
456.193	2586
456.262	3523
456.274	3938
456.332	5877
456.355	6972
456.401	8331
456.436	6490
456.470	4860
456.516	3270
456.540	2565
456.597	2912
456.609	2936
456.678	2471
456.678	2456
456.747	2508
456.759	2427
456.817	2036
456.840	2059
456.886	2173
456.920	2321
456.955	2445
457.001	2787
457.024	3197
457.082	5128
457.093	5496
457.162	8111
457.163	8150
457.232	10814
457.243	9976
457.301	5625
457.324	4270
457.370	2205
457.405	2654
457.439	3300
457.485	3259
457.508	3219
457.566	4020
457.577	4196
457.646	4599
457.647	4630
457.715	8586
457.727	9456
457.784	14257
457.808	18610
457.853	24467
457.889	27778
457.922	28119
457.969	18980
457.991	18288
458.050	23021
458.060	23708
458.129	40744
458.130	41153
458.198	42108
458.211	37603
458.267	20229
458.292	14387
458.336	8807
458.372	8417
458.405	11366
458.453	17056
458.474	21022
458.533	38668
458.543	40192
458.611	67950
458.614	68095
458.680	43717
458.694	35069
458.749	16045
458.775	11965
458.818	7251
458.855	5949
458.887	5091
458.936	5054
458.955	4914
459.016	4357
459.024	4395
459.093	5084
459.097	5131
459.162	5401
459.177	5529
459.230	6269
459.257	7023
459.299	7715
459.338	7456
459.368	7507
459.418	8201
459.437	7887
459.499	6291
459.505	6256
459.574	5369
459.579	5378
459.643	5363
459.659	5096
459.711	4444
459.740	4752
459.780	5414
459.820	5858
459.849	5817
459.900	5880
459.917	5892
459.981	5848
459.986	5840
460.054	5256
460.061	5197
460.123	5356
460.141	5693
460.191	7057
460.222	7688
460.260	8211
460.302	10017
460.328	9885
460.382	7164
460.397	6941
460.462	5620
460.465	5681
460.534	8870
460.543	9288
460.602	24497
460.623	30458
460.671	45297
460.703	61081
460.739	59032
460.783	48339
460.808	41155
460.864	11186
460.876	8486
460.944	6311
460.945	6282
461.013	5793
461.024	5761
461.081	6071
461.104	6413
461.150	6254
461.184	6091
461.218	6272
461.264	5828
461.286	5687
461.345	5785
461.355	5776
461.423	5753
461.425	5750
461.491	5845
461.505	6006
461.559	10983
461.585	13411
461.628	20755
461.665	28928
461.696	32725
461.745	44322
461.764	41813
461.825	15816
461.832	14848
461.901	7856
461.905	7821
461.969	6824
461.985	6452
462.037	6470
462.065	6748
462.105	7415
462.145	8097
462.173	10761
462.225	16095
462.241	17751
462.305	27907
462.310	27447
462.378	18074
462.385	16206
462.446	9302
462.465	8158
462.514	6739
462.545	6476
462.582	6485
462.625	6406
462.650	6306
462.705	6330
462.718	6426
462.785	6862
462.786	6915
462.854	9932
462.865	10591
462.922	13366
462.945	14657
462.990	12515
463.025	9077
463.058	7532
463.104	5742
463.126	5433
463.184	5945
463.194	6004
463.262	5651
463.264	5667
463.330	7214
463.344	7451
463.398	8276
463.424	8582
463.466	7967
463.504	7660
463.533	7926
463.583	8110
463.601	8399
463.663	9288
463.669	9474
463.737	11895
463.743	12170
463.805	19022
463.823	20904
463.873	29274
463.903	35089
463.940	37805
463.982	42409
464.008	36188
464.062	16370
464.076	14769
464.142	7208
464.144	7132
464.211	6947
464.221	7059
464.279	7175
464.301	7185
464.347	8029
464.381	8735
464.414	9194
464.461	9846
464.482	10353
464.540	12037
464.550	11811
464.617	9300
464.620	9198
464.685	9411
464.699	9602
464.753	11661
464.779	12671
464.820	13361
464.859	13876
464.888	13782
464.938	13549
464.956	13706
465.018	14353
465.023	14134
465.091	10870
465.098	10502
465.158	9852
465.177	9703
465.226	10393
465.257	10753
465.293	11103
465.336	11714
465.361	12675
465.416	14714
465.428	15730
465.495	21577
465.496	21684
465.563	33879
465.575	36158
465.631	43657
465.654	47204
465.698	30902
465.734	15132
465.765	12728
465.813	9447
465.833	9198
465.893	9920
465.900	9918
465.968	9606
465.972	9574
466.035	9574
466.052	9600
466.102	10361
466.131	10706
466.170	10105
466.210	9493
466.237	9842
466.290	10452
466.304	10686
466.369	11614
466.372	11639
466.439	11965
466.449	11973
466.506	13350
466.528	13899
466.573	19654
466.607	23868
466.641	35230
466.687	51136
466.708	55893
466.766	69588
466.775	64368
466.842	23685
466.845	21716
466.909	15948
466.925	14785
466.977	13783
467.004	13333
467.044	13443
467.083	13555
467.111	14809
467.163	17102
467.178	17445
467.242	18746
467.245	18699
467.312	17130
467.321	16897
467.379	17563
467.400	17758
467.446	18106
467.480	18305
467.559	16918
467.638	15274
467.717	15332
467.796	17972
467.875	19177
467.955	18149
468.034	26799
468.113	60023
468.192	85226
468.271	24084
468.350	16797
468.429	19218
468.508	21305
468.588	17064
468.667	15485
468.746	15656
468.825	15579
468.904	12711
468.983	15934
469.062	24367
469.141	30056
469.220	13739
469.299	13662
469.378	14244
469.456	17665
469.535	15297
469.614	15071
469.693	15658
469.772	21015
469.851	27493
469.930	20249
470.009	14676
470.088	14740
470.166	18891
470.245	26417
470.324	31818
470.403	21063
470.482	15652
470.560	13605
470.639	16377
470.718	18794
470.797	14563
470.875	17937
470.954	23868
471.033	26283
471.111	12101
471.190	11600
471.269	10266
471.347	11785
471.426	12636
471.505	14378
471.583	15405
471.662	14429
471.740	13306
471.819	12667
471.898	12395
471.976	13023
472.055	12527
472.133	14490
472.212	19582
472.290	19993
472.369	13335
472.447	12260
472.526	11055
472.604	12576
472.683	13493
472.761	14862
472.839	14061
472.918	12152
472.996	12756
473.075	14038
473.153	14325
473.231	12300
473.310	14269
473.388	14733
473.466	13573
473.545	16206
473.623	20411
473.701	19799
473.780	13809
473.858	11591
473.936	16144
474.014	13546
474.093	15088
474.171	21068
474.249	28773
474.327	19513
474.405	10368
474.484	12039
474.562	11442
474.640	12411
474.718	11673
474.796	12901
474.874	11892
474.952	10898
475.030	11274
475.108	11456
475.187	12300
475.265	15587
475.343	22453
475.421	26288
475.499	12494
475.577	13310
475.655	16492
475.733	33247
475.811	56760
475.889	51246
475.966	35124
476.044	13109
476.122	18171
476.200	24038
476.278	18846
476.356	11945
476.434	13629
476.512	17507
476.590	22664
476.667	19531
476.745	12504
476.823	12968
476.901	12625
476.979	12939
477.056	12962
477.134	12948
477.212	13818
477.290	12905
477.367	9943
477.445	10639
477.523	10353
477.601	11750
477.678	11334
477.756	14319
477.834	15442
477.911	11530
477.989	12358
478.066	11968
478.144	13324
478.222	17055
478.299	28726
478.377	26706
478.454	10616
478.532	11164
478.609	11931
478.687	13489
478.764	10291
478.842	11697
478.919	13090
478.997	13081
479.074	9528
479.152	13537
479.229	16267
479.307	12133
479.384	9872
479.461	9168
479.539	10707
479.616	13932
479.694	10814
479.771	12772
479.848	13059
479.926	17031
480.003	19539
480.080	10906
480.157	10090
480.235	9852
480.312	11132
480.389	13025
480.467	19906
480.544	24880
480.621	13948
480.698	13698
480.775	14926
480.853	14573
480.930	12625
481.007	13039
481.084	14062
481.161	15535
481.238	14683
481.315	10650
481.392	10081
481.470	10877
481.547	11786
481.624	10673
481.701	11618
481.778	12361
481.855	11798
481.932	20055
482.009	32719
482.086	23839
482.163	12931
482.240	21206
482.317	36990
482.393	28892
482.470	12825
482.547	13303
482.624	10826
482.701	12577
482.778	11980
482.855	10288
482.932	9781
483.009	10066
483.085	12483
483.162	14676
483.239	14269
483.316	11842
483.393	11938
483.469	11933
483.546	12542
483.623	13857
483.699	10473
483.776	11523
483.853	13849
483.930	19209
484.006	49716
484.083	80953
484.160	40422
484.236	49825
484.313	38757
484.389	29254
484.466	26874
484.543	25318
484.619	26311
484.696	29434
484.772	30068
484.849	31295
484.925	25980
485.002	24793
485.078	26325
485.155	26926
485.231	23737
485.308	23847
485.384	24135
485.461	29759
485.537	49579
485.614	60176
485.690	25864
485.766	22414
485.843	25326
485.919	35491
485.995	38531
486.072	22400
486.148	20704
486.224	21325
486.301	22392
486.377	26990
486.453	26465
486.530	26038
486.606	30881
486.682	33793
486.758	44739
486.835	51310
486.911	40119
486.987	64128
487.063	74058
487.139	89664
487.215	61837
487.292	31271
487.368	25904
487.444	29571
487.520	36011
487.596	35103
487.672	51036
487.748	140710
487.824	204296
487.900	67024
487.976	28507
488.052	28560
488.128	34125
488.204	27800
488.280	24116
488.356	27768
488.432	59370
488.508	89555
488.584	33745
488.660	23373
488.736	22101
488.812	23725
488.888	30188
488.964	39007
489.039	84623
489.115	134010
489.191	78353
489.267	24801
489.343	21640
489.418	19015
489.494	18260
489.570	16876
489.646	19922
489.722	19490
489.797	19578
489.873	30641
489.949	64795
490.024	56973
490.100	18353
490.176	18083
490.251	24306
490.327	30231
490.403	19079
490.478	16718
490.554	15208
490.629	15090
490.705	15457
490.781	17522
490.856	16957
490.932	19958
491.007	20313
491.083	20286
491.158	17122
491.234	23668
491.309	49956
491.385	52246
491.460	18741
491.536	19719
491.611	16586
491.686	21371
491.762	26449
491.837	56018
491.913	92348
491.988	130892
492.063	165415
492.139	44826
492.214	26604
492.289	15365
492.365	13926
492.440	17744
492.515	18000
492.590	17133
492.666	13664
492.741	19451
492.816	30025
492.891	17509
492.967	15143
493.042	13026
493.117	12964
493.192	14325
493.267	20425
493.342	49948
493.418	64391
493.493	17438
493.568	12518
493.643	12797
493.718	17126
493.793	27518
493.868	30715
493.943	19246
494.018	14205
494.093	12506
494.168	13200
494.243	12259
494.318	12121
494.393	11671
494.468	11111
494.543	11491
494.618	14475
494.693	12359
494.768	11824
494.842	12496
494.917	11648
494.992	13072
495.067	11729
495.142	11479
495.217	12355
495.292	13340
495.366	15381
495.441	21042
495.516	25271
495.591	34732
495.665	122682
495.740	285761
495.815	120881
495.890	21416
495.964	15604
496.039	17959
496.114	16195
496.188	18424
496.263	18687
496.338	15976
496.412	18158
496.487	21375
496.561	22610
496.636	22180
496.710	16812
496.785	19705
496.860	21878
496.934	16443
497.009	18125
497.083	15819
497.158	15822
497.232	20291
497.307	26067
497.381	20254
497.455	24156
497.530	31210
497.604	22626
497.679	22790
497.753	36206
497.827	47890
497.902	41499
497.976	46769
498.050	110527
498.125	448072
498.199	475183
498.273	73092
498.348	45970
498.422	36371
498.496	34005
498.570	30895
498.645	23997
498.719	23569
498.793	29914
498.867	45752
498.941	59607
499.016	178072
499.090	487390
499.164	190847
499.238	22707
499.312	19752
499.386	24531
499.460	22152
499.534	21516
499.609	26943
499.683	37448
499.757	37663
499.831	76785
499.905	320219
499.979	315697
500.053	50666
500.127	47428
500.201	34975
500.275	23659
500.349	21942
500.422	25852
500.496	37919
500.570	75593
500.644	183088
500.718	337003
500.792	85062
500.866	21172
500.940	26808
501.013	23855
501.087	23019
501.161	41689
501.235	51054
501.309	101193
501.382	288931
501.456	265511
501.530	59769
501.603	93829
501.677	40885
501.751	16658
501.825	21348
501.898	38940
501.972	115708
502.046	77454
502.119	22780
502.193	51404
502.266	124680
502.340	65751
502.413	54019
502.487	108903
502.561	64029
502.634	22722
502.708	17035
502.781	15190
502.855	13347
502.928	11977
503.002	12656
503.075	11672
503.149	13348
503.222	14389
503.295	16522
503.369	18916
503.442	24887
503.516	82980
503.589	216788
503.662	144663
503.736	45570
503.809	98027
503.882	85056
503.956	116620
504.029	116099
504.102	90850
504.175	118224
504.249	40662
504.322	21964
504.395	19816
504.468	14011
504.542	13211
504.615	11586
504.688	10528
504.761	9365
504.834	14118
504.907	16916
504.980	28133
505.053	15586
505.127	17491
505.200	22106
505.273	19167
505.346	13172
505.419	10350
505.492	10965
505.565	8329
505.638	9212
505.711	8839
505.784	8372
505.857	8784
505.930	10936
506.003	8825
506.076	12497
506.149	14090
506.221	18216
506.294	17676
506.367	43438
506.440	153017
506.513	90096
506.586	20501
506.659	12342
506.731	10442
506.804	12367
506.877	19564
506.950	13771
507.022	10859
507.095	12332
507.168	18088
507.241	12592
507.313	8667
507.386	11245
507.459	17547
507.531	11499
507.604	8262
507.677	9327
507.749	7567
507.822	13409
507.894	24528
507.967	27686
508.040	15094
508.112	13772
508.185	13066
508.257	12031
508.330	19611
508.402	12972
508.475	11531
508.547	13481
508.620	13567
508.692	21536
508.765	14950
508.837	9751
508.909	10090
508.982	9797
509.054	12308
509.127	10690
509.199	9026
509.271	8952
509.344	8735
509.416	9545
509.488	9016
509.560	10715
509.633	10708
509.705	13326
509.777	11605
509.849	17785
509.922	12194
509.994	10388
510.066	9545
510.138	9988
510.210	20650
510.283	18129
510.355	15640
510.427	14556
510.499	14263
510.571	14187
510.643	12274
510.715	22162
510.787	18996
510.859	14420
510.931	16520
511.003	21665
511.076	20375
511.148	10914
511.219	12000
511.291	20090
511.363	23651
511.435	11883
511.507	9397
511.579	11603
511.651	11505
511.723	11030
511.795	11063
511.867	10476
511.939	13913
512.010	29214
512.082	24487
512.154	12853
512.226	11859
512.298	17289
512.369	25046
512.441	20362
512.513	21253
512.585	14553
512.656	16296
512.728	17268
512.800	12892
512.871	13363
512.943	13758
513.015	10557
513.086	13262
513.158	15152
513.230	14461
513.301	22453
513.373	27691
513.444	15313
513.516	11916
513.588	12645
513.659	14934
513.731	18560
513.802	15566
513.874	34248
513.945	62268
514.016	21359
514.088	12953
514.159	13925
514.231	20237
514.302	23705
514.374	17628
514.445	16229
514.516	33989
514.588	25447
514.659	16572
514.730	31240
514.802	26057
514.873	15199
514.944	16400
515.016	15052
515.087	18308
515.158	23266
515.229	31508
515.301	17040
515.372	18760
515.443	12770
515.514	12273
515.585	10451
515.656	12828
515.728	12275
515.799	11059
515.870	13728
515.941	13876
516.012	13188
516.083	18129
516.154	21393
516.225	29870
516.296	26779
516.367	23857
516.438	27049
516.509	34685
516.580	47321
516.651	146520
516.722	536946
516.793	257017
516.864	52212
516.935	50057
517.006	52984
517.077	69238
517.148	151579
517.219	573883
517.289	926196
517.360	256711
517.431	83876
517.502	25234
517.573	24139
517.643	22342
517.714	24965
517.785	26495
517.856	28120
517.926	35809
517.997	42597
518.068	51817
518.138	68074
518.209	95152
518.280	368073
518.350	1381479
518.421	562824
518.492	64654
518.562	36855
518.633	34137
518.703	32894
518.774	54244
518.845	137396
518.915	141523
518.986	45945
519.056	33887
519.127	54454
519.197	81061
519.268	179473
519.338	118237
519.408	30784
519.479	37649
519.549	27948
519.620	20040
519.690	14357
519.760	14644
519.831	16206
519.901	16550
519.971	12824
520.042	14870
520.112	17662
520.182	19676
520.253	22768
520.323	14058
520.393	15475
520.463	22360
520.534	15155
520.604	27580
520.674	19651
520.744	20153
520.814	31454
520.885	33502
520.955	53427
521.025	201399
521.095	88977
521.165	18635
521.235	15614
521.305	13349
521.375	12792
521.445	15052
521.515	20066
521.585	23593
521.655	21832
521.725	18721
521.795	17216
521.865	11525
521.935	21013
522.005	18151
522.075	11727
522.145	14254
522.215	15209
522.285	22391
522.355	29598
522.424	55960
522.494	47612
522.564	24392
522.634	48177
522.704	140589
522.774	59141
522.843	15645
522.913	15161
522.983	20049
523.053	15761
523.122	15582
523.192	20798
523.262	76090
523.331	75913
523.401	17590
523.471	12458
523.540	12830
523.610	10040
523.680	10074
523.749	11262
523.819	13937
523.888	14730
523.958	9998
524.027	12533
524.097	13149
524.166	12241
524.236	13566
524.305	15109
524.375	11037
524.444	10638
524.514	13977
524.583	12104
524.653	15378
524.722	17347
524.791	11636
524.861	12601
524.930	10497
524.999	13038
525.069	18060
525.138	15046
525.207	16573
525.277	13868
525.346	12556
525.415	13018
525.484	13595
525.554	15398
525.623	16132
525.692	15699
525.761	16878
525.830	18080
525.900	21131
525.969	31280
526.038	47817
526.107	88677
526.176	268107
526.245	226440
526.314	74809
526.383	138367
526.452	189301
526.522	308304
526.591	329274
526.660	101489
526.729	53228
526.797	52990
526.867	101225
526.935	430607
527.004	750712
527.073	414318
527.142	42145
527.211	21152
527.280	19637
527.349	20196
527.418	10993
527.487	12362
527.555	10430
527.624	10290
527.693	8310
527.762	12027
527.831	9069
527.899	11162
527.968	10812
528.037	9639
528.106	13970
528.174	24936
528.243	20381
528.312	28792
528.380	38729
528.449	13725
528.518	10891
528.586	6577
528.655	9767
528.723	8632
528.792	8228
528.861	10331
528.929	9102
528.998	8937
529.066	7109
529.135	8773
529.203	8753
529.272	8357
529.340	10350
529.409	11128
529.477	8334
529.545	12036
529.614	15433
529.682	13534
529.751	17845
529.819	17628
529.887	13568
529.956	10192
530.024	11350
530.092	9524
530.161	12125
530.229	20299
530.297	12094
530.365	11558
530.434	9413
530.502	9301
530.570	9995
530.638	8681
530.707	10729
530.775	11960
530.843	9622
530.911	9883
530.979	9718
531.047	9236
531.115	11572
531.183	10064
531.252	10898
531.320	9315
531.388	8787
531.456	11809
531.524	8147
531.592	11088
531.660	13080
531.728	9987
531.796	9615
531.864	11305
531.932	11201
532.000	10127
532.067	11732
532.135	13026
532.203	15833
532.271	14393
532.339	23410
532.407	64586
532.475	39579
532.542	20426
532.610	21596
532.678	25714
532.746	104779
532.814	278369
532.881	76168
532.949	17965
533.017	14409
533.084	11805
533.152	11304
533.220	12110
533.287	12914
533.355	12077
533.423	11917
533.490	9338
533.558	10926
533.625	12417
533.693	12575
533.761	12675
533.828	12173
533.896	12207
533.963	23503
534.031	28526
534.098	39433
534.166	21389
534.233	11690
534.300	14295
534.368	13681
534.435	12474
534.503	13521
534.570	14087
534.637	15096
534.705	16785
534.772	19360
534.840	27063
534.907	119400
534.974	164608
535.041	25696
535.109	18208
535.176	12658
535.243	11709
535.310	13109
535.378	12046
535.445	11053
535.512	11569
535.579	12119
535.646	10614
535.714	11831
535.781	13886
535.848	13087
535.915	13710
535.982	12765
536.049	12954
536.116	14939
536.183	11420
536.250	12388
536.317	12881
536.384	15474
536.451	22598
536.518	25192
536.585	17748
536.652	21063
536.719	30913
536.786	25782
536.853	18512
536.920	27359
536.987	43240
537.053	38720
537.120	138491
537.187	127987
537.254	19313
537.321	14504
537.388	14669
537.454	12356
537.521	12467
537.588	11130
537.654	13987
537.721	15291
537.788	16404
537.855	13447
537.921	12748
537.988	12880
538.055	14136
538.121	13070
538.188	14163
538.254	20215
538.321	44139
538.388	28917
538.454	15226
538.521	14111
538.587	13328
538.654	12910
538.720	13273
538.787	13408
538.853	14230
538.920	17376
538.986	16785
539.053	14492
539.119	15899
539.185	15397
539.252	18464
539.318	27043
539.385	21319
539.451	18275
539.517	18597
539.583	20123
539.650	40893
539.716	107826
539.782	35929
539.849	16683
539.915	16211
539.981	15549
540.047	18909
540.114	17631
540.180	17406
540.246	16829
540.312	22732
540.378	42988
540.444	43321
540.510	42955
540.576	121169
540.643	43079
540.709	15670
540.775	14833
540.841	15110
540.907	18360
540.973	24746
541.039	25389
541.105	27370
541.171	17812
541.237	15466
541.303	17257
541.369	18661
541.435	23043
541.500	39386
541.566	26369
541.632	14151
541.698	13773
541.764	15001
541.830	13255
541.896	13990
541.961	14932
542.027	14457
542.093	14749
542.159	16221
542.224	15897
542.290	22835
542.356	36425
542.421	47375
542.487	21614
542.553	16102
542.618	17823
542.684	16439
542.750	15780
542.815	19297
542.881	29658
542.947	103755
543.012	82107
543.078	17118
543.143	14850
543.209	16484
543.274	15315
543.340	19217
543.405	39984
543.471	66678
543.536	20390
543.602	15719
543.667	14165
543.732	14804
543.798	12947
543.863	15136
543.928	13796
543.994	13385
544.059	14015
544.124	14195
544.190	13909
544.255	15114
544.320	15846
544.386	15889
544.451	22533
544.516	26516
544.581	23560
544.646	64561
544.712	106408
544.777	25035
544.842	19583
544.907	21295
544.972	18174
545.037	18149
545.102	20554
545.168	20046
545.233	21745
545.298	21903
545.363	23987
545.428	25574
545.493	42306
545.558	90207
545.623	42223
545.688	20791
545.753	19332
545.818	19764
545.883	20774
545.947	20822
546.012	21834
546.077	23310
546.142	21949
546.207	21823
546.272	29229
546.337	29889
546.401	24808
546.466	23804
546.531	22696
546.596	26218
546.661	25607
546.725	25701
546.790	23920
546.855	27407
546.919	26638
546.984	30146
547.049	32452
547.113	37921
547.178	36980
547.243	42383
547.307	46044
547.372	54314
547.436	56071
547.501	51630
547.565	56254
547.630	56109
547.695	54118
547.759	56446
547.823	52762
547.888	49615
547.952	50988
548.017	52734
548.081	57916
548.146	64961
548.210	60145
548.274	58360
548.339	57064
548.403	53074
548.468	48758
548.532	48477
548.596	50605
548.660	49553
548.725	56444
548.789	63554
548.853	62789
548.917	55268
548.982	61765
549.046	58968
549.110	45877
549.174	45730
549.238	51158
549.303	54933
549.367	58377
549.431	55224
549.495	52402
549.559	51875
549.623	61098
549.687	68434
549.751	75734
549.815	78665
549.879	78113
549.943	71363
550.007	76950
550.071	78705
550.135	77534
550.199	69853
550.263	66871
550.327	66192
550.391	72584
550.455	72051
550.519	73606
550.582	77709
550.646	95611
550.710	96350
550.774	84882
550.838	87612
550.901	89242
550.965	93426
551.029	97365
551.093	105474
551.156	114704
551.220	151295
551.284	178802
551.347	122075
551.411	136938
551.475	144718
551.538	96632
551.602	89227
551.666	84133
551.729	77104
551.793	77094
551.856	76310
551.920	73949
551.983	74087
552.047	72607
552.110	73648
552.174	74202
552.237	76235
552.301	72273
552.364	69226
552.428	68578
552.491	69970
552.554	72423
552.618	72636
552.681	74237
552.745	74857
552.808	92830
552.871	111626
552.934	83278
552.998	73339
553.061	72676
553.124	69848
553.187	67570
553.251	70537
553.314	71266
553.377	70111
553.440	78268
553.503	94689
553.567	109708
553.630	77878
553.693	76008
553.756	76588
553.819	73322
553.882	72169
553.945	71514
554.008	71230
554.071	71964
554.134	73062
554.197	69611
554.260	68435
554.323	70356
554.386	71125
554.449	72455
554.512	71534
554.575	68326
554.638	70855
554.701	67969
554.764	66477
554.827	66204
554.889	64347
554.952	59302
555.015	59182
555.078	60460
555.141	60766
555.203	59249
555.266	60353
555.329	59767
555.391	57206
555.454	57762
555.517	57532
555.580	53476
555.642	51425
555.705	51275
555.768	51792
555.830	49529
555.893	47384
555.955	47086
556.018	46646
556.080	47022
556.143	46377
556.206	47622
556.268	47858
556.330	48056
556.393	46046
556.455	45332
556.518	52270
556.580	53688
556.643	42031
556.705	40868
556.767	38981
556.830	41108
556.892	41391
556.955	53507
557.017	44755
557.079	38084
557.142	37146
557.204	40743
557.266	60337
557.328	53683
557.391	33985
557.453	32967
557.515	33187
557.577	37883
557.639	39136
557.701	33454
557.764	32324
557.826	34035
557.888	36418
557.950	36513
558.012	39099
558.074	45879
558.136	91929
558.198	219866
558.260	87785
558.322	42065
558.384	44245
558.446	48198
558.508	54281
558.570	64911
558.632	89803
558.694	121476
558.756	130328
558.818	384405
558.880	964768
558.942	307147
559.003	234043
559.065	121184
559.127	55037
559.189	54380
559.251	59302
559.312	76874
559.374	181430
559.436	625230
559.498	309296
559.559	61820
559.621	53496
559.683	58305
559.744	91179
559.806	292202
559.868	444270
559.929	92913
559.991	55161
560.052	77728
560.114	210371
560.176	135861
560.237	120136
560.299	201968
560.360	53920
560.422	29827
560.483	25952
560.545	25434
560.606	23984
560.667	23222
560.729	23468
560.790	22557
560.852	22824
560.913	21433
560.974	22166
561.036	21984
561.097	22329
561.158	22115
561.220	22609
561.281	23339
561.342	23305
561.403	26203
561.465	31644
561.526	65253
561.587	82536
561.648	29060
561.709	22087
561.771	21452
561.832	22008
561.893	21551
561.954	20917
562.015	21355
562.076	19898
562.137	22200
562.198	21722
562.259	21496
562.320	21163
562.381	23979
562.442	31994
562.503	26652
562.564	20997
562.625	20701
562.686	21202
562.747	22743
562.808	21501
562.869	21639
562.930	25397
562.991	23589
563.051	22986
563.112	21223
563.173	21472
563.234	19605
563.294	20559
563.355	20382
563.416	21081
563.477	19912
563.537	21423
563.598	21417
563.659	22153
563.720	20910
563.780	22480
563.841	21538
563.901	20954
563.962	20668
564.023	20724
564.083	21691
564.144	21744
564.204	20242
564.265	21052
564.325	24385
564.386	40361
564.446	37253
564.507	20403
564.567	20278
564.628	20612
564.688	20401
564.749	20256
564.809	22452
564.869	26103
564.930	20271
564.990	20811
565.050	18388
565.111	20161
565.171	18808
565.231	19538
565.292	19407
565.352	18894
565.412	20074
565.472	20296
565.532	20555
565.593	19703
565.653	19814
565.713	20647
565.773	21584
565.833	25314
565.893	29446
565.953	21941
566.013	20761
566.074	20930
566.134	26523
566.194	38488
566.254	39620
566.314	26859
566.374	20516
566.434	20618
566.494	20302
566.554	20504
566.614	20091
566.673	20622
566.733	20597
566.793	22389
566.853	22180
566.913	21977
566.973	21937
567.033	23584
567.092	23428
567.152	22820
567.212	22828
567.272	22675
567.331	23938
567.391	23498
567.451	24851
567.511	31737
567.570	31655
567.630	21712
567.690	20925
567.749	22644
567.809	22244
567.868	24512
567.928	26638
567.988	27836
568.047	28266
568.107	30056
568.166	36943
568.226	55796
568.285	75585
568.345	56222
568.404	43556
568.464	38023
568.523	36905
568.582	38345
568.642	41801
568.701	49060
568.761	72831
568.820	121373
568.879	106160
568.939	74293
568.998	50719
569.057	39389
569.116	33193
569.176	28457
569.235	25265
569.294	24078
569.353	23311
569.413	23830
569.472	22732
569.531	21060
569.590	19574
569.649	20353
569.708	19873
569.767	21622
569.827	24386
569.886	22349
569.945	19349
570.004	19417
570.063	20955
570.122	20792
570.181	22359
570.240	23276
570.299	24467
570.358	23533
570.417	19945
570.475	19204
570.534	21333
570.593	21155
570.652	21579
570.711	21883
570.770	21161
570.829	23019
570.887	21445
570.946	23347
571.005	19876
571.064	19804
571.122	22430
571.181	23772
571.240	18642
571.299	19427
571.357	19411
571.416	20119
571.475	22963
571.533	23799
571.592	19598
571.650	21368
571.709	18476
571.768	20125
571.826	18719
571.885	18046
571.943	17590
572.002	18692
572.060	19351
572.119	17680
572.177	17537
572.236	17832
572.294	17068
572.352	17741
572.411	16708
572.469	16752
572.528	16847
572.586	16571
572.644	19180
572.703	24035
572.761	18587
572.819	17396
572.877	16948
572.936	15687
572.994	15518
573.052	16065
573.110	18200
573.169	17036
573.227	15998
573.285	15563
573.343	16336
573.401	17108
573.459	16870
573.517	15483
573.576	16581
573.634	16828
573.692	16649
573.750	17292
573.808	15927
573.866	16687
573.924	21461
573.982	21144
574.040	16603
574.098	16204
574.155	15498
574.213	16146
574.271	15185
574.329	16945
574.387	15160
574.445	14000
574.503	15326
574.560	12999
574.618	14885
574.676	13954
574.734	14104
574.792	14519
574.849	13124
574.907	13224
574.965	14099
575.022	13651
575.080	13232
575.138	14172
575.195	14784
575.253	15139
575.311	16713
575.368	14173
575.426	12885
575.483	14847
575.541	13782
575.598	12839
575.656	14621
575.713	14765
575.771	14844
575.828	14927
575.886	14536
575.943	15604
576.001	15206
576.058	15432
576.115	16229
576.173	18580
576.230	20575
576.287	22663
576.345	18839
576.402	16629
576.459	15592
576.517	15435
576.574	17684
576.631	19125
576.688	16717
576.746	15264
576.803	14734
576.860	14910
576.917	15501
576.974	14903
577.031	15292
577.089	15832
577.146	15644
577.203	15726
577.260	16106
577.317	17016
577.374	18414
577.431	18206
577.488	15704
577.545	15424
577.602	13830
577.659	15394
577.716	14770
577.773	14786
577.830	15692
577.886	14729
577.943	13477
578.000	15156
578.057	15194
578.114	15281
578.171	14636
578.227	14179
578.284	13899
578.341	14289
578.398	15004
578.454	16430
578.511	17921
578.568	20066
578.625	17245
578.681	14868
578.738	13781
578.794	14048
578.851	14151
578.908	14226
578.964	15855
579.021	17068
579.077	15551
579.134	14753
579.190	14468
579.247	14660
579.303	14104
579.360	13964
579.416	13757
579.473	14783
579.529	14089
579.586	13471
579.642	14994
579.698	14563
579.755	15701
579.811	15150
579.867	14044
579.924	13749
579.980	14898
580.036	13893
580.093	13978
580.149	14947
580.205	14984
580.261	14591
580.317	15752
580.374	16854
580.430	18993
580.486	18733
580.542	15416
580.598	15556
580.619	15784
580.654	16187
580.692	15337
580.710	14925
580.765	15455
580.767	15478
580.823	16623
580.838	16535
580.879	16298
580.911	16089
580.935	15973
580.984	14917
580.991	14775
581.047	16118
581.057	15995
581.103	15437
581.130	15889
581.159	16366
581.203	16152
581.215	16112
581.270	16799
581.276	16736
581.326	16082
581.349	16512
581.382	17212
581.422	16869
581.438	16686
581.494	17859
581.494	17845
581.550	16521
581.567	17101
581.606	18252
581.640	17590
581.661	17155
581.713	17804
581.717	17872
581.773	16558
581.786	16640
581.829	16839
581.859	17580
581.885	18227
581.932	18080
581.940	18023
581.996	17924
582.004	17937
582.052	18068
582.077	17646
582.107	17259
582.150	17999
582.163	18141
582.219	17628
582.223	17665
582.274	18475
582.296	18672
582.330	18733
582.368	18652
582.386	18667
582.441	18789
582.441	18785
582.497	18282
582.514	18185
582.552	18060
582.587	18726
582.608	19124
582.659	18915
582.663	18882
582.719	18736
582.732	18580
582.774	18317
582.805	18987
582.830	19511
582.877	19717
582.885	19696
582.941	19680
582.950	19699
582.996	20114
583.023	20316
583.052	20615
583.095	20387
583.107	20293
583.162	21826
583.168	21732
583.218	20404
583.240	20185
583.273	20208
583.313	20514
583.328	20583
583.384	20335
583.385	20354
583.439	20754
583.458	20706
583.494	20671
583.531	20629
583.549	20665
583.603	20577
583.605	20575
583.660	21518
583.676	21279
583.715	20854
583.748	21142
583.770	21246
583.820	22398
583.825	22514
583.881	22293
583.893	22247
583.936	21974
583.965	21977
583.991	22086
584.038	21911
584.046	21900
584.101	22923
584.110	22860
584.156	22358
584.183	22787
584.211	23258
584.255	22406
584.266	22259
584.321	22926
584.328	22959
584.376	23406
584.400	23571
584.431	23682
584.472	22973
584.486	22754
584.541	24561
584.545	24550
584.596	24857
584.617	25122
584.651	25838
584.689	26884
584.706	27140
584.761	26345
584.762	26334
584.816	27432
584.834	27554
584.871	27814
584.906	28103
584.926	28307
584.978	28940
584.980	29010
585.035	30960
585.051	31404
585.090	32601
585.123	33439
585.145	33989
585.195	35218
585.200	35413
585.254	38369
585.267	38991
585.309	41108
585.340	43514
585.364	45438
585.412	47008
585.419	47407
585.473	52077
585.484	53441
585.528	62802
585.556	71636
585.583	92009
585.628	139315
585.637	157659
585.692	313413
585.700	339559
585.747	417199
585.772	356971
585.801	223738
585.845	85473
585.856	71929
585.910	51352
585.917	49215
585.965	45023
585.989	42943
586.019	41928
586.061	41049
586.074	40992
586.128	42011
586.133	42143
586.183	45021
586.205	45452
586.237	45520
586.277	45399
586.292	45170
586.346	43794
586.349	43684
586.401	43988
586.421	44270
586.455	46231
586.493	49380
586.509	53652
586.564	67838
586.565	68263
586.618	98591
586.637	102892
586.672	84204
586.709	62725
586.727	58200
586.781	52907
586.781	52983
586.835	49356
586.853	48517
586.889	47588
586.925	46675
586.944	47017
586.996	48721
586.998	48856
587.052	50361
587.068	50699
587.106	51460
587.140	51819
587.161	52201
587.212	52796
587.215	53014
587.269	55690
587.284	56248
587.323	56753
587.356	57237
587.377	57986
587.427	59711
587.431	59973
587.485	61381
587.499	61750
587.539	63959
587.571	65334
587.593	66395
587.643	68677
587.648	69117
587.702	72376
587.715	73242
587.755	76942
587.786	79120
587.810	80188
587.858	81032
587.864	81732
587.917	89262
587.930	90688
587.971	97158
588.001	101533
588.025	104186
588.073	108457
588.079	109567
588.133	118796
588.145	120790
588.187	132917
588.217	141136
588.241	149425
588.288	165909
588.295	168829
588.348	191985
588.360	196772
588.402	220413
588.431	237117
588.456	255583
588.503	291918
588.510	298953
588.564	354237
588.575	365799
588.617	432596
588.646	480597
588.671	549265
588.718	688070
588.725	729457
588.778	1064393
588.789	1137693
588.832	1643482
588.861	2008617
588.886	2301359
588.932	2817461
588.939	2823431
588.993	2657618
589.004	2626338
589.047	2395153
589.075	2154573
589.100	1788780
589.147	1127801
589.154	1086822
589.207	801901
589.218	746323
589.261	693033
589.290	662732
589.314	694929
589.361	765860
589.368	805359
589.421	1142331
589.433	1218477
589.475	1778910
589.504	2188951
589.528	2379652
589.576	2639948
589.582	2599106
589.635	2108399
589.647	1979747
589.689	1313654
589.718	865009
589.742	719064
589.790	455505
589.795	444866
589.849	347131
589.861	325287
589.902	293605
589.932	267881
589.955	243964
590.004	192216
590.009	190397
590.062	168276
590.075	162518
590.115	151610
590.146	142551
590.168	139411
590.218	132043
590.222	131952
590.275	125653
590.289	123748
590.328	120352
590.360	116763
590.381	114843
590.431	109318
590.435	109461
590.488	106549
590.503	105501
590.541	104759
590.574	103435
590.594	102259
590.645	98287
590.647	98526
590.700	96851
590.716	96006
590.753	93855
590.787	91437
590.806	91887
590.859	92330
590.859	92577
590.912	89715
590.930	88572
590.965	89133
591.001	89069
591.018	89183
591.071	88725
591.072	88436
591.124	88511
591.143	88193
591.177	88912
591.214	89067
591.230	90065
591.283	92697
591.285	92487
591.336	94148
591.356	94537
591.389	93995
591.427	92204
591.442	91009
591.495	85734
591.498	85063
591.547	85372
591.569	85144
591.600	85398
591.640	85014
591.653	85301
591.706	85289
591.711	85012
591.759	89316
591.782	91104
591.811	94662
591.853	99043
591.864	97386
591.917	87039
591.924	85264
591.969	87143
591.995	87837
592.022	88988
592.066	89972
592.075	91615
592.127	99884
592.137	101099
592.180	107172
592.208	110365
592.233	104078
592.279	91017
592.285	91114
592.338	89431
592.350	88738
592.390	87700
592.421	86426
592.443	87391
592.491	88492
592.495	88824
592.548	89131
592.562	88906
592.600	88939
592.633	88389
592.653	88298
592.704	86771
592.705	87302
592.775	88778
592.846	90445
592.916	92909
592.987	95747
593.058	92111
593.128	88225
593.199	88417
593.270	85920
593.341	86997
593.411	89046
593.482	91210
593.553	89922
593.623	88208
593.694	90964
593.764	96302
593.835	90681
593.906	88871
593.976	90858
594.047	94675
594.117	106607
594.188	105654
594.258	91758
594.329	91922
594.399	91999
594.470	92016
594.540	93602
594.611	94312
594.681	93369
594.751	95752
594.822	101026
594.892	103886
594.963	105224
595.033	106412
595.103	108526
595.174	115638
595.244	145079
595.314	163784
595.384	111568
595.455	109583
595.525	112103
595.595	115246
595.665	115981
595.736	113928
595.806	114150
595.876	113467
595.946	113030
596.016	114912
596.087	119663
596.157	119903
596.227	117190
596.297	126676
596.367	131439
596.437	141061
596.507	162339
596.577	178222
596.647	139927
596.717	137100
596.787	141826
596.857	139160
596.927	139411
596.997	138244
597.067	140562
597.137	143668
597.207	144309
597.277	144265
597.347	141981
597.417	138140
597.487	139857
597.557	142590
597.626	146759
597.696	153077
597.766	164097
597.836	182369
597.906	141095
597.975	131997
598.045	132268
598.115	136399
598.185	142723
598.254	158315
598.324	167105
598.394	168767
598.464	168978
598.533	162124
598.603	149399
598.672	151003
598.742	149908
598.812	149695
598.881	151184
598.951	152361
599.020	151599
599.090	155535
599.159	157998
599.229	153150
599.299	148796
599.368	154542
599.437	149485
599.507	144074
599.576	142768
599.646	140540
599.715	139627
599.785	140753
599.854	141725
599.924	146754
599.993	139302
600.062	138395
600.132	142241
600.201	149459
600.270	168929
600.340	170030
600.409	163924
600.478	163739
600.547	167687
600.617	157763
600.686	137446
600.755	130885
600.824	128200
600.894	125408
600.963	121114
601.032	117896
601.101	118477
601.170	115715
601.239	117046
601.308	122609
601.378	118612
601.447	114757
601.516	115466
601.585	122052
601.654	131306
601.723	121749
601.792	122485
601.861	126049
601.930	133302
601.999	139276
602.068	132930
602.137	143795
602.206	139634
602.275	134728
602.343	146544
602.412	146418
602.481	133490
602.550	133674
602.619	137092
602.688	138481
602.756	138455
602.825	135758
602.894	139372
602.963	140531
603.032	143164
603.100	141958
603.169	140398
603.238	144207
603.307	141006
603.375	141865
603.444	145694
603.513	145293
603.581	146874
603.650	150191
603.719	141789
603.787	143730
603.856	146874
603.924	153558
603.993	155117
604.061	156650
604.130	163953
604.198	166543
604.267	167268
604.335	169066
604.404	170286
604.472	172662
604.541	174895
604.609	176688
604.678	177738
604.746	179175
604.815	184195
604.883	183645
604.951	181136
605.020	186371
605.088	187138
605.156	187881
605.225	189359
605.293	189620
605.361	192354
605.429	191355
605.498	197256
605.566	201774
605.634	208060
605.702	212504
605.771	218127
605.839	219021
605.907	212858
605.975	208706
606.043	202888
606.111	202690
606.180	204243
606.248	200676
606.316	202058
606.384	206841
606.452	214442
606.520	225072
606.588	207944
606.656	200991
606.724	199137
606.792	187756
606.860	170074
606.928	156242
606.996	153211
607.064	149882
607.132	154238
607.200	163900
607.267	167208
607.335	171257
607.403	171021
607.471	168577
607.539	163328
607.607	163798
607.674	147398
607.742	151498
607.810	152099
607.878	149896
607.946	151189
608.013	156912
608.081	162264
608.149	159811
608.216	162494
608.284	167078
608.352	166504
608.419	171621
608.487	187522
608.555	167944
608.622	165035
608.690	174861
608.757	190335
608.825	193559
608.893	191744
608.960	192111
609.028	193168
609.095	201009
609.163	176178
609.230	157258
609.298	148220
609.365	151908
609.432	163132
609.500	177385
609.567	201695
609.635	226104
609.702	236165
609.769	226496
609.837	185132
609.904	160045
609.971	159593
610.039	177262
610.106	227735
610.173	416025
610.241	876982
610.308	470104
610.375	211408
610.442	168974
610.509	159642
610.577	159897
610.644	163886
610.711	167422
610.778	172350
610.845	179020
610.912	186995
610.980	195019
611.047	195428
611.114	194298
611.181	186207
611.248	182545
611.315	192747
611.382	195996
611.449	202078
611.516	207098
611.583	204455
611.650	207432
611.717	210291
611.784	213303
611.851	222784
611.918	243830
611.984	275865
612.051	390599
612.118	767785
612.185	1784790
612.252	982864
612.319	305358
612.386	261190
612.452	243877
612.519	241153
612.586	257705
612.653	243531
612.719	241211
612.786	229440
612.853	213753
612.919	210262
612.986	213579
613.053	200252
613.120	190606
613.186	185660
613.253	187024
613.319	186921
613.386	189585
613.453	193633
613.519	202919
613.586	215176
613.652	246481
613.719	222644
613.785	212271
613.852	193881
613.918	191471
613.985	193112
614.051	204309
614.118	212685
614.184	202752
614.250	190766
614.317	192964
614.383	191164
614.449	194465
614.516	193628
614.582	198254
614.648	191320
614.715	190690
614.781	188794
614.847	195449
614.914	193678
614.980	187478
615.046	185308
615.112	191250
615.179	188990
615.245	193463
615.311	198889
615.377	218695
615.443	220678
615.509	203556
615.575	204475
615.642	201608
615.708	212776
615.774	221703
615.840	238973
615.906	260563
615.972	320613
616.038	502860
616.104	970074
616.170	2161512
616.236	1600713
616.302	416887
616.368	328575
616.434	253648
616.500	241622
616.565	265136
616.631	307631
616.697	259421
616.763	270838
616.829	386243
616.895	630604
616.961	560597
617.026	274609
617.092	213990
617.158	208129
617.224	204102
617.289	193628
617.355	188103
617.421	190113
617.487	186809
617.552	176436
617.618	174623
617.684	174824
617.749	177071
617.815	171482
617.880	167581
617.946	168752
618.012	172025
618.077	173936
618.143	168915
618.208	169693
618.274	182468
618.339	184042
618.405	157653
618.470	160415
618.536	161734
618.601	167371
618.667	155635
618.732	147765
618.798	144456
618.863	144090
618.928	144131
618.994	151002
619.059	158410
619.124	182334
619.190	155123
619.255	144272
619.320	146081
619.386	144940
619.451	140681
619.516	140266
619.581	141609
619.647	145361
619.712	144938
619.777	141096
619.842	143558
619.907	145274
619.972	145964
620.038	145189
620.103	141514
620.168	139208
620.233	141793
620.298	143418
620.363	143636
620.428	146015
620.493	149376
620.558	148892
620.623	149715
620.688	147521
620.753	146887
620.818	149222
620.883	152349
620.948	152094
621.013	150285
621.078	150589
621.143	153922
621.207	156052
621.272	157653
621.337	157833
621.402	160420
621.467	180280
621.532	180204
621.596	163343
621.661	154658
621.726	148377
621.791	154214
621.855	157057
621.920	160940
621.985	163947
622.049	171600
622.114	167568
622.179	161055
622.243	169062
622.308	168406
622.373	173512
622.437	170427
622.502	161545
622.566	161216
622.631	163324
622.695	162448
622.760	161606
622.824	162766
622.889	164534
622.953	176429
623.018	213834
623.082	202470
623.147	168726
623.211	165989
623.276	166958
623.340	157521
623.404	152682
623.469	156199
623.533	154339
623.597	151848
623.662	152057
623.726	143988
623.790	138778
623.854	137945
623.919	139390
623.983	140854
624.047	142326
624.111	141165
624.176	143869
624.240	154150
624.304	156639
624.368	144703
624.432	143857
624.496	147912
624.560	158304
624.625	164861
624.689	150445
624.753	151707
624.817	147068
624.881	142807
624.945	135037
625.009	132856
625.073	135481
625.137	147125
625.201	163801
625.265	158006
625.329	137649
625.393	145238
625.456	139964
625.520	144557
625.584	152458
625.648	168804
625.712	215953
625.776	368518
625.839	377376
625.903	179747
625.967	137164
626.031	188546
626.095	251258
626.158	141677
626.222	109998
626.286	106168
626.349	103519
626.413	100376
626.477	104539
626.540	99976
626.604	99588
626.668	97035
626.731	96307
626.795	101453
626.858	100653
626.922	97252
626.986	94583
627.049	93562
627.113	96093
627.176	92904
627.240	90935
627.303	91722
627.366	91845
627.430	93018
627.493	92420
627.557	93791
627.620	93923
627.684	94592
627.747	95193
627.810	88766
627.874	83056
627.937	82261
628.000	85591
628.064	84312
628.127	75210
628.190	76953
628.253	77075
628.317	73607
628.380	72675
628.443	71761
628.506	73154
628.569	68961
628.632	66044
628.696	66543
628.759	65588
628.822	63497
628.885	63109
628.948	63210
629.011	64190
629.074	64236
629.137	59999
629.200	62373
629.263	66835
629.326	60322
629.389	58528
629.452	61918
629.515	61372
629.578	61310
629.641	62832
629.704	62933
629.767	61901
629.830	56452
629.892	57704
629.955	56418
630.018	60902
630.081	66311
630.144	74708
630.207	62181
630.269	63005
630.332	63042
630.395	57726
630.458	53459
630.520	53366
630.583	53543
630.646	52400
630.708	52533
630.771	52378
630.834	53797
630.896	52339
630.959	52330
631.021	52379
631.084	53895
631.146	57482
631.209	61658
631.272	51900
631.334	51767
631.397	51957
631.459	51989
631.522	54223
631.584	53565
631.646	56735
631.709	59810
631.771	70712
631.834	59028
631.896	54221
631.958	48807
632.021	49900
632.083	48691
632.145	51374
632.208	51783
632.270	50649
632.332	47026
632.395	47345
632.457	51436
632.519	48241
632.581	49049
632.643	46904
632.706	47885
632.768	45324
632.830	47001
632.892	45407
632.954	47450
633.016	50347
633.078	46007
633.141	46512
633.203	46573
633.265	47732
633.327	45769
633.389	46643
633.451	52584
633.513	59610
633.575	57803
633.637	58133
633.698	54002
633.760	48063
633.822	48837
633.884	50112
633.946	48076
634.008	48593
634.070	50120
634.132	50932
634.193	54133
634.255	55425
634.317	57186
634.379	56931
634.441	52730
634.502	48803
634.564	48148
634.626	44612
634.687	45341
634.749	44445
634.811	44068
634.873	41910
634.934	43022
634.996	44122
635.057	44030
635.119	43481
635.181	44894
635.242	44899
635.304	41739
635.365	45761
635.427	45648
635.488	45983
635.550	43048
635.611	43524
635.673	43976
635.734	48017
635.796	48525
635.857	51166
635.918	49181
635.980	54189
636.041	55134
636.102	57532
636.164	57006
636.225	54578
636.286	50117
636.348	47807
636.409	45234
636.470	43472
636.531	44100
636.593	47752
636.654	45560
636.715	39292
636.776	39419
636.838	38441
636.899	41225
636.960	39961
637.021	37533
637.082	38926
637.143	38809
637.204	35455
637.265	36126
637.326	36533
637.387	38204
637.448	34592
637.509	36451
637.570	37011
637.631	37101
637.692	33938
637.753	33726
637.814	35900
637.875	35785
637.936	37091
637.997	36368
638.058	36875
638.119	37143
638.179	35372
638.240	36117
638.301	35945
638.362	33606
638.423	36228
638.483	35616
638.544	33057
638.605	35314
638.666	32395
638.726	35093
638.787	34273
638.848	33380
638.908	33708
638.969	33955
639.030	33424
639.090	31881
639.151	33260
639.211	37055
639.272	45538
639.332	65190
639.393	40643
639.453	34818
639.514	35183
639.574	32872
639.635	31367
639.695	33748
639.756	31964
639.816	34759
639.877	40636
639.937	61898
639.997	70548
640.058	33760
640.118	29686
640.178	31465
640.239	29860
640.299	30062
640.359	29699
640.420	31077
640.480	32706
640.540	35477
640.600	34674
640.661	34928
640.721	35793
640.781	41162
640.841	31762
640.901	32821
640.961	32362
641.021	34701
641.082	40027
641.142	50522
641.202	36055
641.262	28446
641.322	30726
641.382	28540
641.442	29425
641.502	29641
641.562	29299
641.622	29880
641.682	31947
641.742	32887
641.802	32739
641.861	32728
641.921	34014
641.981	36290
642.041	35411
642.101	41392
642.161	29567
642.221	27700
642.280	27695
642.340	27175
642.400	27365
642.460	29392
642.519	28821
642.579	28251
642.639	29899
642.698	27091
642.758	30180
642.818	28759
642.877	29140
642.937	30995
642.997	35809
643.056	47076
643.116	32156
643.175	31195
643.235	28638
643.294	30379
643.354	30846
643.414	33018
643.473	37362
643.532	42039
643.592	54060
643.651	80616
643.711	135238
643.770	267893
643.830	655251
643.889	1237486
643.948	249776
644.008	58816
644.067	42480
644.126	35312
644.186	32654
644.245	29665
644.304	26463
644.363	29056
644.423	26206
644.482	28070
644.541	29071
644.600	27337
644.659	33884
644.719	38634
644.778	53358
644.837	83223
644.896	161399
644.955	331462
645.014	98802
645.073	36281
645.132	31942
645.191	29918
645.250	28144
645.309	30431
645.368	30145
645.427	35342
645.486	51575
645.545	74907
645.604	31752
645.663	28160
645.722	27730
645.781	29433
645.840	31596
645.898	37741
645.957	50711
646.016	73285
646.075	127972
646.134	245687
646.192	678736
646.251	855156
646.310	117032
646.369	44340
646.427	38351
646.486	31534
646.545	28382
646.603	26631
646.662	26048
646.721	25460
646.779	24875
646.838	25558
646.896	30151
646.955	36797
647.014	51902
647.072	89029
647.131	216055
647.189	92443
647.248	27073
647.306	25049
647.365	23498
647.423	20952
647.481	22742
647.540	21434
647.598	21292
647.657	20786
647.715	22186
647.773	20150
647.832	22153
647.890	20192
647.948	21413
648.007	21160
648.065	20151
648.123	20408
648.181	22430
648.240	20026
648.298	19625
648.356	20296
648.414	20837
648.472	21235
648.531	20617
648.589	19730
648.647	18712
648.705	20253
648.763	19970
648.821	20760
648.879	20835
648.937	23164
648.995	25425
649.053	29016
649.111	40788
649.169	61836
649.227	105300
649.285	217111
649.343	580698
649.401	236423
649.459	88843
649.516	50233
649.574	28406
649.632	33862
649.690	34980
649.748	33906
649.806	37980
649.863	64449
649.921	155392
649.979	87634
650.037	23375
650.094	18922
650.152	18911
650.210	17748
650.268	19224
650.325	18507
650.383	18341
650.440	16109
650.498	16949
650.556	16955
650.613	16013
650.671	16549
650.728	17285
650.786	19763
650.843	19298
650.901	15939
650.958	15480
651.016	15056
651.073	15815
651.131	14343
651.188	15455
651.246	16232
651.303	15663
651.360	16376
651.418	14642
651.475	15195
651.532	13445
651.590	15076
651.647	14954
651.704	15421
651.762	15705
651.819	16128
651.876	15223
651.933	14976
651.990	15433
652.048	13624
652.105	14348
652.162	14976
652.219	13616
652.276	14328
652.333	14245
652.390	12805
652.448	13540
652.505	15107
652.562	13927
652.619	13489
652.676	14257
652.733	15468
652.790	12812
652.847	12196
652.904	13874
652.961	12460
653.017	12372
653.074	13916
653.131	13875
653.188	12563
653.245	11986
653.302	13845
653.359	12377
653.415	13903
653.472	13095
653.529	12922
653.586	11948
653.642	13193
653.699	12989
653.756	13272
653.813	11853
653.869	12783
653.926	11959
653.983	12069
654.039	12216
654.096	12089
654.152	13499
654.209	12604
654.266	13295
654.322	13030
654.379	15722
654.435	16575
654.492	18099
654.548	24654
654.605	33621
654.661	17751
654.717	13677
654.774	14867
654.830	14401
654.887	13980
654.943	14114
655.000	15140
655.056	14287
655.112	14460
655.168	13564
655.225	15432
655.281	16592
655.337	21318
655.394	32713
655.450	23280
655.506	21299
655.562	33933
655.618	23195
655.675	12718
655.731	13760
655.787	13778
655.843	13849
655.899	12296
655.955	13864
656.011	13858
656.067	11996
656.123	14169
656.179	14052
656.235	14650
656.291	13100
656.347	15402
656.403	13519
656.459	14193
656.515	16415
656.571	16122
656.627	14026
656.683	13928
656.739	14194
656.795	14048
656.850	15108
656.906	17331
656.962	14238
657.018	12877
657.074	13606
657.129	15516
657.185	18459
657.241	28137
657.297	18413
657.352	13271
657.408	13181
657.464	15360
657.519	13344
657.575	11296
657.630	12214
657.686	12399
657.742	11192
657.797	12959
657.853	13246
657.908	14473
657.964	11215
658.019	11802
658.075	14099
658.130	13553
658.186	11581
658.241	11907
658.297	11810
658.352	12316
658.407	12511
658.463	11857
658.518	12234
658.573	13152
658.629	11655
658.684	11227
658.739	11814
658.795	10833
658.850	11649
658.905	12219
658.960	13133
659.016	12153
659.071	12064
659.126	13239
659.181	14617
659.236	23068
659.291	23067
659.346	14998
659.401	13766
659.457	13226
659.512	11418
659.567	13063
659.622	11427
659.677	12433
659.732	11911
659.787	12495
659.842	15017
659.897	17623
659.952	13381
660.007	12258
660.061	12477
660.116	12067
660.171	10991
660.226	11708
660.281	12760
660.336	11294
660.391	10893
660.445	11548
660.500	11913
660.555	11529
660.610	11521
660.664	11663
660.719	11765
660.774	12661
660.828	12404
660.883	12213
660.938	12787
660.992	11568
661.047	11717
661.101	11206
661.156	12145
661.211	10757
661.265	11313
661.320	11762
661.374	12366
661.429	11339
661.483	11972
661.538	12507
661.592	11790
661.647	11760
661.701	12438
661.755	13240
661.810	12696
661.864	11308
661.919	11373
661.973	13144
662.027	10890
662.081	10586
662.136	11693
662.190	13786
662.244	12383
662.299	12127
662.353	11876
662.407	12300
662.461	12534
662.515	12805
662.569	12666
662.624	13314
662.678	12121
662.732	12227
662.786	12500
662.840	12980
662.894	12094
662.948	11502
663.002	11545
663.056	12412
663.110	11600
663.164	11942
663.218	10849
663.272	12477
663.326	13094
663.380	14162
663.434	13186
663.488	12120
663.542	12291
663.595	12775
663.649	12528
663.703	12871
663.757	12385
663.811	11882
663.864	11699
663.918	12467
663.972	11751
664.026	12175
664.079	11890
664.133	12510
664.187	11436
664.240	11002
664.294	11271
664.348	12433
664.401	11402
664.455	11713
664.508	11571
664.562	11843
664.615	11782
664.669	10506
664.722	11614
664.776	10923
664.829	12467
664.883	11644
664.936	11735
664.990	12570
665.043	13431
665.097	14258
665.150	14758
665.203	13070
665.257	12586
665.310	12667
665.363	13726
665.417	13864
665.470	13458
665.523	13175
665.576	12551
665.630	13842
665.683	13333
665.736	13979
665.789	12996
665.842	11925
665.895	13054
665.949	13035
666.002	11762
666.055	12934
666.108	13915
666.161	14181
666.214	13630
666.267	13699
666.320	15945
666.373	14189
666.426	14121
666.479	13155
666.532	14573
666.585	17922
666.638	17274
666.691	15967
666.744	16950
666.796	16532
666.849	14679
666.902	13278
666.955	12179
667.008	11716
667.060	11110
667.113	11269
667.166	11798
667.219	11926
667.271	11947
667.324	12021
667.377	13851
667.430	12712
667.482	12863
667.535	12889
667.587	13743
667.640	15190
667.693	17543
667.745	25205
667.798	25196
667.850	14126
667.903	14103
667.955	13066
668.008	13463
668.060	15716
668.113	15200
668.165	15497
668.218	14795
668.270	14086
668.322	13891
668.375	13858
668.427	14053
668.479	12641
668.532	14274
668.584	13965
668.636	13267
668.689	13462
668.741	13434
668.793	13943
668.845	13859
668.898	14512
668.950	13283
669.002	14247
669.054	13483
669.106	13350
669.158	14636
669.211	13461
669.263	13977
669.315	13844
669.367	13454
669.419	13948
669.471	14939
669.523	14641
669.575	15488
669.627	14400
669.679	12829
669.731	14264
669.783	13493
669.835	14088
669.886	13032
669.938	13718
669.990	13258
670.042	12610
670.094	13191
670.146	13596
670.197	13928
670.249	15469
670.301	16476
670.353	18678
670.404	22664
670.456	28362
670.508	39972
670.560	62861
670.611	102528
670.663	175759
670.715	440513
670.766	604677
670.818	139089
670.869	33318
670.921	23424
670.972	20245
671.024	16319
671.075	15923
671.127	14553
671.178	14034
671.230	14784
671.281	13806
671.333	15675
671.384	16452
671.436	17251
671.487	20298
671.538	21652
671.590	27920
671.641	39201
671.692	61969
671.744	103515
671.795	60693
671.846	27295
671.897	19747
671.949	17337
672.000	16045
672.051	15458
672.102	15186
672.153	14266
672.204	14031
672.256	14221
672.307	13995
672.358	14806
672.409	14621
672.460	13092
672.511	13556
672.562	13442
672.613	13507
672.664	12327
672.715	12471
672.766	12368
672.817	11923
672.868	12216
672.919	12390
672.970	12051
673.021	13020
673.071	11371
673.122	11928
673.173	11428
673.224	12473
673.275	12452
673.326	11663
673.376	12682
673.427	12069
673.478	12380
673.528	12218
673.579	11530
673.630	12076
673.680	13302
673.731	11009
673.782	10280
673.832	12835
673.883	12894
673.934	11806
673.984	11446
674.035	12336
674.085	11543
674.136	12196
674.186	14092
674.237	16257
674.287	21843
674.338	13638
674.388	12377
674.438	11639
674.489	11986
674.539	12743
674.589	13216
674.640	12636
674.690	12404
674.740	12640
674.791	13271
674.841	12961
674.891	12753
674.942	12959
674.992	11980
675.042	11626
675.092	11182
675.142	11112
675.193	11072
675.243	10780
675.293	11633
675.343	12846
675.393	11846
675.443	12250
675.493	10775
675.543	11164
675.593	12077
675.643	10628
675.693	11196
675.743	11670
675.793	10808
675.843	10874
675.893	11078
675.943	10691
675.993	10624
676.043	11046
676.093	10824
676.142	10645
676.192	11696
676.242	10770
676.292	10133
676.341	10278
676.391	11312
676.441	9682
676.491	10217
676.540	10459
676.590	10756
676.640	10706
676.689	10000
676.739	9437
676.789	9753
676.838	10247
676.888	9913
676.937	9340
676.987	8959
677.037	9067
677.086	8739
677.136	9354
677.185	9122
677.235	9359
677.284	9783
677.333	8684
677.383	8691
677.432	8206
677.482	8833
677.531	9295
677.580	9654
677.630	8843
677.679	8735
677.728	9501
677.778	8706
677.827	8795
677.876	8820
677.925	9167
677.975	9035
678.024	9425
678.073	9661
678.122	10278
678.171	9752
678.220	10209
678.269	10916
678.319	11386
678.368	10898
678.417	10574
678.466	10691
678.515	10773
678.564	10524
678.613	10122
678.662	8941
678.711	9678
678.760	8825
678.809	9557
678.857	9490
678.906	9764
678.955	9732
679.004	10363
679.053	9515
679.102	10367
679.151	10185
679.199	9583
679.248	9676
679.297	10728
679.346	10073
679.394	9044
679.443	8846
679.492	9806
679.540	8976
679.589	9579
679.638	8537
679.686	8693
679.735	8581
679.784	9864
679.832	9680
679.881	8850
679.929	7931
679.978	8305
680.026	8766
680.075	8693
680.123	8144
680.172	7987
680.220	7849
680.268	9436
680.317	8610
680.365	8449
680.414	8629
680.462	7846
680.510	9159
680.559	8425
680.607	7913
680.655	8815
680.703	8016
680.752	8443
680.800	7239
680.848	7857
680.896	8068
680.945	8475
680.993	8322
681.041	8059
681.089	7829
681.137	7284
681.185	7534
681.233	7909
681.258	8062
681.281	8145
681.329	7774
681.377	7114
681.380	7235
681.425	8218
681.473	9198
681.502	9430
681.521	9474
681.569	9234
681.617	9213
681.624	9298
681.665	9361
681.713	9485
681.745	9391
681.761	9258
681.809	9214
681.857	9450
681.867	9532
681.904	9544
681.952	8864
681.989	9440
682.000	9533
682.048	9838
682.096	9343
682.111	9733
682.143	10371
682.191	9900
682.233	11113
682.239	11229
682.286	10346
682.334	9689
682.354	10330
682.382	11070
682.430	11862
682.476	10876
682.477	10799
682.525	10905
682.572	10948
682.598	10516
682.620	10079
682.667	11505
682.715	11867
682.720	11936
682.763	12004
682.810	11435
682.841	11849
682.857	11942
682.905	11510
682.952	12319
682.963	12393
683.000	12512
683.047	12333
683.085	12051
683.095	11885
683.142	11771
683.190	11681
683.206	11988
683.237	12490
683.284	11724
683.328	12302
683.332	12294
683.379	12160
683.426	12614
683.449	12582
683.473	12535
683.521	12748
683.568	12599
683.571	12685
683.615	13118
683.662	12546
683.693	13304
683.709	13664
683.757	13280
683.804	13617
683.814	13653
683.851	13621
683.898	14194
683.936	13947
683.945	13857
683.992	14749
684.039	14884
684.057	15244
684.086	15675
684.133	15663
684.179	15312
684.180	15251
684.227	15846
684.274	15195
684.300	15250
684.321	15298
684.368	14889
684.415	15435
684.422	15409
684.462	14782
684.509	14537
684.543	14465
684.556	14489
684.603	13761
684.649	14447
684.665	14693
684.696	15184
684.743	15352
684.786	16569
684.790	16651
684.837	16750
684.883	17462
684.908	18302
684.930	18910
684.977	19072
685.023	18198
685.029	18198
685.070	17608
685.117	18018
685.150	17999
685.164	18140
685.210	19429
685.257	19758
685.272	19975
685.303	19938
685.350	19458
685.393	20023
685.396	20090
685.443	20242
685.490	21458
685.514	21624
685.536	21276
685.583	19938
685.629	19282
685.636	19307
685.675	19609
685.722	19500
685.757	20169
685.768	20444
685.815	20532
685.861	20348
685.878	20553
685.908	20824
685.954	20931
686.000	22296
686.000	22315
686.047	23358
686.093	26779
686.121	26556
686.139	25505
686.185	23995
686.232	22106
686.242	21821
686.278	21172
686.324	20516
686.363	19828
686.370	19792
686.416	19893
686.463	20666
686.484	20573
686.509	20380
686.555	19704
686.601	20530
686.606	20512
686.647	20464
686.693	20385
686.727	20766
686.739	20840
686.785	20995
686.831	20087
686.848	20010
686.877	19994
686.923	19925
686.969	20942
686.969	20944
687.015	20868
687.061	21383
687.090	21284
687.107	21132
687.153	21190
687.199	21157
687.211	21010
687.245	20904
687.291	21452
687.332	23086
687.336	23233
687.382	23155
687.428	22742
687.453	22672
687.474	22237
687.520	21812
687.565	21093
687.574	20889
687.611	20948
687.657	21513
687.695	22478
687.702	22696
687.748	22980
687.794	23885
687.816	23915
687.839	23244
687.885	22202
687.931	20879
687.937	20917
687.976	22112
688.022	22198
688.058	22654
688.067	22766
688.113	23089
688.158	22976
688.179	22954
688.204	22845
688.249	23543
688.295	23985
688.300	24001
688.340	24336
688.386	24505
688.421	24084
688.431	23933
688.477	23768
688.522	23691
688.542	23829
688.567	24043
688.613	24219
688.658	23907
688.663	23869
688.703	23806
688.749	24100
688.784	24259
688.794	24290
688.839	23902
688.884	24050
688.905	23870
688.930	23659
688.975	23660
689.020	24101
689.026	24033
689.065	24106
689.110	23878
689.146	24460
689.155	24487
689.201	23727
689.246	23563
689.267	23314
689.291	23504
689.336	24292
689.381	24420
689.388	24477
689.426	24515
689.471	24510
689.509	24292
689.516	24258
689.561	23705
689.606	23580
689.630	23453
689.651	23692
689.696	24225
689.741	24753
689.750	24812
689.785	24681
689.830	24452
689.871	24038
689.875	24025
689.920	24223
689.965	24130
689.992	23741
690.010	23660
690.054	23824
690.099	24250
690.112	24233
690.144	24222
690.189	24392
690.233	24140
690.233	24167
690.278	23917
690.323	23792
690.354	23520
690.367	23612
690.412	24130
690.457	24229
690.474	24459
690.501	24595
690.546	24094
690.590	23762
690.595	23720
690.635	23982
690.680	23987
690.716	24128
690.724	24187
690.769	24674
690.813	24397
690.836	24265
690.857	24379
690.902	25338
690.946	25475
690.957	25597
690.991	26772
691.035	28214
691.077	29155
691.080	29202
691.124	29755
691.168	30025
691.198	30385
691.213	30328
691.257	29684
691.301	28823
691.318	28506
691.346	27781
691.390	26655
691.434	25065
691.439	24973
691.478	26061
691.522	26734
691.559	27181
691.567	27303
691.611	27623
691.655	28091
691.680	28115
691.699	27921
691.743	27868
691.787	27686
691.800	27609
691.831	28299
691.875	29045
691.919	29747
691.921	29729
691.964	29928
692.008	29998
692.041	29475
692.052	29414
692.096	29821
692.139	29752
692.162	29920
692.183	29978
692.227	29128
692.271	29186
692.282	28983
692.315	28864
692.359	29198
692.402	29124
692.403	29173
692.447	28934
692.490	28772
692.523	28877
692.534	29140
692.578	29231
692.622	29837
692.643	29927
692.666	29590
692.709	29371
692.753	28284
692.763	28149
692.797	28356
692.840	28225
692.884	28003
692.884	28057
692.928	28189
692.971	29116
693.004	29247
693.015	29214
693.059	28576
693.102	28649
693.124	28284
693.146	28607
693.189	29767
693.233	30740
693.245	30887
693.276	30776
693.320	31030
693.363	30705
693.365	30643
693.407	30955
693.450	31101
693.485	31127
693.493	31185
693.537	31514
693.580	31686
693.605	31747
693.624	31899
693.667	31826
693.710	31915
693.725	32102
693.753	34350
693.797	37078
693.840	39958
693.845	40217
693.883	38932
693.926	37142
693.966	35821
693.970	35694
694.013	33439
694.056	31224
694.086	29580
694.099	29885
694.142	30946
694.185	31774
694.206	32144
694.229	32320
694.272	32607
694.315	32598
694.326	32561
694.358	32946
694.401	33240
694.444	34001
694.446	33951
694.487	33665
694.530	33424
694.566	33059
694.573	32894
694.616	31378
694.659	29646
694.686	28729
694.702	28809
694.745	28633
694.787	28510
694.806	28396
694.830	28648
694.873	29037
694.916	29384
694.926	29478
694.959	29866
695.002	29734
695.044	29845
695.046	29786
695.087	30261
695.130	30625
695.166	30929
695.172	30981
695.215	30785
695.258	30565
695.286	30501
695.301	30638
695.343	30491
695.386	30590
695.406	30401
695.428	30058
695.471	29702
695.514	29227
695.526	29010
695.556	29684
695.599	30645
695.641	31455
695.646	31473
695.684	31152
695.726	30772
695.766	30263
695.769	30320
695.811	30330
695.854	30114
695.886	29933
695.896	29984
695.938	29898
695.981	30008
696.005	29870
696.023	30268
696.065	31137
696.108	32238
696.125	32466
696.150	32526
696.192	32582
696.235	32739
696.245	32672
696.277	32140
696.319	31409
696.361	30790
696.365	30647
696.404	30908
696.446	31169
696.485	31404
696.488	31494
696.530	31615
696.572	31918
696.604	31937
696.614	31875
696.656	31159
696.698	30563
696.724	30166
696.740	30300
696.783	30453
696.825	30587
696.844	30556
696.867	30739
696.909	31097
696.951	31117
696.964	31155
696.992	30960
697.034	30222
697.076	29903
697.083	29716
697.118	30432
697.160	31352
697.202	32287
697.203	32233
697.244	31941
697.286	31510
697.323	31028
697.327	31064
697.369	30667
697.411	30332
697.442	29973
697.453	30401
697.494	31945
697.536	33350
697.562	34248
697.578	34116
697.620	33335
697.661	32721
697.682	32272
697.703	32990
697.744	34355
697.786	35728
697.801	36120
697.828	36137
697.869	35951
697.911	35877
697.921	35751
697.952	34897
697.994	33743
698.035	32493
698.040	32261
698.077	31888
698.118	31380
698.160	30876
698.160	30794
698.201	31750
698.243	32612
698.279	33363
698.284	33448
698.325	33383
698.367	33305
698.399	33183
698.408	33140
698.449	32530
698.491	31956
698.518	31439
698.532	31687
698.573	32279
698.614	32819
698.638	33063
698.656	33280
698.697	33546
698.738	33834
698.757	33884
698.779	34116
698.820	34375
698.862	34650
698.877	34662
698.903	35255
698.944	36058
698.985	36857
698.996	36986
699.026	36421
699.067	35508
699.116	34329
699.235	32816
699.354	32504
699.474	33604
699.593	37083
699.713	35623
699.832	34051
699.951	35533
700.070	33257
700.190	32190
700.309	32604
700.428	36280
700.547	32227
700.667	32787
700.786	35374
700.905	29982
701.024	34272
701.143	32232
701.262	28177
701.381	30484
701.500	32037
701.619	33646
701.738	29755
701.857	27729
701.976	27695
702.095	29056
702.214	33119
702.333	31568
702.452	30565
702.571	28813
702.690	28056
702.809	28684
702.928	26277
703.047	27900
703.165	26647
703.284	27252
703.403	27694
703.522	31260
703.640	29649
703.759	37109
703.878	46027
703.997	29103
704.115	26705
704.234	27124
704.353	25797
704.471	26041
704.590	24947
704.708	24286
704.827	24092
704.946	27074
705.064	26945
705.183	27011
705.301	34054
705.420	48768
705.538	43276
705.656	34199
705.775	33503
705.893	38166
706.012	41552
706.130	36016
706.249	35799
706.367	38224
706.485	38749
706.604	37227
706.722	38068
706.840	44052
706.958	42906
707.077	35879
707.195	33857
707.313	32088
707.431	31831
707.549	32334
707.668	32663
707.786	33288
707.904	31562
708.022	31430
708.140	30971
708.258	31416
708.376	32471
708.494	31153
708.612	37345
708.730	53570
708.848	48927
708.966	44833
709.084	41301
709.202	40397
709.320	41994
709.438	41634
709.556	42053
709.674	41508
709.791	39987
709.909	40299
710.027	39872
710.145	38740
710.263	40325
710.380	39774
710.498	37436
710.616	38518
710.733	38357
710.851	40317
710.969	39239
711.086	37693
711.204	36171
711.322	37388
711.439	37674
711.557	38977
711.674	36789
711.792	36437
711.909	35027
712.027	35156
712.144	34074
712.262	35463
712.379	41419
712.497	58739
712.614	56030
712.732	46550
712.849	45344
712.966	50445
713.084	57528
713.201	49176
713.318	47951
713.436	47290
713.553	45709
713.670	47781
713.787	51566
713.905	50738
714.022	45691
714.139	45867
714.256	50119
714.373	59748
714.490	81722
714.608	187818
714.725	710077
714.842	542435
714.959	65497
715.076	47702
715.193	42495
715.310	41324
715.427	40797
715.544	38852
715.661	38608
715.778	40571
715.895	44004
716.011	43383
716.128	38703
716.245	40837
716.362	45520
716.479	44258
716.596	38198
716.713	38394
716.829	37445
716.946	36604
717.063	34509
717.180	35412
717.296	33707
717.413	35486
717.530	34735
717.646	33982
717.763	34512
717.880	33342
717.996	33307
718.113	34684
718.229	33116
718.346	31085
718.462	33896
718.579	41354
718.695	62586
718.812	47744
718.928	45113
719.045	34006
719.161	30495
719.277	30015
719.394	29629
719.510	31707
719.626	33295
719.743	41170
719.859	43469
719.975	66562
720.092	217261
720.208	378106
720.324	56802
720.440	35170
720.557	39177
720.673	53955
720.789	72812
720.905	138463
721.021	44444
721.137	29777
721.253	29741
721.369	32723
721.486	36303
721.602	45969
721.718	29125
721.834	26657
721.950	28811
722.066	27023
722.181	26148
722.297	28658
722.413	25556
722.529	26382
722.645	25185
722.761	24742
722.877	25142
722.993	24118
723.108	27183
723.224	25280
723.340	25924
723.456	23959
723.571	24115
723.687	23162
723.803	23500
723.918	23256
724.034	23654
724.150	24283
724.265	29528
724.381	58449
724.497	59934
724.612	22491
724.728	21561
724.843	23184
724.959	28357
725.074	54927
725.190	51895
725.305	24749
725.421	22402
725.536	20050
725.651	21143
725.767	19439
725.882	19162
725.997	20707
726.113	20675
726.228	19467
726.343	19087
726.459	18278
726.574	20518
726.689	18872
726.804	19318
726.920	19600
727.035	19751
727.150	20456
727.265	19228
727.380	19003
727.495	19138
727.610	16641
727.725	18481
727.841	19055
727.956	21683
728.071	23488
728.186	18008
728.301	17564
728.416	19626
728.531	17671
728.645	16684
728.760	20004
728.875	19812
728.990	18940
729.105	18251
729.220	19450
729.335	17866
729.449	16925
729.564	15099
729.679	15443
729.794	16244
729.908	18309
730.023	17098
730.138	14774
730.253	15486
730.367	14032
730.482	15838
730.596	16802
730.711	17423
730.826	16696
730.940	17026
731.055	18226
731.169	15392
731.284	15579
731.398	15395
731.513	18915
731.627	18277
731.742	21477
731.856	21752
731.970	17013
732.085	20531
732.199	24058
732.313	36995
732.428	84763
732.542	228035
732.656	106233
732.771	26861
732.885	19445
732.999	18816
733.113	20537
733.227	19013
733.342	17089
733.456	16618
733.570	16062
733.684	16302
733.798	15612
733.912	15543
734.026	15594
734.140	16642
734.254	18363
734.368	33583
734.482	34069
734.596	14598
734.710	14983
734.824	15102
734.938	14623
735.052	16515
735.166	18231
735.280	15266
735.393	15279
735.507	15229
735.621	21295
735.735	36840
735.849	16618
735.962	14591
736.076	15794
736.190	16277
736.303	23757
736.417	26305
736.531	15041
736.644	15092
736.758	12611
736.872	13835
736.985	14166
737.099	13279
737.212	12951
737.326	13371
737.439	13106
737.553	13190
737.666	12966
737.780	12159
737.893	12213
738.007	12084
738.120	12578
738.233	12625
738.347	11926
738.460	12240
738.573	13757
738.687	13255
738.800	13327
738.913	17705
739.026	12723
739.140	12507
739.253	11437
739.366	11564
739.479	11769
739.592	10916
739.705	10963
739.818	13053
739.932	10846
740.045	12373
740.158	11686
740.271	12329
740.384	11456
740.497	12192
740.610	12750
740.723	12642
740.836	12875
740.949	13430
741.062	17497
741.174	15325
741.287	12214
741.400	11048
741.513	11695
741.626	12780
741.739	11531
741.851	12063
741.964	11383
742.077	11571
742.189	12198
742.302	13744
742.415	12871
742.527	12190
742.640	11034
742.753	10275
742.865	9868
742.978	9484
743.090	10544
743.203	10562
743.316	10430
743.428	10080
743.541	9420
743.653	9824
743.766	10465
743.878	10167
743.990	14641
744.103	12746
744.215	10278
744.327	10886
744.440	14412
744.552	20864
744.664	10396
744.777	9519
744.889	9121
745.001	10316
745.113	9763
745.226	8310
745.338	8921
745.450	8424
745.562	9522
745.674	8994
745.786	9185
745.898	7932
746.010	8683
746.122	8568
746.234	8560
746.347	8575
746.459	7948
746.570	8119
746.682	9490
746.794	9555
746.906	7711
747.018	8130
747.130	9561
747.242	8609
747.354	8630
747.466	9480
747.577	8725
747.689	8757
747.801	8700
747.913	7807
748.024	7369
748.136	7793
748.248	7978
748.359	8136
748.471	9270
748.583	7635
748.694	8405
748.806	9312
748.918	12721
749.029	9211
749.141	10326
749.252	9851
749.364	13245
749.475	24726
749.587	15035
749.698	7858
749.809	7927
749.921	8187
750.032	7945
750.144	6921
750.255	7511
750.366	7194
750.478	7779
750.589	9165
750.700	8172
750.811	8597
750.923	12148
751.034	27255
751.145	21304
751.256	7750
751.367	7601
751.479	8050
751.590	6737
751.701	6834
751.812	6567
751.923	6642
752.034	7869
752.145	5913
752.256	6632
752.367	6324
752.478	7780
752.589	6924
752.700	7053
752.811	6789
752.922	7761
753.032	8620
753.143	9649
753.254	6518
753.365	7554
753.476	6881
753.586	6460
753.697	6774
753.808	6417
753.919	5864
754.029	6734
754.140	6127
754.251	6928
754.361	6377
754.472	7734
754.582	7382
754.693	6985
754.804	6775
754.914	5744
755.025	6060
755.135	6648
755.246	6323
755.356	5674
755.466	6581
755.577	6569
755.687	6509
755.798	5843
755.908	6316
756.018	5891
756.129	6422
756.239	5921
756.349	6182
756.460	7353
756.570	7332
756.680	6271
756.790	7553
756.900	8786
757.011	6058
757.121	6701
757.231	6319
757.341	6857
757.451	6121
757.561	5986
757.671	5853
757.781	5479
757.891	6357
758.001	6371
758.111	6827
758.221	7215
758.331	8491
758.441	8997
758.551	12715
758.661	10008
758.771	7335
758.880	8280
758.990	6739
759.100	7482
759.210	7590
759.320	7005
759.429	7823
759.539	8421
759.649	7073
759.758	7976
759.868	8596
759.978	8046
760.087	8962
760.197	9351
760.307	8891
760.416	7903
760.526	8116
760.635	8813
760.745	8376
760.854	8559
760.964	9244
761.073	9094
761.182	8520
761.292	9116
761.401	9529
761.511	7236
761.620	7610
761.729	9189
761.839	8237
761.948	8414
762.057	8524
762.166	6920
762.276	6503
762.385	7394
762.494	7406
762.603	7070
762.712	7613
762.822	7996
762.931	7939
763.040	7237
763.149	7321
763.258	7954
763.367	8337
763.476	7525
763.585	7323
763.694	8521
763.803	7555
763.912	8537
764.021	8014
764.130	7695
764.238	7907
764.347	8503
764.456	8351
764.565	8576
764.674	8225
764.783	9255
764.891	8148
765.000	8868
765.109	9739
765.217	9337
765.326	12073
765.435	13615
765.543	13235
765.652	13886
765.761	16500
765.869	21553
765.978	33701
766.086	59707
766.195	119920
766.303	338111
766.412	896921
766.520	617437
766.629	140044
766.737	56496
766.846	33542
766.954	25096
767.062	21086
767.171	17861
767.279	15986
767.387	13082
767.496	12386
767.604	11282
767.712	10931
767.820	10397
767.928	11976
768.037	10068
768.145	10589
768.253	11051
768.361	8791
768.469	9980
768.577	9225
768.685	10633
768.793	9794
768.901	11016
769.009	11575
769.117	10948
769.225	13293
769.333	18221
769.441	26900
769.549	49800
769.657	116634
769.765	406065
769.873	689879
769.981	181717
770.088	43903
770.196	24160
770.304	18750
770.412	16756
770.519	14580
770.627	11664
770.735	10565
770.842	12022
770.950	11182
771.058	10257
771.165	10496
771.273	10398
771.380	9124
771.488	10771
771.595	10473
771.703	9889
771.810	10204
771.918	9366
772.025	11425
772.133	11268
772.240	9827
772.348	11618
772.455	10912
772.562	10110
772.670	10089
772.777	10936
772.884	9224
772.991	10393
773.099	9601
773.206	8777
773.313	9672
773.420	9451
773.528	9674
773.635	8387
773.742	8731
773.849	9092
773.956	9557
774.063	9162
774.170	9071
774.277	10094
774.384	9914
774.491	8617
774.598	10871
774.705	10178
774.812	13148
774.919	10412
775.026	10207
775.133	9935
775.239	9104
775.346	9935
775.453	8855
775.560	8598
775.667	9387
775.773	9251
775.880	9289
775.987	9066
776.093	8642
776.200	8963
776.307	8382
776.413	8970
776.520	9439
776.627	8728
776.733	8820
776.840	6879
776.946	9803
777.053	9593
777.159	10899
777.266	8274
777.372	11399
777.478	10048
777.585	8562
777.691	8237
777.798	9236
777.904	9977
778.010	14338
778.117	11467
778.223	8049
778.329	8826
778.435	8183
778.542	8957
778.648	7298
778.754	7637
778.860	8684
778.966	9251
779.072	8684
779.178	8237
779.284	8035
779.391	8380
779.497	7450
779.603	8426
779.708	7246
779.815	9388
779.920	15570
780.026	19333
780.132	7880
780.238	6836
780.344	7455
780.450	8542
780.556	6866
780.661	6773
780.767	7574
780.873	6525
780.979	7756
781.085	7445
781.190	6509
781.296	6690
781.402	6439
781.507	6076
781.613	6592
781.719	6149
781.824	6675
781.930	7106
782.035	8054
782.141	6605
782.246	5952
782.352	6762
782.457	6658
782.563	7129
782.668	6974
782.773	6871
782.879	6534
782.984	7891
783.090	9400
783.195	13352
783.300	9643
783.405	7690
783.511	6862
783.616	6729
783.721	7262
783.826	7218
783.932	7366
784.037	6839
784.142	6627
784.247	6825
784.352	6433
784.457	6853
784.562	7246
784.667	6675
784.772	6361
784.877	6072
784.982	7016
785.087	6336
785.192	7379
785.297	5658
785.402	6855
785.507	6179
785.611	6340
785.716	5043
785.821	7236
785.926	6437
786.031	6188
786.135	6727
786.240	5549
786.345	4948
786.450	6415
786.554	5326
786.659	5956
786.763	4857
786.868	6703
786.973	7279
787.077	5044
787.182	4879
787.286	5499
787.391	5832
787.495	5035
787.600	5783
787.704	4851
787.809	5357
787.913	4828
788.017	5469
788.122	5707
788.226	5636
788.330	3979
788.435	5398
788.539	5802
788.643	5349
788.747	4306
788.852	5996
788.956	5292
789.060	5481
789.164	5477
789.268	4596
789.372	4911
789.476	5583
789.580	4110
789.684	4727
789.788	4964
789.892	5079
789.996	5465
790.100	4651
790.204	5091
790.308	5843
790.412	4986
790.516	5261
790.620	4694
790.724	5768
790.828	4920
790.931	3955
791.035	6324
791.139	4879
791.242	5619
791.346	6510
791.450	5053
791.554	3767
791.657	4210
791.761	6363
791.864	6020
791.968	4793
792.072	5155
792.175	4452
792.279	4778
792.382	4126
792.486	5404
792.589	5403
792.693	6021
792.796	3853
792.899	5907
793.003	4675
793.106	3111
793.209	5018
793.313	5668
793.416	3130
793.519	5948
793.623	10077
793.726	12006
793.829	5653
793.932	4888
794.035	4243
794.138	5717
794.242	6034
794.345	6558
794.448	7941
794.551	11599
794.654	12692
794.757	11020
794.860	8168
794.963	6055
795.066	4296
795.169	5318
795.272	3899
795.375	4818
795.477	3742
795.580	4363
795.683	3130
795.786	3920
795.889	3136
795.991	5328
796.094	5570
796.197	4161
796.300	5234
796.402	3658
796.505	3359
796.608	3653
796.710	4597
796.813	4215
796.915	3919
797.018	3897
797.120	4324
797.223	2367
797.326	5081
797.428	3898
797.530	4247
797.633	4858
797.735	5707
797.838	10452
797.940	7273
798.042	3622
798.145	3124
798.247	3524
798.349	2665
798.452	4221
798.554	4065
798.656	2546
798.758	5429
798.860	3583
798.962	3588
799.065	3216
799.167	3157
799.269	4510
799.371	4510
799.473	5204
799.575	6479
799.677	6442
799.779	7341
799.881	8869
799.983	5912
800.085	3335
800.187	4138
800.289	3147
800.390	3997
800.492	4957
800.594	3686
800.696	2651
800.798	3820
800.899	2685
801.001	1973
801.103	3230
801.205	2339
801.306	3563
801.408	1927
801.509	2552
801.611	3381
801.713	3365
801.814	3036
801.916	2988
802.017	3618
802.119	2260
802.220	3881
802.322	2356
802.423	8116
802.525	4409
802.626	4057
802.727	3399
802.829	3742
802.930	1106
803.031	4542
803.133	1773
803.234	2861
803.335	2706
803.436	2353
803.538	2976
803.639	1802
803.740	2877
803.841	2549
803.942	3948
804.043	2975
804.144	1915
804.245	3494
804.346	2038
804.447	3762
804.548	5848
804.649	7301
804.750	2806
804.851	2648
804.952	2495
805.053	2412
805.154	2449
805.255	3442
805.355	3509
805.456	2098
805.557	2460
805.658	2169
805.758	3757
805.859	3071
805.960	2238
806.061	1678
806.161	2800
806.262	3089
806.362	2642
806.463	2627
806.564	3687
806.664	3352
806.765	4676
806.865	4670
806.966	3384
807.066	2873
807.166	3004
807.267	3383
807.367	1261
807.468	3006
807.568	1703
807.668	3076
807.769	4046
807.869	2407
807.969	2487
808.069	2074
808.170	3193
808.270	2566
808.370	4051
808.470	4982
808.570	3928
808.670	3222
808.770	1618
808.870	1707
808.970	3393
809.070	2626
809.170	1846
809.271	2634
809.370	1740
809.470	2256
809.570	2596
809.670	2015
809.770	1956
809.870	2212
809.970	2288
810.070	2935
810.169	2665
810.269	991
810.369	2646
810.469	1884
810.568	2835
810.668	2390
810.768	1382
810.867	2678
810.967	1992
811.066	1598
811.166	2309
811.265	2903
811.365	2299
811.464	2266
811.564	2306
811.663	2957
811.763	1066
811.862	2490
811.962	2822
812.061	2315
812.160	1983
812.260	2714
812.359	1405
812.458	2910
812.557	4697
812.657	4880
812.756	3918
812.855	2711
812.954	2434
813.053	2284
813.153	2604
813.252	1551
813.351	2655
813.450	2230
813.549	1939
813.648	2764
813.747	1587
813.846	3583
813.945	2088
814.044	2393
814.143	2289
814.242	2706
814.341	1431
814.439	3091
814.538	2708
814.637	2446
814.736	2381
814.835	2826
814.933	1748
815.032	3053
815.131	2760
815.229	4015
815.328	4867
815.427	3408
815.525	4027
815.624	4555
815.722	2940
815.821	3898
815.919	4211
816.018	3227
816.116	5042
816.215	4093
816.313	4472
816.412	5031
816.510	5992
816.609	6507
816.707	5632
816.805	5276
816.904	5480
817.002	6181
817.100	7118
817.198	6745
817.296	6584
817.395	8406
817.493	8446
817.591	9221
817.689	13100
817.787	15729
817.885	23796
817.983	41464
818.081	90298
818.179	214578
818.277	517692
818.375	374079
818.473	103439
818.571	43736
818.669	30479
818.767	26158
818.865	26791
818.963	30011
819.061	46431
819.158	79158
819.256	172574
819.354	403602
819.452	780605
819.549	449153
819.647	139341
819.745	61208
819.842	38646
819.940	26292
820.038	19189
820.135	15109
820.233	14393
820.330	11219
820.428	9024
820.525	9298
820.623	7707
820.720	7927
820.818	7276
820.915	7458
821.012	6647
821.110	4505
821.207	5715
821.304	4718
821.402	5531
821.499	5142
821.596	5285
821.693	5584
821.791	6607
821.888	8068
821.985	15093
822.082	10560
822.179	5695
822.276	3874
822.373	4899
822.470	3401
822.567	3635
822.664	3852
822.761	5066
822.858	2710
822.955	4294
823.052	3772
823.149	4128
823.246	3572
823.343	2353
823.440	4258
823.536	3164
823.633	3388
823.730	3261
823.827	4094
823.923	3489
824.020	4098
824.117	3207
824.213	3094
824.310	4343
824.407	3400
824.503	2909
824.600	2277
824.696	2955
824.793	4278
824.889	2951
824.986	3352
825.082	2458
825.179	4025
825.275	2566
825.371	3103
825.468	2271
825.564	1407
825.660	3572
825.757	3008
825.853	3115
825.949	943
826.045	2419
826.142	2036
826.238	2569
826.334	2892
826.430	1631
826.526	3086
826.622	2673
826.718	2887
826.814	2741
826.910	3668
827.006	1752
827.102	2178
827.198	3242
827.294	2391
827.390	2656
827.486	2890
827.582	946
827.678	1320
827.774	3555
827.869	1542
827.965	3038
828.061	740
828.157	2671
828.252	2224
828.348	1104
828.444	2336
828.539	1203
828.635	1714
828.731	3047
828.826	1765
828.922	2501
829.017	1796
829.113	3369
829.208	2602
829.304	2432
829.399	3336
829.495	1322
829.590	3015
829.685	1555
829.781	3483
829.876	1805
829.971	1745
830.066	864
830.162	1684
830.257	2299
830.352	1827
830.447	2188
830.543	3226
830.638	1513
830.733	3193
830.828	1601
830.923	2595
831.018	2085
831.113	3470
831.208	1856
831.303	1614
831.398	2328
831.493	2106
831.588	2510
831.683	1316
831.778	1809
831.873	2394
831.967	2564
832.062	1879
832.157	1521
832.252	3462
832.346	1914
832.441	3384
832.536	4956
832.631	13082
832.725	9266
832.820	1808
832.914	905
833.009	1755
833.104	4286
833.198	4608
833.293	1497
833.387	3250
833.482	2060
833.576	2093
833.670	2848
833.765	2063
833.859	2781
833.954	3463
834.048	1678
834.142	2585
834.237	1149
834.331	1435
834.425	2461
834.519	1246
834.613	2042
834.708	1237
834.802	1764
834.896	1313
834.990	1837
835.084	1594
835.178	2162
835.272	2922
835.366	1850
835.460	2305
835.554	1254
835.648	2071
835.742	734
835.836	2142
835.930	842
836.024	2418
836.117	2365
836.211	3275
836.305	4838
836.399	5478
836.493	882
836.586	3090
836.680	1073
836.774	1263
836.867	2250
836.961	610
837.055	448
837.148	1939
837.242	1537
837.335	2474
837.429	2094
837.522	1812
837.616	2768
837.709	7078
837.803	4529
837.896	2627
837.989	2503
838.083	4795
838.176	10777
838.269	8340
838.363	3116
838.456	2430
838.549	5471
838.642	7049
838.735	13623
838.829	4912
838.922	2036
839.015	2012
839.108	775
839.201	2066
839.294	2079
839.387	2333
839.480	1689
839.573	3500
839.666	4354
839.759	2625
839.852	299
839.945	2076
840.038	979
840.131	491
840.223	2232
840.316	1844
840.409	1929
840.502	958
840.594	1265
840.687	330
840.780	1689
840.873	1530
840.965	2641
841.058	5120
841.150	8517
841.243	4963
841.336	2703
841.428	1759
841.521	1565
841.613	1824
841.706	1665
841.798	2253
841.890	1377
841.983	649
842.075	2730
842.167	2409
842.260	3108
842.352	3776
842.444	5322
842.537	10147
842.629	13017
842.721	2516
842.813	2053
842.905	596
842.997	1959
843.090	3840
843.182	5445
843.274	11163
843.366	23793
843.458	42015
843.550	23472
843.642	3502
843.734	3068
843.826	3619
843.918	3457
844.009	2095
844.101	1881
844.193	2109
844.285	979
844.377	2417
844.469	2727
844.560	1946
844.652	1957
844.744	2255
844.835	1502
844.927	2360
845.019	2955
845.110	2336
845.202	1741
845.293	1911
845.385	765
845.476	927
845.568	2587
845.659	1730
845.751	2113
845.842	1234
845.934	1203
846.025	736
846.116	1268
846.208	1675
846.299	1364
846.390	891
846.482	1900
846.573	2836
846.664	4400
846.755	6261
846.846	5336
846.937	806
847.029	660
847.120	1235
847.211	931
847.302	2971
847.393	445
847.484	1315
847.575	548
847.666	266
847.757	864
847.847	2180
847.938	1481
848.029	796
848.120	1994
848.211	1657
848.302	994
848.392	308
848.483	1039
848.574	1129
848.664	1235
848.755	966
848.846	1858
848.936	751
849.027	1123
849.118	1530
849.208	1585
849.299	2950
849.389	5076
849.480	10009
849.570	19847
849.661	36914
849.751	55359
849.841	16719
849.932	3361
850.022	1499
850.112	2066
850.203	2561
850.293	1144
850.383	1681
850.474	728
850.564	1548
850.654	1281
850.744	1524
850.834	869
850.924	899
851.014	1383
851.104	2395
851.194	1622
851.284	3048
851.374	3190
851.464	2419
851.554	2577
851.644	2943
851.734	4856
851.824	2989
851.914	575
852.004	2319
852.094	819
852.183	1149
852.273	1471
852.363	906
852.452	1557
852.542	1701
852.632	858
852.721	1069
852.811	961
852.901	2227
852.990	1111
853.080	2697
853.169	2125
853.259	2618
853.348	2137
853.438	3740
853.527	5209
853.617	7150
853.706	13395
853.795	25259
853.885	56674
853.974	106572
854.063	198640
854.152	272497
854.242	87892
854.331	16022
854.420	6558
854.509	5847
854.598	5492
854.687	4625
854.777	4012
854.866	2696
854.955	2290
855.044	1497
855.133	1146
855.222	1082
855.311	1292
855.400	1982
855.488	2091
855.577	1128
855.666	1311
855.755	1373
855.844	1760
855.933	1362
856.021	1547
856.110	1330
856.199	1138
856.288	1401
856.376	1425
856.465	796
856.554	608
856.642	1312
856.731	1493
856.819	1237
856.908	471
856.996	1110
857.085	1346
857.173	985
857.262	1399
857.350	991
857.438	883
857.527	2023
857.615	97
857.703	1147
857.792	846
857.880	574
857.968	1006
858.056	989
858.145	1656
858.233	503
858.321	657
858.409	931
858.497	895
858.585	40
858.673	767
858.761	792
858.849	889
858.937	576
859.025	1239
859.113	903
859.201	751
859.289	2440
859.377	876
859.465	889
859.552	914
859.640	903
859.728	947
859.816	860
859.903	185
859.991	662
860.079	1330
860.166	1264
860.254	-40
860.342	2254
860.429	438
860.517	-48
860.604	1090
860.692	942
860.779	863
860.867	1374
860.954	1581
861.042	1033
861.129	2279
861.216	1452
861.304	789
861.391	1115
861.478	1104
861.565	1386
861.653	1604
861.740	585
861.827	662
861.914	1446
862.001	880
862.089	1316
862.176	1470
862.263	1379
862.350	1476
862.437	987
862.524	1032
862.611	1289
862.698	1145
862.785	757
862.871	1517
862.958	937
863.045	169
863.132	2074
863.219	940
863.306	81
863.392	738
863.479	336
863.566	821
863.652	1198
863.739	1390
863.826	791
863.912	1647
863.999	203
864.086	642
864.172	2164
864.259	534
864.345	1690
864.432	985
864.518	1526
864.604	674
864.691	1788
864.777	2474
864.863	1607
864.950	2052
865.036	2286
865.122	4271
865.209	3475
865.295	3560
865.381	3837
865.467	4282
865.553	4855
865.639	8708
865.726	14079
865.812	29105
865.898	55568
865.984	80577
866.070	156804
866.156	140399
866.242	32993
866.328	9047
866.414	5217
866.499	4654
866.585	3578
866.671	3250
866.757	3486
866.843	3404
866.928	2397
867.014	2484
867.100	3548
867.186	3516
867.271	4149
867.357	6447
867.442	5882
867.528	4101
867.614	2604
867.699	2418
867.785	3059
867.870	3406
867.956	2818
868.041	3193
868.127	3975
868.212	3805
868.297	2817
868.383	3737
868.468	4732
868.553	7741
868.639	8509
868.724	16926
868.809	12574
868.894	3632
868.979	2285
869.065	2445
869.150	1772
869.235	3255
869.320	2939
869.405	868
869.490	2242
869.575	1366
869.660	2081
869.745	2544
869.830	1475
869.915	1568
870.000	1670
870.085	1939
870.169	2715
870.254	2206
870.339	1640
870.424	1506
870.509	2095
870.593	2066
870.678	2542
870.763	687
870.847	1848
870.932	1977
871.016	1951
871.101	1360
871.186	2093
871.270	1868
871.355	626
871.439	1873
871.523	2460
871.608	906
871.692	1420
871.777	2231
871.861	1887
871.945	1046
872.030	1552
872.114	1224
872.198	690
872.282	1711
872.367	1356
872.451	1726
872.535	845
872.619	1844
872.703	921
872.787	1595
872.871	1285
872.955	1466
873.039	799
873.123	1377
873.207	2337
873.291	1158
873.375	1693
873.459	1848
873.543	1080
873.627	1259
873.711	1198
873.794	1368
873.878	954
873.962	777
874.045	2571
874.129	877
874.137	870
874.213	800
874.245	927
874.296	1135
874.352	1339
874.380	1440
874.460	1412
874.464	1411
874.547	1115
874.568	1367
874.631	2120
874.676	1343
874.714	675
874.784	1825
874.798	2062
874.881	2040
874.892	1886
874.965	771
874.999	985
875.048	1312
875.107	1157
875.131	1071
875.215	1401
875.215	1401
875.298	999
875.323	1021
875.381	1112
875.430	1383
875.465	1574
875.538	1242
875.548	1187
875.631	1363
875.646	1204
875.714	439
875.753	700
875.798	1071
875.861	1090
875.881	1054
875.964	888
875.968	892
876.047	1070
876.076	1286
876.130	1706
876.183	1540
876.213	1400
876.291	2183
876.296	2241
876.379	1513
876.398	1267
876.462	424
876.506	684
876.545	963
876.613	1247
876.628	1298
876.711	1547
876.721	1533
876.794	1458
876.828	1330
876.877	1069
876.935	948
876.960	956
877.043	1132
877.043	1132
877.125	1203
877.150	1360
877.208	1774
877.258	1718
877.291	1685
877.365	1190
877.374	1118
877.456	1362
877.472	1336
877.539	1285
877.579	1420
877.622	1512
877.687	1324
877.704	1355
877.787	1833
877.794	1851
877.869	1739
877.901	1661
877.952	1448
878.008	1166
878.034	1095
878.115	829
878.117	824
878.199	456
878.222	585
878.282	992
878.329	1538
878.364	1943
878.437	1745
878.447	1687
878.529	140
878.544	187
878.611	403
878.651	665
878.694	1057
878.758	1161
878.776	1198
878.858	1235
878.865	1258
878.941	1485
878.972	1550
879.023	1477
879.078	1121
879.105	1122
879.185	1855
879.187	1865
879.269	1542
879.292	1361
879.351	804
879.399	666
879.433	601
879.506	1055
879.516	1102
879.598	323
879.613	425
879.680	1106
879.720	1339
879.762	1384
879.827	604
879.844	428
879.926	870
879.933	877
880.007	1412
880.040	1650
880.089	1604
880.147	2375
880.171	2871
880.253	5356
880.254	5369
880.335	6688
880.360	7282
880.417	9582
880.467	14520
880.499	17505
880.574	18296
880.580	18026
880.662	6058
880.680	4724
880.744	1395
880.787	796
880.825	697
880.893	1037
880.907	1089
880.989	1031
881.000	1019
881.070	1175
881.106	1049
881.152	712
881.213	704
881.233	770
881.315	801
881.319	802
881.396	1120
881.426	1140
881.478	836
881.532	1006
881.559	1099
881.639	839
881.641	836
881.722	866
881.745	891
881.803	1429
881.852	1808
881.885	1635
881.958	1299
881.966	1320
882.047	1474
882.064	1564
882.129	2138
882.171	2775
882.210	3262
882.277	3745
882.291	3801
882.372	2243
882.383	2121
882.454	864
882.489	533
882.535	640
882.596	818
882.616	770
882.697	719
882.702	716
882.778	1065
882.808	1206
882.859	1000
882.914	574
882.940	594
883.020	733
883.021	735
883.102	1112
883.127	1108
883.183	1260
883.233	1409
883.264	1262
883.339	1272
883.345	1267
883.426	556
883.445	637
883.507	1062
883.551	718
883.587	700
883.657	1153
883.668	1229
883.749	1847
883.763	1870
883.830	1395
883.869	1142
883.910	849
883.975	673
883.991	730
884.072	886
884.081	923
884.152	1116
884.187	999
884.233	846
884.292	865
884.314	717
884.394	40
884.398	9
884.475	182
884.504	308
884.555	643
884.610	813
884.636	797
884.716	929
884.716	932
884.797	746
884.821	744
884.877	989
884.927	1159
884.958	1065
885.033	655
885.038	647
885.118	658
885.139	592
885.199	424
885.244	570
885.279	972
885.350	1600
885.359	1603
885.439	1462
885.456	1426
885.520	1214
885.561	1090
885.600	909
885.667	674
885.680	774
885.760	1246
885.773	1344
885.840	1209
885.878	1062
885.920	1113
885.984	1142
886.000	1052
886.080	701
886.089	662
886.160	829
886.195	829
886.240	780
886.300	944
886.320	1138
886.400	1765
886.406	1795
886.480	1154
886.511	976
886.560	1376
886.616	1528
886.640	1365
886.720	916
886.722	907
886.800	725
886.827	606
886.879	675
886.932	812
886.959	1138
887.038	1832
887.039	1829
887.119	1400
887.143	1261
887.198	1227
887.248	1053
887.278	1042
887.354	1063
887.358	1085
887.437	1525
887.459	1642
887.517	1233
887.564	809
887.596	912
887.669	1344
887.676	1296
887.755	621
887.774	408
887.835	805
887.880	1295
887.914	1298
887.985	922
887.994	891
888.073	908
888.090	866
888.153	1306
888.195	1646
888.232	1556
888.300	1355
888.311	1311
888.391	981
888.405	917
888.470	608
888.510	435
888.549	631
888.615	936
888.628	984
888.708	1210
888.720	1255
888.787	1523
888.825	1628
888.866	1498
888.930	1372
888.945	1465
889.024	1922
889.035	1973
889.103	2027
889.140	2048
889.182	1432
889.245	542
889.261	670
889.340	1300
889.349	1369
889.419	1158
889.454	1054
889.498	1072
889.559	1101
889.577	1048
889.656	819
889.664	798
889.735	1309
889.768	1551
889.814	1203
889.873	736
889.978	943
890.083	1216
890.187	2233
890.292	929
890.397	693
890.501	1344
890.606	1013
890.710	974
890.815	1161
890.919	1808
891.024	684
891.128	1258
891.233	1409
891.337	1609
891.442	1433
891.546	1360
891.650	1615
891.755	1227
891.859	2594
891.963	2142
892.068	2769
892.172	1314
892.276	1211
892.380	1880
892.484	1600
892.589	1897
892.693	708
892.797	892
892.901	987
893.005	1152
893.109	1436
893.213	1758
893.317	1749
893.421	992
893.525	1674
893.629	1054
893.733	1994
893.837	602
893.941	967
894.045	593
894.148	999
894.252	1608
894.356	861
894.460	1827
894.564	1274
894.667	1294
894.771	1095
894.875	591
894.978	1461
895.082	609
895.186	1933
895.289	1255
895.393	1195
895.496	1904
895.600	1508
895.703	1085
895.807	1203
895.910	872
896.014	1953
896.117	405
896.221	1076
896.324	920
896.427	1814
896.531	1308
896.634	679
896.737	765
896.840	1091
896.944	1640
897.047	1357
897.150	444
897.253	864
897.356	797
897.460	913
897.563	855
897.666	1441
897.769	1114
897.872	844
897.975	1265
898.078	1688
898.181	549
898.284	1057
898.387	1395
898.490	1859
898.593	656
898.695	846
898.798	895
898.901	878
899.004	618
899.107	1204
899.209	1152
899.312	689
899.415	360
899.518	39
899.620	-75
899.723	2088
899.826	2432
899.928	3301
900.031	1350
900.133	1692
900.236	163
900.338	519
900.441	1226
900.543	537
900.646	772
900.748	1649
900.851	1322
900.953	962
901.055	725
901.158	1489
901.260	601
901.362	978
901.465	777
901.567	1064
901.669	1761
901.771	1180
901.873	221
901.976	1893
902.078	1312
902.180	917
902.282	941
902.384	971
902.486	1543
902.588	1494
902.690	1859
902.792	1529
902.894	1618
902.996	1306
903.098	574
903.200	1229
903.302	477
903.404	1056
903.505	1310
903.607	1366
903.709	1501
903.811	1094
903.913	862
904.014	1240
904.116	996
904.218	1495
904.319	1381
904.421	1943
904.523	1175
904.624	1370
904.726	911
904.827	400
904.929	1063
905.030	1287
905.132	2035
905.233	1884
905.335	812
905.436	1216
905.537	1348
905.639	1301
905.740	1028
905.841	1532
905.943	892
906.044	1159
906.145	1505
906.247	702
906.348	1125
906.449	1384
906.550	1228
906.651	994
906.752	887
906.854	636
906.955	755
907.056	460
907.157	1046
907.258	1213
907.359	1048
907.460	532
907.561	986
907.662	1896
907.762	1165
907.863	1504
907.964	1225
908.065	1209
908.166	1064
908.267	1324
908.367	612
908.468	631
908.569	553
908.670	1496
908.770	1389
908.871	1574
908.971	2612
909.072	1575
909.173	308
909.273	908
909.374	945
909.474	939
909.575	961
909.675	331
909.776	1208
909.876	603
909.977	1394
910.077	1203
910.177	1130
910.278	1271
910.378	891
910.478	554
910.579	1008
910.679	942
910.779	2130
910.879	1059
910.980	1289
911.080	1224
911.180	353
911.280	91
911.380	-17
911.480	1057
911.580	-187
911.680	740
911.780	1364
911.880	1757
911.980	726
912.080	373
912.180	1048
912.280	644
912.380	184
912.480	1438
912.580	715
912.679	959
912.779	1228
912.879	854
912.979	479
913.078	558
913.178	272
913.278	201
913.377	337
913.477	571
913.577	714
913.676	2023
913.776	671
913.875	1240
913.975	736
914.074	1671
914.174	669
914.273	982
914.373	1576
914.472	1223
914.572	512
914.671	837
914.770	1192
914.870	996
914.969	817
915.068	1302
915.167	1027
915.267	305
915.366	767
915.465	157
915.564	1692
915.663	1064
915.763	534
915.862	1751
915.961	1169
916.060	921
916.159	852
916.258	413
916.357	870
916.456	1101
916.555	836
916.654	425
916.752	215
916.851	1116
916.950	624
917.049	653
917.148	899
917.247	821
917.345	1166
917.444	599
917.543	478
917.642	587
917.740	334
917.839	1040
917.937	1486
918.036	1150
918.135	1164
918.233	736
918.332	222
918.430	891
918.529	534
918.627	614
918.726	488
918.824	998
918.923	425
919.021	1045
919.119	458
919.218	1011
919.316	1354
919.414	522
919.512	514
919.611	1281
919.709	516
919.807	888
919.905	962
920.003	1097
920.102	654
920.200	581
920.298	1593
920.396	1255
920.494	587
920.592	736
920.690	765
920.788	625
920.886	1252
920.984	1647
921.082	546
921.180	1218
921.277	1371
921.375	1363
921.473	1304
921.571	1327
921.669	1242
921.766	1674
921.864	2029
921.962	1531
922.060	1522
922.157	1678
922.255	1519
922.352	1472
922.450	2251
922.548	1880
922.645	2081
922.743	1708
922.840	2861
922.938	3953
923.035	3127
923.133	2813
923.230	3776
923.327	3665
923.425	2897
923.522	3272
923.619	3037
923.717	2331
923.814	3542
923.911	2763
924.008	3233
924.106	3062
924.203	2241
924.300	2638
924.397	2689
924.494	3501
924.591	3078
924.688	2070
924.786	2262
924.883	3288
924.979	2426
925.077	4077
925.173	2972
925.270	2699
925.367	2650
925.464	3973
925.561	3425
925.658	3421
925.755	3297
925.852	2973
925.948	3169
926.045	3769
926.142	2723
926.239	3625
926.335	2803
926.432	3086
926.529	2242
926.625	4135
926.722	2697
926.818	2772
926.915	3104
927.011	2229
927.108	2649
927.204	2426
927.301	1949
927.397	2502
927.494	3206
927.590	2644
927.687	2093
927.783	2182
927.879	1819
927.976	1881
928.072	1683
928.168	2613
928.264	2003
928.361	2029
928.457	2899
928.553	3164
928.649	2892
928.745	2309
928.841	2054
928.937	2925
929.033	2878
929.129	2109
929.225	1976
929.321	3131
929.417	2429
929.513	2350
929.609	1569
929.705	2224
929.801	2540
929.897	2439
929.993	1792
930.089	2125
930.184	2192
930.280	2983
930.376	2757
930.471	1861
930.567	1915
930.663	2966
930.758	2186
930.854	2103
930.950	2233
931.045	2116
931.141	2658
931.236	2810
931.332	1830
931.427	1906
931.523	2397
931.618	1761
931.714	1977
931.809	2576
931.905	2227
932.000	1431
932.095	1597
932.191	2064
932.286	2528
932.381	1924
932.476	1665
932.572	2178
932.667	1655
932.762	1772
932.857	2438
932.952	2579
933.047	1674
933.142	1289
933.237	1524
933.332	2322
933.427	2767
933.522	1955
933.617	1654
933.712	2172
933.807	2244
933.902	2640
933.997	2151
934.092	1387
934.187	1114
934.282	1190
934.376	2364
934.471	1842
934.566	1444
934.661	2531
934.755	2580
934.850	2172
934.945	1917
935.039	1499
935.134	1903
935.228	1548
935.323	2574
935.417	2163
935.512	1471
935.606	1584
935.701	1825
935.795	2888
935.890	1528
935.984	1645
936.079	682
936.173	2390
936.267	1639
936.362	1390
936.456	2016
936.550	2251
936.644	2121
936.738	1356
936.833	2421
936.927	1623
937.021	1751
937.115	1670
937.209	1960
937.303	1616
937.397	1854
937.491	2313
937.585	1822
937.679	2853
937.773	1683
937.867	1832
937.961	1577
938.055	2423
938.149	1787
938.243	1803
938.337	1355
938.430	1835
938.524	1891
938.618	2243
938.712	1612
938.805	2019
938.899	1371
938.993	2095
939.086	1764
939.180	2286
939.274	1844
939.367	2124
939.461	1853
939.554	1914
939.648	1287
939.741	2250
939.835	2207
939.928	2243
940.022	2371
940.115	2421
940.208	2876
940.302	2049
940.395	1331
940.488	1313
940.582	1823
940.675	1397
940.768	1238
940.861	1491
940.954	2541
941.048	794
941.141	2028
941.234	1754
941.327	2684
941.420	2445
941.513	1950
941.606	1513
941.699	2446
941.792	1780
941.885	1064
941.978	1577
942.071	820
942.164	1117
942.257	902
942.349	2407
942.442	1843
942.535	1394
942.628	953
942.721	2037
942.813	1042
942.906	2239
942.999	965
943.091	1421
943.184	2376
943.277	1034
943.369	1115
943.462	1232
943.554	1699
943.647	1636
943.739	2316
943.832	1691
943.924	1048
944.017	1490
944.109	237
944.201	1870
944.294	1416
944.386	1744
944.478	455
944.571	1415
944.663	1995
944.755	1951
944.847	1267
944.940	2329
945.032	341
945.124	1436
945.216	1840
945.308	2044
945.400	1913
945.492	1429
945.584	1770
945.676	1704
945.768	1425
945.860	1831
945.952	1469
946.044	1825
946.136	1383
946.228	1065
946.320	357
946.412	1670
946.503	404
946.595	2778
946.687	702
946.779	1015
946.870	1299
946.962	673
947.054	1735
947.145	2286
947.237	894
947.329	1324
947.420	1544
947.512	1690
947.603	1673
947.695	1964
947.786	425
947.878	1364
947.969	1820
948.061	719
948.152	703
948.243	1089
948.335	1691
948.426	1556
948.517	446
948.609	1480
948.700	1095
948.791	1418
948.882	946
948.973	1146
949.065	607
949.156	1604
949.247	496
949.338	1194
949.429	1323
949.520	1589
949.611	678
949.702	1919
949.793	1358
949.884	972
949.975	931
950.066	539
950.157	622
950.247	1346
950.338	619
950.429	492
950.520	460
950.611	1088
950.701	1022
950.792	2133
950.883	1025
950.973	962
951.064	1390
951.155	2515
951.245	1813
951.336	1230
951.427	968
951.517	2686
951.608	823
951.698	825
951.788	614
951.879	601
951.969	937
952.060	388
952.150	645
952.240	2304
952.331	-367
952.421	1783
952.511	83
952.602	716
952.692	655
952.782	612
952.872	828
952.962	1315
953.052	878
953.143	643
953.233	1104
953.323	1309
953.413	-72
953.503	1242
953.593	1582
953.683	674
953.773	149
953.863	763
953.953	505
954.042	1139
954.132	743
954.222	1108
954.312	872
954.402	1203
954.492	1586
954.581	2138
954.671	517
954.761	386
954.850	2275
954.940	225
955.030	625
955.119	722
955.209	330
955.298	392
955.388	356
955.477	1987
955.567	-172
955.656	1351
955.746	1058
955.835	1242
955.925	-206
956.014	525
956.103	575
956.193	720
956.282	1006
956.371	849
956.461	325
956.550	743
956.639	587
956.728	147
956.817	804
956.906	669
956.995	1600
957.085	1066
957.174	274
957.263	1138
957.352	521
957.441	834
957.530	1347
957.619	946
957.708	658
957.796	657
957.885	244
957.974	34
958.063	524
958.152	173
958.241	874
958.329	93
958.418	700
958.507	546
958.596	1883
958.684	-27
958.773	556
958.861	289
958.950	922
959.039	333
959.127	544
959.216	913
959.304	532
959.393	849
959.481	1204
959.570	888
959.658	419
959.746	823
959.835	1625
959.923	2145
960.011	598
960.100	1454
960.188	1047
960.276	1126
960.365	-60
960.453	531
960.541	17
960.629	1274
960.717	619
960.805	31
960.893	446
960.981	836
961.069	1040
961.158	490
961.245	1020
961.333	1192
961.421	-64
961.509	1175
961.597	-103
961.685	1072
961.773	812
961.861	841
961.949	882
962.036	-22
962.124	1599
962.212	193
962.299	183
962.387	375
962.475	772
962.562	235
962.650	675
962.738	465
962.825	-269
962.913	1542
963.000	448
963.088	407
963.175	959
963.263	597
963.350	775
963.438	1226
963.525	1098
963.612	2595
963.700	3722
963.787	9927
963.874	3465
963.962	697
964.049	1191
964.136	222
964.223	124
964.310	-131
964.398	630
964.485	47
964.572	647
964.659	1882
964.746	1687
964.833	126
964.920	-108
965.007	779
965.094	510
965.181	14
965.268	807
965.355	832
965.441	432
965.528	333
965.615	967
965.702	458
965.789	-671
965.875	454
965.962	319
966.049	144
966.136	1238
966.222	545
966.309	245
966.395	540
966.482	1171
966.569	197
966.655	229
966.742	170
966.828	187
966.915	515
967.001	733
967.087	151
967.174	469
967.260	1255
967.347	1499
967.433	3301
967.519	5832
967.605	1763
967.692	231
967.778	948
967.864	722
967.950	280
968.036	327
968.123	707
968.209	-206
968.295	-845
968.381	1101
968.467	703
968.553	-702
968.639	1288
968.725	-829
968.811	2111
968.897	558
968.983	55
969.069	-293
969.154	769
969.240	429
969.326	27
969.412	250
969.497	511
969.583	-581
969.669	1189
969.755	308
969.840	538
969.926	1270
970.012	886
970.097	2023
970.183	965
970.268	1009
970.354	1276
970.439	2022
970.525	4946
970.610	835
970.696	790
970.781	-403
970.866	67
970.952	961
971.037	-98
971.122	463
971.208	1115
971.293	560
971.378	-265
971.463	591
971.549	1346
971.634	378
971.719	740
971.804	1366
971.889	1461
971.974	-134
972.059	302
972.144	536
972.229	310
972.314	-518
972.399	216
972.484	-152
972.569	801
972.654	534
972.739	3583
972.824	1828
972.908	1270
972.993	499
973.078	-207
973.163	151
973.247	1445
973.332	-521
973.417	1099
973.501	84
973.586	1200
973.671	119
973.755	-418
973.840	839
973.924	1591
974.009	1010
974.093	827
974.178	2153
974.262	1365
974.346	903
974.431	1210
974.515	-27
974.600	-22
974.684	1796
974.768	-163
974.852	1869
974.937	-340
975.021	718
975.105	-347
975.189	-105
975.273	417
975.358	42
975.442	-660
975.526	2063
975.610	-353
975.694	-418
975.778	543
975.862	259
975.946	-1513
976.030	1555
976.114	-222
976.198	749
976.281	-126
976.365	999
976.449	546
976.533	1121
976.617	527
976.700	-310
976.784	783
976.868	126
976.951	1951
977.035	494
977.119	460
977.202	648
977.286	764
977.369	-413
977.453	698
977.536	1205
977.620	625
977.703	1229
977.787	590
977.870	1411
977.953	1260
978.037	-313
978.120	1148
978.203	1490
978.287	2750
978.370	922
978.453	303
978.536	569
978.620	1289
978.703	1026
978.786	332
978.869	50
978.952	-391
979.035	1332
979.118	1395
979.201	216
979.284	1729
979.367	-134
979.450	857
979.533	-108
979.616	322
979.699	-145
979.782	1496
979.865	738
979.948	294
980.030	-63
980.113	954
980.196	69
980.279	1812
980.361	-252
980.444	616
980.526	1326
980.609	662
980.692	882
980.774	1546
980.857	-981
980.939	1058
981.022	48
981.104	214
981.187	112
981.269	1338
981.352	306
981.434	235
981.516	-769
981.599	1637
981.681	789
981.763	674
981.846	-126
981.928	1127
982.010	844
982.092	286
982.174	1239
982.256	576
982.339	339
982.421	667
982.503	641
982.585	269
982.667	-52
982.749	435
982.831	1215
982.913	-72
982.995	1223
983.077	-747
983.158	1969
983.240	300
983.322	748
983.404	2226
983.486	663
983.568	482
983.649	642
983.731	343
983.813	-221
983.894	671
983.976	-427
984.058	435
984.139	1418
984.221	-111
984.302	1056
984.384	257
984.465	332
984.547	65
984.628	357
984.710	811
984.791	393
984.872	595
984.954	302
985.035	264
985.116	-140
985.198	388
985.279	1942
985.360	-619
985.441	279
985.522	893
985.604	-152
985.685	-1298
985.766	1477
985.847	2551
985.928	-696
986.009	-121
986.090	-436
986.171	874
986.252	-406
986.333	904
986.414	275
986.495	916
986.576	-337
986.656	321
986.737	1120
986.818	-176
986.899	-526
986.980	1251
987.060	1077
987.141	118
987.222	758
987.302	1358
987.383	540
987.464	780
987.544	383
987.625	22
987.705	1285
987.786	971
987.866	578
987.947	-337
988.027	172
988.108	3
988.188	744
988.268	163
988.349	1008
988.429	443
988.509	343
988.589	248
988.670	-412
988.750	1372
988.830	270
988.910	465
988.990	750
989.070	538
989.151	-381
989.231	-81
989.311	952
989.391	763
989.471	72
989.551	503
989.631	-471
989.711	1353
989.791	-1212
989.870	-506
989.950	1480
990.030	700
990.110	510
990.190	-286
990.269	307
990.349	421
990.429	268
990.509	704
990.588	603
990.668	400
990.747	-321
990.827	-453
990.907	977
990.986	320
991.066	799
991.145	153
991.225	1296
991.304	110
991.383	899
991.463	210
991.542	370
991.622	484
991.701	-174
991.780	91
991.859	247
991.939	85
992.018	80
992.097	-16
992.176	575
992.256	-124
992.335	-503
992.414	521
992.493	342
992.572	-299
992.651	510
992.730	18
992.809	195
992.888	-489
992.967	-449
993.046	272
993.125	-575
993.203	-503
993.282	-23
993.361	-570
993.440	1395
993.519	-592
993.597	-120
993.676	-174
993.755	212
993.834	418
993.912	-665
993.991	245
994.069	-1056
994.148	-211
994.226	-693
994.305	421
994.384	-100
994.462	903
994.540	-815
994.619	310
994.697	172
994.776	-506
994.854	363
994.932	-175
995.011	-60
995.089	-500
995.167	349
995.245	-306
995.324	-1497
995.402	-184
995.480	-403
995.558	53
995.636	-1130
995.714	-1132
995.792	431
995.870	-135
995.948	-557
996.026	432
996.104	-788
996.182	-83
996.260	-411
996.338	-363
996.416	-1498
996.494	-550
996.572	362
996.649	-80
996.727	-145
996.805	630
996.883	-433
996.960	-937
997.038	-188
997.116	134
997.193	-182
997.271	-333
997.348	-247
997.426	-288
997.504	-743
997.581	348
997.658	-98
997.736	-782
997.813	-228
997.891	387
997.968	-242
998.046	-114
998.123	-752
998.200	402
998.277	-774
998.355	997
998.432	-1062
998.509	333
998.586	-626
998.663	29
998.741	-241
998.818	-328
998.895	-1072
998.972	280
999.049	-228
999.126	-459
999.203	537
999.280	-756
999.357	247
999.434	-232
999.511	-85
999.587	186
999.664	-897
999.741	101
999.818	-250
999.895	-31
999.971	-1441
1000.048	-420
1000.125	-613
1000.202	-728
1000.278	-608
1000.355	-114
1000.431	-729
1000.508	-869
1000.584	384
1000.661	-52
1000.738	-485
1000.814	-676
1000.890	-360
1000.967	-265
1001.043	-433
1001.120	-1384
1001.196	-560
1001.272	-788
1001.349	-818
1001.425	1017
1001.501	-379
1001.577	-723
1001.654	-143
1001.730	-459
1001.806	-791
1001.882	-588
1001.958	-981
1002.034	28
1002.110	-146
1002.186	-1400
1002.262	-939
1002.338	-632
1002.414	-413
1002.490	-317
1002.566	-905
1002.642	-399
1002.718	362
1002.794	-923
1002.870	-1052
1002.945	-818
1003.021	-971
1003.097	-506
1003.173	-672
1003.248	-686
1003.324	-297
1003.400	67
1003.475	-1143
1003.551	-8
1003.626	-185
1003.702	-958
1003.777	-855
1003.853	-1062
1003.928	-1376
1004.004	-783
1004.079	-96
1004.155	9
1004.230	-1408
1004.305	75
1004.381	-736
1004.456	-251
1004.531	-302
1004.607	75
1004.682	95
1004.757	-317
1004.832	-861
1004.907	-196
1004.982	-1494
1005.057	-420
1005.133	-1090
1005.208	-756
1005.283	-303
1005.358	-30
1005.433	-1232
1005.508	-1022
1005.583	-1399
1005.657	-359
1005.732	-39
1005.807	-72
1005.882	-938
1005.957	-572
1006.032	-144
1006.106	-674
1006.181	-968
1006.256	-824
1006.331	-1975
1006.405	-430
1006.480	-717
1006.554	-424
1006.629	-278
1006.704	-1430
1006.778	-221
1006.853	119
1006.927	-1500
1007.002	-745
1007.076	-311
1007.150	-632
1007.225	-908
1007.299	-132
1007.373	-1038
1007.448	-238
1007.522	-162
1007.596	-402
1007.671	-1537
1007.745	179
1007.819	-1455
1007.893	-303
1007.967	-518
1008.041	-1151
1008.115	70
1008.190	-1898
1008.264	-837
1008.338	-1130
1008.412	-768
1008.486	-764
1008.560	-1139
1008.633	-1415
1008.707	-1091
1008.781	-57
1008.855	-842
1008.929	-768
1009.003	-159
1009.076	-1355
1009.150	-31
1009.224	-587
1009.298	-892
1009.371	-1228
1009.445	-714
1009.519	-541
1009.592	-1128
1009.666	-573
1009.739	-158
1009.813	-917
1009.886	-57
1009.960	-1643
1010.033	187
1010.107	402
1010.180	-1340
1010.253	-942
1010.327	-1278
1010.400	-393
1010.473	-1028
1010.547	360
1010.620	-713
1010.693	-234
1010.766	-938
1010.840	227
1010.913	-140
1010.986	-1160
1011.059	-776
1011.132	-872
1011.205	357
1011.278	-608
1011.351	-1254
1011.424	-904
1011.497	-1059
1011.570	-526
1011.643	-457
1011.716	-1096
1011.789	-1040
1011.862	-332
1011.934	-565
1012.007	-1476
1012.080	-645
1012.153	-1097
1012.225	61
1012.298	-1365
1012.371	-1075
1012.443	-639
1012.516	-1209
1012.588	281
1012.661	-812
1012.733	-1169
1012.806	0
1012.879	-1729
1012.951	-619
1013.023	-1146
1013.096	276
1013.168	-1069
1013.241	-700
1013.313	-396
1013.385	-543
1013.458	-1018
1013.530	-804
1013.602	-1477
1013.674	-160
1013.746	-1401
1013.819	-1210
1013.891	-743
1013.963	-1539
1014.035	-473
1014.107	3
1014.179	69
1014.251	-1052
1014.323	-815
1014.395	-744
1014.467	-1334
1014.539	-1015
1014.611	-1127
1014.683	-724
1014.754	-715
1014.826	-1261
1014.898	-685
1014.970	-1823
1015.042	-179
1015.113	-833
1015.185	-709
1015.257	-1437
1015.328	-486
1015.400	-1270
1015.471	-316
1015.543	-993
1015.615	-240
1015.686	-1651
1015.757	-681
1015.829	-550
1015.901	-763
1015.972	-496
1016.043	-879
1016.115	-1019
1016.186	-880
1016.257	-1349
1016.328	-689
1016.400	-423
1016.471	-1336
1016.542	-2065
1016.613	-87
1016.685	-825
1016.756	-225
1016.827	-839
1016.898	-1632
1016.969	-1036
1017.040	-200
1017.111	-1386
1017.182	-1077
1017.253	-538
1017.324	-1431
1017.395	-909
1017.466	-719
1017.537	-1220
1017.608	26
1017.678	-549
1017.749	-841
1017.820	-1487
1017.891	-1557
1017.961	-836
1018.032	-1048
1018.103	-1029
1018.173	-1055
1018.244	-1252
1018.315	-319
1018.385	-427
1018.456	-674
1018.526	-1874
1018.597	-438
1018.667	-815
1018.738	-1120
1018.808	-1371
1018.878	-404
1018.949	-1339
1019.019	-216
1019.089	-814
1019.160	-1298
1019.230	-1421
1019.300	-794
1019.371	-1502
1019.441	-473
1019.511	-776
1019.581	-1126
1019.651	-119
1019.721	-366
1019.791	-1235
1019.861	-859
1019.931	-805
1020.001	-827
1020.071	-1238
1020.141	-1002
1020.211	-958
1020.281	-1071
1020.351	-962
1020.421	-790
1020.491	-970
1020.560	-1568
1020.630	-355
1020.700	-1404
1020.770	-1610
1020.839	-811
1020.909	-1031
1020.979	-869
1021.048	-1307
1021.118	-1657
1021.187	-1139
1021.257	-931
1021.326	-980
1021.396	-589
1021.465	-792
1021.535	-409
1021.604	-1638
1021.674	-546
1021.743	-1528
1021.812	-2030
1021.882	-1473
1021.951	-829
1022.020	-1780
1022.089	-433
1022.159	-710
1022.228	-1273
1022.297	-1893
1022.366	-641
1022.435	-1290
1022.504	-972
1022.573	-1931
1022.642	-525
1022.711	-1465
1022.781	-1017
1022.849	-974
1022.918	-1049
1022.987	-1420
1023.056	-1198
1023.125	-1052
1023.194	-677
1023.263	-742
1023.331	-905
1023.400	-1650
1023.469	-1754
1023.538	-993
1023.606	-1509
1023.675	-996
1023.744	-1164
1023.812	-981
1023.881	-1004
1023.949	-1468
1024.018	-718
1024.086	-1347
1024.155	-1016
1024.223	-996
1024.292	-1033
1024.360	-1396
1024.429	-917
1024.497	-1698
1024.565	-1723
1024.634	-1352
1024.702	-530
1024.770	-1017
1024.838	-1080
1024.907	-1186
1024.975	-1143
1025.043	-1405
1025.111	-2028
1025.179	-1469
1025.247	-1408
1025.315	-1643
1025.383	-797
1025.451	-1515
1025.519	-782
1025.587	-1790
1025.655	-503
1025.723	-963
1025.791	-1111
1025.859	-1447
1025.927	-410
1025.995	-1194
1026.062	-1368
1026.130	-688
1026.198	-969
1026.266	-2429
1026.333	-713
1026.401	-1465
1026.469	-1729
1026.536	-362
1026.604	-1235
1026.671	-1717
1026.739	-1506
1026.806	-1414
1026.874	-1485
1026.941	-864
1027.009	-1476
1027.076	-1422
1027.144	-415
1027.211	-2098
1027.278	-1664
1027.345	-987
1027.413	-692
1027.480	-1848
1027.547	-1460
1027.614	-1337
1027.682	-724
1027.749	-1518
1027.816	-932
1027.883	-1319
1027.950	-1145
1028.017	-2140
1028.084	-1805
1028.151	-2375
1028.218	-1353
1028.285	-2734
1028.352	-1727
1028.419	-1525
1028.486	-1679
1028.553	-1382
1028.619	-1636
1028.686	-2219
1028.753	-1823
1028.820	-1213
1028.886	-1427
1028.953	-1193
1029.020	-1910
1029.086	-1624
1029.153	-1393
1029.220	-1809
1029.286	-892
1029.353	-870
1029.419	-1870
1029.486	-769
1029.552	-1773
1029.619	-1861
1029.685	-1600
1029.751	-1960
1029.818	-955
1029.884	-1189
1029.951	2
1030.017	-1632
1030.083	-1770
1030.149	-767
1030.216	-1032
1030.282	-708
1030.348	-897
1030.414	-2081
1030.480	-1110
1030.546	-1120
1030.612	-1257
1030.678	-2308
1030.744	-1591
1030.810	-1170
1030.876	-1468
1030.942	-1052
1031.008	-1582
1031.074	-1452
1031.140	-802
1031.206	-482
1031.272	-1191
1031.337	-1272
1031.403	-935
1031.469	-2124
1031.534	-1348
1031.600	-1850
1031.666	-429
1031.731	-2501
1031.797	-733
1031.863	-1294
1031.928	-1307
1031.994	-1642
1032.059	-1243
1032.125	-1275
1032.190	-1410
1032.256	-1848
1032.321	-1553
1032.386	-1552
1032.452	-1467
1032.517	-1825
1032.582	-1191
1032.647	-2117
1032.713	-326
1032.778	-2039
1032.843	-1402
1032.908	-1142
1032.974	-653
1033.039	-1670
1033.104	-1078
1033.169	-1880
1033.234	-1344
1033.299	-1494
1033.364	-1001
1033.429	-1760
1033.494	-1384
1033.559	-1831
1033.624	-979
1033.688	-1680
1033.753	-2137
1033.818	-1651
1033.883	-1700
1033.948	-1375
1034.013	-1178
1034.077	-1123
1034.142	-584
1034.207	-1001
1034.271	-344
1034.336	-475
1034.400	-1169
1034.465	-563
1034.530	-941
1034.594	-1564
1034.658	-779
1034.723	-1725
1034.787	-1380
1034.852	-1853
1034.916	-2195
1034.981	-1821
1035.045	-1626
1035.109	-607
1035.173	-827
1035.238	-2573
1035.302	-1649
1035.366	-1979
1035.430	-1538
1035.495	-1604
1035.559	-1294
1035.623	-1726
1035.687	-1510
1035.751	-1110
1035.815	-1763
1035.879	-1344
1035.943	-1333
1036.007	-2304
1036.071	-1341
1036.135	-1703
1036.198	-1311
1036.262	-1559
1036.326	-953
1036.390	-1004
1036.454	-1426
1036.517	-1317
1036.581	-1647
1036.645	-662
1036.709	-1217
1036.772	-1963
1036.836	-1398
1036.900	-2164
1036.963	-1698
1037.026	-1879
1037.090	-1301
1037.154	-1363
1037.217	-1786
1037.280	-2525
1037.344	-1518
1037.407	-2142
1037.471	-2132
1037.534	-1207
1037.597	-1216
1037.661	-1447
1037.724	-545
1037.787	-1030
1037.850	-1386
1037.913	-1713
1037.977	-634
1038.040	-1449
1038.103	-1467
1038.166	-2185
1038.229	-1599
1038.292	-1556
1038.355	-1724
1038.418	-2350
1038.481	-906
1038.544	-1868
1038.607	-1046
1038.670	-1999
1038.732	-1428
1038.795	-2023
1038.858	-1794
1038.921	-906
1038.984	-1795
1039.046	-2076
1039.109	-1235
1039.172	-1867
1039.234	-1380
1039.297	-1205
1039.360	-1299
1039.422	-1908
1039.485	-1465
1039.547	-2376
1039.610	-287
1039.672	-1950
1039.734	-1554
1039.797	-1594
1039.859	-1209
1039.922	-741
1039.984	-1497
1040.046	-1372
1040.109	-1247
1040.171	-1086
1040.233	-2126
1040.295	-1333
1040.358	-1435
1040.420	-2049
1040.482	-1260
1040.544	-2491
1040.606	-803
1040.668	-2593
1040.730	-2031
1040.792	-1891
1040.854	-953
1040.916	-1454
1040.978	-1432
1041.040	-1154
1041.102	-1377
1041.164	-1882
1041.225	-1800
1041.287	-2118
1041.349	-2376
1041.411	-460
1041.472	-757
1041.534	-1854
1041.596	-1201
1041.657	-1139
1041.719	-1320
1041.781	-1896
1041.842	-1902
1041.904	-2357
1041.965	-1239
1042.027	-1450
1042.088	-1231
1042.150	-1517
1042.211	-1227
1042.272	-1504
1042.334	-1826
1042.395	-1452
1042.456	-1310
1042.518	-1003
1042.579	-873
1042.640	-1356
1042.701	-1803
1042.763	-1095
1042.824	-2052
1042.885	-1999
1042.946	-1394
1043.007	-1459
1043.068	-919
1043.129	-1424
1043.190	-1494
1043.251	-882
1043.312	-1046
1043.373	-823
1043.434	-1383
1043.495	-1703
1043.556	-1494
1043.616	-1754
1043.677	-1620
1043.738	-1342
1043.799	-1693
1043.859	-1576
1043.920	-1032
1043.981	-1807
1044.041	-1491
1044.102	-1581
1044.162	-1427
1044.223	-1229
1044.284	-1316
1044.344	-1336
1044.405	-915
1044.465	-657
1044.525	-1138
1044.586	-1586
1044.646	-817
1044.707	-1678
1044.767	-1880
1044.827	-1810
1044.887	-1762
1044.948	-1452
1045.008	-1146
1045.068	-1843
1045.128	-1162
1045.188	-1629
1045.249	-381
1045.309	-1169
1045.369	-596
1045.429	-1376
1045.489	-1655
1045.549	-931
1045.609	-1724
1045.669	-1950
1045.729	-1073
1045.789	-1660
1045.848	-943
1045.908	-1504
1045.968	-881
1046.028	-967
1046.088	-723
1046.147	-900
1046.207	-1697
1046.267	-1363
1046.326	-295
1046.386	-254
1046.446	-701
1046.505	-846
1046.565	-693
1046.624	-700
1046.684	-472
1046.743	-746
1046.803	-225
1046.862	372
1046.922	0
