'Start Wavelength	183.907
'End Wavelength	1046.922
'Gate Delay	5.000
'Gate Width (ms)	1.050
'Laser Output Level	0.000
'X Position	0.000
'Y Position	0.000
'Z Position	0.000
'Grid Point Number	1.000
'Shot Number	100.000
183.907	404.000
183.977	-276.000
184.047	-192
184.116	402
184.186	440
184.256	-334
184.325	691
184.395	-825
184.465	290
184.534	364
184.604	-562
184.674	-27
184.743	-100
184.813	-138
184.883	-45
184.952	808
185.022	271
185.092	437
185.161	114
185.231	508
185.301	-338
185.370	653
185.440	85
185.509	-380
185.579	-173
185.649	220
185.718	332
185.788	634
185.857	-795
185.927	123
185.996	-938
186.066	165
186.136	-507
186.205	45
186.275	-338
186.344	-368
186.414	-856
186.483	122
186.553	437
186.622	440
186.692	-200
186.761	-63
186.831	235
186.900	-739
186.970	-173
187.039	304
187.109	-228
187.178	-249
187.248	168
187.317	275
187.387	-469
187.456	245
187.526	728
187.595	944
187.664	-274
187.734	185
187.803	-443
187.873	1
187.942	127
188.012	76
188.081	-551
188.150	580
188.220	550
188.289	468
188.358	61
188.428	-43
188.497	-256
188.567	355
188.636	273
188.705	170
188.775	170
188.844	-99
188.913	-126
188.983	-659
189.052	-429
189.121	-39
189.191	-113
189.260	827
189.329	-45
189.399	-121
189.468	-170
189.537	-501
189.606	-516
189.676	129
189.745	404
189.814	841
189.883	-195
189.953	-247
190.022	384
190.091	272
190.161	1514
190.230	712
190.299	-65
190.368	752
190.437	-50
190.507	85
190.576	-438
190.645	217
190.714	-464
190.783	-464
190.853	576
190.922	736
190.991	127
191.060	540
191.129	-1061
191.198	5
191.268	17
191.337	209
191.406	358
191.475	401
191.544	-205
191.613	295
191.682	315
191.752	-534
191.821	93
191.890	-338
191.959	494
192.028	-68
192.097	222
192.166	-227
192.235	-457
192.304	416
192.373	-1111
192.442	360
192.511	-191
192.580	-382
192.650	-179
192.719	12
192.788	833
192.857	278
192.926	-845
192.995	-772
193.064	-164
193.133	-211
193.202	0
193.271	303
193.340	-322
193.409	749
193.478	530
193.547	563
193.615	-138
193.684	23
193.753	275
193.822	404
193.891	-316
193.960	-279
194.029	-343
194.098	689
194.167	-311
194.236	509
194.305	-87
194.374	313
194.443	-557
194.512	253
194.580	246
194.649	456
194.718	606
194.787	431
194.856	-849
194.925	589
194.994	-289
195.062	361
195.131	111
195.200	-35
195.269	782
195.338	62
195.407	1179
195.475	44
195.544	25
195.613	311
195.682	290
195.751	298
195.819	1158
195.888	388
195.957	542
196.026	1328
196.094	193
196.163	571
196.232	415
196.301	1021
196.369	-243
196.438	265
196.507	-206
196.576	-286
196.644	-96
196.713	128
196.782	223
196.850	717
196.919	-380
196.988	-34
197.056	-163
197.125	252
197.194	186
197.262	-311
197.331	281
197.400	692
197.468	-398
197.537	174
197.606	-129
197.674	343
197.743	481
197.812	494
197.880	842
197.949	478
198.017	1251
198.086	867
198.155	609
198.223	846
198.292	885
198.360	957
198.429	-328
198.497	-167
198.566	320
198.635	1390
198.703	366
198.772	122
198.840	1057
198.909	1758
198.977	-539
199.046	681
199.114	-133
199.183	-93
199.251	281
199.320	-99
199.388	-415
199.457	-65
199.525	265
199.594	771
199.662	-5
199.731	-501
199.799	410
199.867	296
199.936	932
200.004	302
200.073	995
200.141	-304
200.210	263
200.278	678
200.346	403
200.415	316
200.483	135
200.552	1150
200.620	199
200.688	780
200.757	622
200.825	1036
200.893	398
200.962	480
201.030	-44
201.098	468
201.167	676
201.235	482
201.303	9
201.372	233
201.440	131
201.508	596
201.577	43
201.645	90
201.713	-147
201.781	51
201.850	835
201.918	-455
201.986	119
202.055	693
202.123	165
202.191	-93
202.259	580
202.327	-79
202.396	-806
202.464	180
202.532	-4
202.600	2332
202.669	840
202.737	466
202.805	177
202.873	547
202.941	303
203.009	-411
203.078	-402
203.146	-157
203.214	711
203.282	-686
203.350	345
203.418	564
203.487	182
203.555	1014
203.623	-84
203.691	-222
203.759	-931
203.827	640
203.895	-359
203.963	586
204.031	-43
204.099	400
204.168	352
204.236	-224
204.304	51
204.372	1235
204.440	-229
204.508	190
204.576	-729
204.644	274
204.712	-240
204.780	400
204.848	486
204.916	427
204.984	-142
205.052	591
205.120	16
205.188	566
205.256	163
205.324	664
205.392	141
205.460	505
205.528	41
205.596	659
205.664	64
205.732	887
205.799	853
205.867	2661
205.935	113
206.003	1367
206.071	-124
206.139	519
206.207	-26
206.275	283
206.343	-330
206.411	-147
206.478	478
206.546	413
206.614	133
206.682	-376
206.750	-758
206.818	778
206.885	421
206.953	-454
207.021	983
207.089	1158
207.157	-169
207.225	286
207.292	-86
207.360	301
207.428	-556
207.496	-296
207.563	151
207.631	-20
207.699	-221
207.767	33
207.834	-425
207.902	-553
207.970	-315
208.038	359
208.105	-392
208.173	-62
208.241	457
208.309	-353
208.376	45
208.444	1132
208.512	969
208.579	-495
208.647	923
208.715	1539
208.782	50
208.850	34
208.918	-364
208.985	156
209.053	454
209.120	514
209.188	-453
209.256	-450
209.323	97
209.391	394
209.459	594
209.526	430
209.594	-289
209.661	-105
209.729	378
209.796	991
209.864	-1
209.932	-643
209.999	1416
210.067	666
210.134	303
210.202	46
210.269	1009
210.337	959
210.404	593
210.472	-174
210.539	544
210.607	366
210.674	-17
210.742	290
210.809	651
210.877	363
210.944	376
211.012	-431
211.079	1809
211.146	-93
211.214	872
211.281	1028
211.349	1006
211.416	795
211.484	773
211.551	115
211.618	530
211.686	738
211.753	-935
211.821	342
211.888	467
211.955	801
212.023	837
212.090	523
212.157	349
212.225	276
212.292	1951
212.359	2658
212.427	8790
212.494	3970
212.561	996
212.629	339
212.696	197
212.763	1191
212.831	-49
212.898	1377
212.965	181
213.032	169
213.100	439
213.167	-145
213.234	1056
213.301	898
213.369	507
213.436	-44
213.503	63
213.570	858
213.638	216
213.705	-467
213.772	-828
213.839	463
213.906	686
213.973	347
214.041	-448
214.108	-371
214.175	1045
214.242	1213
214.309	408
214.376	356
214.444	-590
214.511	1056
214.578	0
214.645	414
214.712	625
214.779	461
214.846	268
214.913	924
214.980	1049
215.048	781
215.115	1280
215.182	746
215.249	14
215.316	901
215.383	1093
215.450	347
215.517	181
215.584	693
215.651	404
215.718	739
215.785	1021
215.852	-315
215.919	1185
215.986	816
216.053	894
216.120	126
216.187	1143
216.254	-217
216.321	88
216.388	859
216.455	774
216.522	699
216.589	538
216.656	2421
216.722	2297
216.789	1113
216.856	899
216.923	653
216.990	606
217.057	802
217.124	415
217.191	788
217.258	826
217.324	1583
217.391	1854
217.458	965
217.525	287
217.592	311
217.659	-405
217.725	1017
217.792	1280
217.859	2044
217.926	589
217.993	687
218.059	231
218.126	-227
218.193	-120
218.260	605
218.327	286
218.393	-100
218.460	325
218.527	121
218.594	458
218.660	1474
218.727	2158
218.794	144
218.860	596
218.927	1339
218.994	556
219.061	723
219.127	1168
219.194	1062
219.261	341
219.327	383
219.394	492
219.461	-743
219.527	129
219.594	1902
219.661	329
219.727	-484
219.794	1171
219.860	-286
219.927	578
219.994	1549
220.060	2568
220.127	1679
220.193	1303
220.260	-124
220.326	696
220.393	437
220.460	1174
220.526	691
220.593	-203
220.659	2454
220.726	1080
220.792	3407
220.859	2374
220.925	2570
220.992	3652
221.058	4268
221.125	5400
221.191	3857
221.258	1175
221.324	1301
221.391	1240
221.457	30
221.524	438
221.590	1209
221.657	4008
221.723	3594
221.789	2267
221.856	3884
221.922	1332
221.989	1379
222.055	66
222.121	236
222.188	2077
222.254	1138
222.321	312
222.387	-196
222.453	823
222.520	188
222.586	-584
222.652	277
222.719	233
222.785	507
222.851	-199
222.918	1407
222.984	-75
223.050	469
223.116	-610
223.183	776
223.249	122
223.315	100
223.382	306
223.448	334
223.514	222
223.580	710
223.647	-176
223.713	476
223.779	-384
223.845	365
223.911	621
223.978	-536
224.044	114
224.110	-430
224.176	585
224.242	525
224.309	-624
224.375	984
224.441	-174
224.507	266
224.573	-125
224.639	1247
224.705	-31
224.772	440
224.838	188
224.904	874
224.970	532
225.036	646
225.102	-538
225.168	882
225.234	1020
225.300	-109
225.366	473
225.432	606
225.499	897
225.565	493
225.631	-63
225.697	-467
225.763	650
225.829	1047
225.895	771
225.961	1374
226.027	1929
226.093	629
226.159	1515
226.225	1683
226.291	3147
226.357	6033
226.423	2778
226.489	1766
226.554	1154
226.620	1478
226.686	1454
226.752	2371
226.818	2437
226.884	7732
226.950	7230
227.016	1768
227.082	1805
227.148	1502
227.214	1999
227.279	1246
227.345	974
227.411	678
227.477	22
227.543	3724
227.609	3015
227.674	1216
227.740	432
227.806	1228
227.872	59
227.938	977
228.003	1959
228.069	134
228.135	576
228.201	33
228.267	449
228.332	730
228.398	-267
228.464	1105
228.530	349
228.595	358
228.661	-107
228.727	1481
228.792	1696
228.858	19
228.924	-1688
228.990	1702
229.055	347
229.121	1328
229.187	944
229.252	925
229.318	-333
229.384	83
229.449	1487
229.515	-507
229.581	-671
229.646	1576
229.712	633
229.777	2866
229.843	2868
229.909	2418
229.974	2053
230.040	1613
230.105	262
230.171	1164
230.236	1662
230.302	2698
230.368	2453
230.433	-106
230.499	954
230.564	1322
230.630	206
230.695	702
230.761	1473
230.826	-13
230.892	2174
230.957	380
231.023	384
231.088	851
231.154	2
231.219	993
231.284	1476
231.350	1903
231.415	-741
231.481	1085
231.546	398
231.612	361
231.677	-127
231.742	-1038
231.808	1905
231.873	-20
231.939	-1414
232.004	2279
232.069	1904
232.135	390
232.200	-611
232.265	1057
232.331	-174
232.396	-171
232.461	481
232.527	-375
232.592	-450
232.657	799
232.723	1167
232.788	1849
232.853	170
232.918	3
232.984	19
233.049	310
233.114	936
233.179	1612
233.245	2340
233.310	3825
233.375	-12
233.440	894
233.506	90
233.571	294
233.636	584
233.701	675
233.766	1402
233.832	2444
233.897	294
233.962	-143
234.027	2701
234.092	1434
234.157	456
234.222	925
234.288	1329
234.353	6640
234.418	6654
234.483	3684
234.548	1915
234.613	1551
234.678	1204
234.743	1129
234.808	7578
234.873	3594
234.938	1845
235.004	762
235.069	1378
235.134	549
235.199	928
235.264	292
235.329	-1129
235.394	1859
235.459	1019
235.524	792
235.589	181
235.654	868
235.719	-745
235.784	1010
235.849	1259
235.913	3057
235.978	3437
236.043	5617
236.108	1844
236.173	882
236.238	1929
236.303	-472
236.368	-502
236.433	1650
236.498	3568
236.563	2432
236.627	1818
236.692	10558
236.757	8360
236.822	3303
236.887	2541
236.952	1949
237.017	-26
237.081	2393
237.146	1973
237.211	3193
237.276	9237
237.341	21400
237.405	9803
237.470	4020
237.535	3773
237.600	2523
237.664	1150
237.729	-14
237.794	730
237.859	2225
237.923	3238
237.988	1696
238.053	3122
238.118	3244
238.182	9066
238.247	8623
238.312	3423
238.376	3249
238.441	987
238.506	2398
238.570	-38
238.635	1617
238.700	964
238.764	659
238.829	3388
238.893	4597
238.958	2829
239.023	1074
239.087	634
239.152	1861
239.216	367
239.281	509
239.346	-136
239.410	32
239.475	647
239.539	8512
239.604	7272
239.668	2381
239.733	1947
239.797	2161
239.862	5816
239.926	8009
239.991	3279
240.055	1292
240.120	370
240.184	1895
240.249	91
240.313	581
240.378	764
240.442	5008
240.507	8843
240.571	2092
240.635	3355
240.700	5107
240.764	1245
240.829	943
240.893	-410
240.957	804
241.022	4676
241.086	9748
241.151	4019
241.215	561
241.279	2349
241.344	3962
241.408	1418
241.472	200
241.537	1297
241.601	916
241.665	-805
241.730	105
241.794	2331
241.858	445
241.922	938
241.987	582
242.051	271
242.115	-120
242.179	983
242.244	464
242.308	1785
242.372	1067
242.436	1333
242.501	1458
242.565	-63
242.629	563
242.693	961
242.757	99
242.822	-19
242.886	1225
242.950	1977
243.014	188
243.078	1083
243.142	1634
243.206	261
243.271	1656
243.335	529
243.399	2157
243.463	7704
243.527	27692
243.591	7891
243.655	2901
243.719	493
243.783	2288
243.847	3045
243.911	4631
243.975	4482
244.040	2914
244.104	2253
244.168	1478
244.232	2066
244.296	3932
244.360	3618
244.424	1503
244.488	1774
244.552	2127
244.615	-513
244.679	1107
244.743	1275
244.807	1116
244.871	740
244.935	1671
244.999	-172
245.063	645
245.127	2345
245.191	3109
245.255	3016
245.319	2258
245.383	1436
245.446	2149
245.510	-78
245.574	1060
245.638	1174
245.702	685
245.766	5014
245.829	3569
245.893	980
245.957	1371
246.021	1426
246.085	1569
246.149	1510
246.212	6199
246.276	9719
246.340	3674
246.404	3038
246.467	2835
246.531	3720
246.595	3633
246.659	2273
246.722	1309
246.786	2669
246.850	3255
246.913	3876
246.977	440
247.041	1549
247.104	1929
247.168	1336
247.232	6133
247.295	13183
247.359	6841
247.423	3223
247.486	5471
247.550	4149
247.614	2109
247.677	3336
247.741	2402
247.804	1189
247.868	2182
247.932	3550
247.995	12951
248.059	4276
248.122	1095
248.186	4350
248.249	4728
248.313	19985
248.376	22217
248.440	13008
248.503	3883
248.567	4436
248.630	4740
248.694	6742
248.757	10177
248.821	21952
248.884	12830
248.948	9576
249.011	16244
249.075	25499
249.138	22799
249.202	8336
249.265	5068
249.328	6974
249.392	3586
249.455	4266
249.519	1957
249.582	3189
249.645	5874
249.709	4068
249.772	2393
249.835	2006
249.899	3346
249.962	3179
250.025	2176
250.089	6947
250.152	11869
250.215	4756
250.279	3076
250.342	3573
250.405	3998
250.468	2639
250.532	3589
250.595	5786
250.658	21679
250.721	41687
250.785	14216
250.848	8494
250.911	4181
250.974	3813
251.038	4562
251.101	12991
251.164	6062
251.227	6418
251.290	5690
251.354	7778
251.417	31730
251.480	34477
251.543	19686
251.606	61612
251.669	48143
251.732	16446
251.795	16946
251.859	18263
251.922	39660
251.985	24116
252.048	8774
252.111	6706
252.174	5866
252.237	11089
252.300	26612
252.363	24265
252.426	54546
252.489	22740
252.552	12925
252.615	7596
252.678	7877
252.741	18742
252.804	22428
252.867	51855
252.930	32494
252.993	18126
253.056	10816
253.119	8066
253.182	6218
253.245	8546
253.308	7082
253.371	6292
253.434	6911
253.497	6496
253.559	13936
253.622	9767
253.685	9936
253.748	11283
253.811	4883
253.874	6872
253.937	5548
254.000	4546
254.062	7677
254.125	13005
254.188	12124
254.251	10212
254.314	4920
254.376	8354
254.439	10009
254.502	9036
254.565	7854
254.628	16430
254.690	9474
254.753	5892
254.816	4177
254.878	4728
254.941	9198
255.004	10300
255.067	3838
255.129	3317
255.192	2672
255.255	2010
255.317	2821
255.380	1837
255.443	859
255.505	1203
255.568	1490
255.631	1151
255.693	3031
255.756	466
255.819	2393
255.881	774
255.944	1368
256.006	405
256.069	662
256.132	612
256.194	1743
256.257	7842
256.319	5198
256.382	4335
256.444	1962
256.507	1289
256.569	1282
256.632	986
256.694	2866
256.757	4905
256.819	16523
256.882	5608
256.944	2849
257.007	2928
257.069	3256
257.132	1976
257.194	1974
257.257	369
257.319	1282
257.381	694
257.444	4124
257.506	18548
257.569	21958
257.631	15582
257.693	8716
257.756	4014
257.818	4698
257.880	1195
257.943	1953
258.005	1130
258.067	1225
258.130	1687
258.192	1805
258.254	5562
258.317	3104
258.379	2177
258.441	6198
258.503	8063
258.566	8664
258.628	14611
258.690	2688
258.753	1748
258.815	5245
258.877	2464
258.939	1508
259.001	1608
259.064	1870
259.126	1800
259.188	3598
259.250	1933
259.312	2035
259.375	9428
259.437	6442
259.499	1260
259.561	2171
259.623	1741
259.685	1469
259.747	1636
259.809	8274
259.872	18511
259.934	24991
259.996	23771
260.058	6703
260.120	2200
260.182	2380
260.244	1602
260.306	1128
260.368	2259
260.430	418
260.492	4234
260.554	9368
260.616	7553
260.678	12041
260.740	19598
260.802	4767
260.864	3909
260.926	1855
260.988	2327
261.050	2481
261.112	5145
261.174	18125
261.236	14996
261.298	3815
261.359	8063
261.421	13302
261.483	2193
261.545	3033
261.607	1421
261.669	1978
261.731	4717
261.793	12540
261.854	4216
261.916	3245
261.978	1659
262.040	2699
262.102	1830
262.164	3722
262.225	3686
262.287	1667
262.349	5766
262.411	5148
262.472	2784
262.534	4286
262.596	12773
262.658	4030
262.719	766
262.781	3250
262.843	10450
262.904	5354
262.966	2189
263.028	3229
263.090	16668
263.151	50389
263.213	17098
263.275	7984
263.336	3209
263.398	3027
263.459	1405
263.521	1413
263.583	5713
263.644	4185
263.706	2330
263.767	732
263.829	2017
263.891	1170
263.952	213
264.014	204
264.075	1384
264.137	6669
264.198	3622
264.260	434
264.321	955
264.383	3493
264.444	11292
264.506	3282
264.567	1663
264.629	3684
264.690	7270
264.752	3121
264.813	1093
264.875	222
264.936	1418
264.998	1122
265.059	791
265.120	1081
265.182	1184
265.243	5668
265.305	6329
265.366	1851
265.427	628
265.489	1506
265.550	-340
265.611	1616
265.673	736
265.734	751
265.795	1278
265.857	-39
265.918	286
265.979	1974
266.040	10482
266.102	9064
266.163	2461
266.224	2888
266.286	2133
266.347	341
266.408	799
266.469	1497
266.530	1092
266.592	803
266.653	3184
266.714	6355
266.775	1118
266.836	659
266.898	401
266.959	2278
267.020	1180
267.081	1461
267.142	558
267.203	361
267.264	267
267.326	1596
267.387	959
267.448	-38
267.509	1097
267.570	818
267.631	391
267.692	-174
267.753	733
267.814	90
267.875	2137
267.936	8050
267.997	2987
268.058	2225
268.119	1021
268.180	1553
268.241	442
268.302	1758
268.363	97
268.424	666
268.485	1242
268.546	15
268.607	554
268.668	930
268.729	-90
268.790	945
268.851	1409
268.912	3769
268.972	6069
269.033	2865
269.094	839
269.155	965
269.216	331
269.277	971
269.338	391
269.398	664
269.459	613
269.520	1842
269.581	3015
269.642	3785
269.702	1920
269.763	968
269.824	-2
269.885	1376
269.945	3312
270.006	670
270.067	-153
270.128	861
270.188	219
270.249	279
270.310	552
270.370	582
270.431	756
270.492	616
270.553	1034
270.613	3206
270.674	8002
270.734	2905
270.795	1300
270.856	2403
270.916	1925
270.977	958
271.038	1672
271.098	1495
271.159	2519
271.219	4004
271.280	894
271.340	1224
271.401	1631
271.462	6589
271.522	3109
271.583	1914
271.643	2367
271.704	343
271.764	1965
271.825	4100
271.885	18032
271.946	27672
272.006	9242
272.066	9575
272.127	21748
272.187	7263
272.248	2848
272.308	2972
272.369	15099
272.429	9278
272.489	4695
272.550	5474
272.610	5869
272.671	3995
272.731	3839
272.791	8407
272.852	4395
272.912	3235
272.972	1578
273.033	2398
273.093	3175
273.153	3353
273.214	1321
273.274	2133
273.334	9998
273.394	23929
273.455	8970
273.515	8215
273.575	19945
273.635	8914
273.696	10896
273.756	23036
273.816	9213
273.876	4817
273.936	10397
273.997	21032
274.057	5641
274.117	3212
274.177	5466
274.237	25138
274.297	24911
274.358	17173
274.418	17852
274.478	14871
274.538	4639
274.598	3716
274.658	16315
274.718	22656
274.778	8535
274.838	3619
274.898	8558
274.958	29988
275.018	24073
275.078	15235
275.138	5945
275.198	3167
275.258	2239
275.318	2457
275.378	5426
275.438	7199
275.498	4052
275.558	11665
275.618	27501
275.678	18607
275.738	7552
275.798	6540
275.858	3880
275.918	2058
275.978	1902
276.038	2993
276.098	1575
276.157	4266
276.217	14868
276.277	6309
276.337	4500
276.397	1499
276.457	3377
276.517	1844
276.576	1372
276.636	1358
276.696	2789
276.756	8340
276.815	6949
276.875	2537
276.935	2488
276.995	3527
277.055	1525
277.114	2243
277.174	3107
277.234	12548
277.293	5434
277.353	2371
277.413	1185
277.472	2124
277.532	2663
277.592	3716
277.651	10792
277.711	24513
277.771	8152
277.830	26128
277.890	23383
277.950	13709
278.009	44845
278.069	18942
278.128	15745
278.188	25350
278.248	9508
278.307	24588
278.367	17348
278.426	5473
278.486	2954
278.545	1955
278.605	1875
278.664	1206
278.724	2565
278.783	6638
278.843	23924
278.902	6911
278.962	3638
279.021	3882
279.081	5086
279.140	5540
279.199	3864
279.259	4619
279.318	3375
279.378	5285
279.437	10842
279.496	39575
279.556	112298
279.615	100661
279.675	26534
279.734	14211
279.793	19488
279.853	32795
279.912	12468
279.971	6964
280.031	5448
280.090	11027
280.149	22614
280.208	17464
280.268	72736
280.327	88716
280.386	21487
280.445	13962
280.505	13752
280.564	7225
280.623	4429
280.682	7035
280.742	11845
280.801	4790
280.860	2095
280.919	2703
280.978	2701
281.037	1791
281.097	1169
281.156	2189
281.215	1893
281.274	3176
281.333	13825
281.392	13625
281.451	3658
281.510	2006
281.569	1411
281.628	1176
281.688	1271
281.747	1658
281.806	1270
281.865	1170
281.924	961
281.983	1447
282.042	1256
282.101	1223
282.160	1412
282.219	884
282.278	1797
282.337	6990
282.396	5044
282.454	1222
282.513	3172
282.572	11645
282.631	7318
282.690	1880
282.749	1230
282.808	2439
282.867	2068
282.926	3364
282.985	1259
283.043	957
283.102	256
283.161	1821
283.220	5181
283.279	15427
283.338	4330
283.396	2420
283.455	1767
283.514	1922
283.573	4276
283.631	3262
283.690	2264
283.749	2061
283.808	4506
283.866	6211
283.925	1600
283.984	2270
284.043	2329
284.101	3567
284.160	1668
284.219	4492
284.277	2756
284.336	4341
284.395	17478
284.453	16236
284.512	4748
284.570	6423
284.629	6009
284.688	4735
284.746	5478
284.805	6300
284.863	8590
284.922	11189
284.981	11580
285.039	16475
285.098	29280
285.156	71543
285.215	157367
285.273	157646
285.332	87564
285.390	43343
285.449	26604
285.507	18433
285.566	12715
285.624	9615
285.683	7842
285.741	5668
285.799	5569
285.858	4327
285.916	3205
285.975	3291
286.033	2329
286.091	2193
286.150	1175
286.208	1997
286.267	2154
286.325	2965
286.383	4365
286.442	4311
286.500	2018
286.558	1446
286.616	1017
286.675	2304
286.733	1496
286.791	2831
286.850	3086
286.908	3321
286.966	6533
287.024	3009
287.083	1680
287.141	1421
287.199	1313
287.257	3666
287.315	2614
287.374	2192
287.432	6998
287.490	4490
287.548	2045
287.606	1668
287.664	1156
287.723	2967
287.781	4621
287.839	2725
287.897	1910
287.955	2756
288.013	4740
288.071	13358
288.129	45278
288.187	146453
288.245	67998
288.303	19185
288.361	10681
288.419	8710
288.477	5908
288.535	3606
288.593	2829
288.651	2107
288.709	1544
288.767	1818
288.825	1279
288.883	1296
288.941	632
288.999	1198
289.057	1729
289.115	1489
289.173	1597
289.231	1543
289.289	1915
289.346	1606
289.404	2102
289.462	3431
289.520	4066
289.578	2041
289.636	630
289.694	406
289.751	895
289.809	389
289.867	305
289.925	1977
289.983	2324
290.040	1463
290.098	706
290.156	1246
290.214	1058
290.271	973
290.329	983
290.387	1015
290.444	271
290.502	368
290.560	-428
290.617	1309
290.675	1407
290.733	1380
290.790	1320
290.848	937
290.906	2567
290.963	2312
291.021	1668
291.078	1459
291.136	1909
291.194	5856
291.251	16063
291.309	4998
291.366	1475
291.424	1062
291.481	1841
291.539	1237
291.596	1267
291.654	107
291.711	696
291.769	1585
291.826	3581
291.884	2076
291.941	291
291.999	1000
292.056	1095
292.114	1646
292.171	555
292.228	1550
292.286	1865
292.343	4158
292.401	7037
292.458	5670
292.515	3154
292.573	3321
292.630	1963
292.687	3259
292.745	1657
292.802	2182
292.859	8645
292.917	16026
292.974	11011
293.031	3550
293.089	2146
293.146	2572
293.203	894
293.260	729
293.318	1561
293.375	3851
293.432	2353
293.489	927
293.546	877
293.604	2461
293.661	9151
293.718	27069
293.775	15374
293.832	6094
293.889	4789
293.947	4377
294.004	3062
294.061	2855
294.118	6936
294.175	15737
294.232	20121
294.289	8223
294.346	4174
294.403	2311
294.460	2502
294.517	2415
294.574	2177
294.631	1053
294.688	2594
294.745	7670
294.802	29172
294.859	34900
294.916	13560
294.973	6706
295.030	5477
295.087	5447
295.144	3502
295.201	2735
295.258	1514
295.315	2906
295.372	9643
295.429	24391
295.486	11192
295.542	5399
295.599	11025
295.656	23540
295.713	15613
295.770	22805
295.827	9584
295.883	3805
295.940	3301
295.997	6239
296.054	5891
296.111	2496
296.167	1272
296.224	1680
296.281	895
296.338	1543
296.394	920
296.451	2072
296.508	7501
296.564	18710
296.621	12610
296.678	20885
296.734	35642
296.791	13716
296.848	6978
296.904	6842
296.961	13884
297.018	25050
297.074	20472
297.131	7746
297.187	4480
297.244	7503
297.301	22532
297.357	48891
297.414	18179
297.470	6773
297.527	3713
297.583	3715
297.640	3084
297.696	3101
297.753	2054
297.809	1982
297.866	568
297.922	828
297.979	1428
298.035	1828
298.092	3829
298.148	12920
298.204	15314
298.261	7320
298.317	9324
298.374	29346
298.430	19518
298.486	7921
298.543	5280
298.599	4553
298.656	4372
298.712	8199
298.768	19622
298.824	15544
298.881	4489
298.937	3058
298.993	1639
299.050	3542
299.106	3201
299.162	1700
299.218	2772
299.275	1758
299.331	2443
299.387	6562
299.443	23392
299.500	31339
299.556	13412
299.612	5594
299.668	4476
299.724	6083
299.780	7770
299.837	4665
299.893	7049
299.949	22449
300.005	29933
300.061	23102
300.117	39254
300.173	22236
300.229	9131
300.285	7801
300.341	11117
300.397	5813
300.453	2548
300.510	2699
300.566	2909
300.622	4792
300.678	13704
300.734	27344
300.790	25288
300.845	30948
300.901	20397
300.957	24563
301.013	21176
301.069	9051
301.125	5352
301.181	4617
301.237	4440
301.293	2227
301.349	2765
301.405	1561
301.461	1591
301.516	3075
301.572	3445
301.628	6180
301.684	6227
301.740	9200
301.796	15698
301.851	10984
301.907	16389
301.963	19635
302.019	26928
302.074	72240
302.130	79475
302.186	36415
302.242	12926
302.297	8734
302.353	8639
302.409	16319
302.464	16055
302.520	12147
302.576	25282
302.631	34247
302.687	19958
302.743	8136
302.798	4158
302.854	2849
302.910	2376
302.965	4095
303.021	7972
303.076	8841
303.132	9719
303.187	12935
303.243	6532
303.299	2863
303.354	2602
303.410	2283
303.465	1414
303.521	2123
303.576	2058
303.632	3261
303.687	6597
303.743	21668
303.798	22345
303.853	9670
303.909	4325
303.964	3372
304.020	5555
304.075	8801
304.130	7374
304.186	14195
304.241	16131
304.297	13439
304.352	6438
304.358	6237
304.407	4605
304.449	4207
304.463	4077
304.518	4802
304.539	4044
304.573	2837
304.629	4062
304.630	4097
304.684	5868
304.720	12078
304.739	15201
304.794	28416
304.811	24719
304.850	15821
304.902	6850
304.905	6275
304.960	3325
304.992	3120
305.015	2972
305.071	2654
305.083	2579
305.126	2259
305.173	1917
305.181	1884
305.236	1938
305.264	1992
305.292	2056
305.347	3711
305.354	3796
305.402	4253
305.445	3132
305.457	2806
305.512	3615
305.535	4212
305.567	5102
305.622	6025
305.626	6206
305.678	10326
305.716	19182
305.733	22352
305.788	30332
305.807	26612
305.843	20199
305.897	22602
305.898	22609
305.953	26019
305.988	18131
306.008	13728
306.063	9362
306.078	8346
306.118	5930
306.168	3373
306.173	3150
306.228	2308
306.259	2259
306.283	2292
306.338	1887
306.349	2160
306.393	3100
306.440	2284
306.448	2181
306.503	2529
306.530	3598
306.558	5668
306.613	13667
306.620	14892
306.668	21825
306.711	25910
306.723	26191
306.778	21829
306.801	16675
306.833	10691
306.888	5262
306.892	5045
306.943	3097
306.982	3111
306.997	3223
307.052	3120
307.072	3086
307.107	3190
307.162	4543
307.163	4576
307.217	8394
307.253	10503
307.272	10986
307.327	12706
307.343	11659
307.381	9206
307.434	7237
307.436	7364
307.491	14363
307.524	22043
307.546	24407
307.600	23925
307.614	21261
307.655	13032
307.704	5908
307.710	5538
307.765	6764
307.795	8628
307.819	10543
307.874	19603
307.885	19584
307.929	14808
307.975	8167
307.984	7582
308.038	7103
308.065	8545
308.093	14613
308.148	29616
308.156	33710
308.202	56782
308.246	76268
308.257	75912
308.312	41072
308.336	29131
308.366	22318
308.421	16826
308.426	16109
308.475	9941
308.517	6075
308.530	5303
308.585	4720
308.607	4662
308.639	5069
308.694	6263
308.697	6404
308.748	13714
308.787	22219
308.803	22595
308.857	17952
308.877	14581
308.912	10650
308.967	8008
308.967	7985
309.021	9798
309.058	12708
309.076	15490
309.130	26764
309.148	30800
309.185	54224
309.238	94495
309.239	94806
309.293	117254
309.328	110433
309.348	96063
309.402	44554
309.418	32489
309.457	21884
309.508	14244
309.511	14078
309.566	14724
309.598	16122
309.620	19969
309.674	32870
309.688	36408
309.729	35632
309.778	28218
309.783	27477
309.837	18097
309.868	13941
309.892	15227
309.946	20860
309.959	23095
310.001	30852
310.049	37944
310.055	36880
310.109	22838
310.139	14113
310.163	11076
310.218	7416
310.229	6937
310.272	5815
310.319	4609
310.326	4426
310.381	3639
310.409	3246
310.435	3133
310.489	3307
310.499	3245
310.543	3501
310.589	4111
310.598	4039
310.652	3742
310.679	3412
310.706	2975
310.760	2297
310.769	2161
310.814	2001
310.859	2033
310.868	2027
310.923	1914
310.948	1953
310.977	2707
311.031	4102
311.038	4331
311.085	3903
311.128	3047
311.139	2888
311.193	2332
311.218	1993
311.247	1767
311.301	1495
311.308	1469
311.356	1790
311.398	2023
311.410	1927
311.464	1543
311.488	1346
311.518	1517
311.572	1936
311.578	1983
311.626	2922
311.668	3745
311.680	3804
311.734	4055
311.758	4148
311.788	4232
311.842	4432
311.847	4450
311.896	4900
311.937	5351
311.950	5295
312.004	5072
312.027	4947
312.058	4110
312.112	2658
312.117	2521
312.165	2264
312.207	2062
312.297	3405
312.386	2405
312.476	3376
312.566	6691
312.656	3221
312.745	1184
312.835	1562
312.925	2781
313.015	1885
313.104	2528
313.194	1509
313.284	1863
313.374	3172
313.463	2408
313.553	2347
313.643	2224
313.732	1482
313.822	1468
313.912	2108
314.001	2735
314.091	2814
314.180	3447
314.270	3775
314.360	4072
314.449	2698
314.539	1003
314.628	1974
314.718	1905
314.808	3801
314.897	1907
314.987	2133
315.076	2925
315.166	4262
315.255	3801
315.345	3888
315.434	3550
315.524	4536
315.613	4641
315.703	6658
315.792	12052
315.881	45736
315.971	14482
316.060	8872
316.150	13062
316.239	13946
316.328	4695
316.418	2233
316.507	1745
316.597	3332
316.686	3414
316.775	6092
316.865	15456
316.954	3380
317.043	1845
317.133	2225
317.222	2387
317.311	1611
317.400	869
317.490	3857
317.579	4646
317.668	4688
317.757	7719
317.847	20489
317.936	74647
318.025	24994
318.114	16089
318.203	8310
318.293	10140
318.382	22389
318.471	14656
318.560	17705
318.649	25350
318.738	6035
318.828	4787
318.917	4726
319.006	6374
319.095	15919
319.184	33228
319.273	17182
319.362	9323
319.451	3378
319.540	4146
319.629	8461
319.718	12527
319.807	6171
319.896	10642
319.985	40783
320.074	15255
320.163	3977
320.252	9119
320.341	5962
320.430	4321
320.519	7235
320.608	4274
320.697	3949
320.786	4005
320.875	5154
320.964	6338
321.053	9666
321.142	13425
321.230	14486
321.319	10313
321.408	24106
321.497	11407
321.586	11000
321.675	13694
321.764	13153
321.852	7900
321.941	13692
322.030	9133
322.119	9941
322.207	26473
322.296	22601
322.385	10183
322.474	11906
322.562	30577
322.651	16204
322.740	11465
322.829	17022
322.917	19986
323.006	10469
323.095	8882
323.183	6758
323.272	9326
323.361	17135
323.449	56602
323.538	17877
323.626	38955
323.715	24558
323.804	10057
323.892	36242
323.981	18739
324.069	6923
324.158	19328
324.246	19082
324.335	4959
324.424	8043
324.512	2941
324.601	4039
324.689	3750
324.778	5901
324.866	13151
324.954	3632
325.043	3581
325.131	8280
325.220	16144
325.308	18479
325.397	12397
325.485	6601
325.574	2413
325.662	1616
325.750	2169
325.839	2489
325.927	2050
326.015	2946
326.104	5973
326.192	9083
326.280	1855
326.369	1531
326.457	3166
326.545	6176
326.634	2386
326.722	2230
326.810	2021
326.898	2624
326.987	3037
327.075	6941
327.163	8553
327.251	3104
327.340	2194
327.428	2575
327.516	1727
327.604	3587
327.692	2709
327.781	3218
327.869	6023
327.957	3891
328.045	3193
328.133	2189
328.221	2790
328.309	2270
328.397	1762
328.485	2955
328.574	4028
328.662	15556
328.750	8678
328.838	4566
328.926	2208
329.014	1644
329.102	3320
329.190	8007
329.278	5044
329.366	1276
329.454	1130
329.542	1193
329.630	121
329.718	1351
329.806	2165
329.893	2084
329.981	1326
330.069	1134
330.157	3320
330.245	10367
330.333	5062
330.421	2221
330.509	4111
330.597	17988
330.684	11226
330.772	3340
330.860	5495
330.948	6896
331.036	2615
331.123	547
331.211	1777
331.299	2632
331.387	5106
331.475	10505
331.562	3740
331.650	1971
331.738	2423
331.825	4143
331.913	1582
332.001	865
332.089	2913
332.176	7417
332.264	19229
332.352	13771
332.439	3023
332.527	2392
332.614	1796
332.702	3913
332.790	3042
332.877	9356
332.965	18388
333.052	4618
333.140	5456
333.228	12583
333.315	3420
333.403	3002
333.490	11355
333.578	10105
333.665	14719
333.753	6387
333.840	2210
333.928	3648
334.015	11121
334.103	15675
334.190	47211
334.278	11878
334.365	7031
334.452	5747
334.540	3338
334.627	4012
334.715	7045
334.802	13474
334.889	67652
334.977	65786
335.064	11973
335.151	4599
335.239	3991
335.326	5648
335.413	20427
335.501	28189
335.588	4010
335.675	3136
335.762	3978
335.850	6221
335.937	6221
336.024	17871
336.111	70672
336.199	33115
336.286	7855
336.373	2824
336.460	1579
336.547	2833
336.635	2055
336.722	3030
336.809	2149
336.896	5275
336.983	12482
337.070	28865
337.157	44716
337.245	41723
337.332	29477
337.419	3706
337.506	2073
337.593	2989
337.680	8768
337.767	27787
337.854	8192
337.941	9245
338.028	14098
338.115	3992
338.202	6001
338.289	11666
338.376	43279
338.463	13096
338.550	15834
338.637	17077
338.724	8127
338.811	13862
338.898	2457
338.984	1682
339.071	1990
339.158	3055
339.245	7967
339.332	4828
339.419	8815
339.506	8512
339.593	705
339.679	1968
339.766	1008
339.853	2643
339.940	5072
340.027	2200
340.113	1823
340.200	2986
340.287	2252
340.374	3029
340.460	4977
340.547	1512
340.634	4950
340.720	17138
340.807	9179
340.894	2127
340.980	2535
341.067	2060
341.154	2256
341.240	3062
341.327	7409
341.414	1921
341.500	86
341.587	1115
341.674	1255
341.760	5584
341.847	6551
341.933	1888
342.020	99
342.106	736
342.193	1533
342.279	3514
342.366	1944
342.452	4936
342.539	2514
342.625	7471
342.712	17264
342.798	7235
342.885	2078
342.971	515
343.058	260
343.144	951
343.230	1260
343.317	1319
343.403	671
343.490	1152
343.576	263
343.662	-52
343.749	1615
343.835	2377
343.921	5556
344.008	32687
344.094	74972
344.180	16567
344.267	5441
344.353	20255
344.439	24015
344.525	8473
344.612	2523
344.698	1823
344.784	980
344.870	1409
344.957	1136
345.043	3469
345.129	1716
345.215	4799
345.301	2037
345.387	1130
345.474	867
345.560	1657
345.646	1316
345.732	1446
345.818	797
345.904	1164
345.990	2038
346.076	2181
346.162	5077
346.249	2695
346.335	383
346.421	1182
346.507	7793
346.593	29936
346.679	5586
346.765	2110
346.851	1236
346.937	2063
347.023	1638
347.108	2507
347.194	1487
347.280	1084
347.366	2639
347.452	9652
347.538	36915
347.624	27137
347.710	21525
347.796	2810
347.882	1541
347.967	1698
348.053	2338
348.139	1157
348.225	753
348.311	385
348.397	563
348.482	2225
348.568	2047
348.654	921
348.740	2791
348.825	2403
348.911	3693
348.997	16707
349.083	34643
349.168	4958
349.254	557
349.340	603
349.425	750
349.511	1858
349.597	2150
349.682	4793
349.768	20337
349.854	8719
349.939	2047
350.025	838
350.110	850
350.196	721
350.282	-907
350.367	1388
350.453	3531
350.538	3386
350.624	1447
350.709	2212
350.795	697
350.880	1062
350.966	1779
351.051	2935
351.137	1789
351.222	1380
351.308	5793
351.393	15631
351.479	3036
351.564	65
351.649	1076
351.735	791
351.820	383
351.906	1021
351.991	1638
352.076	10330
352.162	16120
352.247	3356
352.332	1737
352.418	2483
352.503	3908
352.588	24231
352.673	18326
352.759	4627
352.844	1080
352.929	3024
353.014	2268
353.100	2211
353.185	3699
353.270	6680
353.355	6217
353.441	2284
353.526	2524
353.611	5529
353.696	6063
353.781	3801
353.866	1006
353.952	2019
354.037	4614
354.122	13856
354.207	11392
354.292	3325
354.377	1071
354.462	1484
354.547	2080
354.632	2215
354.717	2798
354.802	4088
354.887	1630
354.972	1699
355.057	366
355.142	536
355.227	1899
355.312	2879
355.397	7753
355.482	21180
355.567	9354
355.652	7573
355.737	7012
355.822	23292
355.907	17876
355.991	3664
356.076	1552
356.161	1409
356.246	702
356.331	1924
356.416	4972
356.501	40182
356.585	39319
356.670	4206
356.755	3852
356.840	5639
356.924	27501
357.009	96750
357.094	32981
357.179	7311
357.263	4984
357.348	5389
357.433	4938
357.517	3898
357.602	3257
357.687	1882
357.771	2676
357.856	5730
357.941	5297
358.025	19575
358.110	87489
358.195	36646
358.279	5154
358.364	4328
358.448	16846
358.533	44236
358.617	30617
358.702	31452
358.787	10164
358.871	5932
358.956	5293
359.040	1968
359.125	1067
359.209	2080
359.294	2046
359.378	3756
359.462	4635
359.547	2064
359.631	1697
359.716	883
359.800	574
359.885	3375
359.969	1978
360.053	2127
360.138	1560
360.222	3445
360.306	5449
360.391	4552
360.475	6076
360.559	13682
360.644	16595
360.728	11607
360.812	22476
360.896	61120
360.981	23796
361.065	12343
361.149	3833
361.233	2721
361.318	3040
361.402	4890
361.486	3178
361.570	1726
361.654	3147
361.739	8616
361.823	38518
361.907	58699
361.991	8950
362.075	6225
362.159	12423
362.243	10264
362.327	10118
362.411	16769
362.495	7504
362.580	3077
362.664	2227
362.748	1619
362.832	3758
362.916	6325
363.000	25792
363.084	68245
363.168	75120
363.252	17109
363.336	6792
363.420	8440
363.503	28612
363.587	31254
363.671	6233
363.755	4140
363.839	6889
363.923	2937
364.007	6173
364.091	8730
364.175	11004
364.258	49950
364.342	39287
364.426	61195
364.510	30117
364.594	12463
364.677	12126
364.761	52296
364.845	35486
364.929	11409
365.013	8448
365.096	8017
365.180	8882
365.264	12600
365.347	45740
365.431	17294
365.515	4282
365.598	1336
365.682	2606
365.766	3216
365.849	4160
365.933	3531
366.017	4040
366.100	1971
366.184	562
366.267	2739
366.351	2086
366.435	1252
366.518	674
366.602	1149
366.685	1992
366.769	1733
366.852	4509
366.936	7665
367.019	4262
367.103	2328
367.186	5720
367.270	1422
367.353	127
367.436	2096
367.520	625
367.603	2258
367.687	3111
367.770	7565
367.853	4299
367.937	15041
368.020	24188
368.104	5273
368.187	5544
368.270	7454
368.353	5946
368.437	11553
368.520	31365
368.603	14979
368.687	16555
368.770	32951
368.853	7672
368.936	8009
369.020	7976
369.103	2714
369.186	2270
369.269	2440
369.352	4252
369.436	7603
369.519	4342
369.602	1470
369.685	3588
369.768	2328
369.851	1500
369.934	836
370.018	2296
370.101	5318
370.184	5348
370.267	3987
370.350	7414
370.433	11629
370.516	29227
370.599	44790
370.682	12952
370.765	18020
370.848	21476
370.931	39722
371.014	15600
371.097	2912
371.180	2815
371.263	2031
371.346	339
371.429	1874
371.511	860
371.594	3802
371.677	5971
371.760	7530
371.843	5149
371.926	28202
372.009	66611
372.091	21195
372.174	14767
372.257	38289
372.340	13009
372.423	9072
372.505	11286
372.588	4351
372.671	12235
372.754	39480
372.836	18387
372.919	13366
373.002	25332
373.085	6923
373.167	6522
373.250	16725
373.332	35890
373.415	47113
373.498	96890
373.580	35474
373.663	59212
373.746	73507
373.828	13890
373.911	7290
373.993	5834
374.076	24988
374.159	23161
374.241	11025
374.324	33770
374.406	21046
374.489	27238
374.571	82762
374.654	31607
374.736	15885
374.819	49941
374.901	70288
374.983	71455
375.066	11775
375.148	5172
375.231	20867
375.313	39230
375.395	12858
375.478	2660
375.560	3591
375.643	3711
375.725	15376
375.807	65628
375.890	54994
375.972	25270
376.054	14203
376.136	24943
376.219	8919
376.301	18376
376.383	55160
376.465	19404
376.548	13105
376.630	14668
376.712	48489
376.794	19581
376.877	3014
376.959	465
377.041	2564
377.123	4892
377.205	5826
377.287	842
377.369	2309
377.452	2296
377.534	1556
377.616	798
377.698	1735
377.780	135
377.862	1957
377.944	2060
378.026	401
378.108	1350
378.190	789
378.272	1836
378.354	937
378.436	191
378.518	1759
378.600	10329
378.682	9654
378.764	22709
378.846	16897
378.928	4507
379.010	5617
379.091	3699
379.173	1347
379.255	1033
379.337	3258
379.419	10370
379.501	33789
379.583	11826
379.664	3017
379.746	6514
379.828	21878
379.910	29146
379.991	25585
380.073	2932
380.155	2699
380.237	1653
380.318	1847
380.400	1277
380.482	5613
380.564	7227
380.645	7438
380.727	6742
380.809	4786
380.890	2801
380.972	1856
381.053	1661
381.135	3083
381.217	6792
381.298	23880
381.380	11071
381.461	9205
381.543	47648
381.624	55922
381.706	9504
381.787	5891
381.869	6327
381.951	19271
382.032	73351
382.113	47133
382.195	9327
382.276	7794
382.358	14765
382.439	42253
382.521	45518
382.602	72487
382.684	31384
382.765	61144
382.846	70270
382.928	110906
383.009	55675
383.090	39657
383.172	151957
383.253	224341
383.334	72111
383.416	69489
383.497	34456
383.578	18085
383.659	34496
383.741	127919
383.822	324557
383.903	156028
383.984	52505
384.066	84843
384.147	47377
384.228	10468
384.309	7647
384.390	6370
384.471	4138
384.553	4010
384.634	5912
384.715	7650
384.796	2658
384.877	4433
384.958	20818
385.039	23410
385.120	7195
385.201	4636
385.282	4932
385.363	5394
385.444	3750
385.525	10357
385.606	35277
385.687	27884
385.768	5925
385.849	7076
385.930	33544
386.011	56809
386.092	13115
386.173	3571
386.254	2599
386.335	3407
386.416	3239
386.496	13792
386.577	21367
386.658	8133
386.739	4409
386.820	5220
386.901	2787
386.981	3648
387.062	1947
387.143	4773
387.224	22655
387.304	19537
387.385	7640
387.466	4614
387.547	7539
387.627	4143
387.708	9003
387.789	39780
387.869	46330
387.950	12565
388.031	1889
388.111	664
388.192	7097
388.273	10435
388.353	5553
388.434	2674
388.514	7340
388.595	37135
388.676	47407
388.756	21401
388.837	20374
388.917	12318
388.998	1446
389.078	3168
389.159	1746
389.239	455
389.320	5053
389.400	1395
389.480	8794
389.561	23541
389.641	11024
389.722	3480
389.802	5808
389.883	9408
389.963	28805
390.043	17958
390.124	5090
390.204	9445
390.284	25248
390.365	14154
390.445	18846
390.525	48141
390.605	40250
390.686	12049
390.766	6228
390.846	3826
390.927	887
391.007	1473
391.087	3662
391.167	4417
391.247	2588
391.328	6098
391.408	7192
391.488	5066
391.568	1260
391.648	2414
391.728	5312
391.808	5420
391.888	4647
391.969	13088
392.049	18765
392.129	9202
392.209	11092
392.289	27751
392.369	14039
392.449	11755
392.529	9134
392.609	8078
392.689	10107
392.769	29573
392.849	25511
392.929	20592
393.009	43720
393.089	38978
393.169	49540
393.248	139498
393.328	406545
393.408	414022
393.488	143505
393.568	47250
393.648	22776
393.728	14572
393.807	7860
393.887	8513
393.967	7197
394.047	5912
394.127	5624
394.206	7379
394.286	20710
394.366	104831
394.446	108287
394.525	19793
394.605	6500
394.685	6769
394.764	14496
394.844	27031
394.924	18641
395.003	5970
395.083	4034
395.163	3542
395.242	2666
395.322	3633
395.402	869
395.481	4145
395.561	10015
395.640	32219
395.720	27622
395.799	33352
395.879	22112
395.958	8168
396.038	27843
396.117	131949
396.197	140489
396.276	34545
396.356	13260
396.435	13044
396.515	13284
396.594	18037
396.673	39163
396.753	136466
396.832	364184
396.912	269869
396.991	71111
397.070	22131
397.150	10646
397.229	9245
397.308	11659
397.388	19536
397.467	8538
397.546	4361
397.625	1706
397.705	4536
397.784	4212
397.863	2649
397.942	1578
398.022	2406
398.101	9220
398.180	27183
398.259	12892
398.338	4429
398.417	2844
398.497	1144
398.576	2436
398.655	534
398.734	842
398.813	1817
398.892	8676
398.971	30866
399.050	13191
399.129	1110
399.208	906
399.287	1442
399.366	59
399.445	1050
399.524	1022
399.603	267
399.682	2739
399.761	8906
399.840	32894
399.919	24177
399.998	2641
400.077	355
400.156	-402
400.235	3024
400.313	54
400.392	1010
400.471	11483
400.550	18013
400.629	4065
400.708	2038
400.786	893
400.865	5670
400.944	4795
401.023	3975
401.102	-188
401.180	680
401.259	35
401.338	1082
401.416	2250
401.495	1128
401.574	1508
401.652	60
401.731	2222
401.810	449
401.888	198
401.967	-235
402.046	1776
402.124	1828
402.203	1726
402.281	2049
402.360	2000
402.438	8211
402.517	3751
402.596	1681
402.674	962
402.753	254
402.831	745
402.910	1307
402.988	5985
403.066	23912
403.145	13433
403.223	7425
403.302	18569
403.380	13382
403.459	13053
403.537	4093
403.615	1467
403.694	-533
403.772	838
403.850	322
403.929	-2
404.007	-205
404.085	3743
404.164	3027
404.242	-179
404.320	927
404.398	1830
404.477	10751
404.555	57849
404.633	47405
404.711	6064
404.789	2395
404.868	1565
404.946	-40
405.024	-862
405.102	-331
405.180	-495
405.258	-364
405.336	674
405.415	50
405.493	2496
405.571	2731
405.649	-766
405.727	-1277
405.805	2312
405.883	1053
405.961	1807
406.039	1376
406.117	142
406.195	2242
406.273	11333
406.351	49319
406.429	26748
406.507	3158
406.585	-137
406.663	1034
406.740	1302
406.818	920
406.896	-140
406.974	1482
407.052	2780
407.130	28221
407.208	39015
407.285	7101
407.363	-207
407.441	227
407.519	-774
407.596	691
407.674	2977
407.752	4498
407.830	6682
407.907	4449
407.985	-122
408.063	665
408.141	-595
408.218	2057
408.296	563
408.373	-242
408.451	1213
408.529	1303
408.606	-207
408.684	-486
408.762	-387
408.839	-809
408.917	-326
408.994	-105
409.072	-363
409.149	84
409.227	2678
409.304	3522
409.382	1931
409.459	2536
409.537	5008
409.614	3894
409.692	1257
409.769	1591
409.846	5129
409.924	8525
410.001	3349
410.079	1931
410.156	1081
410.233	1910
410.311	602
410.388	495
410.465	1569
410.543	1560
410.620	781
410.697	808
410.775	973
410.852	-434
410.929	2380
411.006	3671
411.083	886
411.161	5992
411.238	5667
411.315	815
411.392	-182
411.469	2233
411.547	2794
411.624	-290
411.701	307
411.778	1320
411.855	3211
411.932	641
412.009	-58
412.086	56
412.163	-256
412.240	414
412.317	1449
412.394	1551
412.471	-400
412.548	-77
412.625	-959
412.702	190
412.779	3049
412.856	2180
412.933	-511
413.010	-81
413.087	1107
413.164	10380
413.241	14488
413.318	1818
413.395	2217
413.471	2792
413.548	-314
413.625	-226
413.702	-671
413.779	351
413.855	-848
413.932	-1480
414.009	-1830
414.086	-685
414.162	-141
414.239	1632
414.316	9965
414.393	23244
414.469	6113
414.546	-137
414.623	-1460
414.699	-768
414.776	-108
414.853	-451
414.929	-4
415.006	91
415.082	-616
415.159	-286
415.236	-17
415.312	111
415.389	1232
415.465	2017
415.542	833
415.618	-177
415.695	1646
415.771	489
415.848	-700
415.924	-16
416.000	-677
416.077	555
416.153	-1684
416.230	-1878
416.306	-1175
416.383	-849
416.459	292
416.535	-1665
416.612	-991
416.688	-573
416.764	-400
416.841	-940
416.917	-387
416.993	-51
417.069	95
417.146	-158
417.222	-203
417.298	-293
417.374	-888
417.451	398
417.527	-276
417.603	192
417.679	-745
417.755	-981
417.831	-1207
417.908	-403
417.984	-631
418.060	-1495
418.136	2137
418.212	3752
418.288	665
418.364	-101
418.440	-1032
418.516	1325
418.592	1053
418.668	3853
418.744	5872
418.820	4121
418.896	575
418.972	-900
419.048	-365
419.124	2901
419.200	78
419.276	-1064
419.352	-1452
419.428	-1163
419.504	-596
419.579	1036
419.655	159
419.731	230
419.807	3699
419.883	7813
419.959	5069
420.034	452
420.110	2225
420.186	14652
420.262	10083
420.337	879
420.413	688
420.489	-356
420.565	221
420.640	-1120
420.716	79
420.792	-1516
420.867	69
420.943	-1115
421.019	1604
421.094	285
421.170	-795
421.245	-814
421.321	251
421.397	-326
421.472	1342
421.548	2116
421.623	1696
421.699	603
421.774	1345
421.850	639
421.925	3038
422.001	2906
422.076	1859
422.152	2601
422.227	4571
422.302	6882
422.378	11002
422.453	20599
422.529	51984
422.604	128858
422.679	179077
422.755	135232
422.830	57441
422.905	23742
422.981	11235
423.056	7481
423.131	5151
423.207	3761
423.282	3045
423.357	6207
423.432	3412
423.508	2703
423.583	7508
423.658	5935
423.733	1795
423.808	2259
423.883	2576
423.959	1823
424.034	896
424.109	1760
424.184	-483
424.259	-122
424.334	-459
424.409	-290
424.484	-132
424.559	271
424.634	-4
424.709	1552
424.784	1418
424.859	82
424.934	1093
425.009	9626
425.084	17590
425.159	5440
425.234	62
425.309	-1005
425.384	381
425.459	-189
425.534	-36
425.609	-728
425.683	-1222
425.758	-202
425.833	-339
425.908	1880
425.983	5176
426.058	19571
426.132	8333
426.207	1256
426.282	2439
426.357	682
426.431	-366
426.506	124
426.581	-200
426.655	260
426.730	-409
426.805	-653
426.879	267
426.954	265
427.029	2308
427.103	17255
427.178	45812
427.253	18277
427.327	1748
427.402	1218
427.476	2732
427.551	182
427.625	217
427.700	778
427.774	-788
427.849	78
427.923	-1109
427.998	-447
428.072	-429
428.147	2847
428.221	16877
428.296	53448
428.370	27378
428.444	3441
428.519	1556
428.593	5346
428.667	5044
428.742	6468
428.816	7552
428.890	31469
428.965	50654
429.039	13674
429.113	8288
429.188	2574
429.262	222
429.336	1834
429.410	8303
429.485	6169
429.559	4618
429.633	3453
429.707	1268
429.781	4844
429.855	35287
429.930	57113
430.004	26392
430.078	33110
430.152	32693
430.226	66958
430.300	68684
430.374	10922
430.448	2871
430.522	8941
430.596	31303
430.670	21756
430.744	56070
430.818	80932
430.892	17139
430.966	2160
431.040	924
431.114	-999
431.188	-971
431.262	-648
431.336	-938
431.410	2790
431.484	7339
431.557	6135
431.631	1043
431.705	353
431.779	8785
431.853	46518
431.927	34735
432.000	4207
432.074	884
432.148	849
432.222	-84
432.295	-107
432.369	-716
432.443	1297
432.516	17316
432.590	48424
432.664	18545
432.737	1734
432.811	-946
432.885	-546
432.958	-454
433.032	-659
433.106	-1342
433.179	-787
433.253	-1504
433.326	-574
433.400	-1015
433.473	-679
433.547	-1845
433.620	-96
433.694	505
433.767	1386
433.841	-874
433.914	-845
433.988	-1756
434.061	-899
434.134	-880
434.208	-420
434.281	-1561
434.355	-616
434.428	-197
434.501	-745
434.575	-1133
434.648	-503
434.721	13
434.795	-1253
434.868	-750
434.941	-746
435.014	-1207
435.088	-275
435.161	190
435.234	893
435.307	4005
435.381	939
435.454	803
435.527	2634
435.600	2241
435.673	2009
435.746	496
435.819	-380
435.892	-105
435.966	-78
436.039	-1666
436.112	220
436.185	-566
436.258	-1122
436.331	-1111
436.404	-758
436.477	-766
436.550	-1611
436.623	-969
436.696	-745
436.769	-141
436.842	-928
436.915	-1289
436.987	355
437.060	-405
437.133	-1321
437.206	-1091
437.279	-296
437.352	-1433
437.425	-197
437.498	-425
437.570	1156
437.643	1183
437.716	-867
437.789	-1269
437.861	2454
437.934	13356
438.007	6412
438.080	-775
438.152	98
438.225	1724
438.298	23035
438.370	74385
438.443	39017
438.516	12605
438.588	2210
438.661	-812
438.734	-518
438.806	-435
438.879	1003
438.951	2339
439.024	6302
439.096	1370
439.169	-421
439.241	-1245
439.314	-888
439.386	310
439.459	2325
439.531	6094
439.604	2609
439.676	-338
439.749	-1342
439.821	-1399
439.893	-660
439.966	-824
440.038	449
440.110	1333
440.183	69
440.255	-1148
440.327	481
440.400	9786
440.472	47053
440.544	37238
440.617	4813
440.689	4896
440.761	5734
440.833	11358
440.905	8434
440.978	334
441.050	-570
441.122	-459
441.194	-1055
441.266	-798
441.338	-986
441.411	853
441.483	13370
441.555	25943
441.627	6600
441.699	1248
441.771	1875
441.843	-844
441.915	-296
441.987	-942
442.059	-565
442.131	474
442.203	2411
442.275	2036
442.347	1848
442.419	4010
442.491	27524
442.563	79383
442.635	42246
442.706	14502
442.778	10835
442.850	1503
442.922	467
442.994	1209
443.066	1912
443.137	2048
443.209	1163
443.281	2579
443.353	8434
443.425	35809
443.496	132750
443.568	150724
443.640	64669
443.711	12921
443.783	3859
443.855	1648
443.926	1100
443.998	-12
444.070	2014
444.141	1426
444.213	3128
444.285	3995
444.356	3760
444.428	2982
444.499	885
444.571	-33
444.642	-779
444.714	-162
444.785	2756
444.857	3404
444.928	7624
445.000	5805
445.071	4877
445.143	8075
445.214	6348
445.285	9182
445.357	25605
445.428	85084
445.500	202397
445.571	154402
445.642	89340
445.714	32693
445.785	19256
445.856	6826
445.928	5166
445.999	5985
446.070	5272
446.141	2686
446.213	3483
446.284	2116
446.355	1059
446.426	-50
446.497	478
446.569	1246
446.640	4877
446.711	3670
446.782	821
446.853	1290
446.924	1598
446.995	1775
447.066	657
447.138	1490
447.209	1424
447.280	-1627
447.351	-1648
447.422	-1325
447.493	621
447.564	606
447.635	2452
447.706	89
447.777	-1288
447.847	-1775
447.918	-1737
447.989	32
448.060	1822
448.131	4492
448.202	4859
448.273	4371
448.344	1125
448.414	-456
448.485	422
448.556	-701
448.627	-1313
448.698	-143
448.768	-911
448.839	-869
448.910	1414
448.981	2204
449.051	176
449.122	-459
449.193	-1629
449.263	-741
449.334	-642
449.405	-356
449.475	3256
449.546	2975
449.616	2583
449.687	2164
449.758	-393
449.828	-560
449.899	-817
449.969	-500
450.040	-1331
450.110	-311
450.181	1171
450.251	-418
450.322	-686
450.392	-1039
450.463	-609
450.533	-1294
450.604	-1071
450.674	-1216
450.744	-591
450.815	-1656
450.885	-1451
450.955	-1270
451.026	-1353
451.096	-1218
451.166	-471
451.237	2065
451.307	9766
451.377	3934
451.447	-93
451.518	-1106
451.588	-1203
451.658	-747
451.728	733
451.799	7808
451.869	13207
451.939	3021
452.009	-775
452.079	-1125
452.149	-1170
452.219	886
452.289	11061
452.360	11488
452.430	1635
452.500	438
452.570	1659
452.640	4282
452.710	12601
452.780	22681
452.850	15250
452.920	15024
452.990	4670
453.060	1207
453.129	2495
453.199	3755
453.269	12137
453.339	36251
453.409	60420
453.479	45697
453.549	73831
453.619	76371
453.688	41275
453.758	5676
453.828	714
453.898	-247
453.968	343
454.037	-746
454.087	-480
454.107	-387
454.168	-739
454.177	-810
454.247	-326
454.249	-339
454.316	-933
454.330	-579
454.386	704
454.411	2355
454.456	4795
454.492	7117
454.525	9186
454.574	5415
454.595	3809
454.655	1002
454.665	569
454.734	152
454.736	253
454.804	2773
454.817	4440
454.873	10441
454.898	12617
454.943	16326
454.979	11474
455.013	7234
455.060	3808
455.082	2490
455.141	1680
455.152	1397
455.221	7126
455.222	7293
455.291	14718
455.303	13550
455.360	8652
455.384	7623
455.430	6107
455.465	6982
455.499	7373
455.546	9238
455.569	9727
455.627	9116
455.638	9142
455.707	907
455.708	916
455.777	-567
455.789	-442
455.846	151
455.869	-88
455.916	-645
455.950	-256
455.985	128
456.031	532
456.054	653
456.112	623
456.124	679
456.193	385
456.193	366
456.262	269
456.274	600
456.332	1999
456.355	2089
456.401	1941
456.436	1462
456.470	989
456.516	140
456.540	-163
456.597	-180
456.609	-231
456.678	504
456.678	493
456.747	-553
456.759	-516
456.817	-440
456.840	-183
456.886	383
456.920	527
456.955	673
457.001	425
457.024	405
457.082	1144
457.093	1271
457.162	2926
457.163	2952
457.232	3399
457.243	3285
457.301	2529
457.324	1754
457.370	579
457.405	514
457.439	604
457.485	910
457.508	925
457.566	765
457.577	837
457.646	1974
457.647	2004
457.715	5502
457.727	6322
457.784	11028
457.808	14059
457.853	17382
457.889	21546
457.922	22927
457.969	16408
457.991	16597
458.050	18218
458.060	18379
458.129	31097
458.130	31474
458.198	33687
458.211	30997
458.267	21113
458.292	15067
458.336	8342
458.372	6476
458.405	7289
458.453	11832
458.474	15678
458.533	30442
458.543	31578
458.611	52374
458.614	52854
458.680	41795
458.694	34145
458.749	16857
458.775	11956
458.818	5599
458.855	4127
458.887	3208
458.936	2788
458.955	2431
459.016	1993
459.024	2064
459.093	2903
459.097	2944
459.162	2985
459.177	3002
459.230	3186
459.257	3501
459.299	4146
459.338	4437
459.368	4669
459.418	5745
459.437	5381
459.499	3864
459.505	3886
459.574	2252
459.579	2230
459.643	1967
459.659	1925
459.711	2076
459.740	2296
459.780	2087
459.820	2152
459.849	2571
459.900	2842
459.917	2783
459.981	2412
459.986	2341
460.054	1944
460.061	1860
460.123	1834
460.141	1940
460.191	3020
460.222	3751
460.260	4117
460.302	4864
460.328	4511
460.382	3096
460.397	3009
460.462	1786
460.465	1766
460.534	2764
460.543	2878
460.602	5083
460.623	5922
460.671	8668
460.703	11380
460.739	10988
460.783	9610
460.808	8457
460.864	3213
460.876	2849
460.944	2786
460.945	2776
461.013	2541
461.024	2527
461.081	2745
461.104	3115
461.150	3242
461.184	2809
461.218	2791
461.264	2584
461.286	2408
461.345	2339
461.355	2338
461.423	2880
461.425	2877
461.491	2336
461.505	2361
461.559	5721
461.585	7159
461.628	11611
461.665	16296
461.696	18314
461.745	23466
461.764	21142
461.825	9740
461.832	9686
461.901	4450
461.905	4447
461.969	3745
461.985	3571
462.037	3893
462.065	3726
462.105	3565
462.145	3789
462.173	5643
462.225	9247
462.241	10094
462.305	14791
462.310	14463
462.378	9161
462.385	8201
462.446	4804
462.465	3953
462.514	3318
462.545	3405
462.582	3542
462.625	3576
462.650	3493
462.705	3420
462.718	3430
462.785	3409
462.786	3439
462.854	5422
462.865	5757
462.922	7461
462.945	8256
462.990	6772
463.025	5055
463.058	4491
463.104	3491
463.126	3186
463.184	2648
463.194	2729
463.262	3658
463.264	3703
463.330	4100
463.344	4076
463.398	4299
463.424	4247
463.466	4388
463.504	4924
463.533	4889
463.583	4469
463.601	4699
463.663	5476
463.669	5538
463.737	6548
463.743	6640
463.805	11034
463.823	12350
463.873	17604
463.903	20883
463.940	22094
463.982	24220
464.008	20186
464.062	9623
464.076	9062
464.142	4846
464.144	4779
464.211	3686
464.221	3620
464.279	4209
464.301	4375
464.347	4881
464.381	5478
464.414	5787
464.461	5949
464.482	6048
464.540	6713
464.550	6620
464.617	5343
464.620	5289
464.685	5796
464.699	5980
464.753	6417
464.779	6620
464.820	6040
464.859	5302
464.888	5424
464.938	5805
464.956	6164
465.018	7399
465.023	7295
465.091	5797
465.098	5615
465.158	4959
465.177	4762
465.226	5256
465.257	5629
465.293	5760
465.336	5830
465.361	6474
465.416	7996
465.428	8659
465.495	12316
465.496	12381
465.563	19387
465.575	20611
465.631	25371
465.654	27704
465.698	17268
465.734	7674
465.765	6925
465.813	5565
465.833	5403
465.893	5660
465.900	5587
465.968	4920
465.972	4860
466.035	4599
466.052	4528
466.102	4926
466.131	5121
466.170	4826
466.210	4573
466.237	5108
466.290	6114
466.304	6060
466.369	5550
466.372	5577
466.439	6226
466.449	6283
466.506	7032
466.528	7315
466.573	10171
466.607	12292
466.641	19442
466.687	29370
466.708	32844
466.766	42547
466.775	39258
466.842	14008
466.845	12776
466.909	8582
466.925	7642
466.977	7604
467.004	7661
467.044	7264
467.083	6852
467.111	7276
467.163	8045
467.178	8245
467.242	8990
467.245	8951
467.312	7811
467.321	7647
467.379	8562
467.400	8869
467.446	9442
467.480	9828
467.559	8511
467.638	7159
467.717	7667
467.796	9185
467.875	10731
467.955	9946
468.034	14338
468.113	35211
468.192	51532
468.271	13832
468.350	10662
468.429	12480
468.508	14637
468.588	10492
468.667	7231
468.746	7540
468.825	7163
468.904	6850
468.983	9565
469.062	14096
469.141	16993
469.220	7075
469.299	6824
469.378	6066
469.456	8131
469.535	7538
469.614	7588
469.693	8069
469.772	11443
469.851	15312
469.930	11010
470.009	7600
470.088	7915
470.166	10132
470.245	14679
470.324	17146
470.403	10791
470.482	7969
470.560	8299
470.639	8035
470.718	9847
470.797	7947
470.875	7795
470.954	12394
471.033	13028
471.111	6295
471.190	6602
471.269	5188
471.347	5852
471.426	6696
471.505	7745
471.583	7042
471.662	6737
471.740	5393
471.819	5837
471.898	6328
471.976	6611
472.055	5683
472.133	6831
472.212	10624
472.290	9429
472.369	7852
472.447	6360
472.526	5118
472.604	6434
472.683	6507
472.761	7375
472.839	7990
472.918	7062
472.996	6690
473.075	7565
473.153	8086
473.231	6315
473.310	7902
473.388	7633
473.466	6902
473.545	7821
473.623	10875
473.701	10690
473.780	7400
473.858	5517
473.936	7631
474.014	6434
474.093	7947
474.171	11938
474.249	15947
474.327	10296
474.405	6543
474.484	5869
474.562	6134
474.640	5903
474.718	5963
474.796	6275
474.874	5774
474.952	5535
475.030	5745
475.108	5561
475.187	6573
475.265	7803
475.343	10928
475.421	12128
475.499	6105
475.577	7712
475.655	9497
475.733	18196
475.811	31632
475.889	28957
475.966	19057
476.044	6353
476.122	8739
476.200	11582
476.278	8992
476.356	6804
476.434	7190
476.512	8161
476.590	11543
476.667	10440
476.745	5932
476.823	7173
476.901	5806
476.979	6556
477.056	6993
477.134	7385
477.212	6610
477.290	6916
477.367	5603
477.445	6041
477.523	6032
477.601	6450
477.678	5755
477.756	8391
477.834	8770
477.911	6065
477.989	5881
478.066	6955
478.144	6852
478.222	9033
478.299	13333
478.377	11846
478.454	6157
478.532	5694
478.609	6596
478.687	7816
478.764	4906
478.842	6127
478.919	7198
478.997	7473
479.074	6010
479.152	6409
479.229	9416
479.307	6051
479.384	5616
479.461	5247
479.539	6120
479.616	7056
479.694	6768
479.771	7637
479.848	6567
479.926	8744
480.003	11124
480.080	6092
480.157	5184
480.235	5077
480.312	6196
480.389	6697
480.467	11470
480.544	13965
480.621	7332
480.698	9125
480.775	9045
480.853	7575
480.930	6419
481.007	7663
481.084	7705
481.161	7271
481.238	7735
481.315	5636
481.392	5529
481.470	5939
481.547	5983
481.624	5654
481.701	5725
481.778	6611
481.855	6734
481.932	11161
482.009	18010
482.086	12087
482.163	7463
482.240	11227
482.317	18045
482.393	13243
482.470	7026
482.547	6873
482.624	6002
482.701	7156
482.778	7116
482.855	5574
482.932	4920
483.009	6085
483.085	7666
483.162	9552
483.239	9327
483.316	6507
483.393	6718
483.469	6524
483.546	7506
483.623	7682
483.699	6039
483.776	6969
483.853	7498
483.930	9781
484.006	26848
484.083	46160
484.160	16817
484.236	17372
484.313	12595
484.389	9958
484.466	10859
484.543	10902
484.619	10850
484.696	12721
484.772	12542
484.849	13640
484.925	9802
485.002	10611
485.078	12040
485.155	14113
485.231	9063
485.308	9772
485.384	10131
485.461	12199
485.537	24762
485.614	29636
485.690	10241
485.766	9798
485.843	10586
485.919	16476
485.995	18471
486.072	9343
486.148	8131
486.224	8581
486.301	9470
486.377	13356
486.453	14764
486.530	10658
486.606	12589
486.682	12889
486.758	19458
486.835	23943
486.911	16850
486.987	32662
487.063	36534
487.139	45752
487.215	31026
487.292	13457
487.368	11666
487.444	14074
487.520	22636
487.596	20347
487.672	31277
487.748	96697
487.824	144783
487.900	38086
487.976	14181
488.052	15617
488.128	22915
488.204	15686
488.280	11721
488.356	14303
488.432	28848
488.508	45922
488.584	15111
488.660	10062
488.736	9885
488.812	10754
488.888	12952
488.964	18391
489.039	44140
489.115	72436
489.191	39005
489.267	10621
489.343	8919
489.418	8385
489.494	6704
489.570	6669
489.646	9264
489.722	7636
489.797	9411
489.873	13691
489.949	33594
490.024	27838
490.100	7830
490.176	7671
490.251	11722
490.327	14678
490.403	9221
490.478	7789
490.554	5794
490.629	6752
490.705	6476
490.781	8260
490.856	7144
490.932	8411
491.007	9357
491.083	8982
491.158	7031
491.234	9776
491.309	25315
491.385	26420
491.460	8502
491.536	8759
491.611	8194
491.686	9715
491.762	12939
491.837	30405
491.913	47616
491.988	70318
492.063	86080
492.139	22129
492.214	12062
492.289	7163
492.365	6849
492.440	7646
492.515	8742
492.590	7531
492.666	5477
492.741	9914
492.816	14654
492.891	7729
492.967	5537
493.042	5009
493.117	4918
493.192	5918
493.267	7972
493.342	12519
493.418	14498
493.493	5799
493.568	4897
493.643	5679
493.718	8727
493.793	12553
493.868	14912
493.943	10101
494.018	6684
494.093	5508
494.168	5885
494.243	5006
494.318	4683
494.393	4870
494.468	4691
494.543	5880
494.618	6959
494.693	6061
494.768	5321
494.842	5833
494.917	4653
494.992	5603
495.067	5016
495.142	5029
495.217	6272
495.292	6683
495.366	7760
495.441	9868
495.516	13629
495.591	17090
495.665	64323
495.740	156778
495.815	57336
495.890	10546
495.964	6273
496.039	9817
496.114	7869
496.188	7151
496.263	8143
496.338	8048
496.412	8137
496.487	10520
496.561	10946
496.636	10554
496.710	7329
496.785	8806
496.860	11231
496.934	8403
497.009	7787
497.083	7254
497.158	7156
497.232	9828
497.307	11491
497.381	8771
497.455	11612
497.530	15707
497.604	10111
497.679	11683
497.753	18035
497.827	23926
497.902	20092
497.976	23737
498.050	56298
498.125	248631
498.199	247364
498.273	33191
498.348	18945
498.422	16138
498.496	15007
498.570	15092
498.645	10625
498.719	11241
498.793	15575
498.867	24553
498.941	31147
499.016	94691
499.090	270026
499.164	94298
499.238	11252
499.312	10339
499.386	11692
499.460	11959
499.534	11715
499.609	14748
499.683	20086
499.757	19783
499.831	41123
499.905	175933
499.979	163688
500.053	25910
500.127	23602
500.201	17125
500.275	12395
500.349	10810
500.422	13573
500.496	19638
500.570	39294
500.644	96770
500.718	182383
500.792	40299
500.866	11297
500.940	13845
501.013	11914
501.087	12043
501.161	21700
501.235	25848
501.309	53541
501.382	157894
501.456	136243
501.530	30077
501.603	49559
501.677	19587
501.751	9291
501.825	11503
501.898	19535
501.972	60866
502.046	37902
502.119	11229
502.193	26724
502.266	66869
502.340	31335
502.413	27175
502.487	55719
502.561	32280
502.634	10347
502.708	9098
502.781	7131
502.855	6478
502.928	4800
503.002	6542
503.075	5835
503.149	6626
503.222	6973
503.295	8066
503.369	10334
503.442	12974
503.516	42206
503.589	115083
503.662	71679
503.736	21956
503.809	52334
503.882	42537
503.956	64058
504.029	62711
504.102	58456
504.175	80379
504.249	22398
504.322	12933
504.395	9165
504.468	6863
504.542	6776
504.615	4809
504.688	4947
504.761	3760
504.834	7547
504.907	8739
504.980	14106
505.053	6627
505.127	7888
505.200	12405
505.273	9323
505.346	6170
505.419	4349
505.492	6202
505.565	3756
505.638	4109
505.711	3991
505.784	3021
505.857	3779
505.930	5923
506.003	4114
506.076	7511
506.149	7237
506.221	8736
506.294	8634
506.367	20772
506.440	83202
506.513	43882
506.586	10400
506.659	5442
506.731	4637
506.804	6113
506.877	10764
506.950	6662
507.022	4764
507.095	6041
507.168	7808
507.241	6274
507.313	3859
507.386	4133
507.459	8682
507.531	4150
507.604	3509
507.677	4604
507.749	1990
507.822	6506
507.894	10163
507.967	9523
508.040	4856
508.112	5702
508.185	6030
508.257	4444
508.330	9723
508.402	4887
508.475	4460
508.547	5363
508.620	5361
508.692	10379
508.765	6480
508.837	4512
508.909	3770
508.982	4535
509.054	5548
509.127	4819
509.199	3332
509.271	2696
509.344	2656
509.416	3053
509.488	3329
509.560	3851
509.633	4736
509.705	6029
509.777	4351
509.849	8360
509.922	4025
509.994	3365
510.066	4318
510.138	2872
510.210	7400
510.283	6105
510.355	4681
510.427	5017
510.499	4679
510.571	4779
510.643	4594
510.715	10315
510.787	7255
510.859	6948
510.931	6281
511.003	9543
511.076	8927
511.148	3103
511.219	3099
511.291	7996
511.363	10674
511.435	3450
511.507	2728
511.579	4788
511.651	5124
511.723	4359
511.795	3627
511.867	3643
511.939	5109
512.010	12737
512.082	10564
512.154	4282
512.226	3723
512.298	6520
512.369	8372
512.441	7672
512.513	7496
512.585	4564
512.656	6923
512.728	6506
512.800	4556
512.871	5593
512.943	4591
513.015	3337
513.086	4716
513.158	5826
513.230	4368
513.301	9459
513.373	13395
513.444	6243
513.516	4356
513.588	4468
513.659	6253
513.731	7897
513.802	6174
513.874	16074
513.945	29264
514.016	8785
514.088	4652
514.159	4328
514.231	8013
514.302	9038
514.374	6384
514.445	5122
514.516	16373
514.588	10123
514.659	6547
514.730	13657
514.802	9711
514.873	4193
514.944	7443
515.016	5533
515.087	6625
515.158	9881
515.229	14524
515.301	5351
515.372	6746
515.443	3579
515.514	3903
515.585	3463
515.656	5418
515.728	5242
515.799	3650
515.870	5388
515.941	6216
516.012	3775
516.083	7041
516.154	7197
516.225	12815
516.296	12482
516.367	9368
516.438	13278
516.509	17376
516.580	24528
516.651	75532
516.722	290246
516.793	116417
516.864	25304
516.935	23519
517.006	28075
517.077	37000
517.148	79299
517.219	312675
517.289	476099
517.360	123791
517.431	38188
517.502	11336
517.573	11653
517.643	10049
517.714	10659
517.785	11468
517.856	12271
517.926	17265
517.997	21925
518.068	27122
518.138	37956
518.209	49730
518.280	186804
518.350	742947
518.421	258182
518.492	31011
518.562	17588
518.633	18500
518.703	16494
518.774	32046
518.845	88925
518.915	88880
518.986	23957
519.056	17487
519.127	26654
519.197	39293
519.268	89171
519.338	56279
519.408	13956
519.479	16902
519.549	11853
519.620	8535
519.690	6045
519.760	6189
519.831	6958
519.901	6585
519.971	5056
520.042	5547
520.112	7101
520.182	8850
520.253	9719
520.323	6016
520.393	5643
520.463	10592
520.534	4897
520.604	13034
520.674	9008
520.744	8582
520.814	13828
520.885	15753
520.955	25815
521.025	103161
521.095	38352
521.165	8593
521.235	6261
521.305	4828
521.375	5565
521.445	6148
521.515	8511
521.585	10803
521.655	7920
521.725	7900
521.795	6434
521.865	2731
521.935	9477
522.005	7529
522.075	4987
522.145	6003
522.215	6618
522.285	9983
522.355	12938
522.424	26883
522.494	22035
522.564	11747
522.634	21719
522.704	71366
522.774	24006
522.843	7602
522.913	6314
522.983	8149
523.053	6351
523.122	7170
523.192	9028
523.262	37017
523.331	33393
523.401	7513
523.471	4729
523.540	5279
523.610	2992
523.680	4692
523.749	5225
523.819	5912
523.888	5705
523.958	4945
524.027	5334
524.097	5587
524.166	5054
524.236	4895
524.305	6833
524.375	3943
524.444	4332
524.514	7217
524.583	5001
524.653	5264
524.722	7467
524.791	3548
524.861	6267
524.930	3941
524.999	4580
525.069	7802
525.138	5979
525.207	7277
525.277	5556
525.346	4622
525.415	5657
525.484	5740
525.554	6784
525.623	6926
525.692	6737
525.761	8717
525.830	9438
525.900	11721
525.969	18073
526.038	28444
526.107	55224
526.176	174830
526.245	136614
526.314	43855
526.383	89693
526.452	115400
526.522	196488
526.591	193901
526.660	52974
526.729	28951
526.797	30758
526.867	54985
526.935	234070
527.004	438118
527.073	229232
527.142	23503
527.211	11303
527.280	10211
527.349	9934
527.418	5086
527.487	5910
527.555	3324
527.624	4379
527.693	3403
527.762	4676
527.831	3505
527.899	4517
527.968	3924
528.037	4091
528.106	6304
528.174	12248
528.243	9397
528.312	13539
528.380	16173
528.449	5283
528.518	4762
528.586	2071
528.655	4277
528.723	3793
528.792	3443
528.861	3673
528.929	2253
528.998	4703
529.066	3414
529.135	4121
529.203	2223
529.272	2850
529.340	3242
529.409	4944
529.477	3384
529.545	4476
529.614	6337
529.682	4500
529.751	6558
529.819	8283
529.887	5149
529.956	3034
530.024	4467
530.092	2994
530.161	5768
530.229	8757
530.297	4068
530.365	4698
530.434	3696
530.502	2370
530.570	3755
530.638	1580
530.707	4638
530.775	5762
530.843	3203
530.911	3321
530.979	3480
531.047	3354
531.115	3607
531.183	3652
531.252	4168
531.320	3484
531.388	3191
531.456	3848
531.524	2572
531.592	4363
531.660	5910
531.728	3730
531.796	3100
531.864	4556
531.932	3079
532.000	3538
532.067	4899
532.135	5002
532.203	6498
532.271	5235
532.339	10829
532.407	29853
532.475	16390
532.542	8879
532.610	10288
532.678	11746
532.746	52242
532.814	132657
532.881	29431
532.949	7110
533.017	5726
533.084	5478
533.152	4450
533.220	5242
533.287	4691
533.355	3564
533.423	5389
533.490	4536
533.558	3323
533.625	3857
533.693	3280
533.761	4418
533.828	5391
533.896	3725
533.963	10033
534.031	12128
534.098	17693
534.166	7826
534.233	3913
534.300	6453
534.368	5913
534.435	4948
534.503	6333
534.570	6545
534.637	6276
534.705	8224
534.772	9549
534.840	14818
534.907	76793
534.974	95815
535.041	12533
535.109	8976
535.176	4882
535.243	5495
535.310	5506
535.378	4247
535.445	5807
535.512	4751
535.579	5324
535.646	4137
535.714	4565
535.781	6328
535.848	4967
535.915	5727
535.982	3778
536.049	4642
536.116	6282
536.183	4887
536.250	4644
536.317	5596
536.384	7187
536.451	10446
536.518	11575
536.585	5671
536.652	9559
536.719	14460
536.786	10572
536.853	8545
536.920	12580
536.987	19489
537.053	17653
537.120	66728
537.187	54872
537.254	7988
537.321	5862
537.388	7612
537.454	4928
537.521	5349
537.588	4939
537.654	6503
537.721	4820
537.788	7102
537.855	4946
537.921	5888
537.988	5797
538.055	5568
538.121	4937
538.188	6023
538.254	8711
538.321	19760
538.388	12128
538.454	6327
538.521	6724
538.587	5172
538.654	4855
538.720	5289
538.787	5860
538.853	5208
538.920	8132
538.986	7595
539.053	6247
539.119	6309
539.185	6501
539.252	8309
539.318	11603
539.385	9526
539.451	6295
539.517	8882
539.583	9463
539.650	18614
539.716	47979
539.782	12883
539.849	6711
539.915	6300
539.981	5960
540.047	7846
540.114	6662
540.180	8917
540.246	7056
540.312	9673
540.378	19015
540.444	19785
540.510	20303
540.576	55309
540.643	15828
540.709	5738
540.775	6932
540.841	6705
540.907	8612
540.973	10209
541.039	10131
541.105	12151
541.171	6071
541.237	5852
541.303	7031
541.369	8777
541.435	8203
541.500	16189
541.566	9784
541.632	6531
541.698	5888
541.764	6587
541.830	5600
541.896	5177
541.961	6138
542.027	6748
542.093	5919
542.159	7063
542.224	6129
542.290	9675
542.356	15316
542.421	20465
542.487	9590
542.553	6423
542.618	7416
542.684	6655
542.750	6294
542.815	8710
542.881	12763
542.947	48396
543.012	33195
543.078	7536
543.143	5539
543.209	7093
543.274	6691
543.340	7343
543.405	18677
543.471	27572
543.536	7534
543.602	6471
543.667	5039
543.732	6812
543.798	5943
543.863	5904
543.928	5223
543.994	5235
544.059	5415
544.124	5749
544.190	5767
544.255	6424
544.320	6664
544.386	5898
544.451	9741
544.516	11607
544.581	10325
544.646	29970
544.712	45137
544.777	10216
544.842	7742
544.907	8639
544.972	7007
545.037	7302
545.102	8125
545.168	7914
545.233	10176
545.298	9359
545.363	10227
545.428	11008
545.493	19155
545.558	38920
545.623	15988
545.688	8059
545.753	8035
545.818	8487
545.883	8851
545.947	8627
546.012	9721
546.077	9055
546.142	10102
546.207	8901
546.272	12230
546.337	12518
546.401	10859
546.466	9746
546.531	9164
546.596	12261
546.661	11848
546.725	11842
546.790	10953
546.855	12912
546.919	12474
546.984	15075
547.049	15962
547.113	18266
547.178	17971
547.243	22163
547.307	24794
547.372	27764
547.436	28358
547.501	26948
547.565	28559
547.630	29216
547.695	28097
547.759	29182
547.823	27278
547.888	26606
547.952	26846
548.017	28588
548.081	29264
548.146	32522
548.210	30950
548.274	31308
548.339	29794
548.403	28194
548.468	25828
548.532	26342
548.596	25240
548.660	27093
548.725	30652
548.789	32241
548.853	31961
548.917	28934
548.982	30217
549.046	29742
549.110	23327
549.174	23797
549.238	27340
549.303	28981
549.367	32082
549.431	29094
549.495	28520
549.559	27032
549.623	33688
549.687	36442
549.751	39212
549.815	41144
549.879	41746
549.943	39286
550.007	41532
550.071	41383
550.135	40028
550.199	36063
550.263	35028
550.327	33862
550.391	37034
550.455	36829
550.519	38993
550.582	42502
550.646	49502
550.710	50610
550.774	47689
550.838	47736
550.901	48039
550.965	51460
551.029	51690
551.093	57260
551.156	61648
551.220	81994
551.284	97102
551.347	65914
551.411	70566
551.475	69799
551.538	50284
551.602	45193
551.666	43367
551.729	40212
551.793	40359
551.856	39103
551.920	38857
551.983	38150
552.047	37893
552.110	38687
552.174	38289
552.237	40564
552.301	35609
552.364	35627
552.428	34766
552.491	35853
552.554	37178
552.618	37198
552.681	39234
552.745	38318
552.808	47378
552.871	54957
552.934	42248
552.998	37651
553.061	35312
553.124	34596
553.187	33576
553.251	35026
553.314	35693
553.377	35021
553.440	37634
553.503	40692
553.567	42063
553.630	37827
553.693	37118
553.756	37944
553.819	36014
553.882	35200
553.945	35867
554.008	34956
554.071	35067
554.134	36340
554.197	33496
554.260	32537
554.323	35498
554.386	34699
554.449	34993
554.512	36426
554.575	33929
554.638	34158
554.701	33151
554.764	33707
554.827	32784
554.889	30637
554.952	29266
555.015	29107
555.078	27926
555.141	29797
555.203	28223
555.266	28636
555.329	28935
555.391	26812
555.454	28205
555.517	27047
555.580	25648
555.642	24924
555.705	24088
555.768	24341
555.830	24030
555.893	22708
555.955	21718
556.018	21497
556.080	22277
556.143	22990
556.206	22414
556.268	22390
556.330	22751
556.393	21887
556.455	21455
556.518	23635
556.580	24038
556.643	18656
556.705	18782
556.767	18569
556.830	18745
556.892	19356
556.955	24446
557.017	21119
557.079	18605
557.142	17295
557.204	17716
557.266	28804
557.328	22819
557.391	16207
557.453	15125
557.515	15850
557.577	17777
557.639	17223
557.701	15913
557.764	15499
557.826	15275
557.888	18270
557.950	18299
558.012	19247
558.074	25115
558.136	52987
558.198	129039
558.260	45708
558.322	20315
558.384	21540
558.446	25409
558.508	29965
558.570	35029
558.632	49419
558.694	66122
558.756	76871
558.818	224713
558.880	539899
558.942	165008
559.003	138950
559.065	67275
559.127	29622
559.189	32038
559.251	34245
559.312	45910
559.374	107740
559.436	367155
559.498	167740
559.559	34196
559.621	29841
559.683	34198
559.744	54479
559.806	171403
559.868	251596
559.929	49237
559.991	31196
560.052	45301
560.114	126696
560.176	77890
560.237	72141
560.299	117135
560.360	25853
560.422	12584
560.483	11548
560.545	10100
560.606	9760
560.667	10108
560.729	9462
560.790	9738
560.852	9236
560.913	8588
560.974	8780
561.036	8484
561.097	9397
561.158	9726
561.220	9426
561.281	9338
561.342	9215
561.403	11527
561.465	13133
561.526	28936
561.587	35858
561.648	11307
561.709	9029
561.771	9175
561.832	8113
561.893	7831
561.954	7622
562.015	7878
562.076	8246
562.137	8040
562.198	7976
562.259	7560
562.320	7700
562.381	8770
562.442	13099
562.503	10814
562.564	7864
562.625	8159
562.686	7045
562.747	10491
562.808	8383
562.869	8931
562.930	9601
562.991	9256
563.051	7443
563.112	8439
563.173	7632
563.234	6692
563.294	7957
563.355	7313
563.416	8135
563.477	7216
563.537	7740
563.598	7558
563.659	7380
563.720	6988
563.780	7621
563.841	8110
563.901	8666
563.962	7442
564.023	7571
564.083	8577
564.144	7916
564.204	7956
564.265	8598
564.325	8639
564.386	15546
564.446	14640
564.507	7250
564.567	7269
564.628	7470
564.688	7569
564.749	6747
564.809	8327
564.869	9951
564.930	7551
564.990	7026
565.050	6748
565.111	7117
565.171	6636
565.231	6838
565.292	7793
565.352	6345
565.412	7997
565.472	6920
565.532	7951
565.593	6741
565.653	7109
565.713	7922
565.773	8372
565.833	9163
565.893	12343
565.953	7612
566.013	6363
566.074	7452
566.134	10067
566.194	13976
566.254	14286
566.314	9815
566.374	7149
566.434	7506
566.494	6840
566.554	6312
566.614	6728
566.673	7161
566.733	7805
566.793	8801
566.853	8408
566.913	7086
566.973	8363
567.033	8975
567.092	10733
567.152	9204
567.212	9371
567.272	7878
567.331	8126
567.391	7165
567.451	9317
567.511	11685
567.570	11218
567.630	8320
567.690	7415
567.749	7814
567.809	8353
567.868	8077
567.928	8170
567.988	9329
568.047	9085
568.107	10193
568.166	11047
568.226	16635
568.285	18346
568.345	14901
568.404	12845
568.464	11787
568.523	11060
568.582	11183
568.642	12920
568.701	15466
568.761	19965
568.820	29191
568.879	25249
568.939	20271
568.998	14344
569.057	11846
569.116	9721
569.176	10022
569.235	8010
569.294	8198
569.353	7342
569.413	8471
569.472	7550
569.531	7446
569.590	7595
569.649	6434
569.708	7110
569.767	8475
569.827	12991
569.886	9700
569.945	6703
570.004	7658
570.063	7700
570.122	8617
570.181	8397
570.240	8492
570.299	10315
570.358	12775
570.417	8530
570.475	7488
570.534	7836
570.593	8661
570.652	9416
570.711	9987
570.770	7202
570.829	8238
570.887	8262
570.946	9220
571.005	6856
571.064	7992
571.122	8799
571.181	8978
571.240	7092
571.299	6611
571.357	7268
571.416	7378
571.475	7947
571.533	8956
571.592	7322
571.650	8168
571.709	6524
571.768	7193
571.826	7455
571.885	7117
571.943	6738
572.002	6121
572.060	6201
572.119	6356
572.177	6497
572.236	6572
572.294	6008
572.352	6554
572.411	6999
572.469	6862
572.528	7030
572.586	7108
572.644	9418
572.703	14772
572.761	9116
572.819	6408
572.877	5202
572.936	5619
572.994	5336
573.052	5905
573.110	6815
573.169	6627
573.227	6433
573.285	6432
573.343	5940
573.401	5878
573.459	5608
573.517	6107
573.576	6112
573.634	6771
573.692	7165
573.750	6688
573.808	5470
573.866	6135
573.924	8136
573.982	6702
574.040	5982
574.098	6256
574.155	6768
574.213	5343
574.271	5148
574.329	6065
574.387	5358
574.445	4781
574.503	4862
574.560	4641
574.618	5177
574.676	5841
574.734	5584
574.792	5181
574.849	5914
574.907	5143
574.965	4330
575.022	4858
575.080	4765
575.138	4976
575.195	5838
575.253	5060
575.311	5857
575.368	4986
575.426	4912
575.483	5975
575.541	4806
575.598	5285
575.656	5057
575.713	4539
575.771	5053
575.828	4405
575.886	5042
575.943	6437
576.001	4849
576.058	5738
576.115	6325
576.173	6351
576.230	7287
576.287	8800
576.345	6716
576.402	5924
576.459	5972
576.517	5391
576.574	5887
576.631	6816
576.688	5778
576.746	4680
576.803	4734
576.860	5007
576.917	5562
576.974	5325
577.031	5156
577.089	5466
577.146	4743
577.203	6002
577.260	6278
577.317	5580
577.374	6676
577.431	5794
577.488	5973
577.545	4335
577.602	5057
577.659	4857
577.716	4550
577.773	5085
577.830	4531
577.886	4494
577.943	4765
578.000	4681
578.057	5982
578.114	5737
578.171	4682
578.227	5371
578.284	4621
578.341	5570
578.398	5782
578.454	6552
578.511	5788
578.568	8543
578.625	5914
578.681	4806
578.738	4347
578.794	4775
578.851	5241
578.908	5368
578.964	5339
579.021	5296
579.077	4634
579.134	4768
579.190	5702
579.247	5198
579.303	4006
579.360	4704
579.416	4965
579.473	4733
579.529	4084
579.586	5202
579.642	4777
579.698	4375
579.755	4218
579.811	5695
579.867	5052
579.924	4868
579.980	4750
580.036	5547
580.093	4587
580.149	5269
580.205	5430
580.261	4797
580.317	5236
580.374	6915
580.430	6464
580.486	6928
580.542	4592
580.598	5554
580.619	5301
580.654	4866
580.692	5439
580.710	5731
580.765	5630
580.767	5634
580.823	5238
580.838	5169
580.879	4986
580.911	5186
580.935	5347
580.984	5306
580.991	5304
581.047	6172
581.057	5983
581.103	5241
581.130	5566
581.159	5872
581.203	5650
581.215	5605
581.270	6224
581.276	6149
581.326	5472
581.349	5512
581.382	5591
581.422	5154
581.438	4968
581.494	5543
581.494	5531
581.550	4888
581.567	5121
581.606	5579
581.640	5405
581.661	5318
581.713	6556
581.717	6658
581.773	5536
581.786	5596
581.829	5777
581.859	5672
581.885	5623
581.932	5409
581.940	5374
581.996	6012
582.004	6004
582.052	5867
582.077	5363
582.107	4848
582.150	5758
582.163	6019
582.219	5473
582.223	5428
582.274	4888
582.296	5185
582.330	5749
582.368	5723
582.386	5728
582.441	5997
582.441	5998
582.497	5234
582.514	5099
582.552	5012
582.587	5244
582.608	5341
582.659	5466
582.663	5477
582.719	5040
582.732	5014
582.774	5027
582.805	5231
582.830	5366
582.877	5879
582.885	5963
582.941	5777
582.950	5690
582.996	5217
583.023	5563
583.052	6075
583.095	5990
583.107	5927
583.162	5766
583.168	5790
583.218	5759
583.240	5462
583.273	5287
583.313	5018
583.328	4884
583.384	5394
583.385	5402
583.439	5548
583.458	5381
583.494	5126
583.531	5357
583.549	5494
583.603	4954
583.605	4928
583.660	5597
583.676	5455
583.715	5281
583.748	5664
583.770	5890
583.820	6010
583.825	6030
583.881	5429
583.893	5471
583.936	5531
583.965	5446
583.991	5465
584.038	5376
584.046	5321
584.101	4980
584.110	5105
584.156	5607
584.183	5230
584.211	4882
584.255	5251
584.266	5407
584.321	5092
584.328	5189
584.376	5906
584.400	5789
584.431	5589
584.472	5884
584.486	5933
584.541	5525
584.545	5561
584.596	6154
584.617	6065
584.651	6072
584.689	6280
584.706	6303
584.761	6448
584.762	6451
584.816	6732
584.834	6715
584.871	6633
584.906	6878
584.926	6951
584.978	6854
584.980	6865
585.035	8386
585.051	8507
585.090	8550
585.123	8870
585.145	9152
585.195	10624
585.200	10792
585.254	12233
585.267	12812
585.309	14532
585.340	15651
585.364	16369
585.412	18700
585.419	19112
585.473	22202
585.484	22988
585.528	28045
585.556	34524
585.583	46035
585.628	74141
585.637	83730
585.692	175260
585.700	192251
585.747	254753
585.772	209161
585.801	127090
585.845	43885
585.856	32576
585.910	18841
585.917	17465
585.965	13330
585.989	12120
586.019	10867
586.061	9897
586.074	9719
586.128	9434
586.133	9449
586.183	9410
586.205	9325
586.237	9629
586.277	9671
586.292	9485
586.346	8688
586.349	8676
586.401	8677
586.421	8972
586.455	9576
586.493	10333
586.509	10976
586.564	13446
586.565	13574
586.618	19453
586.637	19533
586.672	17231
586.709	13751
586.727	12571
586.781	12808
586.781	12800
586.835	10197
586.853	9743
586.889	9480
586.925	8879
586.944	8578
586.996	9087
586.998	9111
587.052	9729
587.068	9814
587.106	9640
587.140	9434
587.161	9404
587.212	9802
587.215	9819
587.269	9910
587.284	9937
587.323	9754
587.356	9791
587.377	10077
587.427	10524
587.431	10512
587.485	10468
587.499	10419
587.539	10315
587.571	10281
587.593	10702
587.643	12058
587.648	12130
587.702	12486
587.715	12593
587.755	12864
587.786	13219
587.810	13199
587.858	12861
587.864	12955
587.917	14738
587.930	14977
587.971	15316
588.001	15840
588.025	16465
588.073	18119
588.079	18314
588.133	19168
588.145	19464
588.187	20618
588.217	21692
588.241	22981
588.288	26643
588.295	27163
588.348	31084
588.360	32094
588.402	35896
588.431	38731
588.456	41297
588.503	47281
588.510	48172
588.564	56653
588.575	58765
588.617	68615
588.646	75695
588.671	83872
588.718	103498
588.725	108652
588.778	155218
588.789	168018
588.832	267674
588.861	347696
588.886	451466
588.932	672129
588.939	684689
588.993	711174
589.004	701598
589.047	500757
589.075	354958
589.100	266488
589.147	143682
589.154	136605
589.207	101366
589.218	95621
589.261	90268
589.290	89098
589.314	93052
589.361	104453
589.368	110139
589.421	166845
589.433	181892
589.475	306022
589.504	408124
589.528	490995
589.576	635698
589.582	620866
589.635	399062
589.647	348536
589.689	191253
589.718	102768
589.742	81985
589.790	51817
589.795	50295
589.849	39514
589.861	37598
589.902	34168
589.932	31169
589.955	28509
590.004	23002
590.009	22748
590.062	21504
590.075	21115
590.115	19129
590.146	17704
590.168	17291
590.218	16641
590.222	16559
590.275	15567
590.289	15344
590.328	16110
590.360	16550
590.381	16062
590.431	15154
590.435	15131
590.488	14730
590.503	14631
590.541	14133
590.574	13765
590.594	13786
590.645	13823
590.647	13819
590.700	13678
590.716	13656
590.753	13892
590.787	14139
590.806	13862
590.859	13340
590.859	13347
590.912	13780
590.930	13897
590.965	13773
591.001	13743
591.018	13758
591.071	13754
591.072	13752
591.124	13953
591.143	14004
591.177	13704
591.214	13298
591.230	13378
591.283	13839
591.285	13851
591.336	13782
591.356	13811
591.389	14158
591.427	14535
591.442	14242
591.495	12828
591.498	12749
591.547	12612
591.569	12526
591.600	12798
591.640	13165
591.653	13239
591.706	13536
591.711	13572
591.759	14171
591.782	14481
591.811	14572
591.853	14727
591.864	14644
591.917	14110
591.924	14032
591.969	13840
591.995	13773
592.022	13515
592.066	13096
592.075	13411
592.127	15414
592.137	15791
592.180	15783
592.208	15736
592.233	15205
592.279	14184
592.285	14225
592.338	14668
592.350	14775
592.390	14213
592.421	13799
592.443	14179
592.491	15037
592.495	15033
592.548	15020
592.562	15023
592.600	14845
592.633	14702
592.653	14553
592.704	14105
592.705	14195
592.775	14718
592.846	14868
592.916	16449
592.987	16716
593.058	15945
593.128	14577
593.199	15165
593.270	14982
593.341	15512
593.411	15788
593.482	17382
593.553	17950
593.623	16159
593.694	16718
593.764	18006
593.835	16781
593.906	17751
593.976	18098
594.047	17755
594.117	19971
594.188	19020
594.258	18550
594.329	18775
594.399	18879
594.470	19294
594.540	19575
594.611	20355
594.681	20489
594.751	20085
594.822	22650
594.892	21601
594.963	23354
595.033	23854
595.103	23683
595.174	24909
595.244	27489
595.314	29496
595.384	25203
595.455	25377
595.525	27073
595.595	28468
595.665	27547
595.736	27122
595.806	27844
595.876	27874
595.946	28050
596.016	29130
596.087	29271
596.157	29782
596.227	29510
596.297	31462
596.367	32912
596.437	36402
596.507	38220
596.577	39606
596.647	37003
596.717	37763
596.787	38740
596.857	38507
596.927	38529
596.997	39826
597.067	39388
597.137	39901
597.207	40807
597.277	40381
597.347	39597
597.417	37675
597.487	38755
597.557	40240
597.626	40374
597.696	40920
597.766	42295
597.836	41505
597.906	36469
597.975	35470
598.045	34271
598.115	37098
598.185	39706
598.254	46005
598.324	48285
598.394	50054
598.464	47767
598.533	45612
598.603	43226
598.672	43058
598.742	43312
598.812	43835
598.881	44229
598.951	43642
599.020	45407
599.090	46477
599.159	48004
599.229	44537
599.299	44364
599.368	45611
599.437	44296
599.507	41225
599.576	39361
599.646	39325
599.715	39333
599.785	37640
599.854	38036
599.924	37044
599.993	36965
600.062	36977
600.132	37917
600.201	40867
600.270	47925
600.340	51093
600.409	48162
600.478	48122
600.547	49047
600.617	45914
600.686	34983
600.755	31386
600.824	30880
600.894	30237
600.963	29342
601.032	30135
601.101	27631
601.170	27107
601.239	25697
601.308	27315
601.378	26362
601.447	26197
601.516	26378
601.585	27967
601.654	27964
601.723	27934
601.792	27357
601.861	29318
601.930	31638
601.999	31093
602.068	29883
602.137	31976
602.206	32386
602.275	32659
602.343	33485
602.412	33476
602.481	30835
602.550	32491
602.619	32389
602.688	34703
602.756	32937
602.825	33688
602.894	35040
602.963	33984
603.032	35372
603.100	35663
603.169	35516
603.238	36336
603.307	37463
603.375	36874
603.444	37937
603.513	38864
603.581	40072
603.650	39942
603.719	39334
603.787	39792
603.856	40920
603.924	44162
603.993	45025
604.061	45448
604.130	48552
604.198	48986
604.267	48695
604.335	49223
604.404	51324
604.472	51419
604.541	52413
604.609	52961
604.678	52799
604.746	52776
604.815	54473
604.883	55190
604.951	56224
605.020	57093
605.088	58099
605.156	59375
605.225	59857
605.293	59406
605.361	59705
605.429	61024
605.498	62044
605.566	64388
605.634	67765
605.702	70013
605.771	71742
605.839	72443
605.907	69589
605.975	67298
606.043	66371
606.111	66587
606.180	66747
606.248	66685
606.316	64833
606.384	63629
606.452	68323
606.520	71614
606.588	70484
606.656	69725
606.724	69637
606.792	64101
606.860	57517
606.928	52541
606.996	50149
607.064	49003
607.132	50490
607.200	54007
607.267	55557
607.335	57602
607.403	58333
607.471	56478
607.539	55487
607.607	55224
607.674	47158
607.742	49042
607.810	47935
607.878	47848
607.946	49389
608.013	51741
608.081	53148
608.149	53802
608.216	53986
608.284	58017
608.352	56923
608.419	55748
608.487	57023
608.555	54740
608.622	55966
608.690	60580
608.757	66119
608.825	68288
608.893	65765
608.960	65345
609.028	63654
609.095	61471
609.163	58637
609.230	51857
609.298	47810
609.365	49546
609.432	55352
609.500	60384
609.567	69173
609.635	79811
609.702	84998
609.769	79893
609.837	60002
609.904	51516
609.971	52245
610.039	62855
610.106	82159
610.173	161305
610.241	361132
610.308	179204
610.375	67472
610.442	55962
610.509	52235
610.577	54026
610.644	54689
610.711	56909
610.778	57642
610.845	60011
610.912	64314
610.980	67204
611.047	67120
611.114	66241
611.181	64485
611.248	61822
611.315	68598
611.382	68940
611.449	72297
611.516	74459
611.583	71534
611.650	71572
611.717	74598
611.784	75391
611.851	80234
611.918	85860
611.984	99476
612.051	147124
612.118	300092
612.185	699962
612.252	393453
612.319	116756
612.386	96746
612.452	87508
612.519	83922
612.586	84001
612.653	84052
612.719	86204
612.786	81712
612.853	76447
612.919	74340
612.986	76293
613.053	70537
613.120	66309
613.186	62590
613.253	66407
613.319	65033
613.386	64508
613.453	65696
613.519	68972
613.586	67447
613.652	72626
613.719	69414
613.785	69378
613.852	66229
613.918	66299
613.985	67933
614.051	71037
614.118	71201
614.184	67044
614.250	66064
614.317	68267
614.383	66323
614.449	69209
614.516	67213
614.582	68259
614.648	65900
614.715	65748
614.781	65135
614.847	64136
614.914	65196
614.980	62989
615.046	63388
615.112	65922
615.179	65133
615.245	65421
615.311	65888
615.377	68681
615.443	70406
615.509	67148
615.575	71425
615.642	69305
615.708	71612
615.774	75436
615.840	80442
615.906	87427
615.972	109955
616.038	170928
616.104	359348
616.170	812131
616.236	610549
616.302	164376
616.368	123403
616.434	90320
616.500	86059
616.565	94954
616.631	116233
616.697	94301
616.763	100435
616.829	153616
616.895	267938
616.961	234016
617.026	100145
617.092	73829
617.158	69775
617.224	66465
617.289	62662
617.355	59149
617.421	58302
617.487	59526
617.552	55046
617.618	55174
617.684	55326
617.749	55454
617.815	52449
617.880	50315
617.946	50904
618.012	52727
618.077	53508
618.143	51588
618.208	53460
618.274	57073
618.339	56462
618.405	45029
618.470	47130
618.536	46063
618.601	44998
618.667	42700
618.732	40276
618.798	39188
618.863	39140
618.928	37598
618.994	40870
619.059	41490
619.124	43635
619.190	40454
619.255	38518
619.320	38341
619.386	38693
619.451	37556
619.516	36858
619.581	39160
619.647	39348
619.712	39053
619.777	36949
619.842	37699
619.907	38758
619.972	39329
620.038	38464
620.103	37312
620.168	36806
620.233	39134
620.298	36609
620.363	38826
620.428	39243
620.493	40648
620.558	40494
620.623	41722
620.688	40015
620.753	40446
620.818	42622
620.883	43270
620.948	42972
621.013	41953
621.078	41923
621.143	41089
621.207	43312
621.272	41173
621.337	40302
621.402	40304
621.467	41276
621.532	42000
621.596	41838
621.661	39352
621.726	38008
621.791	39708
621.855	39116
621.920	38171
621.985	39427
622.049	41323
622.114	40208
622.179	40892
622.243	40913
622.308	42037
622.373	46185
622.437	45205
622.502	39034
622.566	41243
622.631	39888
622.695	43148
622.760	40702
622.824	41992
622.889	41982
622.953	42818
623.018	50999
623.082	49296
623.147	44195
623.211	43330
623.276	43491
623.340	40055
623.404	40036
623.469	40137
623.533	40514
623.597	38373
623.662	38485
623.726	36087
623.790	32650
623.854	32058
623.919	34544
623.983	34952
624.047	34854
624.111	35546
624.176	35266
624.240	36984
624.304	40517
624.368	35350
624.432	35524
624.496	37502
624.560	38432
624.625	38659
624.689	39252
624.753	40022
624.817	37685
624.881	37160
624.945	33252
625.009	32857
625.073	33307
625.137	35757
625.201	38296
625.265	38323
625.329	34306
625.393	35882
625.456	35535
625.520	36272
625.584	38001
625.648	40568
625.712	45510
625.776	59164
625.839	59565
625.903	35103
625.967	30639
626.031	37835
626.095	48629
626.158	35352
626.222	25039
626.286	25362
626.349	23201
626.413	22262
626.477	24290
626.540	22989
626.604	22206
626.668	22930
626.731	21738
626.795	22110
626.858	21501
626.922	20930
626.986	22136
627.049	19853
627.113	21817
627.176	21445
627.240	21204
627.303	21497
627.366	20306
627.430	21320
627.493	20431
627.557	19753
627.620	21557
627.684	21645
627.747	22096
627.810	18851
627.874	18099
627.937	16882
628.000	19427
628.064	17562
628.127	13994
628.190	15864
628.253	14974
628.317	14062
628.380	14219
628.443	13734
628.506	14398
628.569	13441
628.632	11978
628.696	12372
628.759	11344
628.822	11890
628.885	11393
628.948	11387
629.011	11504
629.074	11460
629.137	9886
629.200	10152
629.263	12863
629.326	9466
629.389	10325
629.452	10801
629.515	10469
629.578	10527
629.641	11095
629.704	9554
629.767	10344
629.830	10846
629.892	9227
629.955	9788
630.018	11169
630.081	10022
630.144	12090
630.207	8910
630.269	11088
630.332	10147
630.395	9707
630.458	9021
630.520	9242
630.583	10070
630.646	9916
630.708	9070
630.771	8726
630.834	9600
630.896	9426
630.959	9078
631.021	8669
631.084	8839
631.146	9622
631.209	10951
631.272	8458
631.334	9874
631.397	9658
631.459	10015
631.522	11167
631.584	10889
631.646	11853
631.709	11563
631.771	13272
631.834	11925
631.896	10426
631.958	9369
632.021	9412
632.083	8454
632.145	9773
632.208	8884
632.270	10201
632.332	9346
632.395	8364
632.457	9583
632.519	7973
632.581	10362
632.643	6964
632.706	9042
632.768	7424
632.830	9969
632.892	7412
632.954	8541
633.016	9253
633.078	8862
633.141	8150
633.203	8294
633.265	9580
633.327	8757
633.389	8424
633.451	9866
633.513	9543
633.575	10206
633.637	9732
633.698	8853
633.760	10311
633.822	10172
633.884	9102
633.946	10526
634.008	9954
634.070	10671
634.132	11237
634.193	13235
634.255	14115
634.317	13855
634.379	14173
634.441	11882
634.502	10704
634.564	11027
634.626	9015
634.687	9529
634.749	7321
634.811	8182
634.873	7817
634.934	8506
634.996	9639
635.057	8342
635.119	6944
635.181	8546
635.242	9448
635.304	7439
635.365	10371
635.427	8379
635.488	8418
635.550	7665
635.611	8527
635.673	7022
635.734	9577
635.796	8655
635.857	12358
635.918	11138
635.980	13462
636.041	12759
636.102	15769
636.164	15585
636.225	14919
636.286	11131
636.348	10782
636.409	9541
636.470	8601
636.531	9339
636.593	7221
636.654	9291
636.715	7974
636.776	7125
636.838	6500
636.899	8002
636.960	6687
637.021	6704
637.082	6875
637.143	7718
637.204	5771
637.265	6623
637.326	7010
637.387	7247
637.448	4854
637.509	7371
637.570	6445
637.631	6614
637.692	5122
637.753	5632
637.814	6673
637.875	6177
637.936	6841
637.997	5190
638.058	5766
638.119	6712
638.179	6320
638.240	4520
638.301	5829
638.362	4926
638.423	5178
638.483	6349
638.544	4038
638.605	6194
638.666	3791
638.726	5718
638.787	6482
638.848	4891
638.908	5209
638.969	5786
639.030	5134
639.090	3859
639.151	4432
639.211	5887
639.272	6558
639.332	8621
639.393	5908
639.453	5585
639.514	6509
639.574	5696
639.635	4460
639.695	6090
639.756	3063
639.816	5270
639.877	6079
639.937	8946
639.997	9665
640.058	4410
640.118	3313
640.178	5848
640.239	4356
640.299	5116
640.359	4504
640.420	5088
640.480	6499
640.540	6625
640.600	6608
640.661	6163
640.721	4844
640.781	6939
640.841	3693
640.901	5974
640.961	5114
641.021	5709
641.082	5452
641.142	6722
641.202	6298
641.262	2569
641.322	4782
641.382	3155
641.442	5084
641.502	4091
641.562	5379
641.622	4237
641.682	5111
641.742	5738
641.802	4454
641.861	5415
641.921	4013
641.981	5808
642.041	5742
642.101	5363
642.161	3581
642.221	4014
642.280	3490
642.340	3698
642.400	3225
642.460	4868
642.519	3850
642.579	3641
642.639	4861
642.698	2135
642.758	6016
642.818	4361
642.877	3785
642.937	4609
642.997	5675
643.056	6277
643.116	2846
643.175	5626
643.235	4292
643.294	5250
643.354	5602
643.414	6502
643.473	8710
643.532	8604
643.592	13954
643.651	24425
643.711	47118
643.770	96508
643.830	241707
643.889	448466
643.948	90866
644.008	17111
644.067	10308
644.126	7032
644.186	6349
644.245	6051
644.304	3697
644.363	6854
644.423	2556
644.482	4547
644.541	5404
644.600	3128
644.659	6377
644.719	9660
644.778	14915
644.837	29268
644.896	64267
644.955	139095
645.014	36827
645.073	8322
645.132	5111
645.191	5450
645.250	4497
645.309	6178
645.368	6091
645.427	9156
645.486	14297
645.545	26351
645.604	7226
645.663	5179
645.722	4142
645.781	5252
645.840	6641
645.898	8488
645.957	13843
646.016	21702
646.075	43762
646.134	89429
646.192	253116
646.251	320950
646.310	41376
646.369	12079
646.427	9855
646.486	6023
646.545	5550
646.603	3945
646.662	4470
646.721	4525
646.779	4016
646.838	3616
646.896	6943
646.955	8746
647.014	16318
647.072	33852
647.131	90609
647.189	35176
647.248	4482
647.306	4435
647.365	3641
647.423	1344
647.481	4499
647.540	1602
647.598	3214
647.657	2971
647.715	3176
647.773	2137
647.832	3306
647.890	1156
647.948	1728
648.007	3429
648.065	1836
648.123	1620
648.181	3201
648.240	2032
648.298	1335
648.356	1655
648.414	1788
648.472	2208
648.531	2715
648.589	2384
648.647	1438
648.705	2514
648.763	2087
648.821	2999
648.879	1443
648.937	3258
648.995	3077
649.053	5831
649.111	10212
649.169	18834
649.227	36490
649.285	82301
649.343	225731
649.401	86606
649.459	15557
649.516	9002
649.574	3976
649.632	5528
649.690	6289
649.748	7931
649.806	9977
649.863	21740
649.921	64357
649.979	34383
650.037	4002
650.094	1471
650.152	1646
650.210	1271
650.268	1927
650.325	1890
650.383	1375
650.440	445
650.498	1716
650.556	1439
650.613	824
650.671	1680
650.728	1467
650.786	1637
650.843	2395
650.901	405
650.958	1168
651.016	867
651.073	1406
651.131	181
651.188	737
651.246	828
651.303	-651
651.360	1458
651.418	368
651.475	839
651.532	653
651.590	816
651.647	281
651.704	872
651.762	253
651.819	720
651.876	442
651.933	782
651.990	1217
652.048	-383
652.105	-414
652.162	786
652.219	464
652.276	636
652.333	764
652.390	831
652.448	935
652.505	942
652.562	133
652.619	1055
652.676	779
652.733	1054
652.790	928
652.847	-1022
652.904	805
652.961	-759
653.017	92
653.074	1297
653.131	391
653.188	-39
653.245	530
653.302	1145
653.359	-261
653.415	1427
653.472	-128
653.529	484
653.586	-163
653.642	197
653.699	858
653.756	-1204
653.813	-967
653.869	1728
653.926	6
653.983	-103
654.039	1234
654.096	-47
654.152	896
654.209	1237
654.266	311
654.322	-306
654.379	611
654.435	1197
654.492	568
654.548	1512
654.605	1651
654.661	1533
654.717	94
654.774	1317
654.830	807
654.887	309
654.943	33
655.000	1095
655.056	635
655.112	-204
655.168	-401
655.225	358
655.281	1217
655.337	1567
655.394	724
655.450	1511
655.506	1263
655.562	1618
655.618	1707
655.675	-170
655.731	187
655.787	79
655.843	747
655.899	227
655.955	51
656.011	464
656.067	-1007
656.123	557
656.179	-351
656.235	1114
656.291	-1709
656.347	899
656.403	275
656.459	295
656.515	-238
656.571	480
656.627	407
656.683	576
656.739	1019
656.795	742
656.850	465
656.906	945
656.962	276
657.018	656
657.074	1146
657.129	1502
657.185	2587
657.241	7117
657.297	2115
657.352	490
657.408	-210
657.464	541
657.519	-589
657.575	-848
657.630	298
657.686	-156
657.742	-392
657.797	1407
657.853	-177
657.908	612
657.964	-706
658.019	393
658.075	-112
658.130	460
658.186	-753
658.241	413
658.297	-468
658.352	-1066
658.407	652
658.463	-301
658.518	-92
658.573	-277
658.629	-788
658.684	-58
658.739	932
658.795	-710
658.850	20
658.905	-1355
658.960	-3
659.016	-1017
659.071	-338
659.126	66
659.181	-48
659.236	1376
659.291	1259
659.346	410
659.401	1
659.457	513
659.512	-641
659.567	1505
659.622	-54
659.677	-205
659.732	-1149
659.787	-335
659.842	102
659.897	528
659.952	-154
660.007	-112
660.061	-269
660.116	259
660.171	-470
660.226	591
660.281	726
660.336	-335
660.391	610
660.445	-888
660.500	-602
660.555	210
660.610	-508
660.664	490
660.719	608
660.774	-460
660.828	-188
660.883	-136
660.938	-307
660.992	-241
661.047	540
661.101	-333
661.156	236
661.211	-466
661.265	-240
661.320	-677
661.374	-321
661.429	-1158
661.483	440
661.538	-487
661.592	-818
661.647	14
661.701	424
661.755	-542
661.810	857
661.864	-204
661.919	-1715
661.973	318
662.027	-681
662.081	-684
662.136	-482
662.190	-159
662.244	185
662.299	-16
662.353	184
662.407	-616
662.461	-864
662.515	597
662.569	-622
662.624	866
662.678	232
662.732	-274
662.786	-109
662.840	-146
662.894	-246
662.948	796
663.002	-384
663.056	428
663.110	-796
663.164	5
663.218	-556
663.272	-39
663.326	311
663.380	-398
663.434	250
663.488	-828
663.542	136
663.595	-397
663.649	45
663.703	205
663.757	-447
663.811	-150
663.864	-728
663.918	68
663.972	72
664.026	18
664.079	-895
664.133	159
664.187	-355
664.240	-524
664.294	-217
664.348	-299
664.401	-317
664.455	-275
664.508	-479
664.562	-1004
664.615	-688
664.669	-843
664.722	-405
664.776	-343
664.829	-192
664.883	-609
664.936	-1287
664.990	-739
665.043	-294
665.097	-735
665.150	239
665.203	-104
665.257	-478
665.310	-369
665.363	336
665.417	117
665.470	-279
665.523	-22
665.576	-92
665.630	-4
665.683	-161
665.736	-639
665.789	-388
665.842	-372
665.895	590
665.949	141
666.002	214
666.055	146
666.108	21
666.161	-233
666.214	666
666.267	-32
666.320	231
666.373	486
666.426	-252
666.479	30
666.532	-619
666.585	-229
666.638	917
666.691	142
666.744	786
666.796	183
666.849	-96
666.902	-457
666.955	-451
667.008	-793
667.060	-692
667.113	25
667.166	-549
667.219	170
667.271	-337
667.324	-481
667.377	-93
667.430	311
667.482	-425
667.535	-346
667.587	863
667.640	399
667.693	364
667.745	899
667.798	1496
667.850	-245
667.903	-330
667.955	-580
668.008	287
668.060	399
668.113	495
668.165	599
668.218	-240
668.270	610
668.322	-299
668.375	-618
668.427	503
668.479	38
668.532	-308
668.584	-160
668.636	-1037
668.689	-325
668.741	-983
668.793	-128
668.845	485
668.898	152
668.950	346
669.002	225
669.054	-200
669.106	-334
669.158	-237
669.211	-501
669.263	412
669.315	210
669.367	-446
669.419	285
669.471	59
669.523	134
669.575	536
669.627	-43
669.679	-657
669.731	-345
669.783	256
669.835	533
669.886	-264
669.938	389
669.990	-321
670.042	-311
670.094	503
670.146	144
670.197	-113
670.249	1108
670.301	-277
670.353	697
670.404	505
670.456	743
670.508	2500
670.560	4407
670.611	8606
670.663	16080
670.715	43108
670.766	59918
670.818	10984
670.869	1671
670.921	1770
670.972	-232
671.024	-158
671.075	687
671.127	-71
671.178	21
671.230	461
671.281	-431
671.333	401
671.384	1067
671.436	418
671.487	2074
671.538	3294
671.590	6070
671.641	11504
671.692	22086
671.744	41518
671.795	21144
671.846	5316
671.897	2654
671.949	1197
672.000	199
672.051	1001
672.102	388
672.153	370
672.204	-213
672.256	404
672.307	775
672.358	507
672.409	-184
672.460	-287
672.511	-490
672.562	-880
672.613	-215
672.664	-782
672.715	-418
672.766	-709
672.817	-432
672.868	-271
672.919	-680
672.970	-387
673.021	194
673.071	-1028
673.122	331
673.173	-606
673.224	459
673.275	-210
673.326	-146
673.376	-405
673.427	-641
673.478	-691
673.528	-48
673.579	-515
673.630	-335
673.680	409
673.731	140
673.782	-935
673.832	-1216
673.883	-77
673.934	346
673.984	56
674.035	-323
674.085	-88
674.136	31
674.186	363
674.237	450
674.287	761
674.338	831
674.388	-436
674.438	-622
674.489	197
674.539	-65
674.589	98
674.640	345
674.690	-15
674.740	-630
674.791	12
674.841	35
674.891	-545
674.942	-775
674.992	-212
675.042	-923
675.092	-1279
675.142	-794
675.193	-571
675.243	-233
675.293	-269
675.343	-584
675.393	-1139
675.443	-478
675.493	121
675.543	-847
675.593	-19
675.643	-149
675.693	425
675.743	-862
675.793	115
675.843	-658
675.893	-580
675.943	-236
675.993	-374
676.043	-737
676.093	-762
676.142	-492
676.192	71
676.242	-594
676.292	-429
676.341	-166
676.391	72
676.441	-41
676.491	-187
676.540	-761
676.590	372
676.640	-1396
676.689	-1214
676.739	-922
676.789	-757
676.838	-1371
676.888	-899
676.937	-213
676.987	-1105
677.037	-1545
677.086	-611
677.136	-767
677.185	-1479
677.235	-1740
677.284	-707
677.333	-566
677.383	-1594
677.432	-1263
677.482	-1089
677.531	-324
677.580	-1506
677.630	-471
677.679	-568
677.728	-41
677.778	-260
677.827	-1144
677.876	-650
677.925	-1161
677.975	-902
678.024	-464
678.073	-817
678.122	-598
678.171	-727
678.220	-760
678.269	-193
678.319	-939
678.368	-341
678.417	-1191
678.466	-247
678.515	-622
678.564	-1480
678.613	-542
678.662	-766
678.711	-542
678.760	-611
678.809	-465
678.857	-768
678.906	-506
678.955	-578
679.004	-689
679.053	-1695
679.102	-562
679.151	-1245
679.199	-306
679.248	-726
679.297	-807
679.346	-780
679.394	-662
679.443	-1018
679.492	-714
679.540	-763
679.589	-1179
679.638	-1298
679.686	-215
679.735	-1075
679.784	-926
679.832	-1160
679.881	-647
679.929	-619
679.978	-1053
680.026	-420
680.075	-1113
680.123	-1192
680.172	-1832
680.220	-1337
680.268	-705
680.317	-1477
680.365	-880
680.414	-1247
680.462	-1508
680.510	-166
680.559	-610
680.607	-1122
680.655	-323
680.703	-823
680.752	-892
680.800	-963
680.848	-762
680.896	-1202
680.945	-818
680.993	-1468
681.041	-1503
681.089	-926
681.137	-896
681.185	-454
681.233	-1144
681.258	-1012
681.281	-911
681.329	-1635
681.377	-1611
681.380	-1576
681.425	-1377
681.473	-320
681.502	-576
681.521	-800
681.569	-1123
681.617	-569
681.624	-479
681.665	-74
681.713	-229
681.745	-141
681.761	-130
681.809	98
681.857	-77
681.867	-37
681.904	2
681.952	294
681.989	-638
682.000	-946
682.048	-465
682.096	-254
682.111	-379
682.143	-726
682.191	-139
682.233	42
682.239	46
682.286	102
682.334	-617
682.354	-378
682.382	-113
682.430	-80
682.476	-74
682.477	-93
682.525	-367
682.572	495
682.598	258
682.620	30
682.667	-105
682.715	702
682.720	781
682.763	1273
682.810	565
682.841	621
682.857	608
682.905	610
682.952	441
682.963	340
683.000	-125
683.047	488
683.085	929
683.095	1044
683.142	1012
683.190	945
683.206	1175
683.237	1511
683.284	1280
683.328	1020
683.332	982
683.379	1194
683.426	835
683.449	988
683.473	1146
683.521	906
683.568	862
683.571	897
683.615	1106
683.662	1375
683.693	1239
683.709	1138
683.757	1238
683.804	2437
683.814	2205
683.851	1322
683.898	2390
683.936	1602
683.945	1393
683.992	1907
684.039	1974
684.057	1807
684.086	1471
684.133	2238
684.179	2475
684.180	2466
684.227	2360
684.274	2886
684.300	3105
684.321	3233
684.368	2026
684.415	2005
684.422	2026
684.462	2028
684.509	1918
684.543	1995
684.556	2032
684.603	2481
684.649	2229
684.665	2293
684.696	2423
684.743	2754
684.786	2655
684.790	2643
684.837	2381
684.883	2518
684.908	2995
684.930	3331
684.977	2855
685.023	2811
685.029	2833
685.070	2838
685.117	2919
685.150	2476
685.164	2364
685.210	3102
685.257	3421
685.272	3413
685.303	3334
685.350	3580
685.393	3489
685.396	3474
685.443	3893
685.490	3886
685.514	4345
685.536	4532
685.583	4331
685.629	3745
685.636	3650
685.675	3331
685.722	3970
685.757	3715
685.768	3616
685.815	3705
685.861	4380
685.878	4288
685.908	4076
685.954	4058
686.000	4089
686.000	4090
686.047	4538
686.093	4543
686.121	5119
686.139	5133
686.185	4351
686.232	4094
686.242	3977
686.278	3866
686.324	4016
686.363	4020
686.370	4012
686.416	3541
686.463	4029
686.484	4064
686.509	4162
686.555	4222
686.601	4250
686.606	4214
686.647	3856
686.693	4092
686.727	4025
686.739	3995
686.785	3679
686.831	3899
686.848	3974
686.877	4056
686.923	3842
686.969	4061
686.969	4063
687.015	4588
687.061	4706
687.090	4834
687.107	4744
687.153	4801
687.199	4468
687.211	4375
687.245	4297
687.291	4428
687.332	4930
687.336	4991
687.382	4866
687.428	5011
687.453	5248
687.474	5226
687.520	4887
687.565	5136
687.574	4899
687.611	4190
687.657	4483
687.695	4395
687.702	4413
687.748	4614
687.794	5020
687.816	4986
687.839	4823
687.885	5396
687.931	5079
687.937	5117
687.976	5467
688.022	5216
688.058	5368
688.067	5387
688.113	4930
688.158	5050
688.179	5003
688.204	5028
688.249	5005
688.295	5273
688.300	5325
688.340	5734
688.386	6185
688.421	5875
688.431	5771
688.477	5325
688.522	5607
688.542	5713
688.567	5999
688.613	6154
688.658	5966
688.663	6014
688.703	5901
688.749	5719
688.784	5795
688.794	5928
688.839	5611
688.884	5903
688.905	5777
688.930	5589
688.975	6094
689.020	5956
689.026	5937
689.065	5814
689.110	5494
689.146	5716
689.155	5767
689.201	5109
689.246	5289
689.267	5251
689.291	5326
689.336	5613
689.381	5463
689.388	5521
689.426	5926
689.471	6113
689.509	6178
689.516	6171
689.561	6050
689.606	6028
689.630	5809
689.651	5648
689.696	5798
689.741	6061
689.750	6072
689.785	6249
689.830	5987
689.871	6012
689.875	6001
689.920	6020
689.965	5864
689.992	5917
690.010	6126
690.054	6147
690.099	6474
690.112	6606
690.144	6680
690.189	6308
690.233	5923
690.233	5933
690.278	6391
690.323	6856
690.354	6551
690.367	6399
690.412	6439
690.457	6122
690.474	6176
690.501	6193
690.546	6214
690.590	6132
690.595	6068
690.635	5949
690.680	6504
690.716	6180
690.724	6084
690.769	6410
690.813	6735
690.836	6471
690.857	6420
690.902	6840
690.946	6820
690.957	6907
690.991	7262
691.035	7999
691.077	8412
691.080	8432
691.124	8377
691.168	8198
691.198	8225
691.213	8203
691.257	7943
691.301	7807
691.318	7673
691.346	7505
691.390	7104
691.434	7057
691.439	7033
691.478	7191
691.522	7126
691.559	7004
691.567	7057
691.611	7682
691.655	7806
691.680	7952
691.699	7787
691.743	7819
691.787	7536
691.800	7464
691.831	7730
691.875	7859
691.919	7775
691.921	7762
691.964	7724
692.008	8288
692.041	8260
692.052	8334
692.096	8212
692.139	8641
692.162	8838
692.183	8788
692.227	8583
692.271	8332
692.282	8124
692.315	7776
692.359	8021
692.402	8003
692.403	8021
692.447	7938
692.490	7754
692.523	7762
692.534	7883
692.578	7938
692.622	8118
692.643	8230
692.666	8207
692.709	8081
692.753	8203
692.763	8048
692.797	7718
692.840	8271
692.884	7947
692.884	7964
692.928	8098
692.971	7947
693.004	7796
693.015	7851
693.059	8117
693.102	8193
693.124	8460
693.146	8669
693.189	8397
693.233	8551
693.245	8582
693.276	8714
693.320	8976
693.363	8449
693.365	8430
693.407	8684
693.450	8766
693.485	8935
693.493	9010
693.537	9172
693.580	9265
693.605	9446
693.624	9560
693.667	9546
693.710	9322
693.725	9354
693.753	10292
693.797	11333
693.840	12722
693.845	12880
693.883	12469
693.926	11475
693.966	10671
693.970	10622
694.013	10202
694.056	9236
694.086	8777
694.099	8831
694.142	8594
694.185	8876
694.206	8718
694.229	8843
694.272	9669
694.315	10152
694.326	10217
694.358	10383
694.401	10778
694.444	11051
694.446	11041
694.487	11007
694.530	10759
694.566	10546
694.573	10426
694.616	9776
694.659	8850
694.686	8317
694.702	8335
694.745	8358
694.787	8087
694.806	8063
694.830	8286
694.873	8531
694.916	8802
694.926	8828
694.959	8937
695.002	9294
695.044	9337
695.046	9315
695.087	9354
695.130	9625
695.166	9675
695.172	9712
695.215	9718
695.258	9728
695.286	9826
695.301	9822
695.343	9482
695.386	9321
695.406	9115
695.428	9172
695.471	9468
695.514	9643
695.526	9668
695.556	9921
695.599	10326
695.641	10605
695.646	10613
695.684	10465
695.726	10256
695.766	10071
695.769	10103
695.811	10121
695.854	10139
695.886	10149
695.896	10166
695.938	10014
695.981	9996
696.005	9802
696.023	9876
696.065	10200
696.108	10550
696.125	10616
696.150	10652
696.192	10769
696.235	10842
696.245	10823
696.277	10840
696.319	10853
696.361	10838
696.365	10816
696.404	10825
696.446	10549
696.485	10309
696.488	10322
696.530	10236
696.572	10034
696.604	9917
696.614	10046
696.656	10290
696.698	10666
696.724	10989
696.740	11108
696.783	11042
696.825	11189
696.844	11156
696.867	11125
696.909	10979
696.951	10853
696.964	10803
696.992	10711
697.034	10444
697.076	10334
697.083	10248
697.118	10734
697.160	11462
697.202	12135
697.203	12119
697.244	11846
697.286	11415
697.323	11079
697.327	11117
697.369	11156
697.411	11191
697.442	11204
697.453	11390
697.494	11942
697.536	12561
697.562	12956
697.578	13012
697.620	12859
697.661	12816
697.682	12771
697.703	13112
697.744	13655
697.786	14281
697.801	14454
697.828	14505
697.869	14494
697.911	14467
697.921	14421
697.952	13904
697.994	13184
698.035	12476
698.040	12346
698.077	12474
698.118	12621
698.160	12743
698.160	12705
698.201	12754
698.243	12749
698.279	12721
698.284	12792
698.325	13093
698.367	13382
698.399	13566
698.408	13506
698.449	13041
698.491	12612
698.518	12249
698.532	12414
698.573	12864
698.614	13296
698.638	13491
698.656	13546
698.697	13578
698.738	13641
698.757	13623
698.779	13758
698.820	13945
698.862	14128
698.877	14153
698.903	14079
698.944	13895
698.985	13714
698.996	13625
699.026	13434
699.067	13116
699.116	12700
699.235	13372
699.354	12766
699.474	12561
699.593	14304
699.713	13333
699.832	13693
699.951	14647
700.070	13056
700.190	11858
700.309	13466
700.428	14040
700.547	12635
700.667	12234
700.786	14945
700.905	12412
701.024	13311
701.143	12492
701.262	11707
701.381	11413
701.500	11887
701.619	14165
701.738	11993
701.857	12651
701.976	11909
702.095	11558
702.214	13284
702.333	13902
702.452	13082
702.571	10910
702.690	11379
702.809	11768
702.928	11693
703.047	11201
703.165	11445
703.284	11085
703.403	10559
703.522	11166
703.640	12675
703.759	14662
703.878	17029
703.997	11635
704.115	10407
704.234	10641
704.353	9846
704.471	9807
704.590	9654
704.708	9588
704.827	9545
704.946	10000
705.064	11212
705.183	10115
705.301	11703
705.420	13843
705.538	11831
705.656	10265
705.775	10657
705.893	12567
706.012	12590
706.130	10738
706.249	12082
706.367	11702
706.485	12783
706.604	11293
706.722	12063
706.840	14341
706.958	12927
707.077	11027
707.195	10393
707.313	10737
707.431	9998
707.549	8833
707.668	9606
707.786	10847
707.904	10231
708.022	10148
708.140	10304
708.258	10303
708.376	10776
708.494	10391
708.612	11317
708.730	14464
708.848	13693
708.966	13591
709.084	13725
709.202	11958
709.320	11275
709.438	10939
709.556	11436
709.674	10765
709.791	11020
709.909	10051
710.027	11469
710.145	9913
710.263	10851
710.380	11074
710.498	10558
710.616	10851
710.733	10511
710.851	11135
710.969	11294
711.086	10208
711.204	11692
711.322	10755
711.439	10898
711.557	11691
711.674	10101
711.792	10594
711.909	9392
712.027	9387
712.144	10426
712.262	9999
712.379	10935
712.497	14174
712.614	13256
712.732	12298
712.849	11522
712.966	13400
713.084	16661
713.201	12717
713.318	13005
713.436	11794
713.553	12803
713.670	13594
713.787	15229
713.905	13908
714.022	13228
714.139	13628
714.256	18670
714.373	25575
714.490	47919
714.608	141839
714.725	613076
714.842	505548
714.959	37868
715.076	18721
715.193	14491
715.310	13058
715.427	11616
715.544	10753
715.661	11877
715.778	10926
715.895	12251
716.011	11986
716.128	11752
716.245	11218
716.362	15105
716.479	13786
716.596	10092
716.713	10774
716.829	9504
716.946	9656
717.063	8865
717.180	8682
717.296	8737
717.413	9998
717.530	9095
717.646	9096
717.763	8479
717.880	8251
717.996	8669
718.113	9063
718.229	9983
718.346	8445
718.462	9176
718.579	14194
718.695	25306
718.812	15118
718.928	14265
719.045	9741
719.161	8862
719.277	8868
719.394	9156
719.510	9719
719.626	10411
719.743	13275
719.859	20451
719.975	42134
720.092	185085
720.208	380384
720.324	34871
720.440	12427
720.557	12991
720.673	20255
720.789	23036
720.905	40179
721.021	11875
721.137	7916
721.253	8349
721.369	8465
721.486	9461
721.602	12348
721.718	7600
721.834	6416
721.950	7909
722.066	7428
722.181	6995
722.297	8396
722.413	7994
722.529	6962
722.645	8380
722.761	7604
722.877	7253
722.993	8199
723.108	9859
723.224	8271
723.340	7383
723.456	6909
723.571	7088
723.687	6107
723.803	6646
723.918	6001
724.034	6995
724.150	6326
724.265	7803
724.381	14988
724.497	17705
724.612	5839
724.728	5763
724.843	6250
724.959	7360
725.074	15108
725.190	14628
725.305	6283
725.421	6111
725.536	4852
725.651	6593
725.767	5375
725.882	6646
725.997	5429
726.113	6389
726.228	5171
726.343	5969
726.459	5632
726.574	6112
726.689	5263
726.804	5834
726.920	4926
727.035	5845
727.150	5525
727.265	5753
727.380	5468
727.495	5329
727.610	4878
727.725	4884
727.841	4844
727.956	6099
728.071	7327
728.186	5890
728.301	4915
728.416	6664
728.531	5589
728.645	5402
728.760	6376
728.875	6496
728.990	5418
729.105	5953
729.220	6829
729.335	6478
729.449	4941
729.564	4360
729.679	4656
729.794	5429
729.908	5046
730.023	5668
730.138	4280
730.253	4766
730.367	3526
730.482	5549
730.596	4806
730.711	5658
730.826	5653
730.940	5063
731.055	5658
731.169	5251
731.284	5011
731.398	5375
731.513	5869
731.627	6975
731.742	6940
731.856	8610
731.970	8637
732.085	10375
732.199	15047
732.313	28284
732.428	78185
732.542	236786
732.656	113340
732.771	20082
732.885	11075
732.999	9005
733.113	9047
733.227	8600
733.342	7131
733.456	7243
733.570	6053
733.684	6428
733.798	6913
733.912	6727
734.026	6177
734.140	6212
734.254	5672
734.368	10399
734.482	11397
734.596	5957
734.710	5512
734.824	6369
734.938	5141
735.052	6525
735.166	7041
735.280	6315
735.393	4516
735.507	5161
735.621	7032
735.735	12097
735.849	6479
735.962	5646
736.076	6282
736.190	5791
736.303	7401
736.417	9162
736.531	5278
736.644	5265
736.758	4872
736.872	5114
736.985	4906
737.099	5031
737.212	4576
737.326	5974
737.439	5431
737.553	5291
737.666	5161
737.780	5074
737.893	4490
738.007	5108
738.120	4870
738.233	5561
738.347	4855
738.460	4394
738.573	4948
738.687	4906
738.800	5624
738.913	8446
739.026	4386
739.140	4630
739.253	3791
739.366	4472
739.479	3888
739.592	4015
739.705	3935
739.818	5418
739.932	4289
740.045	3967
740.158	4450
740.271	4363
740.384	4164
740.497	3733
740.610	4491
740.723	5843
740.836	5150
740.949	6078
741.062	7928
741.174	5547
741.287	4381
741.400	3904
741.513	5125
741.626	5440
741.739	5190
741.851	5254
741.964	4581
742.077	3616
742.189	4228
742.302	5596
742.415	4101
742.527	3698
742.640	4161
742.753	4018
742.865	3528
742.978	3589
743.090	3967
743.203	3453
743.316	3334
743.428	3697
743.541	3380
743.653	2617
743.766	3212
743.878	4154
743.990	4165
744.103	4535
744.215	4005
744.327	3929
744.440	5620
744.552	9486
744.664	4193
744.777	4227
744.889	2636
745.001	2718
745.113	3212
745.226	2957
745.338	3645
745.450	2602
745.562	3294
745.674	4121
745.786	3624
745.898	3620
746.010	2712
746.122	3175
746.234	3092
746.347	3378
746.459	3567
746.570	2809
746.682	3582
746.794	3694
746.906	2850
747.018	2937
747.130	3961
747.242	3221
747.354	3019
747.466	3623
747.577	2278
747.689	3507
747.801	2930
747.913	3264
748.024	2892
748.136	2442
748.248	2101
748.359	3266
748.471	2838
748.583	2249
748.694	2427
748.806	3106
748.918	3643
749.029	2933
749.141	3663
749.252	4251
749.364	4156
749.475	11515
749.587	5776
749.698	2919
749.809	2703
749.921	2924
750.032	2670
750.144	2106
750.255	2406
750.366	3044
750.478	3260
750.589	3456
750.700	3034
750.811	4472
750.923	5133
751.034	12874
751.145	11194
751.256	3020
751.367	1841
751.479	2194
751.590	2124
751.701	2392
751.812	1914
751.923	2244
752.034	2500
752.145	3005
752.256	2165
752.367	2704
752.478	2884
752.589	2871
752.700	1977
752.811	3130
752.922	2311
753.032	4000
753.143	3255
753.254	2152
753.365	2892
753.476	2230
753.586	2169
753.697	2541
753.808	2384
753.919	1676
754.029	1735
754.140	2203
754.251	2803
754.361	3102
754.472	3249
754.582	1985
754.693	2104
754.804	3170
754.914	1650
755.025	1958
755.135	2162
755.246	2362
755.356	1737
755.466	2505
755.577	1120
755.687	3069
755.798	2825
755.908	1861
756.018	2646
756.129	1921
756.239	2857
756.349	2769
756.460	3233
756.570	3569
756.680	2422
756.790	2019
756.900	3857
757.011	2402
757.121	2229
757.231	1863
757.341	3182
757.451	1800
757.561	1681
757.671	2440
757.781	2340
757.891	1985
758.001	3147
758.111	2890
758.221	2835
758.331	3859
758.441	3916
758.551	5622
758.661	5123
758.771	4787
758.880	3163
758.990	2850
759.100	2372
759.210	2042
759.320	2283
759.429	2870
759.539	2909
759.649	3238
759.758	3789
759.868	4353
759.978	3931
760.087	4812
760.197	4827
760.307	3926
760.416	4122
760.526	3702
760.635	4303
760.745	4488
760.854	4429
760.964	5139
761.073	5335
761.182	4885
761.292	3752
761.401	4071
761.511	2520
761.620	2509
761.729	3038
761.839	3512
761.948	2326
762.057	3463
762.166	2202
762.276	1732
762.385	3666
762.494	2915
762.603	1917
762.712	1667
762.822	1571
762.931	2035
763.040	1508
763.149	1614
763.258	1902
763.367	2862
763.476	2244
763.585	2578
763.694	1508
763.803	2434
763.912	2472
764.021	2407
764.130	2158
764.238	2340
764.347	2868
764.456	1933
764.565	2183
764.674	2846
764.783	2140
764.891	2217
765.000	2442
765.109	3047
765.217	2801
765.326	4388
765.435	4822
765.543	4159
765.652	4062
765.761	4064
765.869	6167
765.978	8918
766.086	16625
766.195	30860
766.303	87573
766.412	295073
766.520	257261
766.629	43128
766.737	15540
766.846	8979
766.954	6448
767.062	5320
767.171	4132
767.279	4004
767.387	2763
767.496	3687
767.604	2453
767.712	2920
767.820	2218
767.928	3454
768.037	1501
768.145	3224
768.253	2905
768.361	2712
768.469	2422
768.577	2545
768.685	2932
768.793	3250
768.901	2144
769.009	3717
769.117	2532
769.225	2918
769.333	4469
769.441	7566
769.549	12878
769.657	28576
769.765	105500
769.873	267903
769.981	66854
770.088	12151
770.196	6348
770.304	5909
770.412	3848
770.519	4036
770.627	3678
770.735	2743
770.842	2525
770.950	2530
771.058	2663
771.165	3220
771.273	2486
771.380	3227
771.488	2847
771.595	3380
771.703	3185
771.810	3514
771.918	2669
772.025	2965
772.133	3657
772.240	2295
772.348	4091
772.455	4025
772.562	3610
772.670	3403
772.777	4264
772.884	4042
772.991	3274
773.099	4025
773.206	2350
773.313	3810
773.420	3005
773.528	3441
773.635	3315
773.742	3786
773.849	3200
773.956	2968
774.063	3221
774.170	2939
774.277	3796
774.384	2034
774.491	2932
774.598	3670
774.705	3005
774.812	4948
774.919	3688
775.026	3408
775.133	3474
775.239	2910
775.346	3232
775.453	3719
775.560	1841
775.667	2964
775.773	2389
775.880	3513
775.987	2644
776.093	3315
776.200	2224
776.307	2439
776.413	3136
776.520	3229
776.627	2383
776.733	2427
776.840	1826
776.946	3786
777.053	2524
777.159	4140
777.266	1457
777.372	3881
777.478	2795
777.585	3070
777.691	1821
777.798	3413
777.904	3250
778.010	5510
778.117	3729
778.223	2730
778.329	3215
778.435	2302
778.542	2554
778.648	2693
778.754	1792
778.860	2615
778.966	1555
779.072	2659
779.178	2558
779.284	2455
779.391	2240
779.497	1360
779.603	3642
779.708	931
779.815	2768
779.920	2797
780.026	3649
780.132	2138
780.238	1541
780.344	2313
780.450	2881
780.556	1682
780.661	2156
780.767	2339
780.873	1151
780.979	2422
781.085	2047
781.190	2253
781.296	1575
781.402	2059
781.507	1368
781.613	1672
781.719	2174
781.824	2722
781.930	2738
782.035	2633
782.141	2701
782.246	1187
782.352	1263
782.457	2088
782.563	2215
782.668	1526
782.773	2204
782.879	1757
782.984	2612
783.090	3384
783.195	5952
783.300	3452
783.405	2069
783.511	1896
783.616	1446
783.721	2000
783.826	1590
783.932	2497
784.037	2102
784.142	1664
784.247	1455
784.352	2167
784.457	1242
784.562	1865
784.667	1941
784.772	1711
784.877	749
784.982	2121
785.087	1087
785.192	1432
785.297	527
785.402	1678
785.507	1678
785.611	2060
785.716	1582
785.821	1692
785.926	1653
786.031	1731
786.135	1467
786.240	2057
786.345	1237
786.450	1700
786.554	1787
786.659	1311
786.763	983
786.868	2548
786.973	2599
787.077	1151
787.182	809
787.286	1788
787.391	1615
787.495	895
787.600	917
787.704	1801
787.809	1483
787.913	1333
788.017	1233
788.122	1600
788.226	1446
788.330	473
788.435	598
788.539	1494
788.643	819
788.747	579
788.852	1229
788.956	1426
789.060	1062
789.164	857
789.268	331
789.372	1272
789.476	722
789.580	1595
789.684	811
789.788	2026
789.892	792
789.996	1406
790.100	779
790.204	1760
790.308	1813
790.412	977
790.516	1758
790.620	1154
790.724	1513
790.828	1188
790.931	899
791.035	3009
791.139	914
791.242	-17
791.346	2270
791.450	2070
791.554	1194
791.657	120
791.761	2248
791.864	1978
791.968	1276
792.072	1936
792.175	1112
792.279	551
792.382	892
792.486	1758
792.589	740
792.693	2062
792.796	889
792.899	2421
793.003	1143
793.106	-298
793.209	1968
793.313	2228
793.416	337
793.519	2594
793.623	3484
793.726	6046
793.829	1516
793.932	1626
794.035	539
794.138	2198
794.242	1791
794.345	1814
794.448	2671
794.551	3901
794.654	4267
794.757	1654
794.860	2192
794.963	1666
795.066	476
795.169	2299
795.272	174
795.375	1281
795.477	354
795.580	1537
795.683	-518
795.786	940
795.889	157
795.991	2079
796.094	1937
796.197	450
796.300	2198
796.402	1138
796.505	112
796.608	985
796.710	2468
796.813	1066
796.915	730
797.018	1733
797.120	1758
797.223	-1097
797.326	1651
797.428	1007
797.530	527
797.633	553
797.735	2534
797.838	3143
797.940	1872
798.042	402
798.145	913
798.247	1243
798.349	-244
798.452	1581
798.554	506
798.656	37
798.758	1793
798.860	983
798.962	779
799.065	1232
799.167	-794
799.269	1805
799.371	2289
799.473	2729
799.575	773
799.677	1751
799.779	3999
799.881	2908
799.983	2268
800.085	332
800.187	1500
800.289	424
800.390	9
800.492	997
800.594	1475
800.696	510
800.798	926
800.899	-83
801.001	-223
801.103	897
801.205	1599
801.306	529
801.408	-186
801.509	1262
801.611	512
801.713	787
801.814	-525
801.916	646
802.017	543
802.119	-379
802.220	116
802.322	-209
802.423	2523
802.525	-432
802.626	746
802.727	1529
802.829	1568
802.930	-1199
803.031	1500
803.133	98
803.234	-42
803.335	149
803.436	-353
803.538	930
803.639	-924
803.740	855
803.841	554
803.942	1563
804.043	510
804.144	198
804.245	-195
804.346	-346
804.447	441
804.548	2514
804.649	3053
804.750	630
804.851	410
804.952	-120
805.053	1043
805.154	-1115
805.255	940
805.355	332
805.456	8
805.557	73
805.658	-864
805.758	712
805.859	252
805.960	796
806.061	-589
806.161	955
806.262	-30
806.362	648
806.463	-387
806.564	900
806.664	274
806.765	351
806.865	1456
806.966	-173
807.066	-37
807.166	739
807.267	808
807.367	-101
807.468	549
807.568	-351
807.668	952
807.769	893
807.869	135
807.969	380
808.069	668
808.170	392
808.270	-406
808.370	1389
808.470	1947
808.570	847
808.670	-131
808.770	316
808.870	-475
808.970	562
809.070	149
809.170	-347
809.271	1179
809.370	-143
809.470	48
809.570	-590
809.670	-443
809.770	525
809.870	36
809.970	836
810.070	379
810.169	710
810.269	-1092
810.369	1431
810.469	-525
810.568	-175
810.668	-148
810.768	-511
810.867	679
810.967	175
811.066	979
811.166	37
811.265	760
811.365	-510
811.464	-268
811.564	648
811.663	684
811.763	-1299
811.862	997
811.962	1015
812.061	-739
812.160	-341
812.260	-5
812.359	130
812.458	205
812.557	1366
812.657	260
812.756	803
812.855	1142
812.954	182
813.053	153
813.153	293
813.252	-463
813.351	782
813.450	262
813.549	-449
813.648	494
813.747	-658
813.846	147
813.945	-73
814.044	202
814.143	457
814.242	429
814.341	300
814.439	705
814.538	919
814.637	165
814.736	95
814.835	307
814.933	-182
815.032	555
815.131	834
815.229	767
815.328	2819
815.427	354
815.525	1923
815.624	1658
815.722	910
815.821	1447
815.919	1400
816.018	519
816.116	2451
816.215	1143
816.313	2158
816.412	1925
816.510	1934
816.609	3593
816.707	2292
816.805	2098
816.904	1910
817.002	1899
817.100	2771
817.198	2691
817.296	2335
817.395	2434
817.493	3326
817.591	1609
817.689	4122
817.787	3948
817.885	6174
817.983	9847
818.081	20692
818.179	51222
818.277	138550
818.375	108600
818.473	26137
818.571	10655
818.669	7849
818.767	6726
818.865	5997
818.963	7327
819.061	11007
819.158	19716
819.256	45019
819.354	105690
819.452	252926
819.549	144616
819.647	38003
819.745	14279
819.842	9812
819.940	7565
820.038	5131
820.135	4258
820.233	5402
820.330	2971
820.428	2683
820.525	3375
820.623	2415
820.720	1570
820.818	1569
820.915	2362
821.012	1652
821.110	45
821.207	1871
821.304	1068
821.402	1482
821.499	1274
821.596	1382
821.693	1390
821.791	2505
821.888	2750
821.985	7048
822.082	4359
822.179	2662
822.276	2163
822.373	1431
822.470	541
822.567	1433
822.664	920
822.761	1668
822.858	342
822.955	1818
823.052	708
823.149	800
823.246	1537
823.343	351
823.440	1567
823.536	-27
823.633	646
823.730	1432
823.827	849
823.923	699
824.020	1083
824.117	812
824.213	267
824.310	1068
824.407	-246
824.503	1056
824.600	1310
824.696	924
824.793	1348
824.889	377
824.986	428
825.082	624
825.179	1049
825.275	1314
825.371	680
825.468	565
825.564	-356
825.660	914
825.757	1780
825.853	1793
825.949	-515
826.045	801
826.142	504
826.238	1137
826.334	797
826.430	-339
826.526	729
826.622	521
826.718	313
826.814	910
826.910	635
827.006	45
827.102	795
827.198	1380
827.294	341
827.390	964
827.486	1491
827.582	-522
827.678	-417
827.774	656
827.869	124
827.965	1437
828.061	-504
828.157	599
828.252	352
828.348	-180
828.444	773
828.539	-5
828.635	73
828.731	1256
828.826	-1105
828.922	703
829.017	725
829.113	1100
829.208	986
829.304	293
829.399	971
829.495	447
829.590	1566
829.685	199
829.781	638
829.876	1027
829.971	-229
830.066	502
830.162	363
830.257	285
830.352	436
830.447	1436
830.543	287
830.638	-739
830.733	1350
830.828	185
830.923	1509
831.018	966
831.113	470
831.208	-743
831.303	-390
831.398	102
831.493	284
831.588	185
831.683	-592
831.778	462
831.873	490
831.967	1503
832.062	-285
832.157	-426
832.252	619
832.346	464
832.441	1459
832.536	2039
832.631	4847
832.725	3589
832.820	-517
832.914	384
833.009	-305
833.104	1312
833.198	1492
833.293	296
833.387	313
833.482	1538
833.576	-52
833.670	865
833.765	375
833.859	966
833.954	1158
834.048	-307
834.142	-100
834.237	-184
834.331	-683
834.425	453
834.519	-516
834.613	636
834.708	34
834.802	288
834.896	-763
834.990	431
835.084	521
835.178	-189
835.272	-1277
835.366	217
835.460	168
835.554	322
835.648	359
835.742	-542
835.836	-618
835.930	-764
836.024	594
836.117	372
836.211	-479
836.305	916
836.399	1527
836.493	-1195
836.586	779
836.680	-499
836.774	-666
836.867	690
836.961	-940
837.055	-141
837.148	-194
837.242	630
837.335	-811
837.429	414
837.522	-790
837.616	-153
837.709	1337
837.803	106
837.896	209
837.989	-113
838.083	445
838.176	2274
838.269	1014
838.363	-134
838.456	160
838.549	1724
838.642	1928
838.735	6424
838.829	2078
838.922	-441
839.015	1002
839.108	-489
839.201	-281
839.294	492
839.387	129
839.480	-1378
839.573	-45
839.666	840
839.759	-244
839.852	-948
839.945	-323
840.038	-1156
840.131	-314
840.223	-669
840.316	374
840.409	-503
840.502	-1137
840.594	970
840.687	-1129
840.780	98
840.873	-953
840.965	267
841.058	887
841.150	2659
841.243	-15
841.336	-508
841.428	547
841.521	-211
841.613	-290
841.706	35
841.798	45
841.890	-233
841.983	-446
842.075	1066
842.167	-73
842.260	42
842.352	839
842.444	1013
842.537	2873
842.629	3538
842.721	-263
842.813	365
842.905	-198
842.997	396
843.090	-1182
843.182	738
843.274	1955
843.366	7073
843.458	11953
843.550	6910
843.642	361
843.734	508
843.826	179
843.918	1283
844.009	1244
844.101	-257
844.193	-121
844.285	310
844.377	-2
844.469	380
844.560	-406
844.652	101
844.744	-419
844.835	-646
844.927	385
845.019	279
845.110	246
845.202	426
845.293	-286
845.385	455
845.476	-866
845.568	575
845.659	-1323
845.751	403
845.842	-1016
845.934	-692
846.025	-697
846.116	-20
846.208	-897
846.299	-538
846.390	-286
846.482	287
846.573	45
846.664	989
846.755	1532
846.846	1716
846.937	-703
847.029	-76
847.120	-137
847.211	-315
847.302	1180
847.393	-675
847.484	-55
847.575	-801
847.666	-521
847.757	-553
847.847	-20
847.938	1073
848.029	-627
848.120	-982
848.211	-170
848.302	-1601
848.392	-789
848.483	522
848.574	-562
848.664	-125
848.755	-144
848.846	141
848.936	-225
849.027	106
849.118	260
849.208	442
849.299	1273
849.389	5174
849.480	10351
849.570	23121
849.661	43983
849.751	73664
849.841	24286
849.932	3226
850.022	65
850.112	604
850.203	210
850.293	-8
850.383	-362
850.474	-522
850.564	-356
850.654	60
850.744	-295
850.834	-793
850.924	-305
851.014	60
851.104	-478
851.194	339
851.284	378
851.374	1114
851.464	-326
851.554	-6
851.644	314
851.734	1051
851.824	596
851.914	-449
852.004	152
852.094	-506
852.183	-361
852.273	-107
852.363	-31
852.452	622
852.542	-567
852.632	92
852.721	-228
852.811	301
852.901	646
852.990	-591
853.080	824
853.169	230
853.259	773
853.348	1338
853.438	2822
853.527	3604
853.617	6315
853.706	11995
853.795	23685
853.885	54381
853.974	103290
854.063	188324
854.152	266747
854.242	102595
854.331	21848
854.420	9257
854.509	6119
854.598	5139
854.687	3081
854.777	2678
854.866	1491
854.955	787
855.044	670
855.133	1298
855.222	379
855.311	-188
855.400	-617
855.488	73
855.577	-184
855.666	253
855.755	998
855.844	66
855.933	-212
856.021	653
856.110	233
856.199	-1153
856.288	-387
856.376	-400
856.465	-905
856.554	275
856.642	-957
856.731	-465
856.819	-449
856.908	-46
856.996	-415
857.085	-923
857.173	-463
857.262	-558
857.350	-320
857.438	-796
857.527	-175
857.615	-870
857.703	-156
857.792	-484
857.880	-614
857.968	-1127
858.056	-86
858.145	57
858.233	-907
858.321	-787
858.409	-305
858.497	-586
858.585	-568
858.673	596
858.761	-719
858.849	-1337
858.937	-1025
859.025	-832
859.113	-438
859.201	-1245
859.289	-20
859.377	-893
859.465	-542
859.552	-234
859.640	-539
859.728	7
859.816	-359
859.903	-463
859.991	-993
860.079	-499
860.166	-803
860.254	89
860.342	-215
860.429	-347
860.517	-540
860.604	309
860.692	-266
860.779	-633
860.867	-1234
860.954	89
861.042	-438
861.129	-224
861.216	-401
861.304	-35
861.391	-946
861.478	-330
861.565	-249
861.653	-227
861.740	-816
861.827	-882
861.914	-85
862.001	-780
862.089	-267
862.176	-572
862.263	-815
862.350	-636
862.437	-714
862.524	-928
862.611	-1040
862.698	-19
862.785	104
862.871	311
862.958	-612
863.045	-1010
863.132	-795
863.219	-679
863.306	-1023
863.392	-159
863.479	-181
863.566	-1089
863.652	-579
863.739	-1323
863.826	109
863.912	-242
863.999	-222
864.086	147
864.172	-776
864.259	-199
864.345	-195
864.432	357
864.518	-61
864.604	335
864.691	-411
864.777	223
864.863	502
864.950	1350
865.036	639
865.122	2739
865.209	3094
865.295	2040
865.381	2199
865.467	2818
865.553	4527
865.639	6832
865.726	13333
865.812	27519
865.898	54684
865.984	83560
866.070	153701
866.156	152339
866.242	41215
866.328	10481
866.414	4129
866.499	4378
866.585	3251
866.671	2138
866.757	2668
866.843	2609
866.928	1809
867.014	1801
867.100	1811
867.186	1683
867.271	1515
867.357	2852
867.442	1574
867.528	1453
867.614	362
867.699	1048
867.785	475
867.870	909
867.956	441
868.041	1475
868.127	1000
868.212	1070
868.297	369
868.383	1127
868.468	1759
868.553	3589
868.639	3545
868.724	7210
868.809	5998
868.894	1975
868.979	1057
869.065	2112
869.150	315
869.235	1679
869.320	402
869.405	514
869.490	297
869.575	842
869.660	249
869.745	1147
869.830	318
869.915	-178
870.000	154
870.085	1241
870.169	1461
870.254	1175
870.339	-110
870.424	-60
870.509	263
870.593	617
870.678	1018
870.763	952
870.847	-118
870.932	-296
871.016	513
871.101	32
871.186	-415
871.270	633
871.355	-223
871.439	244
871.523	4
871.608	-692
871.692	-213
871.777	775
871.861	442
871.945	-23
872.030	1054
872.114	249
872.198	150
872.282	-113
872.367	325
872.451	465
872.535	-555
872.619	251
872.703	-198
872.787	582
872.871	-64
872.955	156
873.039	-734
873.123	312
873.207	562
873.291	-263
873.375	-338
873.459	163
873.543	-574
873.627	669
873.711	39
873.794	-204
873.878	146
873.962	371
874.045	272
874.129	-581
874.137	-498
874.213	338
874.245	174
874.296	-107
874.352	73
874.380	166
874.460	-439
874.464	-462
874.547	-198
874.568	53
874.631	781
874.676	599
874.714	437
874.784	428
874.798	432
874.881	1037
874.892	949
874.965	360
874.999	97
875.048	-280
875.107	103
875.131	238
875.215	-378
875.215	-378
875.298	-579
875.323	-571
875.381	-512
875.430	172
875.465	661
875.538	-70
875.548	-184
875.631	-334
875.646	-388
875.714	-586
875.753	-479
875.798	-337
875.861	-437
875.881	-484
875.964	-258
875.968	-240
876.047	28
876.076	49
876.130	216
876.183	409
876.213	457
876.291	477
876.296	475
876.379	-53
876.398	-155
876.462	-415
876.506	-652
876.545	-828
876.613	-206
876.628	-82
876.711	-714
876.721	-571
876.794	526
876.828	170
876.877	-313
876.935	10
876.960	100
877.043	-585
877.043	-582
877.125	286
877.150	213
877.208	112
877.258	455
877.291	619
877.365	-387
877.374	-482
877.456	295
877.472	197
877.539	-267
877.579	22
877.622	261
877.687	524
877.704	583
877.787	166
877.794	166
877.869	343
877.901	94
877.952	-409
878.008	-519
878.034	-541
878.115	-515
878.117	-513
878.199	-223
878.222	-211
878.282	-90
878.329	81
878.364	76
878.437	-294
878.447	-300
878.529	-477
878.544	-432
878.611	-495
878.651	-476
878.694	-270
878.758	30
878.776	38
878.858	-572
878.865	-519
878.941	210
878.972	198
879.023	195
879.078	14
879.105	39
879.185	648
879.187	652
879.269	160
879.292	40
879.351	-207
879.399	-258
879.433	-275
879.506	-262
879.516	-264
879.598	-327
879.613	-384
879.680	-426
879.720	39
879.762	411
879.827	178
879.844	112
879.926	-176
879.933	-151
880.007	190
880.040	22
880.089	-156
880.147	1001
880.171	1465
880.253	2691
880.254	2702
880.335	4138
880.360	4625
880.417	5827
880.467	8898
880.499	10899
880.574	12132
880.580	12109
880.662	3401
880.680	2683
880.744	526
880.787	142
880.825	-81
880.893	-490
880.907	-514
880.989	-184
881.000	-103
881.070	354
881.106	341
881.152	108
881.213	-45
881.233	-66
881.315	24
881.319	11
881.396	163
881.426	126
881.478	-211
881.532	-415
881.559	-366
881.639	334
881.641	340
881.722	-104
881.745	-135
881.803	157
881.852	272
881.885	141
881.958	-311
881.966	-346
882.047	-154
882.064	-189
882.129	-175
882.171	36
882.210	406
882.277	1087
882.291	1135
882.372	384
882.383	331
882.454	-13
882.489	-44
882.535	213
882.596	256
882.616	65
882.697	-498
882.702	-519
882.778	101
882.808	277
882.859	-16
882.914	-496
882.940	-586
883.020	-190
883.021	-184
883.102	-114
883.127	-130
883.183	-414
883.233	-386
883.264	-383
883.339	-614
883.345	-592
883.426	-269
883.445	-182
883.507	-126
883.551	-156
883.587	-16
883.657	359
883.668	427
883.749	783
883.763	825
883.830	135
883.869	-144
883.910	-180
883.975	-467
883.991	-396
884.072	66
884.081	143
884.152	219
884.187	102
884.233	48
884.292	-51
884.314	20
884.394	569
884.398	578
884.475	83
884.504	-64
884.555	-125
884.610	-349
884.636	-458
884.716	-244
884.716	-239
884.797	209
884.821	192
884.877	179
884.927	326
884.958	214
885.033	-120
885.038	-141
885.118	-431
885.139	-546
885.199	65
885.244	688
885.279	526
885.350	83
885.359	133
885.439	550
885.456	513
885.520	149
885.561	308
885.600	321
885.667	-64
885.680	-115
885.760	-89
885.773	-117
885.840	260
885.878	420
885.920	409
885.984	425
886.000	327
886.080	-160
886.089	-214
886.160	-296
886.195	-262
886.240	-26
886.300	183
886.320	363
886.400	965
886.406	998
886.480	208
886.511	-13
886.560	294
886.616	436
886.640	244
886.720	-264
886.722	-282
886.800	83
886.827	347
886.879	672
886.932	762
886.959	785
887.038	901
887.039	903
887.119	593
887.143	544
887.198	633
887.248	608
887.278	647
887.354	748
887.358	724
887.437	55
887.459	-51
887.517	501
887.564	814
887.596	766
887.669	596
887.676	559
887.755	112
887.774	21
887.835	446
887.880	727
887.914	628
887.985	392
887.994	341
888.073	-137
888.090	-245
888.153	732
888.195	1441
888.232	969
888.300	21
888.311	28
888.391	38
888.405	50
888.470	361
888.510	507
888.549	446
888.615	432
888.628	406
888.708	103
888.720	70
888.787	-107
888.825	-274
888.866	-84
888.930	304
888.945	299
889.024	220
889.035	206
889.103	574
889.140	757
889.182	700
889.245	659
889.261	464
889.340	-539
889.349	-648
889.419	4
889.454	316
889.498	578
889.559	960
889.577	817
889.656	174
889.664	113
889.735	531
889.768	729
889.814	515
889.873	232
889.978	-71
890.083	49
890.187	292
890.292	759
890.397	1215
890.501	750
890.606	-314
890.710	740
890.815	231
890.919	-286
891.024	-473
891.128	219
891.233	1266
891.337	16
891.442	707
891.546	676
891.650	232
891.755	811
891.859	738
891.963	407
892.068	208
892.172	247
892.276	90
892.380	-73
892.484	586
892.589	340
892.693	204
892.797	-156
892.901	259
893.005	479
893.109	361
893.213	492
893.317	383
893.421	408
893.525	382
893.629	335
893.733	446
893.837	144
893.941	230
894.045	756
894.148	302
894.252	701
894.356	223
894.460	625
894.564	359
894.667	1097
894.771	-265
894.875	30
894.978	525
895.082	26
895.186	191
895.289	395
895.393	807
895.496	273
895.600	1002
895.703	81
895.807	528
895.910	-150
896.014	354
896.117	62
896.221	525
896.324	152
896.427	-578
896.531	-89
896.634	-65
896.737	497
896.840	194
896.944	-8
897.047	140
897.150	-61
897.253	352
897.356	389
897.460	509
897.563	112
897.666	861
897.769	78
897.872	341
897.975	610
898.078	955
898.181	-304
898.284	93
898.387	-28
898.490	-217
898.593	388
898.695	582
898.798	-316
898.901	105
899.004	973
899.107	583
899.209	237
899.312	895
899.415	-167
899.518	278
899.620	543
899.723	-464
899.826	674
899.928	454
900.031	-277
900.133	-313
900.236	-275
900.338	-251
900.441	-429
900.543	201
900.646	301
900.748	-17
900.851	31
900.953	212
901.055	97
901.158	995
901.260	169
901.362	897
901.465	-90
901.567	-28
901.669	-250
901.771	357
901.873	218
901.976	547
902.078	-406
902.180	503
902.282	-727
902.384	441
902.486	447
902.588	214
902.690	-258
902.792	724
902.894	-260
902.996	-668
903.098	-78
903.200	263
903.302	-182
903.404	-384
903.505	-733
903.607	666
903.709	531
903.811	-235
903.913	367
904.014	-149
904.116	46
904.218	113
904.319	539
904.421	397
904.523	-16
904.624	-317
904.726	-56
904.827	37
904.929	279
905.030	77
905.132	596
905.233	606
905.335	-34
905.436	-643
905.537	644
905.639	174
905.740	450
905.841	-42
905.943	49
906.044	-156
906.145	243
906.247	-212
906.348	407
906.449	380
906.550	-202
906.651	-1187
906.752	-431
906.854	174
906.955	-311
907.056	-179
907.157	104
907.258	561
907.359	-41
907.460	1039
907.561	-91
907.662	-89
907.762	-248
907.863	-40
907.964	145
908.065	268
908.166	461
908.267	-290
908.367	-509
908.468	-291
908.569	-47
908.670	157
908.770	1396
908.871	102
908.971	419
909.072	32
909.173	-528
909.273	-192
909.374	158
909.474	146
909.575	-98
909.675	-791
909.776	470
909.876	74
909.977	-217
910.077	451
910.177	-300
910.278	-234
910.378	379
910.478	-303
910.579	-93
910.679	70
910.779	183
910.879	-138
910.980	179
911.080	423
911.180	-388
911.280	468
911.380	-576
911.480	445
911.580	-412
911.680	802
911.780	-398
911.880	323
911.980	-510
912.080	252
912.180	-232
912.280	-539
912.380	-106
912.480	25
912.580	-70
912.679	317
912.779	239
912.879	65
912.979	288
913.078	-629
913.178	-405
913.278	182
913.377	302
913.477	-211
913.577	-33
913.676	359
913.776	-1116
913.875	308
913.975	-221
914.074	-445
914.174	8
914.273	-382
914.373	-243
914.472	-431
914.572	-764
914.671	-549
914.770	-297
914.870	-325
914.969	338
915.068	115
915.167	-847
915.267	98
915.366	184
915.465	-404
915.564	-227
915.663	-226
915.763	505
915.862	-519
915.961	-89
916.060	-291
916.159	-632
916.258	-919
916.357	-586
916.456	-69
916.555	-1186
916.654	-895
916.752	-684
916.851	-404
916.950	-190
917.049	-71
917.148	-469
917.247	-678
917.345	32
917.444	-234
917.543	-873
917.642	-709
917.740	627
917.839	-282
917.937	-261
918.036	224
918.135	-487
918.233	10
918.332	-137
918.430	-1310
918.529	-597
918.627	-685
918.726	211
918.824	41
918.923	-161
919.021	-636
919.119	-541
919.218	-723
919.316	-605
919.414	-1336
919.512	-487
919.611	-619
919.709	-1293
919.807	-363
919.905	-905
920.003	-471
920.102	-112
920.200	-561
920.298	-391
920.396	11
920.494	-679
920.592	-745
920.690	-687
920.788	192
920.886	-441
920.984	-268
921.082	-580
921.180	593
921.277	34
921.375	146
921.473	-1193
921.571	-1545
921.669	-10
921.766	-356
921.864	-465
921.962	-620
922.060	-336
922.157	76
922.255	-165
922.352	-364
922.450	358
922.548	-625
922.645	-524
922.743	-230
922.840	146
922.938	1059
923.035	34
923.133	-89
923.230	706
923.327	680
923.425	1046
923.522	684
923.619	496
923.717	19
923.814	650
923.911	-233
924.008	416
924.106	626
924.203	-74
924.300	-127
924.397	-91
924.494	1036
924.591	604
924.688	-460
924.786	626
924.883	708
924.979	-899
925.077	-93
925.173	22
925.270	-531
925.367	-713
925.464	1366
925.561	209
925.658	-38
925.755	94
925.852	799
925.948	-64
926.045	449
926.142	511
926.239	542
926.335	135
926.432	549
926.529	189
926.625	752
926.722	-243
926.818	195
926.915	650
927.011	14
927.108	999
927.204	-167
927.301	222
927.397	682
927.494	64
927.590	662
927.687	-978
927.783	933
927.879	-210
927.976	-366
928.072	-704
928.168	1229
928.264	94
928.361	-526
928.457	640
928.553	318
928.649	-63
928.745	-671
928.841	-60
928.937	322
929.033	296
929.129	-279
929.225	-310
929.321	333
929.417	-520
929.513	-97
929.609	19
929.705	-18
929.801	-50
929.897	-569
929.993	-196
930.089	216
930.184	-153
930.280	857
930.376	250
930.471	-502
930.567	-257
930.663	168
930.758	-445
930.854	-47
930.950	-228
931.045	-149
931.141	-303
931.236	629
931.332	-436
931.427	257
931.523	105
931.618	359
931.714	-556
931.809	440
931.905	209
932.000	118
932.095	-976
932.191	-126
932.286	382
932.381	29
932.476	-352
932.572	43
932.667	-750
932.762	498
932.857	401
932.952	540
933.047	538
933.142	440
933.237	-56
933.332	-11
933.427	1431
933.522	-82
933.617	-1464
933.712	37
933.807	179
933.902	265
933.997	450
934.092	94
934.187	-214
934.282	-861
934.376	8
934.471	543
934.566	16
934.661	-601
934.755	-269
934.850	302
934.945	406
935.039	-464
935.134	312
935.228	-525
935.323	286
935.417	-113
935.512	-909
935.606	-18
935.701	-441
935.795	-198
935.890	-221
935.984	67
936.079	-517
936.173	711
936.267	-513
936.362	-151
936.456	508
936.550	531
936.644	149
936.738	-603
936.833	454
936.927	26
937.021	-235
937.115	79
937.209	-796
937.303	781
937.397	-278
937.491	-61
937.585	-56
937.679	20
937.773	190
937.867	-169
937.961	199
938.055	-1062
938.149	321
938.243	-994
938.337	-48
938.430	-162
938.524	171
938.618	-614
938.712	-56
938.805	67
938.899	-145
938.993	-965
939.086	-60
939.180	-451
939.274	-610
939.367	232
939.461	57
939.554	-421
939.648	-143
939.741	-136
939.835	-1197
939.928	321
940.022	237
940.115	-182
940.208	-468
940.302	711
940.395	734
940.488	-601
940.582	-59
940.675	-442
940.768	-332
940.861	442
940.954	-217
941.048	-129
941.141	1
941.234	-604
941.327	-229
941.420	694
941.513	514
941.606	75
941.699	541
941.792	325
941.885	102
941.978	360
942.071	-9
942.164	-69
942.257	-603
942.349	-564
942.442	22
942.535	-177
942.628	-116
942.721	-142
942.813	-1283
942.906	1367
942.999	-329
943.091	-599
943.184	-665
943.277	-1059
943.369	648
943.462	-349
943.554	916
943.647	-384
943.739	687
943.832	-131
943.924	-1089
944.017	193
944.109	-896
944.201	-479
944.294	-29
944.386	177
944.478	-685
944.571	-306
944.663	-722
944.755	188
944.847	-10
944.940	-63
945.032	-1155
945.124	-296
945.216	1262
945.308	254
945.400	205
945.492	-326
945.584	21
945.676	-94
945.768	-706
945.860	-133
945.952	-743
946.044	648
946.136	93
946.228	-616
946.320	-744
946.412	-165
946.503	156
946.595	465
946.687	-127
946.779	-617
946.870	-418
946.962	33
947.054	-135
947.145	136
947.237	-689
947.329	201
947.420	35
947.512	518
947.603	253
947.695	-19
947.786	-1184
947.878	-700
947.969	-221
948.061	-4
948.152	-18
948.243	-243
948.335	-242
948.426	-828
948.517	-844
948.609	-563
948.700	-602
948.791	-709
948.882	-191
948.973	-464
949.065	-252
949.156	422
949.247	-568
949.338	-434
949.429	75
949.520	125
949.611	-228
949.702	166
949.793	78
949.884	105
949.975	-626
950.066	86
950.157	-912
950.247	358
950.338	-894
950.429	-494
950.520	-161
950.611	247
950.701	-556
950.792	163
950.883	642
950.973	176
951.064	97
951.155	-423
951.245	-424
951.336	-490
951.427	-779
951.517	931
951.608	-654
951.698	-645
951.788	-193
951.879	221
951.969	-680
952.060	596
952.150	27
952.240	-102
952.331	-638
952.421	1314
952.511	-1051
952.602	395
952.692	-1304
952.782	-696
952.872	-615
952.962	-1268
953.052	-734
953.143	-895
953.233	-1302
953.323	277
953.413	-1256
953.503	413
953.593	86
953.683	-720
953.773	-784
953.863	-209
953.953	-259
954.042	293
954.132	-362
954.222	214
954.312	-20
954.402	153
954.492	-515
954.581	-421
954.671	-790
954.761	-611
954.850	756
954.940	-454
955.030	-396
955.119	-428
955.209	-880
955.298	-623
955.388	-649
955.477	359
955.567	-589
955.656	-96
955.746	497
955.835	-647
955.925	-1013
956.014	-415
956.103	-159
956.193	601
956.282	-435
956.371	797
956.461	-733
956.550	-801
956.639	-167
956.728	-848
956.817	281
956.906	-234
956.995	95
957.085	-924
957.174	-260
957.263	-391
957.352	-707
957.441	-221
957.530	-28
957.619	25
957.708	-624
957.796	-692
957.885	-351
957.974	-458
958.063	188
958.152	-906
958.241	-610
958.329	140
958.418	-826
958.507	-830
958.596	422
958.684	-677
958.773	-64
958.861	-655
958.950	-1303
959.039	-347
959.127	-658
959.216	304
959.304	-655
959.393	389
959.481	-617
959.570	-240
959.658	-507
959.746	-684
959.835	-316
959.923	-1356
960.011	-1220
960.100	-531
960.188	-642
960.276	-1050
960.365	-944
960.453	-1106
960.541	-1612
960.629	-147
960.717	-490
960.805	-889
960.893	94
960.981	-233
961.069	-191
961.158	-963
961.245	-392
961.333	-155
961.421	-351
961.509	43
961.597	-200
961.685	-665
961.773	-730
961.861	-5
961.949	302
962.036	-955
962.124	-454
962.212	-1004
962.299	-699
962.387	-864
962.475	-944
962.562	-813
962.650	-228
962.738	-331
962.825	-867
962.913	89
963.000	-754
963.088	-495
963.175	-1195
963.263	-42
963.350	-1392
963.438	-899
963.525	-923
963.612	818
963.700	-137
963.787	2093
963.874	93
963.962	-79
964.049	-197
964.136	472
964.223	-530
964.310	-888
964.398	-634
964.485	-966
964.572	-766
964.659	-97
964.746	-530
964.833	-373
964.920	-29
965.007	-1002
965.094	-402
965.181	-604
965.268	-573
965.355	-540
965.441	-1141
965.528	-1434
965.615	112
965.702	-132
965.789	-905
965.875	-756
965.962	-734
966.049	-637
966.136	-475
966.222	-465
966.309	-516
966.395	-546
966.482	-448
966.569	-411
966.655	-1074
966.742	-699
966.828	-308
966.915	-1300
967.001	65
967.087	-1273
967.174	-415
967.260	636
967.347	-743
967.433	195
967.519	990
967.605	233
967.692	-1249
967.778	-766
967.864	-1222
967.950	-1036
968.036	-1679
968.123	-475
968.209	-1129
968.295	-1043
968.381	75
968.467	-903
968.553	-2684
968.639	-309
968.725	-1857
968.811	82
968.897	-630
968.983	153
969.069	-1647
969.154	-1183
969.240	-502
969.326	-580
969.412	-946
969.497	-1030
969.583	-348
969.669	-106
969.755	-227
969.840	-1463
969.926	-581
970.012	-461
970.097	-325
970.183	-1398
970.268	-848
970.354	-614
970.439	-1159
970.525	914
970.610	-826
970.696	170
970.781	-1095
970.866	-1100
970.952	-639
971.037	-1163
971.122	-1107
971.208	-879
971.293	-699
971.378	-1090
971.463	-1496
971.549	-1060
971.634	-1105
971.719	-839
971.804	-1403
971.889	-78
971.974	-1434
972.059	-1195
972.144	-305
972.229	-695
972.314	-1671
972.399	-446
972.484	-860
972.569	-389
972.654	-875
972.739	566
972.824	585
972.908	-502
972.993	-883
973.078	-1328
973.163	-1016
973.247	-809
973.332	-1689
973.417	303
973.501	-1081
973.586	-583
973.671	-377
973.755	-811
973.840	-423
973.924	280
974.009	-1123
974.093	-709
974.178	-48
974.262	-131
974.346	-933
974.431	-760
974.515	-1275
974.600	-572
974.684	-598
974.768	-1061
974.852	-685
974.937	-1283
975.021	-622
975.105	-1354
975.189	-1479
975.273	-333
975.358	-614
975.442	-872
975.526	-338
975.610	-1348
975.694	-1804
975.778	-855
975.862	-740
975.946	-3118
976.030	766
976.114	-1468
976.198	-440
976.281	-1216
976.365	-1466
976.449	-1077
976.533	-384
976.617	-620
976.700	-933
976.784	85
976.868	-1611
976.951	-251
977.035	-1130
977.119	-1447
977.202	-1466
977.286	-611
977.369	-597
977.453	518
977.536	-840
977.620	-1497
977.703	-912
977.787	-1360
977.870	-1015
977.953	-218
978.037	-1220
978.120	-2
978.203	-474
978.287	-375
978.370	-184
978.453	-920
978.536	-910
978.620	-209
978.703	-309
978.786	-954
978.869	-1225
978.952	-1746
979.035	687
979.118	-735
979.201	-1028
979.284	-164
979.367	-1241
979.450	-374
979.533	-814
979.616	-990
979.699	-744
979.782	-574
979.865	-772
979.948	-257
980.030	-1328
980.113	-1023
980.196	-2192
980.279	-172
980.361	-1481
980.444	-667
980.526	-641
980.609	-898
980.692	-1006
980.774	-313
980.857	-1937
980.939	534
981.022	-1272
981.104	-1015
981.187	-1500
981.269	-376
981.352	-626
981.434	-2083
981.516	-1590
981.599	550
981.681	-324
981.763	-363
981.846	-894
981.928	-1309
982.010	-963
982.092	-828
982.174	-684
982.256	-803
982.339	-705
982.421	-1367
982.503	-815
982.585	-1456
982.667	-1403
982.749	-774
982.831	-1147
982.913	-1344
982.995	-256
983.077	-1166
983.158	61
983.240	-2145
983.322	-234
983.404	392
983.486	-1677
983.568	-137
983.649	-1552
983.731	-767
983.813	-1188
983.894	-450
983.976	-1195
984.058	-770
984.139	59
984.221	-893
984.302	-396
984.384	-729
984.465	-874
984.547	-289
984.628	-2103
984.710	-395
984.791	-636
984.872	-2109
984.954	-1071
985.035	-307
985.116	-1732
985.198	-813
985.279	560
985.360	-1409
985.441	-996
985.522	-84
985.604	-1075
985.685	-1564
985.766	-118
985.847	786
985.928	-957
986.009	-284
986.090	-1406
986.171	-338
986.252	-1437
986.333	-493
986.414	-468
986.495	-413
986.576	-443
986.656	-1548
986.737	-858
986.818	-541
986.899	-945
986.980	-784
987.060	-397
987.141	-793
987.222	-1229
987.302	-302
987.383	-618
987.464	-1006
987.544	-376
987.625	-1467
987.705	-129
987.786	-332
987.866	-444
987.947	-1093
988.027	-179
988.108	-743
988.188	-166
988.268	-768
988.349	-880
988.429	-284
988.509	875
988.589	-168
988.670	-1747
988.750	-68
988.830	-466
988.910	-688
988.990	-417
989.070	-1305
989.151	-649
989.231	-1171
989.311	-906
989.391	-825
989.471	-909
989.551	-1278
989.631	-1201
989.711	10
989.791	-1003
989.870	-1113
989.950	-209
990.030	-385
990.110	217
990.190	-734
990.269	-489
990.349	-284
990.429	-751
990.509	-429
990.588	-878
990.668	-403
990.747	125
990.827	-1167
990.907	-955
990.986	-1218
991.066	-905
991.145	-1282
991.225	-1144
991.304	-934
991.383	-264
991.463	-1113
991.542	-473
991.622	-868
991.701	-1273
991.780	-1124
991.859	-926
991.939	-735
992.018	-1102
992.097	-317
992.176	-441
992.256	-1494
992.335	-1684
992.414	-424
992.493	-198
992.572	-1033
992.651	-398
992.730	-497
992.809	-828
992.888	-761
992.967	-1100
993.046	-537
993.125	-1420
993.203	-1673
993.282	-281
993.361	-944
993.440	-702
993.519	-1121
993.597	-590
993.676	-830
993.755	8
993.834	-421
993.912	-1770
993.991	-1104
994.069	-1267
994.148	-1763
994.226	-390
994.305	-209
994.384	-1368
994.462	339
994.540	-1407
994.619	-1163
994.697	-511
994.776	-767
994.854	-1267
994.932	-1193
995.011	-1330
995.089	-2054
995.167	-1009
995.245	-244
995.324	-1802
995.402	-140
995.480	93
995.558	-733
995.636	-2394
995.714	-1910
995.792	324
995.870	-1579
995.948	-1662
996.026	-776
996.104	-943
996.182	49
996.260	-1162
996.338	-319
996.416	-610
996.494	-280
996.572	-106
996.649	-534
996.727	-1473
996.805	-873
996.883	-1094
996.960	-938
997.038	-794
997.116	95
997.193	-1729
997.271	13
997.348	-1608
997.426	-767
997.504	-1245
997.581	-597
997.658	-244
997.736	-2222
997.813	-1364
997.891	-575
997.968	-1796
998.046	-432
998.123	-1203
998.200	-432
998.277	-2011
998.355	-544
998.432	-1973
998.509	-593
998.586	-750
998.663	-1035
998.741	-1301
998.818	-1315
998.895	-1525
998.972	-931
999.049	-909
999.126	-1846
999.203	-306
999.280	-2051
999.357	-2265
999.434	-621
999.511	-931
999.587	-349
999.664	-1538
999.741	-658
999.818	-530
999.895	-1386
999.971	-1331
1000.048	-1083
1000.125	645
1000.202	-1004
1000.278	-1758
1000.355	-1942
1000.431	-1682
1000.508	-1215
1000.584	-1412
1000.661	-1058
1000.738	-1698
1000.814	-875
1000.890	-1025
1000.967	-1180
1001.043	-1343
1001.120	-1867
1001.196	-918
1001.272	-2192
1001.349	-1191
1001.425	-861
1001.501	-1207
1001.577	-1778
1001.654	-1205
1001.730	-1379
1001.806	-927
1001.882	-1719
1001.958	-929
1002.034	-863
1002.110	-1502
1002.186	-645
1002.262	-1158
1002.338	-1672
1002.414	-855
1002.490	-737
1002.566	-1983
1002.642	-2144
1002.718	-1054
1002.794	-1884
1002.870	-888
1002.945	-1687
1003.021	-912
1003.097	-1187
1003.173	-841
1003.248	-955
1003.324	-2010
1003.400	-938
1003.475	-823
1003.551	-860
1003.626	-1860
1003.702	-1342
1003.777	-1987
1003.853	-1900
1003.928	-1047
1004.004	-734
1004.079	-1108
1004.155	-969
1004.230	-1737
1004.305	-695
1004.381	-1741
1004.456	-11
1004.531	-1572
1004.607	-1407
1004.682	-1530
1004.757	-919
1004.832	-1668
1004.907	-1155
1004.982	-1583
1005.057	-351
1005.133	-2398
1005.208	-588
1005.283	-1568
1005.358	-559
1005.433	-1759
1005.508	-1784
1005.583	-2247
1005.657	-1419
1005.732	-508
1005.807	-940
1005.882	-1035
1005.957	-1573
1006.032	-852
1006.106	-694
1006.181	-1753
1006.256	-1608
1006.331	-2035
1006.405	-1731
1006.480	-607
1006.554	-1537
1006.629	-968
1006.704	-1541
1006.778	-425
1006.853	-1033
1006.927	-1831
1007.002	-1587
1007.076	-1191
1007.150	-1408
1007.225	-1476
1007.299	-1454
1007.373	-3102
1007.448	-1401
1007.522	-902
1007.596	-1607
1007.671	-2392
1007.745	-993
1007.819	-2236
1007.893	-1396
1007.967	-1311
1008.041	-1680
1008.115	-399
1008.190	-1646
1008.264	-1105
1008.338	-2182
1008.412	-1806
1008.486	-379
1008.560	-716
1008.633	-1432
1008.707	-1644
1008.781	-2039
1008.855	-1567
1008.929	-1713
1009.003	-1570
1009.076	-1619
1009.150	-1320
1009.224	-1053
1009.298	-1805
1009.371	-2431
1009.445	-667
1009.519	-958
1009.592	-2452
1009.666	-1704
1009.739	-1201
1009.813	-2065
1009.886	-935
1009.960	-1825
1010.033	-1418
1010.107	-1294
1010.180	-2064
1010.253	-1056
1010.327	-2693
1010.400	-1109
1010.473	-1713
1010.547	-127
1010.620	-1745
1010.693	-1320
1010.766	-2177
1010.840	-1489
1010.913	-1574
1010.986	-1743
1011.059	-2282
1011.132	-779
1011.205	-773
1011.278	-1663
1011.351	-1415
1011.424	-1261
1011.497	-1829
1011.570	-1214
1011.643	-1575
1011.716	-1281
1011.789	-1417
1011.862	-638
1011.934	-1349
1012.007	-2887
1012.080	-1815
1012.153	-1158
1012.225	-1570
1012.298	-2023
1012.371	-1546
1012.443	-670
1012.516	-2362
1012.588	-1034
1012.661	-1439
1012.733	-2245
1012.806	-750
1012.879	-2015
1012.951	-1868
1013.023	-1916
1013.096	-1156
1013.168	-1507
1013.241	-484
1013.313	-2416
1013.385	-1767
1013.458	-1361
1013.530	-1018
1013.602	-2098
1013.674	-1621
1013.746	-1761
1013.819	-1845
1013.891	-1292
1013.963	-1676
1014.035	-1352
1014.107	-907
1014.179	-1068
1014.251	-1759
1014.323	-1921
1014.395	-1408
1014.467	-1640
1014.539	-1493
1014.611	-2644
1014.683	-1535
1014.754	-1223
1014.826	-1640
1014.898	-1140
1014.970	-2014
1015.042	-1135
1015.113	-1844
1015.185	-1583
1015.257	-2856
1015.328	-1509
1015.400	-1983
1015.471	-2127
1015.543	-2565
1015.615	-1603
1015.686	-1165
1015.757	-1538
1015.829	-1037
1015.901	-2004
1015.972	-1836
1016.043	-1023
1016.115	-2302
1016.186	-1952
1016.257	-1939
1016.328	-772
1016.400	-1124
1016.471	-2001
1016.542	-1423
1016.613	-579
1016.685	-1612
1016.756	-1443
1016.827	-2027
1016.898	-1977
1016.969	-1242
1017.040	-2155
1017.111	-1850
1017.182	-1258
1017.253	-1308
1017.324	-2303
1017.395	-1270
1017.466	-863
1017.537	-1928
1017.608	-1564
1017.678	-2114
1017.749	-1244
1017.820	-1396
1017.891	-2186
1017.961	-1864
1018.032	-1700
1018.103	-1091
1018.173	-1595
1018.244	-1275
1018.315	-1528
1018.385	-1464
1018.456	-1453
1018.526	-1855
1018.597	-1270
1018.667	-2511
1018.738	-1760
1018.808	-1469
1018.878	-1559
1018.949	-1790
1019.019	-2119
1019.089	-785
1019.160	-1196
1019.230	-2117
1019.300	-902
1019.371	-1976
1019.441	-1510
1019.511	-1760
1019.581	-978
1019.651	-1819
1019.721	-1101
1019.791	-1069
1019.861	-1235
1019.931	-1937
1020.001	-2690
1020.071	-2057
1020.141	-2182
1020.211	-1504
1020.281	-963
1020.351	-1775
1020.421	-1770
1020.491	-1572
1020.560	-2612
1020.630	-1674
1020.700	-1140
1020.770	-1858
1020.839	-1549
1020.909	-1752
1020.979	-1303
1021.048	-1618
1021.118	-960
1021.187	-2027
1021.257	-1983
1021.326	-1401
1021.396	-1388
1021.465	-1302
1021.535	-999
1021.604	-2544
1021.674	-2519
1021.743	-1488
1021.812	-1076
1021.882	-1853
1021.951	-1192
1022.020	-1911
1022.089	-1105
1022.159	-2228
1022.228	-786
1022.297	-1444
1022.366	-1907
1022.435	-1212
1022.504	-1919
1022.573	-1315
1022.642	-1998
1022.711	-2008
1022.781	-797
1022.849	-1305
1022.918	-1777
1022.987	-1917
1023.056	-2218
1023.125	-1276
1023.194	-2015
1023.263	-1497
1023.331	-1498
1023.400	-1424
1023.469	-1258
1023.538	-1799
1023.606	-1832
1023.675	-1622
1023.744	-1583
1023.812	-1693
1023.881	-1461
1023.949	-1668
1024.018	-1239
1024.086	-1994
1024.155	-1234
1024.223	-1625
1024.292	-1706
1024.360	-715
1024.429	-1799
1024.497	-1438
1024.565	-1769
1024.634	-1099
1024.702	-1154
1024.770	-1861
1024.838	-1470
1024.907	-1635
1024.975	-2129
1025.043	-1215
1025.111	-1984
1025.179	-1388
1025.247	-2116
1025.315	-1437
1025.383	-1863
1025.451	-1819
1025.519	-1806
1025.587	-2127
1025.655	-1652
1025.723	-1850
1025.791	-1382
1025.859	-357
1025.927	-460
1025.995	-1914
1026.062	-1698
1026.130	-1520
1026.198	-1602
1026.266	-1662
1026.333	-573
1026.401	-1685
1026.469	-1320
1026.536	-2185
1026.604	-1351
1026.671	-1693
1026.739	-2199
1026.806	-1975
1026.874	-2409
1026.941	-1167
1027.009	-1275
1027.076	-1818
1027.144	-647
1027.211	-1658
1027.278	-2091
1027.345	-1457
1027.413	-940
1027.480	-1598
1027.547	-1859
1027.614	-1640
1027.682	-2012
1027.749	-1862
1027.816	-1981
1027.883	-1813
1027.950	-1336
1028.017	-1478
1028.084	-1400
1028.151	-2247
1028.218	-1338
1028.285	-1656
1028.352	-2542
1028.419	-1646
1028.486	-2150
1028.553	-2065
1028.619	-1978
1028.686	-1655
1028.753	-1301
1028.820	-2508
1028.886	-1718
1028.953	-1229
1029.020	-2252
1029.086	-1398
1029.153	-2188
1029.220	-2187
1029.286	-1779
1029.353	-1551
1029.419	-1716
1029.486	-2357
1029.552	-1839
1029.619	-1797
1029.685	-1780
1029.751	-1522
1029.818	-1185
1029.884	-2318
1029.951	-874
1030.017	-2523
1030.083	-1228
1030.149	-2411
1030.216	-1352
1030.282	-1854
1030.348	-2063
1030.414	-1866
1030.480	-1510
1030.546	-2082
1030.612	-2091
1030.678	-2523
1030.744	-1641
1030.810	-2373
1030.876	-1547
1030.942	-1708
1031.008	-1758
1031.074	-2403
1031.140	-1571
1031.206	-1725
1031.272	-1824
1031.337	-2060
1031.403	-1814
1031.469	-1946
1031.534	-1554
1031.600	-1009
1031.666	-3017
1031.731	-2374
1031.797	-1396
1031.863	-2476
1031.928	-2230
1031.994	-2145
1032.059	-1879
1032.125	-2539
1032.190	-3045
1032.256	-2474
1032.321	-2908
1032.386	-2623
1032.452	-1149
1032.517	-2322
1032.582	-2159
1032.647	-1707
1032.713	-2007
1032.778	-2167
1032.843	-2099
1032.908	-1872
1032.974	-1472
1033.039	-2047
1033.104	-1939
1033.169	-2532
1033.234	-1779
1033.299	-1127
1033.364	-1256
1033.429	-1769
1033.494	-1801
1033.559	-2211
1033.624	-1548
1033.688	-1365
1033.753	-1595
1033.818	-2436
1033.883	-1949
1033.948	-2162
1034.013	-1794
1034.077	-2324
1034.142	-1663
1034.207	-2082
1034.271	-1656
1034.336	-1357
1034.400	-1795
1034.465	-1640
1034.530	-2231
1034.594	-2014
1034.658	-1856
1034.723	-2716
1034.787	-2272
1034.852	-2546
1034.916	-2126
1034.981	-2353
1035.045	-2441
1035.109	-2222
1035.173	-1472
1035.238	-2496
1035.302	-2342
1035.366	-1999
1035.430	-1138
1035.495	-2419
1035.559	-2743
1035.623	-2028
1035.687	-2006
1035.751	-2012
1035.815	-2307
1035.879	-2536
1035.943	-2136
1036.007	-2373
1036.071	-2514
1036.135	-2243
1036.198	-1838
1036.262	-2608
1036.326	-1902
1036.390	-1859
1036.454	-1991
1036.517	-1756
1036.581	-2395
1036.645	-1565
1036.709	-1918
1036.772	-1963
1036.836	-1850
1036.900	-1523
1036.963	-2476
1037.026	-2006
1037.090	-3265
1037.154	-2059
1037.217	-2255
1037.280	-2386
1037.344	-2182
1037.407	-2870
1037.471	-2292
1037.534	-2771
1037.597	-3199
1037.661	-2566
1037.724	-2567
1037.787	-2527
1037.850	-2635
1037.913	-2836
1037.977	-1516
1038.040	-2158
1038.103	-2962
1038.166	-2898
1038.229	-2259
1038.292	-2435
1038.355	-2135
1038.418	-2328
1038.481	-1848
1038.544	-2627
1038.607	-2801
1038.670	-2081
1038.732	-2809
1038.795	-2833
1038.858	-2590
1038.921	-2475
1038.984	-1525
1039.046	-1962
1039.109	-2306
1039.172	-2750
1039.234	-2345
1039.297	-3387
1039.360	-2025
1039.422	-2587
1039.485	-1686
1039.547	-2494
1039.610	-2669
1039.672	-2857
1039.734	-2469
1039.797	-2809
1039.859	-2483
1039.922	-2554
1039.984	-2085
1040.046	-2475
1040.109	-1926
1040.171	-3006
1040.233	-2425
1040.295	-2526
1040.358	-2204
1040.420	-2460
1040.482	-2701
1040.544	-2113
1040.606	-2119
1040.668	-1749
1040.730	-3181
1040.792	-2382
1040.854	-2613
1040.916	-3289
1040.978	-3064
1041.040	-1503
1041.102	-2809
1041.164	-2376
1041.225	-3014
1041.287	-3367
1041.349	-2368
1041.411	-2950
1041.472	-2330
1041.534	-2551
1041.596	-2530
1041.657	-1864
1041.719	-1616
1041.781	-2309
1041.842	-3261
1041.904	-2031
1041.965	-2165
1042.027	-2742
1042.088	-2282
1042.150	-1959
1042.211	-2388
1042.272	-2448
1042.334	-2218
1042.395	-2438
1042.456	-2586
1042.518	-2024
1042.579	-1771
1042.640	-2164
1042.701	-2378
1042.763	-2052
1042.824	-2609
1042.885	-1989
1042.946	-2602
1043.007	-2826
1043.068	-2655
1043.129	-2073
1043.190	-2511
1043.251	-2317
1043.312	-2288
1043.373	-1973
1043.434	-2299
1043.495	-1862
1043.556	-1374
1043.616	-1784
1043.677	-2735
1043.738	-2356
1043.799	-1906
1043.859	-2116
1043.920	-2269
1043.981	-2786
1044.041	-1286
1044.102	-2743
1044.162	-2727
1044.223	-2759
1044.284	-2612
1044.344	-2509
1044.405	-1682
1044.465	-1941
1044.525	-1415
1044.586	-2730
1044.646	-2623
1044.707	-2488
1044.767	-2690
1044.827	-2640
1044.887	-3063
1044.948	-1801
1045.008	-2515
1045.068	-2562
1045.128	-1848
1045.188	-1641
1045.249	-1893
1045.309	-2036
1045.369	-1836
1045.429	-1704
1045.489	-1817
1045.549	-2175
1045.609	-1937
1045.669	-2352
1045.729	-2009
1045.789	-1837
1045.848	-2410
1045.908	-2628
1045.968	-2698
1046.028	-1797
1046.088	-1320
1046.147	-2175
1046.207	-1783
1046.267	-1201
1046.326	-2059
1046.386	-1665
1046.446	-647
1046.505	-1862
1046.565	-885
1046.624	-1516
1046.684	-1327
1046.743	-1773
1046.803	-557
1046.862	-1559
1046.922	0
