'Start Wavelength	183.907
'End Wavelength	1046.922
'Gate Delay	5.000
'Gate Width (ms)	1.050
'Laser Output Level	0.000
'X Position	0.000
'Y Position	0.000
'Z Position	0.000
'Grid Point Number	1.000
'Shot Number	100.000
183.907	5.000
183.977	-417.000
184.047	-37
184.116	25
184.186	713
184.256	110
184.325	-624
184.395	-986
184.465	69
184.534	-33
184.604	-716
184.674	-442
184.743	-642
184.813	1000
184.883	19
184.952	531
185.022	413
185.092	-99
185.161	-54
185.231	94
185.301	-217
185.370	1022
185.440	161
185.509	-180
185.579	-645
185.649	172
185.718	-222
185.788	-587
185.857	-667
185.927	-305
185.996	247
186.066	767
186.136	-1034
186.205	-561
186.275	209
186.344	602
186.414	-719
186.483	-1133
186.553	231
186.622	738
186.692	-33
186.761	239
186.831	48
186.900	-312
186.970	41
187.039	261
187.109	639
187.178	243
187.248	-34
187.317	-198
187.387	-423
187.456	361
187.526	174
187.595	538
187.664	-247
187.734	292
187.803	-686
187.873	488
187.942	642
188.012	-14
188.081	11
188.150	-699
188.220	-98
188.289	106
188.358	344
188.428	555
188.497	-588
188.567	453
188.636	-775
188.705	28
188.775	-189
188.844	-475
188.913	582
188.983	-111
189.052	-974
189.121	-295
189.191	16
189.260	846
189.329	-176
189.399	-33
189.468	150
189.537	228
189.606	225
189.676	693
189.745	66
189.814	147
189.883	-383
189.953	143
190.022	-82
190.091	1039
190.161	1960
190.230	750
190.299	112
190.368	-708
190.437	-830
190.507	-6
190.576	-565
190.645	-149
190.714	117
190.783	-502
190.853	723
190.922	-187
190.991	232
191.060	-342
191.129	-598
191.198	985
191.268	204
191.337	148
191.406	484
191.475	499
191.544	-207
191.613	386
191.682	1
191.752	-248
191.821	359
191.890	-22
191.959	76
192.028	-596
192.097	-225
192.166	967
192.235	-389
192.304	153
192.373	-428
192.442	-494
192.511	-238
192.580	-379
192.650	127
192.719	223
192.788	380
192.857	574
192.926	-287
192.995	439
193.064	335
193.133	530
193.202	992
193.271	1565
193.340	741
193.409	1329
193.478	1566
193.547	1399
193.615	1361
193.684	2349
193.753	947
193.822	528
193.891	711
193.960	305
194.029	-189
194.098	641
194.167	-241
194.236	799
194.305	845
194.374	827
194.443	-388
194.512	797
194.580	707
194.649	1071
194.718	799
194.787	332
194.856	61
194.925	683
194.994	53
195.062	446
195.131	734
195.200	607
195.269	1064
195.338	1027
195.407	448
195.475	548
195.544	1217
195.613	996
195.682	616
195.751	854
195.819	-198
195.888	1366
195.957	869
196.026	976
196.094	1220
196.163	1335
196.232	976
196.301	179
196.369	504
196.438	384
196.507	1023
196.576	715
196.644	607
196.713	840
196.782	102
196.850	807
196.919	839
196.988	568
197.056	326
197.125	398
197.194	924
197.262	277
197.331	28
197.400	-490
197.468	39
197.537	288
197.606	676
197.674	2124
197.743	1884
197.812	1009
197.880	1801
197.949	1954
198.017	2168
198.086	1447
198.155	289
198.223	1983
198.292	1889
198.360	2292
198.429	943
198.497	514
198.566	1585
198.635	2749
198.703	698
198.772	1907
198.840	2682
198.909	2538
198.977	736
199.046	850
199.114	690
199.183	605
199.251	14
199.320	443
199.388	231
199.457	62
199.525	137
199.594	244
199.662	591
199.731	319
199.799	548
199.867	305
199.936	394
200.004	1485
200.073	1055
200.141	896
200.210	-350
200.278	982
200.346	507
200.415	554
200.483	151
200.552	82
200.620	464
200.688	773
200.757	1634
200.825	971
200.893	158
200.962	318
201.030	-200
201.098	665
201.167	895
201.235	740
201.303	476
201.372	912
201.440	499
201.508	489
201.577	970
201.645	578
201.713	15
201.781	535
201.850	941
201.918	594
201.986	483
202.055	1485
202.123	474
202.191	1560
202.259	266
202.327	491
202.396	127
202.464	1220
202.532	77
202.600	2407
202.669	965
202.737	492
202.805	1703
202.873	1469
202.941	715
203.009	629
203.078	-220
203.146	749
203.214	178
203.282	413
203.350	325
203.418	527
203.487	628
203.555	1278
203.623	1264
203.691	963
203.759	605
203.827	665
203.895	681
203.963	656
204.031	814
204.099	850
204.168	773
204.236	797
204.304	1018
204.372	1094
204.440	185
204.508	824
204.576	413
204.644	278
204.712	355
204.780	1131
204.848	268
204.916	949
204.984	575
205.052	1055
205.120	573
205.188	1101
205.256	401
205.324	2077
205.392	922
205.460	987
205.528	761
205.596	1239
205.664	905
205.732	561
205.799	3706
205.867	5281
205.935	638
206.003	858
206.071	667
206.139	719
206.207	1577
206.275	1240
206.343	762
206.411	1532
206.478	1302
206.546	575
206.614	1446
206.682	1386
206.750	666
206.818	1090
206.885	1535
206.953	354
207.021	1866
207.089	1361
207.157	342
207.225	1604
207.292	917
207.360	1736
207.428	1369
207.496	660
207.563	1890
207.631	1437
207.699	681
207.767	1057
207.834	843
207.902	1221
207.970	1010
208.038	785
208.105	716
208.173	1858
208.241	659
208.309	2012
208.376	931
208.444	3264
208.512	1638
208.579	1236
208.647	958
208.715	1664
208.782	368
208.850	1454
208.918	739
208.985	1305
209.053	1238
209.120	1194
209.188	669
209.256	1519
209.323	1000
209.391	2210
209.459	2009
209.526	1618
209.594	853
209.661	1604
209.729	1654
209.796	1238
209.864	1597
209.932	461
209.999	3070
210.067	1611
210.134	1516
210.202	1686
210.269	2804
210.337	2474
210.404	1473
210.472	1861
210.539	2100
210.607	1663
210.674	1802
210.742	1397
210.809	1788
210.877	1781
210.944	2862
211.012	968
211.079	2995
211.146	2091
211.214	962
211.281	1841
211.349	1495
211.416	2615
211.484	2158
211.551	1770
211.618	1885
211.686	2374
211.753	1329
211.821	1614
211.888	1811
211.955	2101
212.023	1218
212.090	1918
212.157	1693
212.225	2763
212.292	4209
212.359	6515
212.427	14431
212.494	7264
212.561	2916
212.629	2195
212.696	2276
212.763	2514
212.831	876
212.898	2439
212.965	1941
213.032	2311
213.100	1804
213.167	2554
213.234	2599
213.301	1923
213.369	893
213.436	1762
213.503	1556
213.570	2289
213.638	1762
213.705	1757
213.772	989
213.839	2168
213.906	2372
213.973	3141
214.041	1491
214.108	2126
214.175	1436
214.242	1584
214.309	1539
214.376	2183
214.444	1923
214.511	2229
214.578	2453
214.645	2769
214.712	1864
214.779	2313
214.846	1993
214.913	3095
214.980	2371
215.048	3090
215.115	2960
215.182	2573
215.249	2440
215.316	1988
215.383	1291
215.450	2512
215.517	1843
215.584	1866
215.651	2067
215.718	2291
215.785	2319
215.852	2455
215.919	2717
215.986	2460
216.053	1974
216.120	1812
216.187	1893
216.254	2368
216.321	2360
216.388	2465
216.455	2220
216.522	2343
216.589	2029
216.656	4126
216.722	3898
216.789	3404
216.856	4048
216.923	3160
216.990	3161
217.057	2939
217.124	3385
217.191	3108
217.258	4109
217.324	5490
217.391	6096
217.458	4669
217.525	2701
217.592	3131
217.659	1823
217.725	4060
217.792	3354
217.859	3838
217.926	1712
217.993	2069
218.059	2666
218.126	2400
218.193	1717
218.260	2003
218.327	1116
218.393	2476
218.460	701
218.527	1737
218.594	2021
218.660	3807
218.727	3288
218.794	1179
218.860	1972
218.927	1342
218.994	1939
219.061	1873
219.127	1966
219.194	2803
219.261	1987
219.327	1633
219.394	1962
219.461	703
219.527	1192
219.594	2342
219.661	1406
219.727	849
219.794	2422
219.860	1557
219.927	2036
219.994	3025
220.060	4415
220.127	2616
220.193	2407
220.260	2656
220.326	3685
220.393	6356
220.460	9146
220.526	6493
220.593	3556
220.659	4260
220.726	3296
220.792	8513
220.859	7581
220.925	10478
220.992	14807
221.058	13172
221.125	10327
221.191	8265
221.258	3798
221.324	3515
221.391	2075
221.457	1461
221.524	1996
221.590	3170
221.657	10450
221.723	6535
221.789	6453
221.856	7201
221.922	2986
221.989	3302
222.055	2360
222.121	1406
222.188	3865
222.254	2785
222.321	1381
222.387	1214
222.453	2036
222.520	1963
222.586	1517
222.652	1770
222.719	2358
222.785	2226
222.851	1488
222.918	1413
222.984	823
223.050	1887
223.116	691
223.183	2099
223.249	957
223.315	795
223.382	1711
223.448	875
223.514	871
223.580	1432
223.647	817
223.713	1021
223.779	1819
223.845	1205
223.911	1707
223.978	1148
224.044	1443
224.110	1402
224.176	1479
224.242	1011
224.309	566
224.375	1877
224.441	1561
224.507	1507
224.573	1348
224.639	2344
224.705	820
224.772	1506
224.838	1466
224.904	1870
224.970	1244
225.036	1549
225.102	1350
225.168	1268
225.234	1897
225.300	1458
225.366	1418
225.432	1759
225.499	862
225.565	2177
225.631	2081
225.697	2044
225.763	2110
225.829	3674
225.895	3114
225.961	5399
226.027	3385
226.093	3261
226.159	4319
226.225	6178
226.291	11722
226.357	20754
226.423	11074
226.489	6429
226.554	3876
226.620	4666
226.686	4234
226.752	6848
226.818	10654
226.884	24196
226.950	22982
227.016	9115
227.082	4610
227.148	3860
227.214	4257
227.279	3543
227.345	2324
227.411	3283
227.477	1335
227.543	2131
227.609	3486
227.674	3505
227.740	1499
227.806	3085
227.872	2582
227.938	2907
228.003	3358
228.069	2396
228.135	1745
228.201	2536
228.267	1334
228.332	2200
228.398	2348
228.464	2347
228.530	738
228.595	2174
228.661	1176
228.727	2841
228.792	3316
228.858	2018
228.924	924
228.990	4413
229.055	1719
229.121	2544
229.187	1718
229.252	2181
229.318	1617
229.384	2680
229.449	2973
229.515	650
229.581	360
229.646	2700
229.712	1314
229.777	4715
229.843	4330
229.909	4035
229.974	4344
230.040	4534
230.105	3593
230.171	3639
230.236	4892
230.302	7604
230.368	5547
230.433	2965
230.499	2613
230.564	3572
230.630	2365
230.695	2910
230.761	2817
230.826	1784
230.892	4532
230.957	2171
231.023	2508
231.088	2345
231.154	1840
231.219	2577
231.284	2288
231.350	3121
231.415	1347
231.481	3180
231.546	760
231.612	2021
231.677	1428
231.742	1177
231.808	2612
231.873	1607
231.939	469
232.004	4441
232.069	4190
232.135	1503
232.200	2029
232.265	2399
232.331	1974
232.396	1388
232.461	608
232.527	1905
232.592	1327
232.657	2317
232.723	3103
232.788	2155
232.853	1434
232.918	1094
232.984	1167
233.049	1628
233.114	2270
233.179	2387
233.245	3399
233.310	4849
233.375	952
233.440	2161
233.506	935
233.571	1068
233.636	1616
233.701	2287
233.766	3019
233.832	3833
233.897	1895
233.962	1997
234.027	2907
234.092	2215
234.157	2070
234.222	882
234.288	3101
234.353	8371
234.418	8110
234.483	5296
234.548	4182
234.613	3450
234.678	3939
234.743	3235
234.808	9883
234.873	6188
234.938	4316
235.004	4050
235.069	2721
235.134	2622
235.199	3037
235.264	2875
235.329	878
235.394	3250
235.459	3928
235.524	2482
235.589	2963
235.654	2427
235.719	1432
235.784	3167
235.849	2452
235.913	5639
235.978	5019
236.043	6240
236.108	3299
236.173	2827
236.238	3277
236.303	2705
236.368	1469
236.433	4137
236.498	6583
236.563	5150
236.627	8779
236.692	30246
236.757	24446
236.822	9885
236.887	6285
236.952	6876
237.017	4063
237.081	5837
237.146	7638
237.211	14634
237.276	29805
237.341	48801
237.405	22288
237.470	8844
237.535	7384
237.600	5248
237.664	3945
237.729	3576
237.794	4096
237.859	10592
237.923	6452
237.988	3675
238.053	5108
238.118	5143
238.182	11156
238.247	12234
238.312	4855
238.376	4932
238.441	2222
238.506	3304
238.570	2038
238.635	3889
238.700	1402
238.764	3021
238.829	6478
238.893	6863
238.958	4343
239.023	4362
239.087	2169
239.152	2664
239.216	1894
239.281	3207
239.346	1982
239.410	2077
239.475	2716
239.539	11105
239.604	8349
239.668	3778
239.733	1888
239.797	1896
239.862	2648
239.926	7827
239.991	3284
240.055	3409
240.120	1906
240.184	3197
240.249	1571
240.313	1203
240.378	2132
240.442	6738
240.507	10716
240.571	3443
240.635	4886
240.700	6522
240.764	2964
240.829	2787
240.893	1007
240.957	2123
241.022	6228
241.086	11346
241.151	4947
241.215	1939
241.279	3780
241.344	5855
241.408	3838
241.472	2811
241.537	5165
241.601	4391
241.665	2070
241.730	3403
241.794	4739
241.858	3507
241.922	2673
241.987	3441
242.051	2556
242.115	2504
242.179	3317
242.244	1863
242.308	2931
242.372	3505
242.436	3799
242.501	2783
242.565	2182
242.629	2837
242.693	3444
242.757	2260
242.822	2461
242.886	2783
242.950	3392
243.014	2337
243.078	2935
243.142	4054
243.206	3198
243.271	3539
243.335	2762
243.399	6034
243.463	17325
243.527	47933
243.591	15620
243.655	6883
243.719	3739
243.783	5418
243.847	7930
243.911	9952
243.975	8565
244.040	5826
244.104	4877
244.168	2900
244.232	4522
244.296	7905
244.360	8836
244.424	4220
244.488	2886
244.552	3558
244.615	1237
244.679	2576
244.743	2810
244.807	3288
244.871	2678
244.935	3031
244.999	862
245.063	2220
245.127	3514
245.191	7064
245.255	5327
245.319	4093
245.383	3075
245.446	4284
245.510	1521
245.574	3515
245.638	3052
245.702	1830
245.766	7906
245.829	5038
245.893	2923
245.957	2926
246.021	3757
246.085	2566
246.149	3864
246.212	10061
246.276	14636
246.340	6443
246.404	4610
246.467	5906
246.531	6089
246.595	5440
246.659	4569
246.722	3263
246.786	5119
246.850	5971
246.913	6180
246.977	2476
247.041	3644
247.104	3657
247.168	3291
247.232	8342
247.295	19713
247.359	9620
247.423	4503
247.486	8891
247.550	5358
247.614	4236
247.677	5138
247.741	3693
247.804	3323
247.868	3980
247.932	8404
247.995	17976
248.059	6183
248.122	3932
248.186	5969
248.249	8038
248.313	28939
248.376	30095
248.440	19245
248.503	7083
248.567	7331
248.630	8860
248.694	13448
248.757	15985
248.821	31875
248.884	19534
248.948	16396
249.011	24023
249.075	36375
249.138	32155
249.202	11705
249.265	7618
249.328	9305
249.392	7419
249.455	6515
249.519	5570
249.582	6957
249.645	11023
249.709	8165
249.772	5934
249.835	6653
249.899	6354
249.962	4062
250.025	5663
250.089	13101
250.152	16688
250.215	8013
250.279	6210
250.342	6341
250.405	6670
250.468	5829
250.532	8349
250.595	12932
250.658	46321
250.721	74908
250.785	27328
250.848	14423
250.911	8423
250.974	8088
251.038	10014
251.101	20291
251.164	10769
251.227	12840
251.290	11989
251.354	17354
251.417	65230
251.480	63909
251.543	45348
251.606	113004
251.669	87187
251.732	33743
251.795	31441
251.859	31217
251.922	72900
251.985	42744
252.048	17322
252.111	12053
252.174	11162
252.237	18868
252.300	39529
252.363	45306
252.426	91385
252.489	38412
252.552	19705
252.615	12844
252.678	13474
252.741	30437
252.804	42014
252.867	92866
252.930	53538
252.993	27954
253.056	16120
253.119	11703
253.182	9761
253.245	18692
253.308	12675
253.371	10255
253.434	9623
253.497	9861
253.559	17942
253.622	12178
253.685	13838
253.748	15468
253.811	7303
253.874	8739
253.937	7999
254.000	6525
254.062	10790
254.125	18262
254.188	17062
254.251	14244
254.314	5723
254.376	11884
254.439	13936
254.502	11065
254.565	11819
254.628	20860
254.690	12076
254.753	6298
254.816	5787
254.878	5860
254.941	12229
255.004	13149
255.067	5725
255.129	5894
255.192	3185
255.255	2131
255.317	3587
255.380	2284
255.443	2125
255.505	2073
255.568	2067
255.631	2104
255.693	2095
255.756	1260
255.819	3234
255.881	2054
255.944	2785
256.006	1788
256.069	1951
256.132	1899
256.194	3939
256.257	8796
256.319	6591
256.382	5786
256.444	4083
256.507	3255
256.569	3654
256.632	3908
256.694	6275
256.757	16135
256.819	49364
256.882	18558
256.944	7357
257.007	6997
257.069	6428
257.132	4189
257.194	4680
257.257	3937
257.319	4271
257.381	4472
257.444	12783
257.506	55750
257.569	60983
257.631	26929
257.693	14124
257.756	7173
257.818	6121
257.880	4552
257.943	4220
258.005	3079
258.067	3000
258.130	3275
258.192	4834
258.254	8541
258.317	5396
258.379	3067
258.441	11286
258.503	11010
258.566	11725
258.628	17039
258.690	5160
258.753	4338
258.815	8538
258.877	4465
258.939	3495
259.001	3814
259.064	3988
259.126	4110
259.188	5246
259.250	4034
259.312	5013
259.375	11726
259.437	8062
259.499	3397
259.561	3697
259.623	3669
259.685	3393
259.747	4115
259.809	11503
259.872	21362
259.934	30846
259.996	29937
260.058	9702
260.120	3781
260.182	2879
260.244	3571
260.306	2621
260.368	3072
260.430	2805
260.492	6749
260.554	12498
260.616	8416
260.678	18233
260.740	23280
260.802	6296
260.864	5232
260.926	3547
260.988	4457
261.050	3572
261.112	9496
261.174	25058
261.236	18163
261.298	6139
261.359	9572
261.421	14188
261.483	3643
261.545	4632
261.607	1915
261.669	3134
261.731	6501
261.793	15892
261.854	6208
261.916	4710
261.978	3625
262.040	5588
262.102	3764
262.164	5764
262.225	4383
262.287	3189
262.349	9355
262.411	7464
262.472	3749
262.534	5759
262.596	13459
262.658	4649
262.719	2256
262.781	5045
262.843	12784
262.904	6668
262.966	4457
263.028	6157
263.090	27893
263.151	76891
263.213	24838
263.275	11451
263.336	4919
263.398	3324
263.459	1960
263.521	2509
263.583	8717
263.644	6397
263.706	1945
263.767	1091
263.829	1504
263.891	896
263.952	683
264.014	1572
264.075	3705
264.137	12096
264.198	5183
264.260	1630
264.321	1364
264.383	6891
264.444	18099
264.506	5098
264.567	3091
264.629	7620
264.690	14516
264.752	5088
264.813	3267
264.875	2416
264.936	3001
264.998	2427
265.059	1620
265.120	2374
265.182	4429
265.243	26331
265.305	24388
265.366	5530
265.427	3581
265.489	2205
265.550	321
265.611	2393
265.673	1690
265.734	2552
265.795	2011
265.857	1698
265.918	2214
265.979	6433
266.040	41938
266.102	33123
266.163	8475
266.224	6586
266.286	3137
266.347	1744
266.408	2352
266.469	2253
266.530	1678
266.592	1061
266.653	5110
266.714	8857
266.775	2466
266.836	1947
266.898	875
266.959	3678
267.020	3519
267.081	2921
267.142	600
267.203	1444
267.264	1024
267.326	2530
267.387	1558
267.448	1521
267.509	2034
267.570	1626
267.631	1406
267.692	1293
267.753	1994
267.814	1334
267.875	4680
267.936	13049
267.997	5563
268.058	5099
268.119	2539
268.180	2433
268.241	1168
268.302	1538
268.363	1202
268.424	1874
268.485	2066
268.546	1037
268.607	535
268.668	472
268.729	632
268.790	1625
268.851	2328
268.912	6648
268.972	8733
269.033	3939
269.094	1912
269.155	1606
269.216	1293
269.277	2079
269.338	2317
269.398	1603
269.459	1704
269.520	4064
269.581	4715
269.642	5871
269.702	2809
269.763	2580
269.824	1402
269.885	3547
269.945	5227
270.006	2624
270.067	1071
270.128	828
270.188	1086
270.249	1146
270.310	2078
270.370	1919
270.431	1772
270.492	2063
270.553	1034
270.613	5117
270.674	12321
270.734	5118
270.795	2543
270.856	3815
270.916	2722
270.977	2257
271.038	2431
271.098	2509
271.159	5337
271.219	4644
271.280	2091
271.340	1320
271.401	2166
271.462	6507
271.522	3794
271.583	2241
271.643	2710
271.704	1975
271.764	1958
271.825	7689
271.885	27209
271.946	37197
272.006	10510
272.066	15676
272.127	28386
272.187	8280
272.248	4242
272.308	5258
272.369	20102
272.429	11275
272.489	8340
272.550	8531
272.610	8032
272.671	7301
272.731	5454
272.791	8894
272.852	4098
272.912	4717
272.972	2039
273.033	2023
273.093	3787
273.153	4815
273.214	3156
273.274	3563
273.334	14699
273.394	30265
273.455	10963
273.515	11000
273.575	25710
273.635	9772
273.696	13236
273.756	27075
273.816	10144
273.876	5545
273.936	10847
273.997	22175
274.057	5365
274.117	4948
274.177	6851
274.237	36211
274.297	30341
274.358	18937
274.418	23732
274.478	17766
274.538	5515
274.598	4740
274.658	17826
274.718	22545
274.778	8672
274.838	4349
274.898	9573
274.958	30535
275.018	28288
275.078	17545
275.138	6496
275.198	3153
275.258	2142
275.318	3751
275.378	7104
275.438	8051
275.498	5456
275.558	13960
275.618	30799
275.678	21082
275.738	11567
275.798	9243
275.858	4632
275.918	1810
275.978	3574
276.038	3778
276.098	2460
276.157	6269
276.217	19902
276.277	9137
276.337	5449
276.397	2934
276.457	3575
276.517	2271
276.576	2067
276.636	1363
276.696	4433
276.756	11265
276.815	8117
276.875	3858
276.935	3682
276.995	4058
277.055	1589
277.114	1986
277.174	3294
277.234	16703
277.293	6249
277.353	3090
277.413	2624
277.472	2339
277.532	2578
277.592	4067
277.651	10000
277.711	19136
277.771	5650
277.830	25758
277.890	19769
277.950	12518
278.009	42354
278.069	13562
278.128	13500
278.188	18761
278.248	7159
278.307	20091
278.367	11883
278.426	3558
278.486	3576
278.545	2196
278.605	1605
278.664	2296
278.724	2165
278.783	9816
278.843	29306
278.902	8075
278.962	4305
279.021	4166
279.081	3627
279.140	3574
279.199	3031
279.259	3668
279.318	4022
279.378	6125
279.437	9838
279.496	39961
279.556	106137
279.615	79511
279.675	17246
279.734	11299
279.793	17511
279.853	33161
279.912	11649
279.971	6310
280.031	5673
280.090	13897
280.149	25350
280.208	13396
280.268	72465
280.327	73326
280.386	14804
280.445	14279
280.505	13215
280.564	5639
280.623	4170
280.682	9132
280.742	14434
280.801	4291
280.860	2686
280.919	1865
280.978	1997
281.037	1798
281.097	1262
281.156	2019
281.215	2478
281.274	2131
281.333	18926
281.392	14480
281.451	3430
281.510	1447
281.569	1268
281.628	1330
281.688	1008
281.747	1494
281.806	1949
281.865	1355
281.924	1099
281.983	1743
282.042	677
282.101	1305
282.160	1008
282.219	727
282.278	1736
282.337	10486
282.396	7019
282.454	2130
282.513	3050
282.572	15853
282.631	8577
282.690	2318
282.749	1405
282.808	3023
282.867	2602
282.926	2564
282.985	1125
283.043	718
283.102	1071
283.161	2015
283.220	7179
283.279	19164
283.338	5616
283.396	2366
283.455	2141
283.514	2426
283.573	4477
283.631	2960
283.690	1456
283.749	1628
283.808	5686
283.866	7242
283.925	1835
283.984	2222
284.043	3696
284.101	3346
284.160	2008
284.219	4391
284.277	2926
284.336	5156
284.395	21237
284.453	17468
284.512	4167
284.570	7043
284.629	5423
284.688	4525
284.746	3909
284.805	5640
284.863	6745
284.922	8571
284.981	8788
285.039	13621
285.098	21764
285.156	60340
285.215	163877
285.273	156884
285.332	67350
285.390	31393
285.449	18492
285.507	12081
285.566	8490
285.624	6990
285.683	5366
285.741	4890
285.799	4251
285.858	3800
285.916	3197
285.975	2786
286.033	1664
286.091	1693
286.150	1294
286.208	2186
286.267	2570
286.325	2652
286.383	5507
286.442	4242
286.500	838
286.558	1060
286.616	658
286.675	2574
286.733	1836
286.791	1865
286.850	2343
286.908	3996
286.966	7783
287.024	3084
287.083	697
287.141	1442
287.199	1693
287.257	3905
287.315	1864
287.374	2638
287.432	8744
287.490	6106
287.548	3279
287.606	2140
287.664	1825
287.723	4570
287.781	6250
287.839	3451
287.897	4218
287.955	6698
288.013	10524
288.071	22119
288.129	90143
288.187	237428
288.245	106172
288.303	34417
288.361	17927
288.419	12217
288.477	8547
288.535	5420
288.593	4226
288.651	3741
288.709	2067
288.767	2224
288.825	1793
288.883	2142
288.941	1917
288.999	1837
289.057	1482
289.115	1178
289.173	806
289.231	2188
289.289	1649
289.346	629
289.404	1555
289.462	3994
289.520	4445
289.578	1840
289.636	1059
289.694	407
289.751	248
289.809	623
289.867	817
289.925	1864
289.983	2589
290.040	1052
290.098	738
290.156	2119
290.214	2377
290.271	454
290.329	920
290.387	201
290.444	367
290.502	656
290.560	561
290.617	665
290.675	591
290.733	951
290.790	1648
290.848	1177
290.906	1103
290.963	1788
291.021	1026
291.078	1386
291.136	1668
291.194	8696
291.251	21004
291.309	4857
291.366	1256
291.424	870
291.481	1699
291.539	274
291.596	867
291.654	616
291.711	-209
291.769	1292
291.826	3412
291.884	2396
291.941	721
291.999	626
292.056	2157
292.114	1470
292.171	506
292.228	672
292.286	899
292.343	4065
292.401	5340
292.458	3120
292.515	1060
292.573	2055
292.630	1326
292.687	2208
292.745	1408
292.802	3368
292.859	9429
292.917	20849
292.974	11159
293.031	3315
293.089	1842
293.146	1151
293.203	735
293.260	798
293.318	2297
293.375	3993
293.432	2466
293.489	1291
293.546	1077
293.604	2543
293.661	9562
293.718	32087
293.775	14973
293.832	6167
293.889	3670
293.947	4238
294.004	2521
294.061	3086
294.118	7601
294.175	18901
294.232	23239
294.289	8140
294.346	3879
294.403	2956
294.460	3172
294.517	1490
294.574	2078
294.631	2042
294.688	2474
294.745	8636
294.802	36482
294.859	40865
294.916	12781
294.973	7526
295.030	5764
295.087	4925
295.144	2093
295.201	2835
295.258	2234
295.315	3486
295.372	12663
295.429	27304
295.486	10903
295.542	5159
295.599	16518
295.656	29571
295.713	18326
295.770	26159
295.827	9942
295.883	4682
295.940	2846
295.997	7208
296.054	6210
296.111	2979
296.167	2285
296.224	2060
296.281	1883
296.338	1794
296.394	1033
296.451	2795
296.508	11243
296.564	22079
296.621	13126
296.678	27642
296.734	40371
296.791	14214
296.848	7406
296.904	7330
296.961	17817
297.018	31339
297.074	22879
297.131	8256
297.187	5505
297.244	7368
297.301	28648
297.357	54323
297.414	17185
297.470	7282
297.527	4096
297.583	3285
297.640	2909
297.696	3104
297.753	1949
297.809	2306
297.866	585
297.922	1871
297.979	1458
298.035	2568
298.092	4062
298.148	17643
298.204	16803
298.261	6421
298.317	12077
298.374	36709
298.430	20442
298.486	7913
298.543	5680
298.599	4604
298.656	5277
298.712	11624
298.768	34811
298.824	25112
298.881	7415
298.937	3522
298.993	3068
299.050	4417
299.106	3521
299.162	3106
299.218	2830
299.275	1745
299.331	2831
299.387	5687
299.443	29477
299.500	28333
299.556	8512
299.612	4782
299.668	3979
299.724	2060
299.780	2773
299.837	2520
299.893	4562
299.949	24168
300.005	25619
300.061	21781
300.117	41787
300.173	19745
300.229	7088
300.285	9318
300.341	10779
300.397	5328
300.453	2547
300.510	2518
300.566	1963
300.622	3119
300.678	5492
300.734	17226
300.790	22077
300.845	30367
300.901	15192
300.957	21890
301.013	18147
301.069	5751
301.125	3834
301.181	4973
301.237	3057
301.293	2005
301.349	2285
301.405	1388
301.461	1287
301.516	2769
301.572	2528
301.628	6402
301.684	5969
301.740	10031
301.796	18725
301.851	12516
301.907	19758
301.963	18257
302.019	30532
302.074	88643
302.130	83598
302.186	35695
302.242	15008
302.297	10053
302.353	9258
302.409	18980
302.464	16190
302.520	12103
302.576	31450
302.631	36899
302.687	19930
302.743	8166
302.798	4932
302.854	3647
302.910	3466
302.965	4629
303.021	9233
303.076	8833
303.132	10627
303.187	14004
303.243	6444
303.299	3669
303.354	2571
303.410	3281
303.465	2587
303.521	3507
303.576	2699
303.632	3354
303.687	7875
303.743	27515
303.798	22982
303.853	9001
303.909	4741
303.964	3842
304.020	7129
304.075	10443
304.130	8118
304.186	16541
304.241	17772
304.297	13145
304.352	5552
304.358	5436
304.407	4492
304.449	3127
304.463	2671
304.518	3817
304.539	3607
304.573	3268
304.629	3095
304.630	3169
304.684	6771
304.720	15980
304.739	20511
304.794	31706
304.811	26742
304.850	15000
304.902	6309
304.905	5756
304.960	4025
304.992	4014
305.015	4001
305.071	3138
305.083	2957
305.126	2230
305.173	1524
305.181	1426
305.236	1920
305.264	2256
305.292	2588
305.347	3052
305.354	3113
305.402	3559
305.445	3721
305.457	3750
305.512	5004
305.535	5257
305.567	5658
305.622	4696
305.626	4916
305.678	10680
305.716	25446
305.733	30507
305.788	32881
305.807	27592
305.843	19303
305.897	27739
305.898	27815
305.953	26912
305.988	17510
306.008	12648
306.063	6707
306.078	5932
306.118	4220
306.168	3109
306.173	3013
306.228	2394
306.259	2418
306.283	2535
306.338	2130
306.349	2313
306.393	2968
306.440	3507
306.448	3626
306.503	3744
306.530	4161
306.558	6209
306.613	16527
306.620	17569
306.668	22084
306.711	28443
306.723	29148
306.778	21447
306.801	15913
306.833	10163
306.888	4813
306.892	4669
306.943	3616
306.982	3018
306.997	2939
307.052	3466
307.072	3333
307.107	3619
307.162	6228
307.163	6255
307.217	10641
307.253	14573
307.272	15179
307.327	14358
307.343	12803
307.381	10035
307.434	7959
307.436	8226
307.491	19198
307.524	29321
307.546	30948
307.600	26110
307.614	22315
307.655	12971
307.704	7172
307.710	7129
307.765	9622
307.795	12680
307.819	15431
307.874	25842
307.885	25916
307.929	19030
307.975	12105
307.984	12231
308.038	16160
308.065	19697
308.093	36722
308.148	81122
308.156	91715
308.202	136710
308.246	159617
308.257	155208
308.312	77944
308.336	52244
308.366	39046
308.421	24422
308.426	23067
308.475	14599
308.517	10205
308.530	9215
308.585	7590
308.607	7268
308.639	8086
308.694	9732
308.697	9930
308.748	22465
308.787	35732
308.803	34966
308.857	23308
308.877	17984
308.912	14181
308.967	11635
308.967	11626
309.021	16063
309.058	19770
309.076	25856
309.130	48202
309.148	57144
309.185	111749
309.238	208940
309.239	209274
309.293	212044
309.328	179386
309.348	151808
309.402	66917
309.418	47018
309.457	31555
309.508	19269
309.511	18895
309.566	16210
309.598	15326
309.620	16737
309.674	23024
309.688	24668
309.729	22389
309.778	16276
309.783	15917
309.837	12268
309.868	10807
309.892	14573
309.946	25584
309.959	29195
310.001	37509
310.049	43025
310.055	41564
310.109	23744
310.139	13369
310.163	9945
310.218	5921
310.229	5227
310.272	4675
310.319	4714
310.326	4666
310.381	4439
310.409	4336
310.435	4340
310.489	4209
310.499	4212
310.543	4526
310.589	4931
310.598	4893
310.652	4857
310.679	4454
310.706	3660
310.760	2285
310.769	2097
310.814	2043
310.859	2016
310.868	2059
310.923	2118
310.948	2270
310.977	2817
311.031	3801
311.038	3933
311.085	3168
311.128	2253
311.139	2358
311.193	3151
311.218	3389
311.247	3240
311.301	3180
311.308	3137
311.356	3277
311.398	3530
311.410	3378
311.464	2620
311.488	2251
311.518	2417
311.572	2669
311.578	2707
311.626	3566
311.668	4327
311.680	4613
311.734	5736
311.758	6275
311.788	5765
311.842	4755
311.847	4640
311.896	7498
311.937	10041
311.950	9526
312.004	7108
312.027	6031
312.058	5040
312.112	3281
312.117	3109
312.165	3610
312.207	4048
312.297	7204
312.386	4307
312.476	3380
312.566	7196
312.656	3183
312.745	2939
312.835	3876
312.925	3973
313.015	4847
313.104	4958
313.194	2739
313.284	2586
313.374	4308
313.463	3353
313.553	2583
313.643	1678
313.732	1988
313.822	2024
313.912	3082
314.001	3350
314.091	4454
314.180	6374
314.270	4856
314.360	6724
314.449	4278
314.539	2695
314.628	2978
314.718	3370
314.808	6290
314.897	2425
314.987	2138
315.076	3641
315.166	5170
315.255	6090
315.345	5040
315.434	6035
315.524	5889
315.613	5473
315.703	5397
315.792	4888
315.881	4862
315.971	2909
316.060	12760
316.150	24437
316.239	25078
316.328	6625
316.418	3660
316.507	2482
316.597	4530
316.686	3491
316.775	11391
316.865	25756
316.954	3792
317.043	1440
317.133	2585
317.222	2377
317.311	2339
317.400	1664
317.490	4907
317.579	2990
317.668	2860
317.757	3092
317.847	4775
317.936	7993
318.025	9030
318.114	4028
318.203	3557
318.293	6204
318.382	10061
318.471	10023
318.560	19451
318.649	47824
318.738	6677
318.828	5435
318.917	5611
319.006	9478
319.095	28033
319.184	62962
319.273	25659
319.362	11392
319.451	4258
319.540	3566
319.629	10406
319.718	14830
319.807	6709
319.896	20108
319.985	73506
320.074	17520
320.163	7142
320.252	14841
320.341	11045
320.430	7321
320.519	8089
320.608	4520
320.697	3686
320.786	3371
320.875	5177
320.964	6564
321.053	9850
321.142	15704
321.230	14631
321.319	13312
321.408	30250
321.497	10678
321.586	12144
321.675	23889
321.764	16841
321.852	10563
321.941	17624
322.030	9166
322.119	13666
322.207	34820
322.296	33183
322.385	12258
322.474	12204
322.562	36884
322.651	16283
322.740	12781
322.829	23221
322.917	33605
323.006	11953
323.095	10554
323.183	9151
323.272	13367
323.361	30718
323.449	92926
323.538	25674
323.626	73250
323.715	32557
323.804	16650
323.892	66287
323.981	24480
324.069	8925
324.158	40383
324.246	27645
324.335	8157
324.424	9650
324.512	4618
324.601	5759
324.689	5446
324.778	10789
324.866	21055
324.954	5122
325.043	4884
325.131	15496
325.220	28395
325.308	31936
325.397	22228
325.485	10033
325.574	2899
325.662	3519
325.750	2969
325.839	3251
325.927	2592
326.015	3849
326.104	11759
326.192	14061
326.280	3377
326.369	2767
326.457	4934
326.545	8758
326.634	3119
326.722	2039
326.810	2507
326.898	2124
326.987	2622
327.075	7993
327.163	11724
327.251	4770
327.340	3297
327.428	3210
327.516	2108
327.604	3261
327.692	3775
327.781	6106
327.869	11760
327.957	5366
328.045	3899
328.133	3489
328.221	5977
328.309	3394
328.397	2670
328.485	4339
328.574	5555
328.662	18643
328.750	12462
328.838	5483
328.926	2780
329.014	2412
329.102	4089
329.190	15176
329.278	6763
329.366	2422
329.454	2613
329.542	2214
329.630	1140
329.718	3164
329.806	2506
329.893	4609
329.981	2986
330.069	3705
330.157	14640
330.245	41179
330.333	17084
330.421	3430
330.509	5320
330.597	23073
330.684	13362
330.772	6456
330.860	11492
330.948	14842
331.036	4469
331.123	2144
331.211	2350
331.299	4205
331.387	12858
331.475	18839
331.562	5327
331.650	2323
331.738	3451
331.825	7159
331.913	2379
332.001	2263
332.089	4912
332.176	13357
332.264	39492
332.352	23218
332.439	4820
332.527	4209
332.614	3609
332.702	6704
332.790	2366
332.877	16130
332.965	30490
333.052	5038
333.140	5547
333.228	11622
333.315	3331
333.403	4805
333.490	21941
333.578	12373
333.665	8837
333.753	5050
333.840	2377
333.928	5086
334.015	21720
334.103	29870
334.190	82732
334.278	14696
334.365	6918
334.452	3777
334.540	2406
334.627	5984
334.715	8700
334.802	19607
334.889	126363
334.977	89230
335.064	7030
335.151	4000
335.239	4236
335.326	7650
335.413	42732
335.501	45350
335.588	4455
335.675	3213
335.762	5329
335.850	11007
335.937	5643
336.024	25101
336.111	110775
336.199	30134
336.286	4265
336.373	2661
336.460	1695
336.547	2402
336.635	3458
336.722	3215
336.809	2514
336.896	5474
336.983	23420
337.070	58391
337.157	79003
337.245	77120
337.332	44779
337.419	4878
337.506	3368
337.593	4747
337.680	20946
337.767	55466
337.854	12621
337.941	19204
338.028	27543
338.115	6355
338.202	8239
338.289	21800
338.376	76380
338.463	18315
338.550	36744
338.637	31808
338.724	17057
338.811	24760
338.898	4124
338.984	2825
339.071	3132
339.158	5274
339.245	10717
339.332	6651
339.419	18653
339.506	13772
339.593	1379
339.679	2702
339.766	1525
339.853	4030
339.940	7196
340.027	2620
340.113	2880
340.200	3579
340.287	3304
340.374	3942
340.460	6107
340.547	2072
340.634	4783
340.720	22096
340.807	10065
340.894	2108
340.980	1421
341.067	1446
341.154	2249
341.240	4523
341.327	9076
341.414	2723
341.500	2173
341.587	2671
341.674	2454
341.760	6581
341.847	6315
341.933	2101
342.020	159
342.106	1549
342.193	2059
342.279	5204
342.366	3969
342.452	6612
342.539	2856
342.625	9219
342.712	22288
342.798	7759
342.885	2614
342.971	837
343.058	416
343.144	1778
343.230	815
343.317	2040
343.403	1367
343.490	1173
343.576	286
343.662	2080
343.749	1399
343.835	3875
343.921	6561
344.008	55354
344.094	107187
344.180	18673
344.267	7755
344.353	34375
344.439	33991
344.525	9744
344.612	4003
344.698	3945
344.784	1844
344.870	1679
344.957	1516
345.043	4084
345.129	2475
345.215	6226
345.301	2618
345.387	1550
345.474	293
345.560	1635
345.646	2769
345.732	2425
345.818	1730
345.904	1507
345.990	2413
346.076	4194
346.162	9620
346.249	3114
346.335	973
346.421	1593
346.507	14001
346.593	43626
346.679	7197
346.765	2240
346.851	1656
346.937	1376
347.023	2061
347.108	2656
347.194	1719
347.280	2031
347.366	1538
347.452	12239
347.538	53188
347.624	37026
347.710	30376
347.796	4222
347.882	2595
347.967	2750
348.053	3858
348.139	1773
348.225	806
348.311	703
348.397	1088
348.482	2497
348.568	2089
348.654	913
348.740	149
348.825	-5
348.911	4086
348.997	27878
349.083	47358
349.168	6452
349.254	1995
349.340	2172
349.425	1156
349.511	3494
349.597	2706
349.682	7798
349.768	28502
349.854	10900
349.939	2407
350.025	1514
350.110	1325
350.196	411
350.282	-94
350.367	1309
350.453	6497
350.538	6103
350.624	2641
350.709	3236
350.795	810
350.880	911
350.966	2220
351.051	6032
351.137	3706
351.222	2218
351.308	8285
351.393	21853
351.479	4181
351.564	1094
351.649	1467
351.735	262
351.820	120
351.906	1272
351.991	3074
352.076	16644
352.162	19651
352.247	3126
352.332	1973
352.418	4565
352.503	7207
352.588	35031
352.673	21638
352.759	4874
352.844	1369
352.929	2802
353.014	2860
353.100	2390
353.185	4438
353.270	6541
353.355	7392
353.441	2145
353.526	4007
353.611	7305
353.696	6821
353.781	4657
353.866	731
353.952	2268
354.037	6908
354.122	16438
354.207	12770
354.292	4246
354.377	1090
354.462	2254
354.547	2278
354.632	1509
354.717	4575
354.802	4256
354.887	1197
354.972	2485
355.057	851
355.142	509
355.227	2445
355.312	3909
355.397	9241
355.482	25087
355.567	9551
355.652	9228
355.737	9527
355.822	33501
355.907	21988
355.991	3167
356.076	1481
356.161	1822
356.246	1053
356.331	1992
356.416	7447
356.501	61159
356.585	52990
356.670	4530
356.755	3805
356.840	5746
356.924	41634
357.009	132628
357.094	41673
357.179	7842
357.263	4973
357.348	6306
357.433	5555
357.517	4753
357.602	3045
357.687	2086
357.771	5223
357.856	13434
357.941	8603
358.025	32202
358.110	125705
358.195	50565
358.279	5258
358.364	5016
358.448	22637
358.533	58177
358.617	40033
358.702	40614
358.787	12875
358.871	7309
358.956	5354
359.040	782
359.125	258
359.209	2095
359.294	6796
359.378	10016
359.462	4956
359.547	4181
359.631	2669
359.716	1157
359.800	2422
359.885	4967
359.969	1464
360.053	2518
360.138	1389
360.222	3429
360.306	6697
360.391	4697
360.475	10592
360.559	19731
360.644	20309
360.728	14178
360.812	34083
360.896	84235
360.981	31734
361.065	14897
361.149	3977
361.233	3788
361.318	1472
361.402	2467
361.486	3008
361.570	1519
361.654	3138
361.739	11034
361.823	58116
361.907	79618
361.991	10191
362.075	6573
362.159	13060
362.243	8718
362.327	4464
362.411	5508
362.495	4243
362.580	2844
362.664	463
362.748	1288
362.832	665
362.916	664
363.000	8085
363.084	51898
363.168	88326
363.252	17052
363.336	5441
363.420	12231
363.503	54786
363.587	56948
363.671	7216
363.755	4780
363.839	7338
363.923	2931
364.007	7253
364.091	9199
364.175	20322
364.258	79254
364.342	30908
364.426	8250
364.510	4126
364.594	8397
364.677	16790
364.761	75305
364.845	46778
364.929	12345
365.013	9201
365.096	8951
365.180	10136
365.264	24375
365.347	83047
365.431	32141
365.515	6616
365.598	1850
365.682	3899
365.766	7495
365.849	10256
365.933	3395
366.017	7660
366.100	4965
366.184	1186
366.267	3300
366.351	-11
366.435	965
366.518	381
366.602	689
366.685	1418
366.769	1811
366.852	7149
366.936	10849
367.019	5306
367.103	5014
367.186	11921
367.270	2197
367.353	502
367.436	1105
367.520	9
367.603	2197
367.687	4097
367.770	7906
367.853	5188
367.937	22361
368.020	32396
368.104	6344
368.187	6359
368.270	9291
368.353	8246
368.437	20230
368.520	53578
368.603	24586
368.687	24883
368.770	41447
368.853	7922
368.936	10565
369.020	9983
369.103	2663
369.186	1485
369.269	2090
369.352	5939
369.436	8053
369.519	4165
369.602	193
369.685	4042
369.768	2210
369.851	2763
369.934	394
370.018	2605
370.101	6771
370.184	6641
370.267	3901
370.350	6320
370.433	12142
370.516	36374
370.599	39353
370.682	8721
370.765	21590
370.848	30547
370.931	54839
371.014	20431
371.097	2287
371.180	2235
371.263	782
371.346	-236
371.429	2062
371.511	1304
371.594	4599
371.677	8687
371.760	12288
371.843	8564
371.926	48850
372.009	95916
372.091	28290
372.174	23702
372.257	54281
372.340	18734
372.423	15905
372.505	18120
372.588	7058
372.671	17661
372.754	53156
372.836	25048
372.919	26964
373.002	47875
373.085	10701
373.167	7382
373.250	23077
373.332	51879
373.415	75023
373.498	134394
373.580	43992
373.663	60812
373.746	77635
373.828	15443
373.911	7156
373.993	10865
374.076	48827
374.159	44215
374.241	17477
374.324	44496
374.406	27958
374.489	46359
374.571	117594
374.654	42051
374.736	25293
374.819	76080
374.901	105937
374.983	98491
375.066	14516
375.148	6583
375.231	40877
375.313	72482
375.395	22639
375.478	3196
375.560	2657
375.643	5034
375.725	26194
375.807	95547
375.890	85426
375.972	42506
376.054	22646
376.136	41168
376.219	16729
376.301	29973
376.383	77340
376.465	26516
376.548	14474
376.630	23765
376.712	65544
376.794	26675
376.877	2838
376.959	1565
377.041	2830
377.123	9181
377.205	11056
377.287	560
377.369	1511
377.452	970
377.534	2314
377.616	1459
377.698	872
377.780	-343
377.862	563
377.944	1679
378.026	147
378.108	252
378.190	752
378.272	902
378.354	101
378.436	652
378.518	3520
378.600	18118
378.682	14125
378.764	29904
378.846	22135
378.928	6276
379.010	7331
379.091	3903
379.173	1730
379.255	701
379.337	2670
379.419	15193
379.501	42654
379.583	15970
379.664	3510
379.746	9818
379.828	29910
379.910	40234
379.991	32051
380.073	4676
380.155	2947
380.237	1695
380.318	926
380.400	1134
380.482	5647
380.564	8003
380.645	7355
380.727	6366
380.809	3959
380.890	1903
380.972	448
381.053	997
381.135	3195
381.217	10204
381.298	29201
381.380	12967
381.461	14143
381.543	66959
381.624	74262
381.706	10049
381.787	5823
381.869	6247
381.951	32591
382.032	106667
382.113	61698
382.195	9594
382.276	6952
382.358	20166
382.439	57371
382.521	69814
382.602	98526
382.684	43871
382.765	73636
382.846	66343
382.928	64350
383.009	31481
383.090	25130
383.172	101743
383.253	146283
383.334	59721
383.416	83475
383.497	38993
383.578	11022
383.659	21716
383.741	94552
383.822	230371
383.903	110897
383.984	52640
384.066	101425
384.147	56713
384.228	9751
384.309	6143
384.390	3780
384.471	1837
384.553	4434
384.634	6480
384.715	6607
384.796	2078
384.877	5493
384.958	26918
385.039	30548
385.120	7674
385.201	5140
385.282	5937
385.363	7439
385.444	3968
385.525	11221
385.606	45140
385.687	37541
385.768	7625
385.849	12366
385.930	52011
386.011	82635
386.092	18405
386.173	3543
386.254	2807
386.335	3209
386.416	3745
386.496	18282
386.577	28799
386.658	10807
386.739	5470
386.820	6782
386.901	4226
386.981	3932
387.062	2466
387.143	6169
387.224	27795
387.304	25378
387.385	8090
387.466	3685
387.547	6627
387.627	3014
387.708	13337
387.789	55960
387.869	65086
387.950	15264
388.031	1267
388.111	2204
388.192	12653
388.273	20677
388.353	9207
388.434	3858
388.514	11861
388.595	56191
388.676	65668
388.756	28242
388.837	25155
388.917	13575
388.998	882
389.078	2404
389.159	1610
389.239	422
389.320	4134
389.400	3192
389.480	14189
389.561	32613
389.641	14531
389.722	4641
389.802	7018
389.883	16106
389.963	41244
390.043	27322
390.124	8066
390.204	12041
390.284	31787
390.365	21522
390.445	42835
390.525	111769
390.605	88121
390.686	17361
390.766	5259
390.846	2863
390.927	546
391.007	1204
391.087	3345
391.167	2208
391.247	1686
391.328	8133
391.408	11438
391.488	6946
391.568	-630
391.648	2721
391.728	3936
391.808	4772
391.888	4443
391.969	17081
392.049	26794
392.129	11878
392.209	15331
392.289	35284
392.369	19874
392.449	19012
392.529	9191
392.609	5954
392.689	9838
392.769	33943
392.849	26847
392.929	21976
393.009	50119
393.089	28854
393.169	6553
393.248	22282
393.328	118338
393.408	117439
393.488	19099
393.568	5118
393.648	3851
393.728	1435
393.807	1567
393.887	2845
393.967	2917
394.047	4528
394.127	6561
394.206	15297
394.286	73402
394.366	291018
394.446	288861
394.525	59818
394.605	12542
394.685	12416
394.764	30165
394.844	50743
394.924	31330
395.003	7071
395.083	4147
395.163	4018
395.242	3952
395.322	3718
395.402	1991
395.481	6246
395.561	20984
395.640	51004
395.720	34393
395.799	59899
395.879	45999
395.958	25372
396.038	108905
396.117	383455
396.197	386723
396.276	106806
396.356	31165
396.435	21561
396.515	10756
396.594	7329
396.673	10811
396.753	33488
396.832	105779
396.912	90864
396.991	24940
397.070	5749
397.150	1820
397.229	2544
397.308	1405
397.388	689
397.467	1678
397.546	829
397.625	-1154
397.705	3941
397.784	2405
397.863	944
397.942	420
398.022	2509
398.101	19761
398.180	53972
398.259	26839
398.338	5218
398.417	2553
398.497	1786
398.576	2249
398.655	97
398.734	1061
398.813	2374
398.892	19465
398.971	58306
399.050	26495
399.129	1549
399.208	1355
399.287	924
399.366	418
399.445	1021
399.524	885
399.603	590
399.682	3460
399.761	18530
399.840	63412
399.919	46256
399.998	4829
400.077	-1
400.156	-506
400.235	2623
400.313	664
400.392	2408
400.471	16180
400.550	23651
400.629	5371
400.708	2925
400.786	3060
400.865	11648
400.944	12192
401.023	5395
401.102	196
401.180	720
401.259	1546
401.338	2388
401.416	2524
401.495	1795
401.574	2987
401.652	1048
401.731	2682
401.810	1243
401.888	481
401.967	2
402.046	272
402.124	3346
402.203	3274
402.281	2429
402.360	3538
402.438	14521
402.517	9782
402.596	3431
402.674	1900
402.753	963
402.831	931
402.910	1672
402.988	10612
403.066	33012
403.145	17747
403.223	10489
403.302	24608
403.380	19834
403.459	16330
403.537	5896
403.615	1522
403.694	-1316
403.772	816
403.850	555
403.929	321
404.007	49
404.085	4213
404.164	3007
404.242	346
404.320	6299
404.398	17312
404.477	27961
404.555	83873
404.633	70564
404.711	16206
404.789	6651
404.868	-70
404.946	525
405.024	-541
405.102	-183
405.180	-710
405.258	-860
405.336	817
405.415	834
405.493	4011
405.571	3281
405.649	-536
405.727	327
405.805	2579
405.883	2534
405.961	2566
406.039	3506
406.117	296
406.195	2437
406.273	20433
406.351	67540
406.429	39740
406.507	5944
406.585	1683
406.663	1919
406.740	1911
406.818	1503
406.896	-12
406.974	2237
407.052	5645
407.130	41080
407.208	52408
407.285	9352
407.363	221
407.441	116
407.519	-175
407.596	196
407.674	3776
407.752	10995
407.830	14813
407.907	8351
407.985	760
408.063	728
408.141	-164
408.218	3223
408.296	954
408.373	685
408.451	1208
408.529	252
408.606	-388
408.684	318
408.762	-785
408.839	-1150
408.917	-628
408.994	-727
409.072	-1694
409.149	-826
409.227	-86
409.304	-557
409.382	-411
409.459	-634
409.537	-544
409.614	-117
409.692	-1214
409.769	-225
409.846	362
409.924	2331
410.001	-1489
410.079	-155
410.156	740
410.233	300
410.311	822
410.388	-76
410.465	-28
410.543	-1182
410.620	259
410.697	426
410.775	233
410.852	-1568
410.929	464
411.006	1433
411.083	110
411.161	332
411.238	2840
411.315	1970
411.392	-253
411.469	975
411.547	40
411.624	-1447
411.701	-583
411.778	1145
411.855	2962
411.932	911
412.009	-576
412.086	-88
412.163	1169
412.240	1506
412.317	2248
412.394	1492
412.471	-270
412.548	-601
412.625	-785
412.702	1562
412.779	2521
412.856	1204
412.933	-530
413.010	-396
413.087	1356
413.164	13865
413.241	17085
413.318	2356
413.395	2437
413.471	1951
413.548	774
413.625	938
413.702	-220
413.779	968
413.855	-465
413.932	-1050
414.009	-1673
414.086	17
414.162	757
414.239	2357
414.316	14762
414.393	30162
414.469	8101
414.546	-629
414.623	-1001
414.699	137
414.776	-109
414.853	-335
414.929	-320
415.006	374
415.082	1589
415.159	314
415.236	-115
415.312	871
415.389	1566
415.465	2300
415.542	1230
415.618	322
415.695	2098
415.771	908
415.848	398
415.924	562
416.000	66
416.077	575
416.153	-1215
416.230	-1145
416.306	-248
416.383	-776
416.459	633
416.535	-792
416.612	-1026
416.688	-763
416.764	-787
416.841	-598
416.917	-754
416.993	-500
417.069	535
417.146	1487
417.222	2080
417.298	402
417.374	-27
417.451	450
417.527	345
417.603	-222
417.679	545
417.755	-643
417.831	-1394
417.908	-833
417.984	-1050
418.060	-977
418.136	2399
418.212	3430
418.288	229
418.364	160
418.440	-418
418.516	1926
418.592	3852
418.668	6639
418.744	8150
418.820	5193
418.896	647
418.972	-1359
419.048	85
419.124	3858
419.200	642
419.276	-33
419.352	-2196
419.428	-366
419.504	-997
419.579	1384
419.655	-72
419.731	473
419.807	4757
419.883	9080
419.959	5627
420.034	1287
420.110	4399
420.186	17643
420.262	13225
420.337	779
420.413	571
420.489	251
420.565	185
420.640	-295
420.716	413
420.792	-1959
420.867	-6
420.943	-984
421.019	603
421.094	306
421.170	-837
421.245	-650
421.321	-483
421.397	-652
421.472	1016
421.548	3300
421.623	2727
421.699	720
421.774	134
421.850	290
421.925	1531
422.001	358
422.076	21
422.152	-140
422.227	441
422.302	702
422.378	1251
422.453	1420
422.529	6044
422.604	35909
422.679	82991
422.755	38786
422.830	5276
422.905	551
422.981	-286
423.056	-1455
423.131	-503
423.207	-571
423.282	-156
423.357	4274
423.432	1827
423.508	2705
423.583	7110
423.658	4886
423.733	1020
423.808	1325
423.883	1650
423.959	645
424.034	186
424.109	771
424.184	-683
424.259	-568
424.334	-736
424.409	-964
424.484	-382
424.559	-618
424.634	-867
424.709	827
424.784	1503
424.859	-7
424.934	1808
425.009	13157
425.084	19555
425.159	5973
425.234	143
425.309	-831
425.384	2016
425.459	3673
425.534	1215
425.609	137
425.683	-744
425.758	-143
425.833	-209
425.908	1302
425.983	8342
426.058	21537
426.132	8827
426.207	1564
426.282	3570
426.357	2375
426.431	-396
426.506	588
426.581	-350
426.655	284
426.730	-483
426.805	-625
426.879	849
426.954	372
427.029	3734
427.103	25160
427.178	56583
427.253	24151
427.327	2306
427.402	3342
427.476	8147
427.551	3124
427.625	252
427.700	2056
427.774	-770
427.849	2042
427.923	-254
427.998	-1338
428.072	-457
428.147	3498
428.221	8028
428.296	9324
428.370	2144
428.444	1043
428.519	4572
428.593	11125
428.667	10134
428.742	11717
428.816	8648
428.890	15523
428.965	14921
429.039	10707
429.113	12643
429.188	3566
429.262	-713
429.336	3677
429.410	9971
429.485	6766
429.559	9495
429.633	6430
429.707	-186
429.781	5362
429.855	23165
429.930	30669
430.004	33085
430.078	58531
430.152	38063
430.226	10071
430.300	7168
430.374	-47
430.448	2372
430.522	19787
430.596	53909
430.670	27879
430.744	34215
430.818	55583
430.892	11815
430.966	540
431.040	186
431.114	-701
431.188	-581
431.262	-259
431.336	101
431.410	4887
431.484	14920
431.557	8207
431.631	-562
431.705	-450
431.779	389
431.853	5002
431.927	2566
432.000	-352
432.074	-612
432.148	1359
432.222	391
432.295	-225
432.369	-717
432.443	3212
432.516	26925
432.590	59083
432.664	21396
432.737	1084
432.811	-1696
432.885	49
432.958	-763
433.032	-810
433.106	-1612
433.179	-920
433.253	-1502
433.326	-1526
433.400	-1073
433.473	-968
433.547	-1485
433.620	-185
433.694	929
433.767	2197
433.841	-362
433.914	-527
433.988	-1049
434.061	-381
434.134	-1489
434.208	-1500
434.281	-1023
434.355	-1589
434.428	-404
434.501	-635
434.575	-744
434.648	-1226
434.721	-1518
434.795	-561
434.868	-1481
434.941	-1738
435.014	-1100
435.088	-1008
435.161	-1070
435.234	760
435.307	386
435.381	188
435.454	-664
435.527	-986
435.600	-1329
435.673	-1103
435.746	-1017
435.819	-787
435.892	-1269
435.966	-920
436.039	-1039
436.112	-650
436.185	-1328
436.258	-366
436.331	-2850
436.404	-1561
436.477	-1662
436.550	-1470
436.623	-1184
436.696	-351
436.769	-261
436.842	-128
436.915	-331
436.987	434
437.060	-671
437.133	-1108
437.206	-1746
437.279	-645
437.352	-1734
437.425	-1420
437.498	-357
437.570	1845
437.643	1277
437.716	-331
437.789	-1317
437.861	171
437.934	2497
438.007	533
438.080	-741
438.152	-228
438.225	3630
438.298	35917
438.370	87554
438.443	32812
438.516	3597
438.588	63
438.661	-1402
438.734	-503
438.806	-347
438.879	522
438.951	69
439.024	912
439.096	-1245
439.169	-817
439.241	-704
439.314	-650
439.386	1187
439.459	3576
439.531	4265
439.604	1006
439.676	-1029
439.749	-1039
439.821	-876
439.893	-692
439.966	-935
440.038	-928
440.110	-423
440.183	-259
440.255	-1219
440.327	846
440.400	14055
440.472	55246
440.544	33003
440.617	2907
440.689	1132
440.761	1204
440.833	2269
440.905	937
440.978	-527
441.050	-492
441.122	-312
441.194	-1333
441.266	-1482
441.338	-828
441.411	1859
441.483	15289
441.555	21939
441.627	4114
441.699	2282
441.771	2988
441.843	-94
441.915	-697
441.987	-1385
442.059	-947
442.131	436
442.203	1070
442.275	1497
442.347	1521
442.419	-863
442.491	621
442.563	1716
442.635	5609
442.706	14362
442.778	10450
442.850	-81
442.922	-374
442.994	123
443.066	1859
443.137	-440
443.209	-743
443.281	-472
443.353	1501
443.425	3919
443.496	4945
443.568	2794
443.640	1369
443.711	-708
443.783	-867
443.855	-1047
443.926	-1393
443.998	-174
444.070	2258
444.141	96
444.213	1086
444.285	2262
444.356	2508
444.428	2671
444.499	-272
444.571	-1844
444.642	-1108
444.714	-737
444.785	864
444.857	3128
444.928	10651
445.000	5433
445.071	6087
445.143	7334
445.214	2150
445.285	4448
445.357	15323
445.428	12167
445.500	16569
445.571	16898
445.642	6243
445.714	10480
445.785	17086
445.856	3549
445.928	1586
445.999	1108
446.070	314
446.141	699
446.213	2645
446.284	112
446.355	1748
446.426	381
446.497	578
446.569	2250
446.640	5001
446.711	1806
446.782	567
446.853	2810
446.924	2195
446.995	-12
447.066	993
447.138	3064
447.209	1740
447.280	-956
447.351	-744
447.422	-1065
447.493	926
447.564	1391
447.635	1551
447.706	178
447.777	-943
447.847	-963
447.918	-915
447.989	1287
448.060	2334
448.131	7301
448.202	6280
448.273	2901
448.344	863
448.414	228
448.485	-359
448.556	-532
448.627	-579
448.698	-332
448.768	-846
448.839	126
448.910	3008
448.981	2368
449.051	32
449.122	-548
449.193	-1044
449.263	145
449.334	-250
449.405	209
449.475	2929
449.546	2421
449.616	4313
449.687	3249
449.758	429
449.828	-1204
449.899	-204
449.969	-741
450.040	-720
450.110	1792
450.181	2261
450.251	-714
450.322	-428
450.392	-142
450.463	76
450.533	-665
450.604	-824
450.674	-445
450.744	-202
450.815	-1138
450.885	-412
450.955	-630
451.026	-828
451.096	-114
451.166	1412
451.237	4865
451.307	14110
451.377	4634
451.447	-379
451.518	-217
451.588	-62
451.658	-305
451.728	2270
451.799	14735
451.869	17092
451.939	3194
452.009	36
452.079	-754
452.149	56
452.219	3794
452.289	18361
452.360	13097
452.430	881
452.500	593
452.570	1164
452.640	1207
452.710	8300
452.780	15126
452.850	8568
452.920	6439
452.990	2558
453.060	846
453.129	1920
453.199	3357
453.269	21831
453.339	45736
453.409	69687
453.479	67761
453.549	101261
453.619	104209
453.688	42384
453.758	5431
453.828	1543
453.898	798
453.968	1051
454.037	-39
454.087	609
454.107	863
454.168	-41
454.177	-185
454.247	176
454.249	161
454.316	-684
454.330	-228
454.386	1360
454.411	3916
454.456	8060
454.492	10563
454.525	12874
454.574	5996
454.595	3021
454.655	1633
454.665	1424
454.734	1079
454.736	1211
454.804	4468
454.817	6783
454.873	16047
454.898	17307
454.943	19628
454.979	13348
455.013	7839
455.060	4285
455.082	2689
455.141	2630
455.152	2564
455.221	11568
455.222	11743
455.291	21863
455.303	20607
455.360	15211
455.384	17980
455.430	22504
455.465	18120
455.499	14030
455.546	14814
455.569	14947
455.627	10447
455.638	9753
455.707	1435
455.708	1445
455.777	423
455.789	457
455.846	563
455.869	480
455.916	360
455.950	715
455.985	992
456.031	963
456.054	971
456.112	105
456.124	-59
456.193	758
456.193	742
456.262	1487
456.274	1750
456.332	2800
456.355	2875
456.401	3052
456.436	2421
456.470	1689
456.516	711
456.540	308
456.597	370
456.609	370
456.678	-415
456.678	-432
456.747	73
456.759	15
456.817	94
456.840	109
456.886	-227
456.920	-72
456.955	303
457.001	300
457.024	238
457.082	903
457.093	1044
457.162	3228
457.163	3244
457.232	4731
457.243	4195
457.301	1969
457.324	1525
457.370	802
457.405	708
457.439	497
457.485	198
457.508	59
457.566	679
457.577	800
457.646	680
457.647	690
457.715	883
457.727	846
457.784	599
457.808	934
457.853	1467
457.889	1169
457.922	877
457.969	877
457.991	897
458.050	1067
458.060	1052
458.129	1744
458.130	1731
458.198	524
458.211	457
458.267	372
458.292	559
458.336	844
458.372	860
458.405	911
458.453	1178
458.474	1246
458.533	1731
458.543	1878
458.611	2855
458.614	2894
458.680	2059
458.694	1696
458.749	1164
458.775	1181
458.818	923
458.855	900
458.887	1095
458.936	1058
458.955	985
459.016	1317
459.024	1369
459.093	2037
459.097	2017
459.162	1136
459.177	1293
459.230	2270
459.257	2357
459.299	2155
459.338	2374
459.368	2501
459.418	2335
459.437	2230
459.499	1689
459.505	1643
459.574	1686
459.579	1671
459.643	1570
459.659	1710
459.711	2119
459.740	2292
459.780	2477
459.820	2306
459.849	2265
459.900	2546
459.917	2553
459.981	2708
459.986	2709
460.054	2230
460.061	2225
460.123	2819
460.141	3042
460.191	3525
460.222	3682
460.260	3654
460.302	4269
460.328	4121
460.382	3040
460.397	3003
460.462	2253
460.465	2242
460.534	2652
460.543	2753
460.602	4928
460.623	5873
460.671	8095
460.703	10774
460.739	10606
460.783	8370
460.808	7701
460.864	3909
460.876	3361
460.944	2172
460.945	2165
461.013	2855
461.024	2939
461.081	2627
461.104	2692
461.150	2817
461.184	2618
461.218	2499
461.264	2358
461.286	2403
461.345	2400
461.355	2374
461.423	2695
461.425	2692
461.491	2799
461.505	2957
461.559	6679
461.585	8256
461.628	11302
461.665	15389
461.696	16426
461.745	20672
461.764	19827
461.825	8153
461.832	7748
461.901	3714
461.905	3716
461.969	3042
461.985	2836
462.037	3165
462.065	3457
462.105	4083
462.145	4769
462.173	5933
462.225	8000
462.241	8741
462.305	13929
462.310	13659
462.378	8432
462.385	7394
462.446	4617
462.465	4225
462.514	3079
462.545	2810
462.582	3064
462.625	3351
462.650	3327
462.705	3199
462.718	3256
462.785	3829
462.786	3859
462.854	5307
462.865	5674
462.922	7063
462.945	7655
462.990	6599
463.025	4783
463.058	3967
463.104	3034
463.126	2794
463.184	2916
463.194	3052
463.262	3669
463.264	3707
463.330	3407
463.344	3196
463.398	3796
463.424	4241
463.466	4226
463.504	4192
463.533	4301
463.583	4206
463.601	4202
463.663	4191
463.669	4379
463.737	7112
463.743	7335
463.805	10237
463.823	11131
463.873	16060
463.903	19346
463.940	18923
463.982	19476
464.008	17115
464.062	8460
464.076	7861
464.142	4724
464.144	4664
464.211	3849
464.221	3838
464.279	4361
464.301	4446
464.347	4742
464.381	5015
464.414	5322
464.461	5828
464.482	5816
464.540	6135
464.550	6083
464.617	4768
464.620	4726
464.685	6172
464.699	6493
464.753	7485
464.779	8098
464.820	8696
464.859	9109
464.888	8575
464.938	7596
464.956	7882
465.018	8945
465.023	8821
465.091	6928
465.098	6713
465.158	6166
465.177	6008
465.226	6287
465.257	6472
465.293	7079
465.336	7816
465.361	8294
465.416	9311
465.428	10092
465.495	14324
465.496	14388
465.563	20665
465.575	21829
465.631	24323
465.654	25613
465.698	17256
465.734	9046
465.765	8152
465.813	6799
465.833	6457
465.893	6300
465.900	6273
465.968	5957
465.972	5926
466.035	5793
466.052	5737
466.102	6138
466.131	6357
466.170	6026
466.210	5620
466.237	5955
466.290	6682
466.304	6817
466.369	7272
466.372	7283
466.439	7244
466.449	7220
466.506	9067
466.528	9764
466.573	14862
466.607	18651
466.641	23146
466.687	29379
466.708	30848
466.766	35187
466.775	32579
466.842	12266
466.845	11280
466.909	9168
466.925	8766
466.977	8633
467.004	8631
467.044	9349
467.083	10053
467.111	10803
467.163	12145
467.178	12293
467.242	12816
467.245	12783
467.312	11638
467.321	11468
467.379	11050
467.400	10868
467.446	11589
467.480	12076
467.559	10882
467.638	10024
467.717	10147
467.796	11340
467.875	10973
467.955	11025
468.034	20801
468.113	36193
468.192	46734
468.271	10843
468.350	9512
468.429	9195
468.508	7981
468.588	8772
468.667	8564
468.746	8189
468.825	8563
468.904	9141
468.983	10788
469.062	14493
469.141	16366
469.220	8092
469.299	9402
469.378	8948
469.456	12299
469.535	10556
469.614	10421
469.693	10588
469.772	13427
469.851	17502
469.930	10981
470.009	9324
470.088	8873
470.166	10009
470.245	11054
470.324	10920
470.403	9515
470.482	9098
470.560	8971
470.639	8991
470.718	10099
470.797	9048
470.875	11741
470.954	13566
471.033	14133
471.111	8430
471.190	7955
471.269	6768
471.347	7759
471.426	8297
471.505	10891
471.583	10181
471.662	9499
471.740	9463
471.819	8615
471.898	8742
471.976	8284
472.055	8461
472.133	10158
472.212	11710
472.290	10795
472.369	8850
472.447	8579
472.526	6539
472.604	9012
472.683	8355
472.761	8669
472.839	7689
472.918	8369
472.996	7777
473.075	9599
473.153	8850
473.231	7723
473.310	9448
473.388	8074
473.466	8260
473.545	10192
473.623	11605
473.701	10577
473.780	7896
473.858	7642
473.936	9208
474.014	8000
474.093	9584
474.171	13035
474.249	16004
474.327	10042
474.405	6970
474.484	7862
474.562	6637
474.640	6982
474.718	8208
474.796	7354
474.874	7305
474.952	6484
475.030	6717
475.108	6988
475.187	7133
475.265	8982
475.343	11323
475.421	11541
475.499	7028
475.577	7871
475.655	12139
475.733	19964
475.811	30804
475.889	26887
475.966	14740
476.044	8366
476.122	9577
476.200	12664
476.278	9601
476.356	7102
476.434	9174
476.512	9487
476.590	11301
476.667	10168
476.745	7513
476.823	8391
476.901	7779
476.979	8191
477.056	6971
477.134	8512
477.212	7698
477.290	7042
477.367	6974
477.445	7978
477.523	6855
477.601	6974
477.678	8312
477.756	9336
477.834	9276
477.911	7220
477.989	7761
478.066	7145
478.144	8640
478.222	9236
478.299	12891
478.377	9156
478.454	6348
478.532	7110
478.609	6823
478.687	7750
478.764	6272
478.842	6777
478.919	6879
478.997	7587
479.074	6960
479.152	8728
479.229	9471
479.307	5882
479.384	6176
479.461	6387
479.539	6666
479.616	7920
479.694	6237
479.771	7131
479.848	7226
479.926	9997
480.003	10510
480.080	6022
480.157	6714
480.235	5643
480.312	5773
480.389	8640
480.467	12214
480.544	12606
480.621	7857
480.698	7453
480.775	7987
480.853	8671
480.930	6318
481.007	7606
481.084	7984
481.161	7810
481.238	8812
481.315	6378
481.392	6526
481.470	7595
481.547	6590
481.624	5638
481.701	7137
481.778	7086
481.855	8077
481.932	11769
482.009	18125
482.086	9294
482.163	7131
482.240	10131
482.317	13797
482.393	9483
482.470	6937
482.547	7872
482.624	5937
482.701	6321
482.778	6299
482.855	5594
482.932	5554
483.009	5360
483.085	6558
483.162	5917
483.239	6350
483.316	5880
483.393	5976
483.469	6388
483.546	7643
483.623	7394
483.699	6553
483.776	7325
483.853	7518
483.930	15192
484.006	29881
484.083	47312
484.160	25806
484.236	38139
484.313	27502
484.389	20796
484.466	19195
484.543	17353
484.619	18265
484.696	19935
484.772	19956
484.849	21007
484.925	17476
485.002	18442
485.078	18765
485.155	18886
485.231	16833
485.308	16708
485.384	17333
485.461	22114
485.537	31242
485.614	31673
485.690	16958
485.766	15762
485.843	17112
485.919	22552
485.995	19636
486.072	15990
486.148	15570
486.224	15243
486.301	15791
486.377	17138
486.453	15837
486.530	18184
486.606	24775
486.682	25908
486.758	28504
486.835	29836
486.911	25561
486.987	39747
487.063	36625
487.139	40311
487.215	27598
487.292	17470
487.368	15790
487.444	16368
487.520	18145
487.596	15426
487.672	18272
487.748	19680
487.824	20284
487.900	15237
487.976	15129
488.052	15972
488.128	18286
488.204	15247
488.280	16451
488.356	20513
488.432	35306
488.508	45269
488.584	16319
488.660	14273
488.736	14577
488.812	14900
488.888	18023
488.964	25445
489.039	44311
489.115	55578
489.191	27841
489.267	15732
489.343	13820
489.418	12653
489.494	12016
489.570	10555
489.646	13313
489.722	12636
489.797	13483
489.873	21404
489.949	37775
490.024	25701
490.100	12793
490.176	13440
490.251	13482
490.327	16953
490.403	10824
490.478	10967
490.554	9870
490.629	10870
490.705	9867
490.781	12405
490.856	11054
490.932	11769
491.007	11744
491.083	12076
491.158	11484
491.234	17791
491.309	30230
491.385	24244
491.460	10206
491.536	13177
491.611	10967
491.686	11922
491.762	15423
491.837	28289
491.913	43243
491.988	59212
492.063	58594
492.139	18923
492.214	12581
492.289	8906
492.365	9268
492.440	10855
492.515	9878
492.590	9772
492.666	8231
492.741	13994
492.816	16569
492.891	9269
492.967	8974
493.042	8778
493.117	8195
493.192	8405
493.267	15009
493.342	33876
493.418	35058
493.493	9468
493.568	7705
493.643	8549
493.718	10859
493.793	15206
493.868	14231
493.943	8980
494.018	7869
494.093	7746
494.168	7304
494.243	6630
494.318	7004
494.393	7590
494.468	6569
494.543	7652
494.618	8258
494.693	6785
494.768	7104
494.842	7811
494.917	7429
494.992	7719
495.067	6067
495.142	6769
495.217	7079
495.292	7655
495.366	8651
495.441	10551
495.516	14234
495.591	21285
495.665	62623
495.740	110901
495.815	30736
495.890	10283
495.964	8126
496.039	11508
496.114	8725
496.188	9874
496.263	9950
496.338	9674
496.412	10318
496.487	12747
496.561	12186
496.636	11913
496.710	9598
496.785	10980
496.860	12480
496.934	9344
497.009	10094
497.083	10244
497.158	10161
497.232	13044
497.307	14046
497.381	11495
497.455	13425
497.530	17484
497.604	11979
497.679	13718
497.753	22176
497.827	24054
497.902	20256
497.976	29819
498.050	94894
498.125	272199
498.199	195688
498.273	27549
498.348	22227
498.422	18560
498.496	17045
498.570	15276
498.645	11906
498.719	12694
498.793	15823
498.867	24932
498.941	41202
499.016	132588
499.090	262057
499.164	59452
499.238	11264
499.312	10393
499.386	12768
499.460	11753
499.534	11532
499.609	14871
499.683	19418
499.757	21533
499.831	65735
499.905	192931
499.979	128864
500.053	23696
500.127	21136
500.201	15217
500.275	12482
500.349	11483
500.422	11883
500.496	19308
500.570	44896
500.644	115207
500.718	166711
500.792	26114
500.866	12598
500.940	15738
501.013	12312
501.087	13847
501.161	21827
501.235	29523
501.309	75599
501.382	171913
501.456	108644
501.530	32881
501.603	48759
501.677	15407
501.751	8755
501.825	13991
501.898	29074
501.972	65429
502.046	29200
502.119	14168
502.193	34463
502.266	66720
502.340	27231
502.413	36044
502.487	56367
502.561	26769
502.634	10224
502.708	8947
502.781	7489
502.855	8231
502.928	5828
503.002	7300
503.075	7051
503.149	7366
503.222	7462
503.295	8341
503.369	9878
503.442	17120
503.516	59767
503.589	113492
503.662	57521
503.736	26358
503.809	54726
503.882	41268
503.956	68095
504.029	43263
504.102	14565
504.175	12404
504.249	7078
504.322	9524
504.395	9122
504.468	6115
504.542	7661
504.615	5519
504.688	5946
504.761	6202
504.834	7874
504.907	9456
504.980	13390
505.053	7470
505.127	8548
505.200	11626
505.273	10333
505.346	6877
505.419	5390
505.492	6763
505.565	4491
505.638	5623
505.711	5089
505.784	4135
505.857	4983
505.930	7637
506.003	4670
506.076	7851
506.149	7629
506.221	8609
506.294	12055
506.367	34359
506.440	89451
506.513	33226
506.586	8982
506.659	6458
506.731	5680
506.804	7238
506.877	8063
506.950	6993
507.022	5666
507.095	7454
507.168	8664
507.241	5503
507.313	4814
507.386	4992
507.459	7872
507.531	5394
507.604	4597
507.677	5886
507.749	4112
507.822	8933
507.894	14762
507.967	16448
508.040	8872
508.112	8777
508.185	8571
508.257	8055
508.330	10874
508.402	7766
508.475	7077
508.547	8055
508.620	8706
508.692	11707
508.765	7999
508.837	6025
508.909	7250
508.982	6336
509.054	7241
509.127	6136
509.199	5785
509.271	5562
509.344	5228
509.416	5874
509.488	6476
509.560	6946
509.633	6119
509.705	7619
509.777	7679
509.849	10715
509.922	5833
509.994	6299
510.066	7224
510.138	8399
510.210	16934
510.283	13300
510.355	10362
510.427	9767
510.499	8797
510.571	9169
510.643	8696
510.715	14504
510.787	9637
510.859	8815
510.931	10192
511.003	13073
511.076	11246
511.148	6868
511.219	8561
511.291	14489
511.363	13785
511.435	7394
511.507	6484
511.579	8262
511.651	7967
511.723	6642
511.795	6255
511.867	7232
511.939	9659
512.010	17313
512.082	12467
512.154	5945
512.226	8465
512.298	13813
512.369	16296
512.441	12717
512.513	12112
512.585	8250
512.656	10273
512.728	10456
512.800	7526
512.871	8265
512.943	8197
513.015	6735
513.086	8573
513.158	9123
513.230	8283
513.301	11838
513.373	13007
513.444	8415
513.516	7371
513.588	7916
513.659	8367
513.731	9670
513.802	8734
513.874	19466
513.945	22849
514.016	8080
514.088	8031
514.159	7416
514.231	12618
514.302	14178
514.374	11242
514.445	10620
514.516	21495
514.588	12291
514.659	11322
514.730	18128
514.802	13016
514.873	7981
514.944	9600
515.016	10486
515.087	9767
515.158	14211
515.229	17576
515.301	8311
515.372	10952
515.443	6859
515.514	7471
515.585	5606
515.656	7595
515.728	7581
515.799	6174
515.870	8215
515.941	8816
516.012	7212
516.083	11673
516.154	10413
516.225	13868
516.296	11913
516.367	9501
516.438	10601
516.509	12138
516.580	20566
516.651	62556
516.722	149829
516.793	47168
516.864	18068
516.935	17201
517.006	18731
517.077	27388
517.148	62334
517.219	179264
517.289	184840
517.360	90406
517.431	27730
517.502	10099
517.573	11652
517.643	11418
517.714	13685
517.785	12960
517.856	12268
517.926	15526
517.997	15455
518.068	15243
518.138	20893
518.209	34989
518.280	142845
518.350	336974
518.421	74690
518.492	15304
518.562	12129
518.633	12006
518.703	8595
518.774	12039
518.845	13350
518.915	12954
518.986	11562
519.056	15483
519.127	26328
519.197	45686
519.268	99380
519.338	44646
519.408	15010
519.479	16739
519.549	11083
519.620	11373
519.690	7937
519.760	8300
519.831	8602
519.901	8889
519.971	8125
520.042	8589
520.112	9393
520.182	11862
520.253	10565
520.323	8506
520.393	11584
520.463	13863
520.534	9785
520.604	17843
520.674	11158
520.744	11454
520.814	19981
520.885	19752
520.955	46152
521.025	113619
521.095	28823
521.165	9705
521.235	8342
521.305	6561
521.375	7921
521.445	8780
521.515	9381
521.585	11827
521.655	8042
521.725	10369
521.795	7598
521.865	5845
521.935	14288
522.005	8476
522.075	5527
522.145	8571
522.215	7479
522.285	11313
522.355	18042
522.424	29700
522.494	18922
522.564	12800
522.634	28643
522.704	56353
522.774	14427
522.843	7978
522.913	7370
522.983	8796
523.053	6516
523.122	7546
523.192	11554
523.262	35024
523.331	19705
523.401	6833
523.471	5305
523.540	6706
523.610	4666
523.680	5955
523.749	6273
523.819	8856
523.888	6631
523.958	5379
524.027	6587
524.097	6620
524.166	6743
524.236	5745
524.305	7931
524.375	5157
524.444	5053
524.514	7611
524.583	6748
524.653	6966
524.722	8828
524.791	5418
524.861	6715
524.930	4139
524.999	5407
525.069	9131
525.138	7293
525.207	7690
525.277	7421
525.346	5952
525.415	5626
525.484	6256
525.554	6739
525.623	6011
525.692	5670
525.761	5440
525.830	4927
525.900	5414
525.969	7346
526.038	5898
526.107	5021
526.176	10711
526.245	7791
526.314	11098
526.383	11331
526.452	7093
526.522	19035
526.591	24636
526.660	21814
526.729	10647
526.797	16498
526.867	51609
526.935	164054
527.004	78751
527.073	20713
527.142	6513
527.211	6644
527.280	7993
527.349	7026
527.418	3380
527.487	5734
527.555	4407
527.624	3697
527.693	2921
527.762	6131
527.831	2621
527.899	5028
527.968	4116
528.037	4191
528.106	6419
528.174	10071
528.243	8706
528.312	14392
528.380	11929
528.449	4691
528.518	5335
528.586	2446
528.655	4889
528.723	3595
528.792	3180
528.861	3885
528.929	2842
528.998	4725
529.066	3819
529.135	4039
529.203	3717
529.272	2332
529.340	4200
529.409	5433
529.477	3473
529.545	5768
529.614	7119
529.682	5161
529.751	7107
529.819	9849
529.887	4376
529.956	3845
530.024	4277
530.092	2731
530.161	5500
530.229	6674
530.297	3112
530.365	5076
530.434	2927
530.502	2817
530.570	3008
530.638	2271
530.707	4636
530.775	6053
530.843	3685
530.911	3432
530.979	3291
531.047	3848
531.115	3984
531.183	3714
531.252	3327
531.320	3632
531.388	2995
531.456	4024
531.524	2384
531.592	4495
531.660	6587
531.728	2987
531.796	3087
531.864	3902
531.932	4015
532.000	3865
532.067	3482
532.135	4176
532.203	6889
532.271	6055
532.339	13288
532.407	24004
532.475	9612
532.542	6571
532.610	7824
532.678	14259
532.746	71295
532.814	101338
532.881	16415
532.949	5105
533.017	5628
533.084	4740
533.152	4017
533.220	4031
533.287	3390
533.355	4063
533.423	3482
533.490	2994
533.558	4350
533.625	5669
533.693	4386
533.761	5393
533.828	5190
533.896	4391
533.963	11223
534.031	12663
534.098	15104
534.166	6109
534.233	3970
534.300	5806
534.368	4626
534.435	4562
534.503	4466
534.570	4371
534.637	2742
534.705	3639
534.772	3584
534.840	2958
534.907	7005
534.974	5736
535.041	4427
535.109	5165
535.176	3114
535.243	4567
535.310	5165
535.378	4299
535.445	3258
535.512	3669
535.579	4663
535.646	3008
535.714	5145
535.781	6486
535.848	5971
535.915	6650
535.982	5918
536.049	5309
536.116	5902
536.183	4305
536.250	5121
536.317	4358
536.384	5756
536.451	8052
536.518	7575
536.585	4870
536.652	8186
536.719	10212
536.786	5872
536.853	5905
536.920	11467
536.987	15636
537.053	19430
537.120	69472
537.187	32370
537.254	4495
537.321	3731
537.388	5307
537.454	3904
537.521	3756
537.588	4214
537.654	6173
537.721	5490
537.788	6406
537.855	4205
537.921	4755
537.988	4131
538.055	5436
538.121	3910
538.188	4749
538.254	8280
538.321	15009
538.388	7927
538.454	4504
538.521	4513
538.587	5119
538.654	3724
538.720	4219
538.787	3893
538.853	5425
538.920	7103
538.986	5727
539.053	5145
539.119	5671
539.185	4512
539.252	8024
539.318	8602
539.385	8549
539.451	5385
539.517	7073
539.583	10279
539.650	24752
539.716	38838
539.782	8369
539.849	4490
539.915	5580
539.981	5166
540.047	6388
540.114	4588
540.180	7310
540.246	4880
540.312	8547
540.378	16134
540.444	14074
540.510	25014
540.576	44944
540.643	9355
540.709	3729
540.775	5697
540.841	5551
540.907	9111
540.973	11239
541.039	9332
541.105	9483
541.171	5563
541.237	3904
541.303	6260
541.369	7304
541.435	9371
541.500	13974
541.566	5686
541.632	4406
541.698	4680
541.764	6181
541.830	4380
541.896	4182
541.961	5227
542.027	4416
542.093	5549
542.159	5037
542.224	4839
542.290	10020
542.356	14170
542.421	14586
542.487	7893
542.553	5534
542.618	6950
542.684	5786
542.750	4857
542.815	7647
542.881	16389
542.947	48718
543.012	21324
543.078	5221
543.143	4914
543.209	6373
543.274	5774
543.340	7842
543.405	20928
543.471	20292
543.536	6187
543.602	5602
543.667	4073
543.732	6439
543.798	3847
543.863	6039
543.928	3631
543.994	4594
544.059	4764
544.124	5207
544.190	4057
544.255	5169
544.320	5697
544.386	4567
544.451	8257
544.516	8526
544.581	9692
544.646	34499
544.712	32437
544.777	8168
544.842	7739
544.907	8202
544.972	6533
545.037	6338
545.102	7819
545.168	6908
545.233	8487
545.298	9134
545.363	9452
545.428	10177
545.493	22327
545.558	31640
545.623	10603
545.688	6289
545.753	7746
545.818	7864
545.883	8310
545.947	7013
546.012	9205
546.077	7616
546.142	7031
546.207	6678
546.272	9942
546.337	9599
546.401	7917
546.466	7791
546.531	5667
546.596	7499
546.661	6837
546.725	7253
546.790	5810
546.855	7144
546.919	4743
546.984	6902
547.049	6772
547.113	8456
547.178	5620
547.243	7525
547.307	8525
547.372	8587
547.436	8929
547.501	5960
547.565	7092
547.630	9221
547.695	8016
547.759	9640
547.823	6971
547.888	6687
547.952	5846
548.017	6744
548.081	7070
548.146	10880
548.210	8339
548.274	6385
548.339	5354
548.403	7426
548.468	5450
548.532	5627
548.596	6130
548.660	5407
548.725	7327
548.789	8355
548.853	8156
548.917	7081
548.982	10089
549.046	10398
549.110	5636
549.174	5784
549.238	5846
549.303	4797
549.367	6618
549.431	5377
549.495	5949
549.559	4998
549.623	6649
549.687	8941
549.751	10908
549.815	7003
549.879	6785
549.943	5219
550.007	8072
550.071	8639
550.135	9260
550.199	6761
550.263	6331
550.327	9724
550.391	9566
550.455	7106
550.519	7099
550.582	8005
550.646	10474
550.710	9323
550.774	6914
550.838	7039
550.901	6560
550.965	7918
551.029	6836
551.093	9426
551.156	12480
551.220	26274
551.284	20026
551.347	14365
551.411	36293
551.475	26056
551.538	7411
551.602	6805
551.666	5968
551.729	5006
551.793	7493
551.856	6123
551.920	6097
551.983	6285
552.047	5036
552.110	5680
552.174	5631
552.237	5369
552.301	5533
552.364	5658
552.428	5919
552.491	6542
552.554	5652
552.618	6904
552.681	7244
552.745	6931
552.808	12197
552.871	11138
552.934	6640
552.998	6398
553.061	6926
553.124	7365
553.187	6706
553.251	6359
553.314	7377
553.377	7172
553.440	11957
553.503	29331
553.567	28798
553.630	7773
553.693	6205
553.756	6039
553.819	5896
553.882	5573
553.945	6172
554.008	5053
554.071	4620
554.134	5131
554.197	4379
554.260	5124
554.323	7083
554.386	6655
554.449	5430
554.512	6075
554.575	5268
554.638	6939
554.701	6126
554.764	5842
554.827	5834
554.889	5166
554.952	4758
555.015	4406
555.078	4826
555.141	5917
555.203	5225
555.266	4930
555.329	6289
555.391	5081
555.454	5173
555.517	6225
555.580	5256
555.642	4668
555.705	5574
555.768	5502
555.830	5062
555.893	4868
555.955	4691
556.018	6507
556.080	5081
556.143	5620
556.206	4693
556.268	6420
556.330	5884
556.393	6032
556.455	6360
556.518	10509
556.580	8003
556.643	4258
556.705	5608
556.767	4532
556.830	6147
556.892	7074
556.955	8717
557.017	6883
557.079	5047
557.142	6062
557.204	7442
557.266	14726
557.328	9167
557.391	4405
557.453	4579
557.515	5033
557.577	7176
557.639	5727
557.701	4784
557.764	4495
557.826	4782
557.888	5823
557.950	4615
558.012	4342
558.074	4279
558.136	5883
558.198	6343
558.260	6576
558.322	4147
558.384	4692
558.446	6517
558.508	6207
558.570	7719
558.632	17443
558.694	16823
558.756	8967
558.818	14137
558.880	20966
558.942	6963
559.003	7232
559.065	5063
559.127	4571
559.189	4945
559.251	5105
559.312	5078
559.374	9282
559.436	14700
559.498	7842
559.559	5545
559.621	4625
559.683	7358
559.744	12189
559.806	16209
559.868	12954
559.929	6609
559.991	7410
560.052	7504
560.114	8202
560.176	6932
560.237	9803
560.299	9584
560.360	6051
560.422	6217
560.483	7432
560.545	6807
560.606	6402
560.667	6749
560.729	6481
560.790	6321
560.852	7500
560.913	6917
560.974	6069
561.036	6044
561.097	6360
561.158	6366
561.220	6070
561.281	6296
561.342	6481
561.403	9380
561.465	10381
561.526	25862
561.587	20779
561.648	6850
561.709	6763
561.771	7344
561.832	6758
561.893	6498
561.954	6749
562.015	6967
562.076	6776
562.137	5837
562.198	6441
562.259	6758
562.320	6700
562.381	8320
562.442	8721
562.503	7549
562.564	5926
562.625	7414
562.686	6397
562.747	6668
562.808	6805
562.869	7153
562.930	9749
562.991	8809
563.051	7855
563.112	6547
563.173	6854
563.234	5597
563.294	7519
563.355	6847
563.416	7234
563.477	6466
563.537	7328
563.598	7866
563.659	7451
563.720	6961
563.780	7763
563.841	7941
563.901	7164
563.962	7665
564.023	7394
564.083	6834
564.144	7187
564.204	7528
564.265	7339
564.325	10332
564.386	19326
564.446	12234
564.507	6607
564.567	6140
564.628	7510
564.688	6787
564.749	7275
564.809	8803
564.869	9127
564.930	7372
564.990	7141
565.050	5893
565.111	6655
565.171	6462
565.231	5943
565.292	6834
565.352	6059
565.412	7618
565.472	7338
565.532	8244
565.593	6475
565.653	6505
565.713	6544
565.773	7141
565.833	8401
565.893	8912
565.953	5988
566.013	6712
566.074	7805
566.134	11341
566.194	17436
566.254	13925
566.314	9480
566.374	7292
566.434	7937
566.494	7855
566.554	7270
566.614	7121
566.673	7407
566.733	8307
566.793	7968
566.853	7203
566.913	8347
566.973	8507
567.033	7922
567.092	7776
567.152	7674
567.212	7958
567.272	8291
567.331	8439
567.391	8687
567.451	9339
567.511	13450
567.570	10852
567.630	8353
567.690	7956
567.749	7928
567.809	7811
567.868	9442
567.928	8946
567.988	10292
568.047	10007
568.107	13635
568.166	17874
568.226	28062
568.285	34731
568.345	24007
568.404	17965
568.464	13899
568.523	13824
568.582	15047
568.642	18177
568.701	23627
568.761	39026
568.820	58503
568.879	46719
568.939	30372
568.998	19686
569.057	14448
569.116	12124
569.176	11108
569.235	9150
569.294	9119
569.353	8161
569.413	8441
569.472	8150
569.531	7179
569.590	6918
569.649	6357
569.708	6255
569.767	7064
569.827	8409
569.886	7044
569.945	6480
570.004	6811
570.063	6767
570.122	7594
570.181	8434
570.240	7786
570.299	7411
570.358	6535
570.417	5742
570.475	5766
570.534	6476
570.593	7167
570.652	6293
570.711	6309
570.770	7091
570.829	7648
570.887	7057
570.946	7949
571.005	6244
571.064	6428
571.122	6748
571.181	7645
571.240	6074
571.299	5866
571.357	7407
571.416	6758
571.475	8679
571.533	7943
571.592	6161
571.650	7079
571.709	5558
571.768	5667
571.826	5041
571.885	5339
571.943	5801
572.002	5711
572.060	6540
572.119	5303
572.177	5120
572.236	5444
572.294	5070
572.352	5821
572.411	4105
572.469	5125
572.528	4484
572.586	4534
572.644	4938
572.703	5902
572.761	6409
572.819	5062
572.877	4921
572.936	4438
572.994	5387
573.052	5092
573.110	5246
573.169	4983
573.227	3852
573.285	4728
573.343	5419
573.401	5376
573.459	5851
573.517	5480
573.576	4455
573.634	5359
573.692	5035
573.750	6037
573.808	4287
573.866	6079
573.924	7757
573.982	7200
574.040	4213
574.098	5508
574.155	5063
574.213	4325
574.271	5097
574.329	5081
574.387	4708
574.445	4382
574.503	4590
574.560	2898
574.618	3652
574.676	4256
574.734	4207
574.792	4839
574.849	4873
574.907	3972
574.965	4099
575.022	3686
575.080	3618
575.138	4950
575.195	4358
575.253	4515
575.311	4532
575.368	4731
575.426	3637
575.483	5538
575.541	4497
575.598	3982
575.656	4885
575.713	4489
575.771	4687
575.828	4644
575.886	4804
575.943	5624
576.001	5569
576.058	4379
576.115	5163
576.173	6595
576.230	7438
576.287	7653
576.345	7030
576.402	6183
576.459	5356
576.517	6739
576.574	7320
576.631	7085
576.688	5176
576.746	5204
576.803	5838
576.860	5349
576.917	5861
576.974	5190
577.031	5409
577.089	5959
577.146	5333
577.203	6401
577.260	6193
577.317	6387
577.374	7941
577.431	5918
577.488	5341
577.545	4790
577.602	5101
577.659	4821
577.716	5195
577.773	5161
577.830	5061
577.886	4895
577.943	4271
578.000	5312
578.057	5953
578.114	5981
578.171	6307
578.227	7908
578.284	5542
578.341	6076
578.398	5359
578.454	5904
578.511	7222
578.568	7914
578.625	5776
578.681	4217
578.738	4740
578.794	4481
578.851	5141
578.908	5252
578.964	4843
579.021	5414
579.077	4560
579.134	4738
579.190	4936
579.247	5203
579.303	4736
579.360	4894
579.416	4363
579.473	4033
579.529	5039
579.586	4029
579.642	5025
579.698	4958
579.755	4580
579.811	5009
579.867	4678
579.924	4097
579.980	5248
580.036	5663
580.093	7344
580.149	10542
580.205	9340
580.261	7029
580.317	6694
580.374	7197
580.430	7644
580.486	5833
580.542	4896
580.598	4770
580.619	4849
580.654	4992
580.692	4786
580.710	4689
580.765	5272
580.767	5295
580.823	6090
580.838	5754
580.879	4849
580.911	4936
580.935	5025
580.984	4583
580.991	4529
581.047	5164
581.057	5281
581.103	5782
581.130	6128
581.159	6510
581.203	6287
581.215	6227
581.270	6335
581.276	6233
581.326	5297
581.349	5592
581.382	6061
581.422	5324
581.438	5006
581.494	5994
581.494	5984
581.550	5316
581.567	5782
581.606	6818
581.640	6439
581.661	6178
581.713	5718
581.717	5694
581.773	5911
581.786	5897
581.829	5797
581.859	6048
581.885	6288
581.932	6196
581.940	6167
581.996	6052
582.004	6045
582.052	6060
582.077	6015
582.107	6015
582.150	6141
582.163	6138
582.219	5355
582.223	5396
582.274	6174
582.296	6109
582.330	5909
582.368	5773
582.386	5717
582.441	5112
582.441	5111
582.497	5773
582.514	5763
582.552	5866
582.587	6038
582.608	6049
582.659	5202
582.663	5138
582.719	5760
582.732	5695
582.774	5683
582.805	6024
582.830	6194
582.877	5783
582.885	5725
582.941	6306
582.950	6222
582.996	5821
583.023	6165
583.052	6625
583.095	6879
583.107	6963
583.162	7792
583.168	7869
583.218	8236
583.240	7510
583.273	6482
583.313	6157
583.328	6076
583.384	6374
583.385	6351
583.439	5504
583.458	5704
583.494	6061
583.531	5584
583.549	5455
583.603	6318
583.605	6337
583.660	5752
583.676	5800
583.715	6042
583.748	6299
583.770	6443
583.820	6303
583.825	6270
583.881	5796
583.893	5772
583.936	6030
583.965	5823
583.991	5511
584.038	6413
584.046	6586
584.101	5917
584.110	5953
584.156	5933
584.183	5787
584.211	5731
584.255	5691
584.266	5699
584.321	5506
584.328	5616
584.376	6308
584.400	6040
584.431	5824
584.472	5792
584.486	5734
584.541	6056
584.545	6063
584.596	6075
584.617	6104
584.651	6494
584.689	6878
584.706	6914
584.761	6677
584.762	6677
584.816	6786
584.834	6856
584.871	6978
584.906	6933
584.926	6997
584.978	6490
584.980	6462
585.035	6606
585.051	6917
585.090	7808
585.123	7887
585.145	7941
585.195	7142
585.200	7118
585.254	7897
585.267	8273
585.309	9263
585.340	9435
585.364	9268
585.412	7641
585.419	7407
585.473	8216
585.484	8042
585.528	7717
585.556	8064
585.583	8569
585.628	8938
585.637	9044
585.692	11053
585.700	11239
585.747	12010
585.772	11160
585.801	9625
585.845	8673
585.856	8560
585.910	8235
585.917	8253
585.965	8531
585.989	8368
586.019	8285
586.061	8703
586.074	8780
586.128	8527
586.133	8564
586.183	10013
586.205	10575
586.237	10396
586.277	9835
586.292	9954
586.346	10278
586.349	10310
586.401	10429
586.421	10695
586.455	11281
586.493	12062
586.509	13246
586.564	18168
586.565	18358
586.618	28510
586.637	27892
586.672	19834
586.709	13951
586.727	12338
586.781	9936
586.781	9941
586.835	10682
586.853	10851
586.889	10789
586.925	10414
586.944	10476
586.996	10962
586.998	10969
587.052	11491
587.068	11526
587.106	11877
587.140	11980
587.161	11917
587.212	12161
587.215	12193
587.269	12580
587.284	12613
587.323	12524
587.356	12838
587.377	13072
587.427	13032
587.431	13056
587.485	13960
587.499	14144
587.539	14728
587.571	14927
587.593	15149
587.643	16548
587.648	16638
587.702	16935
587.715	17019
587.755	17955
587.786	18881
587.810	19166
587.858	19134
587.864	19291
587.917	21455
587.930	22068
587.971	24402
588.001	25822
588.025	26617
588.073	28334
588.079	28666
588.133	32023
588.145	32759
588.187	35908
588.217	38469
588.241	40823
588.288	45582
588.295	46441
588.348	54125
588.360	55925
588.402	63216
588.431	68435
588.456	73490
588.503	84844
588.510	86789
588.564	103412
588.575	107639
588.617	126569
588.646	141843
588.671	161384
588.718	208071
588.725	219487
588.778	324849
588.789	352163
588.832	546111
588.861	698985
588.886	882284
588.932	1214984
588.939	1230793
588.993	1224906
589.004	1212020
589.047	917854
589.075	705831
589.100	547385
589.147	303946
589.154	290543
589.207	210218
589.218	196053
589.261	184987
589.290	181835
589.314	191048
589.361	218158
589.368	229361
589.421	340213
589.433	369234
589.475	600547
589.504	780912
589.528	925198
589.576	1127692
589.582	1099970
589.635	751830
589.647	676926
589.689	392664
589.718	219336
589.742	178112
589.790	108207
589.795	105153
589.849	80979
589.861	76113
589.902	69520
589.932	63090
589.955	56121
590.004	42840
590.009	42307
590.062	37418
590.075	36178
590.115	32839
590.146	30524
590.168	29722
590.218	27557
590.222	27442
590.275	26223
590.289	25876
590.328	24867
590.360	23758
590.381	23197
590.431	22168
590.435	22102
590.488	20649
590.503	20241
590.541	19840
590.574	19586
590.594	19414
590.645	18619
590.647	18609
590.700	17795
590.716	17681
590.753	17318
590.787	16738
590.806	16492
590.859	16098
590.859	16112
590.912	15883
590.930	15870
590.965	15870
591.001	15735
591.018	15532
591.071	14975
591.072	14954
591.124	15933
591.143	16257
591.177	16004
591.214	15649
591.230	15657
591.283	15618
591.285	15599
591.336	15345
591.356	15239
591.389	15554
591.427	15725
591.442	15296
591.495	13776
591.498	13641
591.547	13576
591.569	13643
591.600	14038
591.640	14371
591.653	14308
591.706	14120
591.711	14073
591.759	14693
591.782	15043
591.811	15764
591.853	16716
591.864	16385
591.917	14503
591.924	14224
591.969	13775
591.995	13499
592.022	13869
592.066	14490
592.075	14757
592.127	16222
592.137	16505
592.180	18052
592.208	18892
592.233	17068
592.279	13575
592.285	13550
592.338	13270
592.350	13192
592.390	12717
592.421	12336
592.443	12473
592.491	12727
592.495	12785
592.548	13370
592.562	13519
592.600	13321
592.633	13113
592.653	12667
592.704	11420
592.705	11517
592.775	13167
592.846	13231
592.916	12373
592.987	13413
593.058	13646
593.128	11727
593.199	12059
593.270	11506
593.341	10984
593.411	12319
593.482	11039
593.553	11782
593.623	10753
593.694	11245
593.764	13021
593.835	11542
593.906	10931
593.976	10945
594.047	11885
594.117	15042
594.188	14049
594.258	11425
594.329	9748
594.399	10706
594.470	10115
594.540	10311
594.611	10616
594.681	10421
594.751	9783
594.822	12477
594.892	12244
594.963	12575
595.033	11480
595.103	11033
595.174	12575
595.244	19535
595.314	25956
595.384	11660
595.455	9911
595.525	10659
595.595	10754
595.665	11630
595.736	10413
595.806	10451
595.876	10453
595.946	9816
596.016	8979
596.087	9650
596.157	9881
596.227	10217
596.297	10025
596.367	11448
596.437	12442
596.507	18473
596.577	22776
596.647	12210
596.717	10125
596.787	8942
596.857	9378
596.927	10150
596.997	9559
597.067	10700
597.137	10899
597.207	10120
597.277	10201
597.347	10368
597.417	9444
597.487	10830
597.557	10593
597.626	11094
597.696	11990
597.766	15583
597.836	20438
597.906	12450
597.975	9680
598.045	9099
598.115	8495
598.185	9997
598.254	11037
598.324	10239
598.394	10159
598.464	10714
598.533	9234
598.603	9925
598.672	9828
598.742	9652
598.812	9344
598.881	9540
598.951	8643
599.020	8416
599.090	9100
599.159	9469
599.229	9169
599.299	8707
599.368	8383
599.437	8697
599.507	9690
599.576	9210
599.646	10090
599.715	9324
599.785	8621
599.854	10671
599.924	11643
599.993	10784
600.062	9064
600.132	8745
600.201	8707
600.270	10129
600.340	9728
600.409	8913
600.478	9092
600.547	9183
600.617	9539
600.686	8827
600.755	9062
600.824	9750
600.894	9747
600.963	7887
601.032	7972
601.101	8584
601.170	8104
601.239	7939
601.308	9556
601.378	8716
601.447	8684
601.516	8080
601.585	9174
601.654	9617
601.723	7882
601.792	8432
601.861	8898
601.930	10427
601.999	8984
602.068	7934
602.137	9427
602.206	8508
602.275	8792
602.343	9718
602.412	9983
602.481	8026
602.550	7983
602.619	7244
602.688	8802
602.756	7474
602.825	8307
602.894	7611
602.963	8076
603.032	7525
603.100	7401
603.169	7778
603.238	7761
603.307	7193
603.375	6650
603.444	6862
603.513	7033
603.581	7225
603.650	7255
603.719	7611
603.787	7505
603.856	7036
603.924	7452
603.993	7491
604.061	6212
604.130	7288
604.198	8025
604.267	7358
604.335	6252
604.404	6690
604.472	6221
604.541	6565
604.609	6277
604.678	6719
604.746	6947
604.815	7057
604.883	6911
604.951	7034
605.020	7073
605.088	6898
605.156	7028
605.225	6879
605.293	6601
605.361	6906
605.429	7604
605.498	6965
605.566	7223
605.634	7895
605.702	7031
605.771	7079
605.839	6607
605.907	6986
605.975	6426
606.043	7050
606.111	6954
606.180	7221
606.248	8189
606.316	8751
606.384	7363
606.452	11046
606.520	10783
606.588	7648
606.656	5285
606.724	7113
606.792	6978
606.860	5875
606.928	6408
606.996	6911
607.064	5990
607.132	5052
607.200	6347
607.267	6065
607.335	5881
607.403	6340
607.471	5588
607.539	6240
607.607	5535
607.674	5804
607.742	6964
607.810	7154
607.878	6705
607.946	5526
608.013	6291
608.081	6460
608.149	5712
608.216	5651
608.284	7097
608.352	6069
608.419	5900
608.487	12634
608.555	8320
608.622	5733
608.690	6289
608.757	6038
608.825	5990
608.893	5842
608.960	7434
609.028	8844
609.095	13606
609.163	7869
609.230	6739
609.298	7470
609.365	5716
609.432	6121
609.500	6858
609.567	6696
609.635	6119
609.702	6607
609.769	7458
609.837	8168
609.904	6370
609.971	5640
610.039	7596
610.106	9006
610.173	12798
610.241	27879
610.308	45204
610.375	31688
610.442	9629
610.509	6759
610.577	6867
610.644	6440
610.711	6054
610.778	5833
610.845	6262
610.912	6605
610.980	7639
611.047	8775
611.114	7371
611.181	5826
611.248	5399
611.315	7044
611.382	5934
611.449	5499
611.516	5977
611.583	6041
611.650	6713
611.717	5648
611.784	5615
611.851	6631
611.918	7157
611.984	7082
612.051	8772
612.118	12942
612.185	24866
612.252	17053
612.319	6361
612.386	6070
612.452	6711
612.519	8066
612.586	13577
612.653	8536
612.719	5979
612.786	6130
612.853	5059
612.919	5403
612.986	6518
613.053	5896
613.120	4959
613.186	4608
613.253	6695
613.319	5879
613.386	6226
613.453	5490
613.519	7040
613.586	8180
613.652	13751
613.719	10418
613.785	8096
613.852	5725
613.918	4903
613.985	7814
614.051	12208
614.118	28866
614.184	27568
614.250	6364
614.317	5272
614.383	5275
614.449	5073
614.516	5796
614.582	6199
614.648	5499
614.715	5726
614.781	5199
614.847	5931
614.914	6120
614.980	5720
615.046	6903
615.112	5098
615.179	5785
615.245	6387
615.311	7233
615.377	10614
615.443	10403
615.509	6704
615.575	7002
615.642	6719
615.708	7279
615.774	6113
615.840	8040
615.906	9326
615.972	11581
616.038	20123
616.104	27323
616.170	36727
616.236	29573
616.302	12177
616.368	8483
616.434	7360
616.500	8195
616.565	8805
616.631	7008
616.697	6769
616.763	8460
616.829	8840
616.895	11267
616.961	10774
617.026	8947
617.092	6821
617.158	7288
617.224	6990
617.289	6836
617.355	6920
617.421	6695
617.487	8258
617.552	6968
617.618	6015
617.684	6073
617.749	8059
617.815	6467
617.880	6832
617.946	6523
618.012	7317
618.077	6511
618.143	6839
618.208	7358
618.274	6959
618.339	6651
618.405	7329
618.470	7650
618.536	8109
618.601	10809
618.667	8440
618.732	8448
618.798	7049
618.863	7844
618.928	7559
618.994	8943
619.059	10281
619.124	13316
619.190	9488
619.255	7241
619.320	8368
619.386	8317
619.451	7023
619.516	8260
619.581	8327
619.647	6892
619.712	6845
619.777	7691
619.842	7658
619.907	7736
619.972	7783
620.038	8157
620.103	7803
620.168	6148
620.233	7879
620.298	7127
620.363	7428
620.428	7325
620.493	7426
620.558	6628
620.623	7152
620.688	7357
620.753	6811
620.818	7412
620.883	6787
620.948	7475
621.013	7749
621.078	7726
621.143	6586
621.207	10305
621.272	8209
621.337	9452
621.402	10603
621.467	15218
621.532	15032
621.596	10596
621.661	9569
621.726	9151
621.791	9309
621.855	9707
621.920	11316
621.985	11345
622.049	14760
622.114	12646
622.179	10898
622.243	11353
622.308	9809
622.373	12285
622.437	10412
622.502	10072
622.566	9530
622.631	10015
622.695	11348
622.760	11013
622.824	10263
622.889	10932
622.953	10305
623.018	15884
623.082	15224
623.147	9916
623.211	9082
623.276	10351
623.340	8548
623.404	9569
623.469	9940
623.533	10031
623.597	8724
623.662	8734
623.726	8452
623.790	9150
623.854	9104
623.919	9484
623.983	8648
624.047	10426
624.111	9117
624.176	8934
624.240	8441
624.304	10323
624.368	9451
624.432	9964
624.496	10399
624.560	10204
624.625	10379
624.689	9504
624.753	8749
624.817	8606
624.881	8432
624.945	9100
625.009	8852
625.073	8781
625.137	9418
625.201	10883
625.265	11663
625.329	8005
625.393	9517
625.456	9783
625.520	9112
625.584	10975
625.648	14010
625.712	25253
625.776	61308
625.839	71142
625.903	24927
625.967	12386
626.031	24222
626.095	38152
626.158	11806
626.222	7584
626.286	8267
626.349	7194
626.413	7143
626.477	9462
626.540	7599
626.604	6996
626.668	7951
626.731	7682
626.795	7961
626.858	7505
626.922	7264
626.986	7169
627.049	5592
627.113	6856
627.176	8312
627.240	6675
627.303	7283
627.366	6803
627.430	7245
627.493	7442
627.557	6449
627.620	8215
627.684	7116
627.747	7621
627.810	4908
627.874	6562
627.937	6132
628.000	8106
628.064	7698
628.127	5094
628.190	6888
628.253	7199
628.317	6307
628.380	6805
628.443	6916
628.506	6965
628.569	6996
628.632	6794
628.696	5740
628.759	6450
628.822	5803
628.885	6046
628.948	6127
629.011	6065
629.074	6081
629.137	5661
629.200	5256
629.263	7791
629.326	5518
629.389	5511
629.452	6009
629.515	6957
629.578	6317
629.641	7288
629.704	6072
629.767	6744
629.830	6084
629.892	5483
629.955	5700
630.018	7431
630.081	6098
630.144	8277
630.207	5978
630.269	7549
630.332	7316
630.395	5925
630.458	5724
630.520	4901
630.583	6204
630.646	5339
630.708	4894
630.771	4806
630.834	6397
630.896	5138
630.959	5095
631.021	4360
631.084	4454
631.146	5858
631.209	7789
631.272	4714
631.334	4753
631.397	5288
631.459	3760
631.522	5062
631.584	4882
631.646	5700
631.709	6462
631.771	6908
631.834	5624
631.896	5340
631.958	4316
632.021	5622
632.083	4006
632.145	4929
632.208	4565
632.270	6241
632.332	3910
632.395	3570
632.457	5107
632.519	4176
632.581	5500
632.643	3383
632.706	4836
632.768	4210
632.830	5585
632.892	4320
632.954	3691
633.016	5741
633.078	4219
633.141	4539
633.203	3525
633.265	4687
633.327	4315
633.389	4153
633.451	6349
633.513	5782
633.575	6334
633.637	5190
633.698	4662
633.760	4230
633.822	4121
633.884	4841
633.946	3539
634.008	3445
634.070	4405
634.132	4829
634.193	3765
634.255	4423
634.317	3154
634.379	4989
634.441	4224
634.502	4121
634.564	4659
634.626	4021
634.687	4321
634.749	4421
634.811	4459
634.873	3186
634.934	3630
634.996	5228
635.057	3833
635.119	3317
635.181	3226
635.242	4808
635.304	2054
635.365	4999
635.427	3183
635.488	4039
635.550	3527
635.611	4401
635.673	1994
635.734	5655
635.796	3872
635.857	4664
635.918	3179
635.980	5274
636.041	2601
636.102	3519
636.164	3233
636.225	4684
636.286	2298
636.348	4528
636.409	3634
636.470	3754
636.531	3801
636.593	4144
636.654	4900
636.715	3648
636.776	3220
636.838	2874
636.899	4273
636.960	3627
637.021	2520
637.082	2601
637.143	4312
637.204	3713
637.265	2419
637.326	2889
637.387	2956
637.448	1575
637.509	3324
637.570	3048
637.631	4260
637.692	2038
637.753	1749
637.814	2923
637.875	2456
637.936	4195
637.997	2337
638.058	2634
638.119	3915
638.179	3175
638.240	2538
638.301	2702
638.362	3425
638.423	1805
638.483	3816
638.544	1730
638.605	2739
638.666	1870
638.726	3866
638.787	3387
638.848	2452
638.908	3101
638.969	3228
639.030	2799
639.090	2448
639.151	2004
639.211	3441
639.272	4015
639.332	6269
639.393	4205
639.453	2563
639.514	2399
639.574	3079
639.635	2728
639.695	3583
639.756	2670
639.816	2435
639.877	3962
639.937	6315
639.997	8205
640.058	3459
640.118	2165
640.178	2673
640.239	1750
640.299	2390
640.359	1606
640.420	2810
640.480	2139
640.540	1843
640.600	2394
640.661	2514
640.721	1541
640.781	4059
640.841	1983
640.901	2969
640.961	2726
641.021	2147
641.082	2018
641.142	4276
641.202	3226
641.262	1236
641.322	3185
641.382	1240
641.442	3667
641.502	2731
641.562	3216
641.622	2036
641.682	2150
641.742	1617
641.802	3586
641.861	2904
641.921	2045
641.981	4120
642.041	3669
642.101	3118
642.161	1790
642.221	1151
642.280	2008
642.340	2269
642.400	846
642.460	3081
642.519	1594
642.579	2265
642.639	2628
642.698	-385
642.758	4184
642.818	2001
642.877	2031
642.937	1906
642.997	3254
643.056	4562
643.116	1397
643.175	3979
643.235	2391
643.294	1443
643.354	1582
643.414	1746
643.473	2513
643.532	1657
643.592	1359
643.651	2940
643.711	4822
643.770	5434
643.830	9804
643.889	22386
643.948	6156
644.008	2404
644.067	1492
644.126	1092
644.186	2335
644.245	3295
644.304	412
644.363	3686
644.423	200
644.482	1702
644.541	1866
644.600	675
644.659	2086
644.719	1460
644.778	2093
644.837	2142
644.896	3038
644.955	5544
645.014	2320
645.073	2452
645.132	1689
645.191	2843
645.250	1091
645.309	3657
645.368	1499
645.427	2391
645.486	550
645.545	2486
645.604	1789
645.663	1394
645.722	1386
645.781	1375
645.840	2229
645.898	1642
645.957	3249
646.016	691
646.075	4163
646.134	4383
646.192	9873
646.251	14260
646.310	2475
646.369	1319
646.427	1898
646.486	488
646.545	1220
646.603	1729
646.662	1791
646.721	2181
646.779	1166
646.838	808
646.896	2403
646.955	343
647.014	1881
647.072	1495
647.131	3666
647.189	1201
647.248	1097
647.306	2133
647.365	2030
647.423	-141
647.481	3389
647.540	238
647.598	1419
647.657	1011
647.715	2073
647.773	810
647.832	1502
647.890	502
647.948	1208
648.007	3230
648.065	448
648.123	1146
648.181	2411
648.240	1692
648.298	1754
648.356	1485
648.414	1582
648.472	1239
648.531	1847
648.589	728
648.647	-34
648.705	1035
648.763	961
648.821	1391
648.879	473
648.937	2009
648.995	2034
649.053	1884
649.111	1136
649.169	2196
649.227	3169
649.285	3527
649.343	8109
649.401	7393
649.459	8370
649.516	7095
649.574	3439
649.632	12059
649.690	13107
649.748	5112
649.806	2863
649.863	5605
649.921	3606
649.979	689
650.037	1766
650.094	-750
650.152	851
650.210	419
650.268	1628
650.325	1718
650.383	740
650.440	657
650.498	2528
650.556	1030
650.613	326
650.671	1365
650.728	1610
650.786	1261
650.843	1079
650.901	-452
650.958	1161
651.016	1352
651.073	1071
651.131	459
651.188	219
651.246	1805
651.303	408
651.360	1109
651.418	1847
651.475	858
651.532	567
651.590	1364
651.647	166
651.704	658
651.762	487
651.819	1605
651.876	952
651.933	1392
651.990	1579
652.048	252
652.105	1179
652.162	1067
652.219	-39
652.276	1014
652.333	1192
652.390	-385
652.448	794
652.505	1683
652.562	790
652.619	1281
652.676	2417
652.733	2747
652.790	1605
652.847	-576
652.904	889
652.961	82
653.017	380
653.074	642
653.131	1791
653.188	-34
653.245	925
653.302	449
653.359	24
653.415	841
653.472	710
653.529	1078
653.586	-340
653.642	139
653.699	967
653.756	-382
653.813	960
653.869	854
653.926	-401
653.983	698
654.039	1269
654.096	72
654.152	1197
654.209	-394
654.266	551
654.322	34
654.379	1860
654.435	1589
654.492	1782
654.548	2679
654.605	4417
654.661	1851
654.717	870
654.774	1225
654.830	1401
654.887	1586
654.943	808
655.000	359
655.056	1654
655.112	1600
655.168	678
655.225	599
655.281	1746
655.337	3032
655.394	5340
655.450	3440
655.506	3006
655.562	4928
655.618	5423
655.675	-41
655.731	1243
655.787	604
655.843	853
655.899	268
655.955	1220
656.011	1257
656.067	-390
656.123	927
656.179	1100
656.235	1752
656.291	-653
656.347	2223
656.403	-294
656.459	1544
656.515	935
656.571	1853
656.627	1574
656.683	1675
656.739	1227
656.795	875
656.850	760
656.906	1176
656.962	1594
657.018	208
657.074	-47
657.129	546
657.185	1545
657.241	659
657.297	753
657.352	1100
657.408	250
657.464	1415
657.519	1093
657.575	282
657.630	1153
657.686	590
657.742	533
657.797	646
657.853	1101
657.908	1001
657.964	-343
658.019	716
658.075	848
658.130	1268
658.186	110
658.241	383
658.297	-38
658.352	707
658.407	438
658.463	99
658.518	1114
658.573	728
658.629	96
658.684	495
658.739	938
658.795	99
658.850	913
658.905	34
658.960	822
659.016	374
659.071	288
659.126	947
659.181	1118
659.236	2640
659.291	2876
659.346	1040
659.401	705
659.457	1170
659.512	1321
659.567	1460
659.622	472
659.677	960
659.732	206
659.787	731
659.842	744
659.897	2168
659.952	1279
660.007	200
660.061	521
660.116	-385
660.171	830
660.226	386
660.281	1335
660.336	766
660.391	1107
660.445	301
660.500	840
660.555	1123
660.610	782
660.664	795
660.719	-50
660.774	588
660.828	589
660.883	112
660.938	1071
660.992	-66
661.047	1127
661.101	101
661.156	541
661.211	441
661.265	990
661.320	-399
661.374	877
661.429	76
661.483	707
661.538	-201
661.592	-94
661.647	587
661.701	273
661.755	221
661.810	830
661.864	408
661.919	272
661.973	779
662.027	309
662.081	-27
662.136	736
662.190	324
662.244	1400
662.299	1023
662.353	722
662.407	17
662.461	454
662.515	459
662.569	561
662.624	1259
662.678	271
662.732	135
662.786	363
662.840	1725
662.894	637
662.948	410
663.002	-180
663.056	974
663.110	-98
663.164	-116
663.218	138
663.272	822
663.326	770
663.380	792
663.434	634
663.488	-582
663.542	1011
663.595	350
663.649	624
663.703	1202
663.757	425
663.811	-248
663.864	-383
663.918	715
663.972	-247
664.026	631
664.079	297
664.133	1294
664.187	-248
664.240	92
664.294	589
664.348	971
664.401	219
664.455	843
664.508	127
664.562	343
664.615	843
664.669	-129
664.722	1226
664.776	519
664.829	387
664.883	-312
664.936	124
664.990	369
665.043	398
665.097	1155
665.150	1402
665.203	41
665.257	927
665.310	946
665.363	816
665.417	1656
665.470	950
665.523	422
665.576	700
665.630	1259
665.683	553
665.736	1447
665.789	699
665.842	151
665.895	1034
665.949	967
666.002	883
666.055	791
666.108	2070
666.161	363
666.214	777
666.267	800
666.320	1442
666.373	764
666.426	1135
666.479	115
666.532	958
666.585	1608
666.638	1819
666.691	733
666.744	1999
666.796	1526
666.849	1278
666.902	1134
666.955	227
667.008	349
667.060	164
667.113	-477
667.166	-495
667.219	1026
667.271	76
667.324	1423
667.377	607
667.430	133
667.482	1336
667.535	478
667.587	1252
667.640	1024
667.693	841
667.745	1976
667.798	3025
667.850	818
667.903	1024
667.955	522
668.008	1616
668.060	1574
668.113	724
668.165	924
668.218	1621
668.270	829
668.322	1031
668.375	-193
668.427	764
668.479	615
668.532	848
668.584	602
668.636	1272
668.689	1844
668.741	464
668.793	1175
668.845	876
668.898	1055
668.950	662
669.002	1084
669.054	371
669.106	716
669.158	1785
669.211	909
669.263	1741
669.315	1919
669.367	2002
669.419	1388
669.471	2366
669.523	1885
669.575	3340
669.627	1933
669.679	1552
669.731	935
669.783	2096
669.835	1959
669.886	1575
669.938	1428
669.990	1337
670.042	1110
670.094	912
670.146	1015
670.197	1375
670.249	2965
670.301	3890
670.353	4969
670.404	8060
670.456	10487
670.508	18454
670.560	31336
670.611	56610
670.663	99616
670.715	241611
670.766	384094
670.818	113992
670.869	18436
670.921	9008
670.972	6868
671.024	3849
671.075	3405
671.127	1711
671.178	2690
671.230	2137
671.281	1415
671.333	1750
671.384	1424
671.436	2126
671.487	1805
671.538	1302
671.590	1838
671.641	1592
671.692	931
671.744	2464
671.795	2445
671.846	1872
671.897	1397
671.949	929
672.000	952
672.051	1311
672.102	1387
672.153	1122
672.204	226
672.256	678
672.307	1606
672.358	1143
672.409	871
672.460	1559
672.511	650
672.562	662
672.613	926
672.664	925
672.715	173
672.766	942
672.817	124
672.868	593
672.919	720
672.970	652
673.021	382
673.071	369
673.122	715
673.173	249
673.224	927
673.275	341
673.326	354
673.376	694
673.427	367
673.478	392
673.528	580
673.579	630
673.630	406
673.680	1572
673.731	436
673.782	244
673.832	606
673.883	797
673.934	694
673.984	341
674.035	155
674.085	1511
674.136	1128
674.186	874
674.237	2060
674.287	2954
674.338	1377
674.388	-107
674.438	108
674.489	750
674.539	93
674.589	421
674.640	1089
674.690	810
674.740	587
674.791	395
674.841	701
674.891	817
674.942	331
674.992	606
675.042	1195
675.092	46
675.142	155
675.193	1252
675.243	114
675.293	762
675.343	-56
675.393	213
675.443	550
675.493	310
675.543	287
675.593	1054
675.643	-263
675.693	570
675.743	864
675.793	374
675.843	265
675.893	-331
675.943	864
675.993	231
676.043	1285
676.093	154
676.142	363
676.192	328
676.242	664
676.292	862
676.341	771
676.391	724
676.441	-11
676.491	850
676.540	-83
676.590	941
676.640	-265
676.689	237
676.739	406
676.789	-390
676.838	659
676.888	290
676.937	-92
676.987	224
677.037	187
677.086	647
677.136	-135
677.185	35
677.235	-855
677.284	498
677.333	-241
677.383	-650
677.432	-174
677.482	-599
677.531	698
677.580	42
677.630	-198
677.679	-441
677.728	-144
677.778	481
677.827	-68
677.876	-276
677.925	-259
677.975	645
678.024	39
678.073	-244
678.122	306
678.171	-228
678.220	210
678.269	197
678.319	159
678.368	-200
678.417	-303
678.466	-390
678.515	567
678.564	443
678.613	383
678.662	171
678.711	350
678.760	-282
678.809	-801
678.857	-562
678.906	-146
678.955	-255
679.004	-365
679.053	-224
679.102	186
679.151	16
679.199	46
679.248	-132
679.297	47
679.346	394
679.394	-390
679.443	43
679.492	321
679.540	-362
679.589	-432
679.638	707
679.686	-42
679.735	-743
679.784	116
679.832	1002
679.881	-877
679.929	657
679.978	-861
680.026	-767
680.075	-392
680.123	-133
680.172	-134
680.220	-770
680.268	-375
680.317	-797
680.365	-840
680.414	-33
680.462	-395
680.510	143
680.559	-572
680.607	-157
680.655	-300
680.703	-681
680.752	-13
680.800	216
680.848	-222
680.896	-513
680.945	63
680.993	-296
681.041	-200
681.089	-367
681.137	-198
681.185	-513
681.233	240
681.258	-190
681.281	-621
681.329	-3
681.377	-786
681.380	-717
681.425	132
681.473	-243
681.502	381
681.521	764
681.569	113
681.617	64
681.624	104
681.665	200
681.713	636
681.745	-133
681.761	-537
681.809	170
681.857	479
681.867	513
681.904	530
681.952	1212
681.989	413
682.000	149
682.048	1396
682.096	703
682.111	700
682.143	632
682.191	439
682.233	933
682.239	983
682.286	790
682.334	837
682.354	863
682.382	874
682.430	767
682.476	870
682.477	851
682.525	1065
682.572	486
682.598	589
682.620	693
682.667	1260
682.715	1547
682.720	1559
682.763	1364
682.810	1302
682.841	1118
682.857	999
682.905	1351
682.952	1465
682.963	1470
683.000	1451
683.047	1164
683.085	1905
683.095	2060
683.142	1299
683.190	903
683.206	959
683.237	1076
683.284	2022
683.328	1683
683.332	1636
683.379	1138
683.426	1515
683.449	1668
683.473	1791
683.521	1699
683.568	1118
683.571	1200
683.615	2125
683.662	1508
683.693	1683
683.709	1726
683.757	1286
683.804	2398
683.814	2311
683.851	1997
683.898	1886
683.936	1889
683.945	1869
683.992	1897
684.039	2119
684.057	2308
684.086	2623
684.133	2088
684.179	2543
684.180	2540
684.227	2753
684.274	2533
684.300	2736
684.321	2854
684.368	1506
684.415	3025
684.422	2864
684.462	1825
684.509	1665
684.543	2509
684.556	2813
684.603	2332
684.649	1649
684.665	2057
684.696	2940
684.743	2089
684.786	2942
684.790	3004
684.837	3112
684.883	3403
684.908	3438
684.930	3443
684.977	3482
685.023	3204
685.029	3301
685.070	3705
685.117	2846
685.150	2659
685.164	2658
685.210	3636
685.257	3994
685.272	4126
685.303	4223
685.350	3778
685.393	3553
685.396	3538
685.443	4025
685.490	4168
685.514	3999
685.536	3756
685.583	3821
685.629	3791
685.636	3808
685.675	3866
685.722	3892
685.757	4164
685.768	4283
685.815	4388
685.861	4222
685.878	4322
685.908	4484
685.954	4850
686.000	5084
686.000	5087
686.047	5737
686.093	5926
686.121	6766
686.139	6935
686.185	5854
686.232	4932
686.242	4868
686.278	4867
686.324	4966
686.363	4199
686.370	4083
686.416	4930
686.463	4954
686.484	4787
686.509	4523
686.555	3786
686.601	4462
686.606	4435
686.647	4310
686.693	4468
686.727	4687
686.739	4775
686.785	4539
686.831	4324
686.848	4608
686.877	5007
686.923	4461
686.969	4412
686.969	4411
687.015	4073
687.061	4552
687.090	4724
687.107	4876
687.153	5054
687.199	5100
687.211	5032
687.245	4837
687.291	4941
687.332	5058
687.336	5066
687.382	5265
687.428	5015
687.453	5380
687.474	5495
687.520	5107
687.565	4812
687.574	4677
687.611	4477
687.657	4701
687.695	4682
687.702	4698
687.748	5181
687.794	5565
687.816	5534
687.839	5268
687.885	5350
687.931	4410
687.937	4414
687.976	4844
688.022	5043
688.058	5367
688.067	5401
688.113	4921
688.158	4909
688.179	5013
688.204	5257
688.249	5056
688.295	5218
688.300	5254
688.340	5470
688.386	5506
688.421	5783
688.431	5850
688.477	5782
688.522	5603
688.542	5694
688.567	5874
688.613	5250
688.658	5606
688.663	5657
688.703	5993
688.749	6105
688.784	5851
688.794	5806
688.839	5980
688.884	6345
688.905	6228
688.930	6029
688.975	5855
689.020	5659
689.026	5697
689.065	6127
689.110	5732
689.146	6100
689.155	6181
689.201	5812
689.246	6089
689.267	5982
689.291	5915
689.336	5858
689.381	6195
689.388	6175
689.426	6094
689.471	6368
689.509	5811
689.516	5722
689.561	6077
689.606	5881
689.630	5993
689.651	6104
689.696	5942
689.741	5785
689.750	5829
689.785	6034
689.830	6006
689.871	5636
689.875	5598
689.920	5757
689.965	6009
689.992	5794
690.010	5797
690.054	6133
690.099	6280
690.112	6383
690.144	6414
690.189	5673
690.233	5664
690.233	5676
690.278	6199
690.323	6312
690.354	6315
690.367	6325
690.412	6461
690.457	6332
690.474	6445
690.501	6558
690.546	6178
690.590	6322
690.595	6272
690.635	6417
690.680	6981
690.716	7514
690.724	7628
690.769	7464
690.813	8642
690.836	8537
690.857	9047
690.902	10474
690.946	12500
690.957	12927
690.991	16970
691.035	22716
691.077	27673
691.080	27670
691.124	25320
691.168	23847
691.198	22872
691.213	21475
691.257	17455
691.301	13302
691.318	11609
691.346	10789
691.390	9278
691.434	8084
691.439	7929
691.478	7759
691.522	7650
691.559	7463
691.567	7508
691.611	7579
691.655	8044
691.680	7971
691.699	7719
691.743	7656
691.787	7298
691.800	7148
691.831	7312
691.875	7746
691.919	8122
691.921	8101
691.964	7729
692.008	8106
692.041	8228
692.052	8290
692.096	8464
692.139	8487
692.162	8531
692.183	8477
692.227	8174
692.271	8233
692.282	8064
692.315	7750
692.359	8020
692.402	7976
692.403	7995
692.447	8242
692.490	8573
692.523	8488
692.534	8441
692.578	8529
692.622	8340
692.643	8377
692.666	8219
692.709	7994
692.753	7093
692.763	7102
692.797	7718
692.840	7553
692.884	8073
692.884	8096
692.928	8326
692.971	8592
693.004	8348
693.015	8251
693.059	8431
693.102	8502
693.124	8362
693.146	8383
693.189	8551
693.233	9034
693.245	9082
693.276	9380
693.320	9902
693.363	10194
693.365	10175
693.407	10355
693.450	10583
693.485	10943
693.493	11305
693.537	13076
693.580	14784
693.605	15856
693.624	17400
693.667	20619
693.710	23909
693.725	25124
693.753	32792
693.797	45036
693.840	57103
693.845	58347
693.883	54676
693.926	50190
693.966	46779
693.970	45884
694.013	35073
694.056	24674
694.086	17327
694.099	16700
694.142	14937
694.185	12796
694.206	11710
694.229	11514
694.272	11350
694.315	11064
694.326	11001
694.358	10969
694.401	10660
694.444	10441
694.446	10396
694.487	10159
694.530	10065
694.566	10173
694.573	10121
694.616	8767
694.659	8424
694.686	7859
694.702	7906
694.745	8116
694.787	8191
694.806	8284
694.830	8268
694.873	8097
694.916	7873
694.926	7803
694.959	8120
695.002	8517
695.044	8866
695.046	8858
695.087	8831
695.130	8842
695.166	8883
695.172	8928
695.215	8845
695.258	8814
695.286	8709
695.301	8601
695.343	8420
695.386	8098
695.406	8008
695.428	8086
695.471	8030
695.514	8125
695.526	8046
695.556	8211
695.599	8780
695.641	8997
695.646	9017
695.684	8697
695.726	8329
695.766	7772
695.769	7801
695.811	7932
695.854	8278
695.886	8405
695.896	8381
695.938	8157
695.981	8046
696.005	7883
696.023	7896
696.065	7840
696.108	7864
696.125	7850
696.150	7971
696.192	8181
696.235	8414
696.245	8402
696.277	8465
696.319	8654
696.361	8759
696.365	8753
696.404	8913
696.446	8981
696.485	8924
696.488	8929
696.530	8711
696.572	8566
696.604	8364
696.614	8439
696.656	8669
696.698	8979
696.724	9058
696.740	8981
696.783	8662
696.825	8471
696.844	8397
696.867	8507
696.909	8451
696.951	8498
696.964	8540
696.992	8485
697.034	8077
697.076	7838
697.083	7748
697.118	7911
697.160	8221
697.202	8453
697.203	8436
697.244	8372
697.286	8177
697.323	7899
697.327	7888
697.369	7694
697.411	7437
697.442	7227
697.453	7345
697.494	7747
697.536	8074
697.562	8332
697.578	8441
697.620	8647
697.661	8720
697.682	8779
697.703	8808
697.744	8714
697.786	8836
697.801	8786
697.828	9085
697.869	9532
697.911	9980
697.921	10079
697.952	9847
697.994	9423
698.035	9014
698.040	8938
698.077	8826
698.118	8652
698.160	8469
698.160	8441
698.201	8539
698.243	8595
698.279	8642
698.284	8681
698.325	8758
698.367	8879
698.399	8919
698.408	8885
698.449	8598
698.491	8356
698.518	8144
698.532	8191
698.573	8288
698.614	8341
698.638	8348
698.656	8435
698.697	8586
698.738	8742
698.757	8795
698.779	8968
698.820	9219
698.862	9494
698.877	9559
698.903	9560
698.944	9529
698.985	9498
698.996	9462
699.026	9523
699.067	9568
699.116	9595
699.235	8605
699.354	8297
699.474	8814
699.593	10515
699.713	11102
699.832	9407
699.951	10162
700.070	9749
700.190	8006
700.309	10263
700.428	10396
700.547	9571
700.667	10064
700.786	10649
700.905	8529
701.024	9233
701.143	9299
701.262	8556
701.381	7741
701.500	8483
701.619	7910
701.738	7634
701.857	8622
701.976	7276
702.095	7915
702.214	8490
702.333	8767
702.452	7473
702.571	8173
702.690	8137
702.809	6955
702.928	7515
703.047	7805
703.165	7595
703.284	6007
703.403	7613
703.522	8784
703.640	9607
703.759	11400
703.878	15229
703.997	7782
704.115	7536
704.234	6902
704.353	6087
704.471	7129
704.590	7012
704.708	6525
704.827	6182
704.946	7427
705.064	7578
705.183	6507
705.301	8984
705.420	13996
705.538	11734
705.656	9606
705.775	10612
705.893	14828
706.012	17994
706.130	10673
706.249	10100
706.367	10023
706.485	11579
706.604	10151
706.722	10456
706.840	12389
706.958	11925
707.077	9979
707.195	9026
707.313	9608
707.431	8989
707.549	9167
707.668	8917
707.786	9635
707.904	8509
708.022	8158
708.140	9333
708.258	9190
708.376	9674
708.494	8694
708.612	9406
708.730	14173
708.848	14230
708.966	12749
709.084	11766
709.202	11227
709.320	11969
709.438	11838
709.556	11466
709.674	11889
709.791	12061
709.909	10627
710.027	11770
710.145	11229
710.263	12331
710.380	11262
710.498	11672
710.616	10799
710.733	10390
710.851	11131
710.969	12710
711.086	11073
711.204	11458
711.322	11115
711.439	10560
711.557	12329
711.674	10915
711.792	10187
711.909	10776
712.027	10504
712.144	10905
712.262	9762
712.379	11683
712.497	16607
712.614	17687
712.732	13362
712.849	12664
712.966	14222
713.084	16779
713.201	14590
713.318	13874
713.436	13079
713.553	13051
713.670	12825
713.787	13887
713.905	15103
714.022	11863
714.139	12037
714.256	13688
714.373	12409
714.490	13337
714.608	11679
714.725	20474
714.842	21180
714.959	11759
715.076	11648
715.193	11119
715.310	10837
715.427	11157
715.544	9999
715.661	10459
715.778	10616
715.895	11956
716.011	11560
716.128	11869
716.245	11117
716.362	12856
716.479	12722
716.596	10784
716.713	10958
716.829	11669
716.946	11066
717.063	10190
717.180	10075
717.296	9933
717.413	9889
717.530	9976
717.646	10220
717.763	9723
717.880	8942
717.996	9585
718.113	8730
718.229	9268
718.346	7253
718.462	10065
718.579	11325
718.695	17465
718.812	14975
718.928	14030
719.045	10725
719.161	8925
719.277	8344
719.394	8875
719.510	9438
719.626	8166
719.743	10650
719.859	9251
719.975	9153
720.092	9939
720.208	13119
720.324	9598
720.440	7792
720.557	9865
720.673	14195
720.789	21544
720.905	49106
721.021	17429
721.137	8247
721.253	8762
721.369	8510
721.486	10459
721.602	16112
721.718	8596
721.834	7538
721.950	8246
722.066	6621
722.181	7716
722.297	7859
722.413	7063
722.529	7817
722.645	6879
722.761	6774
722.877	6867
722.993	6591
723.108	6850
723.224	6727
723.340	7770
723.456	7123
723.571	7974
723.687	6331
723.803	7120
723.918	6141
724.034	6372
724.150	6870
724.265	8812
724.381	16923
724.497	23948
724.612	6999
724.728	6722
724.843	7539
724.959	7794
725.074	16495
725.190	21304
725.305	7577
725.421	6962
725.536	5914
725.651	6144
725.767	5694
725.882	5939
725.997	5985
726.113	5257
726.228	4893
726.343	5699
726.459	4519
726.574	5937
726.689	5698
726.804	6535
726.920	5325
727.035	6104
727.150	6063
727.265	5407
727.380	5871
727.495	5429
727.610	6003
727.725	6147
727.841	5435
727.956	8197
728.071	8984
728.186	5883
728.301	4690
728.416	5397
728.531	5115
728.645	4985
728.760	6292
728.875	7082
728.990	6298
729.105	6194
729.220	6071
729.335	5478
729.449	4322
729.564	5086
729.679	4798
729.794	4906
729.908	5277
730.023	5386
730.138	3690
730.253	4162
730.367	4358
730.482	3438
730.596	3663
730.711	4656
730.826	4201
730.940	4001
731.055	4238
731.169	4503
731.284	4163
731.398	3941
731.513	5409
731.627	5378
731.742	5739
731.856	5236
731.970	3668
732.085	4235
732.199	4094
732.313	3588
732.428	3551
732.542	5594
732.656	4462
732.771	3655
732.885	3852
732.999	4044
733.113	3959
733.227	4732
733.342	3773
733.456	3440
733.570	3258
733.684	3418
733.798	3324
733.912	3771
734.026	2648
734.140	3227
734.254	4876
734.368	8033
734.482	12064
734.596	3598
734.710	3558
734.824	3036
734.938	3106
735.052	3032
735.166	4426
735.280	4670
735.393	2872
735.507	3804
735.621	4800
735.735	11542
735.849	4799
735.962	3641
736.076	2972
736.190	3325
736.303	5768
736.417	8457
736.531	3430
736.644	3953
736.758	2911
736.872	2509
736.985	3211
737.099	2996
737.212	2259
737.326	3764
737.439	3338
737.553	3666
737.666	2868
737.780	3170
737.893	3446
738.007	2736
738.120	2142
738.233	3448
738.347	2471
738.460	3629
738.573	2636
738.687	2950
738.800	3159
738.913	4381
739.026	3293
739.140	3879
739.253	2854
739.366	2695
739.479	1996
739.592	2005
739.705	2796
739.818	2811
739.932	2138
740.045	3281
740.158	2210
740.271	3502
740.384	2794
740.497	3232
740.610	4004
740.723	3864
740.836	3857
740.949	4229
741.062	4560
741.174	4575
741.287	2810
741.400	2589
741.513	4725
741.626	4492
741.739	3931
741.851	3460
741.964	2469
742.077	3115
742.189	3355
742.302	4763
742.415	4615
742.527	3365
742.640	2559
742.753	2728
742.865	1711
742.978	2524
743.090	2462
743.203	2688
743.316	1941
743.428	1905
743.541	2618
743.653	2646
743.766	2403
743.878	2851
743.990	3224
744.103	3292
744.215	1946
744.327	1799
744.440	3355
744.552	5336
744.664	2813
744.777	2094
744.889	890
745.001	2772
745.113	2094
745.226	1387
745.338	2016
745.450	1409
745.562	1740
745.674	2403
745.786	2269
745.898	1385
746.010	2154
746.122	1541
746.234	1622
746.347	2051
746.459	1488
746.570	1705
746.682	1781
746.794	2381
746.906	2157
747.018	1706
747.130	1554
747.242	1591
747.354	1802
747.466	3397
747.577	1694
747.689	1205
747.801	1734
747.913	1519
748.024	1557
748.136	1825
748.248	1608
748.359	1275
748.471	737
748.583	2428
748.694	1483
748.806	3143
748.918	3385
749.029	2327
749.141	2408
749.252	2543
749.364	2676
749.475	5981
749.587	4185
749.698	1966
749.809	2118
749.921	1809
750.032	2415
750.144	2017
750.255	1807
750.366	1785
750.478	1878
750.589	1903
750.700	2085
750.811	2446
750.923	2870
751.034	5788
751.145	5784
751.256	2012
751.367	1501
751.479	1136
751.590	1141
751.701	2200
751.812	1057
751.923	2475
752.034	1692
752.145	1466
752.256	1715
752.367	1252
752.478	1219
752.589	2647
752.700	1164
752.811	1418
752.922	1497
753.032	1518
753.143	2448
753.254	768
753.365	1549
753.476	1997
753.586	1402
753.697	2214
753.808	1707
753.919	1586
754.029	1109
754.140	2641
754.251	755
754.361	1754
754.472	2022
754.582	1539
754.693	1622
754.804	2296
754.914	1035
755.025	1620
755.135	1868
755.246	1611
755.356	1008
755.466	2050
755.577	724
755.687	2061
755.798	889
755.908	2427
756.018	1974
756.129	1405
756.239	2274
756.349	2786
756.460	1181
756.570	1716
756.680	1445
756.790	1429
756.900	1903
757.011	2226
757.121	1354
757.231	1310
757.341	1628
757.451	1188
757.561	844
757.671	1668
757.781	556
757.891	1916
758.001	1575
758.111	2649
758.221	2081
758.331	1943
758.441	2167
758.551	3158
758.661	2641
758.771	2670
758.880	1786
758.990	3086
759.100	2059
759.210	1940
759.320	2433
759.429	1957
759.539	2647
759.649	2213
759.758	2178
759.868	2592
759.978	1860
760.087	2368
760.197	2224
760.307	2396
760.416	2175
760.526	2227
760.635	2643
760.745	2386
760.854	1808
760.964	2917
761.073	2130
761.182	2833
761.292	2268
761.401	3639
761.511	2787
761.620	3198
761.729	3341
761.839	2792
761.948	3057
762.057	3514
762.166	2775
762.276	2591
762.385	3551
762.494	3328
762.603	2884
762.712	4278
762.822	4221
762.931	3635
763.040	3771
763.149	4379
763.258	4211
763.367	4974
763.476	4892
763.585	5421
763.694	5695
763.803	5333
763.912	6678
764.021	5670
764.130	6166
764.238	6823
764.347	6741
764.456	7575
764.565	8465
764.674	8840
764.783	10073
764.891	9433
765.000	11575
765.109	13065
765.217	14713
765.326	17379
765.435	21769
765.543	25966
765.652	30362
765.761	41121
765.869	57815
765.978	87788
766.086	144117
766.195	255523
766.303	507903
766.412	771819
766.520	679079
766.629	450729
766.737	217979
766.846	124689
766.954	80172
767.062	58819
767.171	44538
767.279	33822
767.387	25549
767.496	23090
767.604	19470
767.712	17292
767.820	14190
767.928	14479
768.037	12879
768.145	12922
768.253	12437
768.361	10746
768.469	12640
768.577	11302
768.685	12667
768.793	12686
768.901	12668
769.009	16564
769.117	19072
769.225	24244
769.333	36375
769.441	56408
769.549	100119
769.657	210524
769.765	484518
769.873	652200
769.981	432640
770.088	174239
770.196	84112
770.304	52897
770.412	36547
770.519	27580
770.627	20220
770.735	17197
770.842	13450
770.950	12129
771.058	11291
771.165	10492
771.273	8826
771.380	8801
771.488	7260
771.595	6106
771.703	5759
771.810	6976
771.918	5279
772.025	5743
772.133	4324
772.240	4599
772.348	4666
772.455	4543
772.562	4092
772.670	3675
772.777	3886
772.884	3578
772.991	3531
773.099	3902
773.206	2788
773.313	3645
773.420	2472
773.528	2678
773.635	2363
773.742	3108
773.849	3248
773.956	2770
774.063	2886
774.170	2618
774.277	3829
774.384	3038
774.491	1962
774.598	3164
774.705	2825
774.812	3537
774.919	2941
775.026	3599
775.133	2969
775.239	2818
775.346	1884
775.453	2544
775.560	2146
775.667	2296
775.773	2036
775.880	2504
775.987	2352
776.093	2606
776.200	1724
776.307	1917
776.413	2722
776.520	1798
776.627	2831
776.733	2470
776.840	1212
776.946	2659
777.053	1807
777.159	2883
777.266	1099
777.372	3482
777.478	3808
777.585	2055
777.691	1165
777.798	1471
777.904	2662
778.010	2786
778.117	2714
778.223	2260
778.329	1074
778.435	2668
778.542	2068
778.648	1205
778.754	992
778.860	1412
778.966	1712
779.072	2608
779.178	2190
779.284	1490
779.391	1497
779.497	1419
779.603	3848
779.708	2643
779.815	8757
779.920	31626
780.026	72651
780.132	10345
780.238	2141
780.344	2257
780.450	1989
780.556	1928
780.661	470
780.767	2510
780.873	1288
780.979	2047
781.085	590
781.190	792
781.296	1587
781.402	986
781.507	1792
781.613	1900
781.719	1307
781.824	1205
781.930	1824
782.035	1744
782.141	1020
782.246	1604
782.352	1074
782.457	494
782.563	1315
782.668	704
782.773	1778
782.879	749
782.984	2203
783.090	1581
783.195	2646
783.300	2095
783.405	1388
783.511	1806
783.616	1830
783.721	442
783.826	1740
783.932	2359
784.037	735
784.142	2281
784.247	276
784.352	1147
784.457	853
784.562	1044
784.667	1188
784.772	1470
784.877	573
784.982	1636
785.087	1140
785.192	2208
785.297	685
785.402	657
785.507	431
785.611	1292
785.716	1763
785.821	794
785.926	767
786.031	904
786.135	566
786.240	1827
786.345	521
786.450	1311
786.554	113
786.659	700
786.763	-40
786.868	318
786.973	1381
787.077	917
787.182	871
787.286	1118
787.391	484
787.495	1175
787.600	779
787.704	1393
787.809	733
787.913	1057
788.017	636
788.122	839
788.226	1043
788.330	483
788.435	534
788.539	1358
788.643	257
788.747	1193
788.852	176
788.956	1029
789.060	923
789.164	431
789.268	-283
789.372	525
789.476	865
789.580	479
789.684	283
789.788	1404
789.892	131
789.996	1067
790.100	582
790.204	1284
790.308	-151
790.412	516
790.516	872
790.620	767
790.724	467
790.828	843
790.931	-714
791.035	2677
791.139	500
791.242	414
791.346	1712
791.450	1133
791.554	898
791.657	40
791.761	1170
791.864	1748
791.968	1058
792.072	1387
792.175	448
792.279	702
792.382	418
792.486	1081
792.589	368
792.693	1512
792.796	-408
792.899	706
793.003	823
793.106	-39
793.209	23
793.313	2108
793.416	-425
793.519	1214
793.623	953
793.726	3275
793.829	608
793.932	1414
794.035	387
794.138	1530
794.242	1284
794.345	1657
794.448	3462
794.551	5316
794.654	17133
794.757	37215
794.860	7238
794.963	1560
795.066	503
795.169	1698
795.272	-203
795.375	659
795.477	435
795.580	347
795.683	-896
795.786	-345
795.889	-615
795.991	1480
796.094	1436
796.197	201
796.300	532
796.402	-194
796.505	-192
796.608	76
796.710	406
796.813	404
796.915	-66
797.018	741
797.120	-402
797.223	-499
797.326	1014
797.428	128
797.530	425
797.633	368
797.735	1077
797.838	1784
797.940	2411
798.042	-760
798.145	-730
798.247	1174
798.349	-1439
798.452	1066
798.554	-622
798.656	-928
798.758	501
798.860	298
798.962	-700
799.065	698
799.167	-1120
799.269	931
799.371	1148
799.473	-241
799.575	175
799.677	1344
799.779	1820
799.881	440
799.983	693
800.085	509
800.187	305
800.289	-69
800.390	-724
800.492	559
800.594	271
800.696	350
800.798	80
800.899	-323
801.001	-257
801.103	-78
801.205	-448
801.306	-179
801.408	16
801.509	265
801.611	248
801.713	-265
801.814	-808
801.916	468
802.017	-303
802.119	-345
802.220	-615
802.322	-875
802.423	2317
802.525	-138
802.626	197
802.727	36
802.829	48
802.930	-1352
803.031	1249
803.133	-318
803.234	273
803.335	-382
803.436	-1185
803.538	38
803.639	-1262
803.740	89
803.841	-1333
803.942	-85
804.043	395
804.144	-512
804.245	288
804.346	-607
804.447	-787
804.548	-40
804.649	1518
804.750	-539
804.851	-654
804.952	-227
805.053	-186
805.154	-547
805.255	439
805.355	-666
805.456	-1173
805.557	-501
805.658	-595
805.758	715
805.859	312
805.960	-976
806.061	-901
806.161	-311
806.262	310
806.362	-125
806.463	-879
806.564	152
806.664	-431
806.765	-70
806.865	273
806.966	460
807.066	-224
807.166	693
807.267	283
807.367	-923
807.468	322
807.568	-1166
807.668	574
807.769	378
807.869	-403
807.969	-92
808.069	627
808.170	-23
808.270	-876
808.370	599
808.470	198
808.570	-942
808.670	-290
808.770	-810
808.870	-1390
808.970	-415
809.070	-765
809.170	-461
809.271	-282
809.370	-798
809.470	123
809.570	-511
809.670	-503
809.770	-811
809.870	-787
809.970	-328
810.070	-1157
810.169	-160
810.269	-807
810.369	424
810.469	-648
810.568	392
810.668	-749
810.768	-990
810.867	-589
810.967	-256
811.066	-722
811.166	-1287
811.265	275
811.365	-1491
811.464	-909
811.564	-305
811.663	-550
811.763	-1839
811.862	29
811.962	-44
812.061	-562
812.160	-711
812.260	-222
812.359	-119
812.458	-751
812.557	2617
812.657	2896
812.756	1081
812.855	-427
812.954	-890
813.053	-689
813.153	81
813.252	-1172
813.351	-472
813.450	77
813.549	-807
813.648	-348
813.747	-134
813.846	-683
813.945	-1122
814.044	-348
814.143	-222
814.242	155
814.341	-1312
814.439	146
814.538	323
814.637	-1408
814.736	-825
814.835	-143
814.933	-592
815.032	-866
815.131	22
815.229	588
815.328	-852
815.427	-94
815.525	323
815.624	-384
815.722	-639
815.821	-536
815.919	-343
816.018	-712
816.116	576
816.215	-894
816.313	-843
816.412	-695
816.510	-272
816.609	1096
816.707	-450
816.805	-1630
816.904	-1753
817.002	-638
817.100	4
817.198	271
817.296	-1115
817.395	-58
817.493	1040
817.591	282
817.689	1093
817.787	1356
817.885	3367
817.983	8115
818.081	18171
818.179	49259
818.277	134166
818.375	118737
818.473	25537
818.571	7691
818.669	5246
818.767	4155
818.865	4105
818.963	5700
819.061	8417
819.158	16568
819.256	41192
819.354	104070
819.452	255005
819.549	160166
819.647	33973
819.745	10791
819.842	6981
819.940	4190
820.038	3003
820.135	1690
820.233	2185
820.330	1386
820.428	583
820.525	1598
820.623	224
820.720	-37
820.818	1071
820.915	236
821.012	422
821.110	-636
821.207	1042
821.304	-627
821.402	-234
821.499	409
821.596	901
821.693	-152
821.791	145
821.888	382
821.985	2335
822.082	259
822.179	200
822.276	-901
822.373	-443
822.470	-583
822.567	305
822.664	-1261
822.761	-424
822.858	-1700
822.955	-377
823.052	-532
823.149	-469
823.246	-457
823.343	58
823.440	267
823.536	-430
823.633	-1277
823.730	-788
823.827	-270
823.923	-494
824.020	21
824.117	-93
824.213	-1530
824.310	584
824.407	-1134
824.503	-160
824.600	-421
824.696	206
824.793	-350
824.889	-871
824.986	-403
825.082	-506
825.179	16
825.275	-435
825.371	-770
825.468	42
825.564	-1238
825.660	139
825.757	-531
825.853	61
825.949	-874
826.045	-237
826.142	-1395
826.238	-273
826.334	-760
826.430	-1797
826.526	649
826.622	-868
826.718	-225
826.814	-788
826.910	264
827.006	-486
827.102	-1203
827.198	2
827.294	-521
827.390	-1192
827.486	-688
827.582	-1268
827.678	-857
827.774	227
827.869	-1665
827.965	-589
828.061	-1865
828.157	-182
828.252	-696
828.348	-821
828.444	39
828.539	-542
828.635	-728
828.731	124
828.826	-840
828.922	-423
829.017	-572
829.113	-249
829.208	-1063
829.304	-518
829.399	-441
829.495	-1005
829.590	-344
829.685	-1181
829.781	-1141
829.876	-747
829.971	-815
830.066	-880
830.162	-900
830.257	69
830.352	-1513
830.447	452
830.543	-401
830.638	-1244
830.733	1107
830.828	-877
830.923	-568
831.018	-631
831.113	-548
831.208	-869
831.303	-818
831.398	-728
831.493	-1116
831.588	-432
831.683	-932
831.778	-288
831.873	-940
831.967	549
832.062	-1036
832.157	-2017
832.252	237
832.346	-1210
832.441	93
832.536	42
832.631	1894
832.725	1733
832.820	-959
832.914	-886
833.009	-1070
833.104	-430
833.198	523
833.293	303
833.387	-823
833.482	-660
833.576	-705
833.670	-220
833.765	-558
833.859	-476
833.954	-824
834.048	-523
834.142	320
834.237	-961
834.331	-540
834.425	-606
834.519	-1146
834.613	-385
834.708	-902
834.802	-676
834.896	-1543
834.990	-180
835.084	-311
835.178	-291
835.272	-871
835.366	123
835.460	435
835.554	-1363
835.648	-940
835.742	-469
835.836	-196
835.930	-1565
836.024	-1150
836.117	879
836.211	-720
836.305	41
836.399	1489
836.493	-1134
836.586	-641
836.680	-1101
836.774	-1300
836.867	-82
836.961	-1848
837.055	-810
837.148	-735
837.242	-1280
837.335	-719
837.429	18
837.522	-808
837.616	-586
837.709	957
837.803	488
837.896	-703
837.989	-1191
838.083	1519
838.176	2215
838.269	1883
838.363	271
838.456	-1332
838.549	-96
838.642	118
838.735	2944
838.829	-20
838.922	-1497
839.015	-929
839.108	-1470
839.201	-407
839.294	-868
839.387	-453
839.480	-877
839.573	144
839.666	1135
839.759	-463
839.852	-1584
839.945	-37
840.038	-1202
840.131	-1211
840.223	-1432
840.316	-604
840.409	-1350
840.502	-1373
840.594	247
840.687	-1681
840.780	-330
840.873	-524
840.965	-141
841.058	-313
841.150	1978
841.243	566
841.336	381
841.428	-1211
841.521	-794
841.613	-1556
841.706	-368
841.798	-866
841.890	-1162
841.983	-1622
842.075	-91
842.167	-889
842.260	-1111
842.352	-152
842.444	353
842.537	2371
842.629	5731
842.721	-11
842.813	-495
842.905	-1199
842.997	-140
843.090	-601
843.182	298
843.274	1113
843.366	6834
843.458	14167
843.550	9694
843.642	-293
843.734	133
843.826	276
843.918	88
844.009	-2
844.101	-1003
844.193	-1215
844.285	-1021
844.377	-1055
844.469	100
844.560	-884
844.652	-117
844.744	-708
844.835	384
844.927	-860
845.019	-405
845.110	-396
845.202	-29
845.293	-1343
845.385	-717
845.476	-173
845.568	-111
845.659	-351
845.751	-238
845.842	-1136
845.934	-1159
846.025	-1093
846.116	-889
846.208	-573
846.299	-151
846.390	-942
846.482	-325
846.573	487
846.664	96
846.755	254
846.846	560
846.937	-1789
847.029	-741
847.120	-1244
847.211	-903
847.302	-212
847.393	-1249
847.484	-444
847.575	-850
847.666	-874
847.757	-901
847.847	-539
847.938	-594
848.029	-191
848.120	-525
848.211	-574
848.302	-1618
848.392	-1167
848.483	-922
848.574	-2238
848.664	-1384
848.755	-1241
848.846	-1103
848.936	-1583
849.027	-1391
849.118	-1006
849.208	-1264
849.299	-613
849.389	-335
849.480	251
849.570	-712
849.661	-523
849.751	-67
849.841	-261
849.932	-1428
850.022	-1914
850.112	-598
850.203	-1314
850.293	-1213
850.383	-60
850.474	-814
850.564	-1110
850.654	-499
850.744	-703
850.834	-779
850.924	-1123
851.014	-566
851.104	-1357
851.194	-1617
851.284	-566
851.374	-735
851.464	-261
851.554	-645
851.644	-1294
851.734	272
851.824	225
851.914	-747
852.004	-427
852.094	585
852.183	-686
852.273	-767
852.363	-576
852.452	-1682
852.542	-527
852.632	-1643
852.721	-523
852.811	-981
852.901	-766
852.990	-1029
853.080	-1474
853.169	-994
853.259	-508
853.348	-2046
853.438	-944
853.527	-755
853.617	-1479
853.706	593
853.795	224
853.885	1291
853.974	725
854.063	3180
854.152	4231
854.242	1714
854.331	-719
854.420	-872
854.509	-2012
854.598	-311
854.687	-469
854.777	-318
854.866	-943
854.955	-554
855.044	-957
855.133	-742
855.222	-943
855.311	-1326
855.400	-782
855.488	-751
855.577	-735
855.666	131
855.755	-387
855.844	-820
855.933	-560
856.021	-800
856.110	-1112
856.199	-765
856.288	-1309
856.376	-1025
856.465	-2070
856.554	-306
856.642	-1991
856.731	90
856.819	-604
856.908	-603
856.996	-1273
857.085	-1443
857.173	-805
857.262	-505
857.350	-616
857.438	-396
857.527	-939
857.615	-1229
857.703	-534
857.792	-911
857.880	-891
857.968	-577
858.056	-664
858.145	-893
858.233	-545
858.321	-1731
858.409	-565
858.497	-1259
858.585	-1378
858.673	-344
858.761	-758
858.849	-1224
858.937	-663
859.025	-1399
859.113	-876
859.201	-1516
859.289	-27
859.377	-1557
859.465	-742
859.552	-567
859.640	-870
859.728	-1132
859.816	-776
859.903	-225
859.991	-1967
860.079	-1054
860.166	-490
860.254	-833
860.342	-1246
860.429	-1276
860.517	-1133
860.604	-1353
860.692	-1061
860.779	-1652
860.867	-863
860.954	-103
861.042	-1004
861.129	-493
861.216	-1330
861.304	-1551
861.391	-618
861.478	-1220
861.565	-981
861.653	-146
861.740	-1619
861.827	-1343
861.914	-1061
862.001	-1292
862.089	-1105
862.176	-1152
862.263	-1534
862.350	-910
862.437	-1332
862.524	-823
862.611	-1537
862.698	-1161
862.785	-1424
862.871	-996
862.958	-1304
863.045	-1412
863.132	-1335
863.219	-1425
863.306	-2331
863.392	-336
863.479	-1074
863.566	-1362
863.652	-635
863.739	-738
863.826	-347
863.912	-717
863.999	-1946
864.086	-977
864.172	-1548
864.259	-1577
864.345	-988
864.432	-477
864.518	-1831
864.604	-939
864.691	-949
864.777	-1129
864.863	43
864.950	124
865.036	-1779
865.122	-1085
865.209	-1581
865.295	-713
865.381	-897
865.467	-1113
865.553	-1289
865.639	-454
865.726	-821
865.812	-772
865.898	16
865.984	426
866.070	3019
866.156	2961
866.242	-123
866.328	-283
866.414	-1100
866.499	-1407
866.585	-1250
866.671	-468
866.757	-1070
866.843	-941
866.928	-1220
867.014	-718
867.100	-723
867.186	-286
867.271	-472
867.357	-788
867.442	436
867.528	-977
867.614	-664
867.699	-509
867.785	-412
867.870	-735
867.956	-759
868.041	207
868.127	-213
868.212	-184
868.297	-509
868.383	-962
868.468	197
868.553	1066
868.639	507
868.724	2261
868.809	2492
868.894	496
868.979	-938
869.065	-284
869.150	-502
869.235	-543
869.320	-1598
869.405	-909
869.490	-1386
869.575	-619
869.660	-1963
869.745	-421
869.830	-1478
869.915	-939
870.000	-1414
870.085	-1957
870.169	-1704
870.254	-1349
870.339	-1533
870.424	-1877
870.509	-1837
870.593	-1244
870.678	-1458
870.763	-759
870.847	35
870.932	-1708
871.016	-1376
871.101	-1519
871.186	-332
871.270	-1861
871.355	-1701
871.439	-1791
871.523	-1032
871.608	-1413
871.692	-1233
871.777	-236
871.861	-1757
871.945	-1747
872.030	-1237
872.114	-823
872.198	-808
872.282	-2223
872.367	-1452
872.451	-627
872.535	-1205
872.619	-1488
872.703	-1361
872.787	-786
872.871	-1147
872.955	-1116
873.039	-1208
873.123	-433
873.207	-884
873.291	137
873.375	-1281
873.459	-780
873.543	-1284
873.627	-920
873.711	-1112
873.794	-1176
873.878	-1961
873.962	-750
874.045	-859
874.129	-1068
874.137	-1049
874.213	-860
874.245	-955
874.296	-1114
874.352	-1402
874.380	-1545
874.460	-1104
874.464	-1087
874.547	-761
874.568	-766
874.631	-755
874.676	-1070
874.714	-1359
874.784	-956
874.798	-865
874.881	98
874.892	-26
874.965	-931
874.999	-769
875.048	-552
875.107	-607
875.131	-624
875.215	-977
875.215	-976
875.298	-757
875.323	-900
875.381	-1250
875.430	-977
875.465	-766
875.538	-1171
875.548	-1232
875.631	-1313
875.646	-1265
875.714	-1026
875.753	-821
875.798	-586
875.861	-1148
875.881	-1312
875.964	-1192
875.968	-1177
876.047	-974
876.076	-711
876.130	-240
876.183	-511
876.213	-629
876.291	-300
876.296	-277
876.379	-302
876.398	-440
876.462	-1064
876.506	-944
876.545	-755
876.613	-737
876.628	-736
876.711	-859
876.721	-817
876.794	-434
876.828	-572
876.877	-825
876.935	-636
876.960	-525
877.043	-305
877.043	-304
877.125	-314
877.150	-248
877.208	45
877.258	213
877.291	289
877.365	-233
877.374	-303
877.456	223
877.472	115
877.539	-349
877.579	-303
877.622	-233
877.687	-171
877.704	-123
877.787	-99
877.794	-91
877.869	-118
877.901	-52
877.952	69
878.008	-321
878.034	-567
878.115	-1219
878.117	-1227
878.199	-1081
878.222	-923
878.282	-426
878.329	-32
878.364	184
878.437	-242
878.447	-307
878.529	-1023
878.544	-885
878.611	-211
878.651	-505
878.694	-769
878.758	-544
878.776	-540
878.858	-923
878.865	-911
878.941	-406
878.972	-461
879.023	-773
879.078	-647
879.105	-400
879.185	306
879.187	312
879.269	2
879.292	-77
879.351	-404
879.399	-772
879.433	-841
879.506	-236
879.516	-177
879.598	-669
879.613	-691
879.680	-656
879.720	-532
879.762	-437
879.827	-687
879.844	-822
879.926	-736
879.933	-752
880.007	-527
880.040	-557
880.089	-449
880.147	-301
880.171	-379
880.253	198
880.254	197
880.335	352
880.360	399
880.417	753
880.467	1440
880.499	1998
880.574	3086
880.580	3084
880.662	811
880.680	444
880.744	-547
880.787	-553
880.825	-412
880.893	-736
880.907	-834
880.989	-634
881.000	-644
881.070	-168
881.106	-150
881.152	-535
881.213	-726
881.233	-720
881.315	-745
881.319	-735
881.396	-418
881.426	-535
881.478	-631
881.532	101
881.559	211
881.639	-1220
881.641	-1234
881.722	-529
881.745	-418
881.803	-324
881.852	-397
881.885	-538
881.958	-643
881.966	-626
882.047	-1011
882.064	-960
882.129	-613
882.171	-270
882.210	122
882.277	788
882.291	850
882.372	28
882.383	5
882.454	-456
882.489	-672
882.535	-584
882.596	-381
882.616	-408
882.697	-328
882.702	-370
882.778	-551
882.808	-547
882.859	-800
882.914	-575
882.940	-267
883.020	-121
883.021	-123
883.102	-122
883.127	-282
883.183	-478
883.233	-440
883.264	-357
883.339	-400
883.345	-398
883.426	-341
883.445	-335
883.507	-306
883.551	-344
883.587	-501
883.657	-271
883.668	-213
883.749	-381
883.763	-364
883.830	152
883.869	210
883.910	65
883.975	182
883.991	88
884.072	-518
884.081	-584
884.152	-298
884.187	-235
884.233	-157
884.292	-68
884.314	-168
884.394	-437
884.398	-445
884.475	-24
884.504	24
884.555	-160
884.610	-315
884.636	-240
884.716	-98
884.716	-95
884.797	-47
884.821	-138
884.877	-77
884.927	-63
884.958	-245
885.033	-885
885.038	-877
885.118	-524
885.139	-357
885.199	16
885.244	-31
885.279	-101
885.350	24
885.359	6
885.439	-174
885.456	-294
885.520	-322
885.561	-54
885.600	-101
885.667	-610
885.680	-608
885.760	-372
885.773	-316
885.840	-243
885.878	-309
885.920	-26
885.984	374
886.000	332
886.080	223
886.089	187
886.160	-303
886.195	-491
886.240	-321
886.300	-178
886.320	-132
886.400	344
886.406	343
886.480	-434
886.511	-677
886.560	54
886.616	874
886.640	648
886.720	-182
886.722	-207
886.800	208
886.827	401
886.879	330
886.932	114
886.959	265
887.038	735
887.039	730
887.119	-230
887.143	-481
887.198	-149
887.248	-96
887.278	-233
887.354	-432
887.358	-424
887.437	-224
887.459	-215
887.517	-150
887.564	9
887.596	359
887.669	942
887.676	869
887.755	-18
887.774	-244
887.835	-3
887.880	242
887.914	132
887.985	-209
887.994	-168
888.073	96
888.090	167
888.153	-180
888.195	-397
888.232	104
888.300	996
888.311	915
888.391	183
888.405	82
888.470	308
888.510	351
888.549	322
888.615	360
888.628	387
888.708	424
888.720	453
888.787	330
888.825	154
888.866	364
888.930	731
888.945	612
889.024	-20
889.035	-105
889.103	228
889.140	396
889.182	62
889.245	-431
889.261	-187
889.340	945
889.349	1075
889.419	673
889.454	455
889.498	335
889.559	180
889.577	194
889.656	241
889.664	247
889.735	371
889.768	431
889.814	490
889.873	566
889.978	1288
890.083	79
890.187	-16
890.292	283
890.397	301
890.501	668
890.606	487
890.710	465
890.815	550
890.919	522
891.024	474
891.128	397
891.233	753
891.337	477
891.442	133
891.546	369
891.650	122
891.755	234
891.859	558
891.963	289
892.068	402
892.172	-234
892.276	-333
892.380	-320
892.484	294
892.589	761
892.693	802
892.797	796
892.901	364
893.005	-324
893.109	-48
893.213	-143
893.317	301
893.421	-141
893.525	131
893.629	403
893.733	430
893.837	-100
893.941	555
894.045	293
894.148	-497
894.252	161
894.356	664
894.460	378
894.564	390
894.667	-586
894.771	62
894.875	412
894.978	128
895.082	194
895.186	683
895.289	-202
895.393	412
895.496	-387
895.600	497
895.703	-213
895.807	376
895.910	724
896.014	769
896.117	7
896.221	1214
896.324	-1051
896.427	1303
896.531	-198
896.634	-21
896.737	-105
896.840	-215
896.944	80
897.047	-84
897.150	-108
897.253	610
897.356	588
897.460	847
897.563	692
897.666	82
897.769	-496
897.872	-245
897.975	-461
898.078	519
898.181	-379
898.284	102
898.387	-41
898.490	288
898.593	-672
898.695	534
898.798	72
898.901	366
899.004	-162
899.107	-801
899.209	-827
899.312	661
899.415	-581
899.518	-320
899.620	-586
899.723	1003
899.826	812
899.928	1414
900.031	41
900.133	-59
900.236	-357
900.338	-489
900.441	-116
900.543	77
900.646	6
900.748	-115
900.851	-934
900.953	189
901.055	-342
901.158	306
901.260	144
901.362	381
901.465	-295
901.567	-297
901.669	-702
901.771	109
901.873	-673
901.976	86
902.078	-278
902.180	-292
902.282	236
902.384	835
902.486	155
902.588	504
902.690	-853
902.792	208
902.894	271
902.996	193
903.098	109
903.200	-491
903.302	373
903.404	486
903.505	-305
903.607	465
903.709	313
903.811	-215
903.913	-839
904.014	650
904.116	-622
904.218	-50
904.319	-175
904.421	29
904.523	10
904.624	-893
904.726	-473
904.827	632
904.929	-282
905.030	-457
905.132	185
905.233	124
905.335	-535
905.436	8
905.537	-270
905.639	81
905.740	-810
905.841	-470
905.943	-269
906.044	-40
906.145	184
906.247	-259
906.348	-795
906.449	97
906.550	-457
906.651	-157
906.752	372
906.854	-452
906.955	-570
907.056	40
907.157	-219
907.258	452
907.359	-779
907.460	222
907.561	190
907.662	-685
907.762	22
907.863	-8
907.964	-172
908.065	246
908.166	244
908.267	-166
908.367	-702
908.468	708
908.569	-341
908.670	-85
908.770	-360
908.871	592
908.971	-599
909.072	301
909.173	-285
909.273	-476
909.374	-437
909.474	-458
909.575	-47
909.675	545
909.776	-456
909.876	-64
909.977	-110
910.077	694
910.177	-203
910.278	-418
910.378	-1074
910.478	120
910.579	174
910.679	-80
910.779	-553
910.879	399
910.980	-406
911.080	23
911.180	-726
911.280	65
911.380	-751
911.480	891
911.580	-448
911.680	-451
911.780	-185
911.880	466
911.980	-518
912.080	-611
912.180	-761
912.280	750
912.380	-629
912.480	-288
912.580	-394
912.679	-593
912.779	-490
912.879	-602
912.979	-771
913.078	85
913.178	-72
913.278	724
913.377	-9
913.477	-55
913.577	-114
913.676	101
913.776	-221
913.875	56
913.975	-420
914.074	-570
914.174	-919
914.273	-730
914.373	379
914.472	432
914.572	-880
914.671	-255
914.770	-1090
914.870	190
914.969	-912
915.068	-58
915.167	-520
915.267	-209
915.366	-204
915.465	355
915.564	-450
915.663	-575
915.763	-120
915.862	-114
915.961	-860
916.060	-444
916.159	-419
916.258	141
916.357	-881
916.456	82
916.555	-967
916.654	-353
916.752	-338
916.851	126
916.950	-616
917.049	196
917.148	-733
917.247	-312
917.345	298
917.444	-1163
917.543	-4
917.642	-45
917.740	-501
917.839	-451
917.937	409
918.036	-70
918.135	-593
918.233	-340
918.332	-693
918.430	-23
918.529	-553
918.627	-579
918.726	-468
918.824	-188
918.923	-378
919.021	-195
919.119	-281
919.218	-230
919.316	-671
919.414	-396
919.512	102
919.611	-46
919.709	-1222
919.807	77
919.905	-886
920.003	-237
920.102	-316
920.200	-409
920.298	-368
920.396	-499
920.494	541
920.592	-526
920.690	87
920.788	-438
920.886	-767
920.984	353
921.082	-803
921.180	149
921.277	-907
921.375	76
921.473	-934
921.571	191
921.669	-298
921.766	337
921.864	-74
921.962	319
922.060	-284
922.157	501
922.255	-321
922.352	-577
922.450	21
922.548	569
922.645	-1134
922.743	-232
922.840	-38
922.938	233
923.035	-1503
923.133	-118
923.230	-205
923.327	-524
923.425	-66
923.522	-291
923.619	-519
923.717	-564
923.814	-342
923.911	-331
924.008	-331
924.106	167
924.203	-785
924.300	-787
924.397	-862
924.494	709
924.591	184
924.688	694
924.786	-635
924.883	-389
924.979	-601
925.077	-329
925.173	-203
925.270	306
925.367	-436
925.464	-495
925.561	-218
925.658	56
925.755	-243
925.852	-38
925.948	-755
926.045	294
926.142	-275
926.239	-419
926.335	376
926.432	810
926.529	121
926.625	-14
926.722	-197
926.818	-728
926.915	-802
927.011	751
927.108	-127
927.204	300
927.301	104
927.397	685
927.494	-283
927.590	-90
927.687	-16
927.783	4
927.879	-366
927.976	-718
928.072	-115
928.168	-957
928.264	-501
928.361	-686
928.457	-222
928.553	-567
928.649	76
928.745	312
928.841	-667
928.937	-471
929.033	-616
929.129	-720
929.225	-803
929.321	-138
929.417	-1007
929.513	-278
929.609	-813
929.705	-98
929.801	-471
929.897	-259
929.993	-1138
930.089	-766
930.184	-623
930.280	-21
930.376	-295
930.471	-123
930.567	-593
930.663	-462
930.758	-1290
930.854	-626
930.950	-940
931.045	-281
931.141	-406
931.236	-545
931.332	-684
931.427	-716
931.523	-355
931.618	175
931.714	-31
931.809	459
931.905	-865
932.000	-100
932.095	-880
932.191	-1113
932.286	-278
932.381	-165
932.476	-1359
932.572	8
932.667	-696
932.762	-561
932.857	-827
932.952	-277
933.047	-394
933.142	-419
933.237	-296
933.332	-947
933.427	-37
933.522	-384
933.617	214
933.712	-345
933.807	-929
933.902	-642
933.997	-470
934.092	515
934.187	-687
934.282	258
934.376	-730
934.471	-27
934.566	-836
934.661	-74
934.755	-749
934.850	-96
934.945	-753
935.039	265
935.134	-249
935.228	-1080
935.323	-407
935.417	-907
935.512	-42
935.606	-1266
935.701	-989
935.795	-634
935.890	-759
935.984	-134
936.079	-311
936.173	-12
936.267	-379
936.362	382
936.456	-657
936.550	-70
936.644	-1248
936.738	-256
936.833	-446
936.927	-390
937.021	-1181
937.115	-400
937.209	-1239
937.303	787
937.397	-1210
937.491	-114
937.585	-998
937.679	-63
937.773	-784
937.867	-88
937.961	-249
938.055	-79
938.149	-257
938.243	-563
938.337	-565
938.430	-275
938.524	-525
938.618	-463
938.712	-934
938.805	9
938.899	-722
938.993	-274
939.086	-551
939.180	-504
939.274	-729
939.367	-64
939.461	-438
939.554	-109
939.648	-821
939.741	-345
939.835	-586
939.928	-260
940.022	-410
940.115	-717
940.208	-535
940.302	-524
940.395	-244
940.488	-640
940.582	-96
940.675	-1060
940.768	-651
940.861	-436
940.954	-435
941.048	-822
941.141	-458
941.234	-294
941.327	-417
941.420	563
941.513	-212
941.606	-282
941.699	-1053
941.792	-763
941.885	-987
941.978	-285
942.071	-1145
942.164	-537
942.257	-253
942.349	-358
942.442	-1005
942.535	-795
942.628	-1154
942.721	-130
942.813	-1011
942.906	80
942.999	-445
943.091	-869
943.184	-948
943.277	-735
943.369	-323
943.462	-323
943.554	-330
943.647	239
943.739	-786
943.832	133
943.924	-1513
944.017	-24
944.109	-1694
944.201	-260
944.294	8
944.386	-969
944.478	-1136
944.571	-828
944.663	-982
944.755	-315
944.847	-1016
944.940	-384
945.032	-1123
945.124	-646
945.216	426
945.308	-490
945.400	-1656
945.492	-343
945.584	-563
945.676	-170
945.768	-983
945.860	-885
945.952	-802
946.044	-654
946.136	-75
946.228	-369
946.320	-1240
946.412	-975
946.503	-1214
946.595	122
946.687	-923
946.779	-1357
946.870	102
946.962	-628
947.054	-198
947.145	396
947.237	-652
947.329	-441
947.420	-446
947.512	-81
947.603	-1445
947.695	-702
947.786	-1216
947.878	-964
947.969	-566
948.061	-573
948.152	-1140
948.243	-393
948.335	-548
948.426	-146
948.517	-727
948.609	-422
948.700	-824
948.791	-481
948.882	-982
948.973	-579
949.065	-911
949.156	-700
949.247	-1268
949.338	-1201
949.429	-1050
949.520	-453
949.611	-1790
949.702	-462
949.793	-1109
949.884	-135
949.975	-874
950.066	-525
950.157	-1266
950.247	-795
950.338	-1373
950.429	-1258
950.520	-1084
950.611	-572
950.701	-1300
950.792	-1024
950.883	-966
950.973	-103
951.064	-964
951.155	-1178
951.245	-1177
951.336	-400
951.427	-608
951.517	-219
951.608	-1183
951.698	-612
951.788	-1072
951.879	-291
951.969	-1104
952.060	-88
952.150	-567
952.240	-21
952.331	-1834
952.421	-500
952.511	-1387
952.602	-635
952.692	-1344
952.782	-158
952.872	-2444
952.962	-519
953.052	-1086
953.143	-1006
953.233	-1044
953.323	-4
953.413	-1712
953.503	-252
953.593	-167
953.683	-784
953.773	-1831
953.863	-318
953.953	-1906
954.042	-680
954.132	-2036
954.222	-877
954.312	-1224
954.402	-641
954.492	-610
954.581	-143
954.671	-1168
954.761	-1005
954.850	-859
954.940	-1075
955.030	-286
955.119	-148
955.209	-1417
955.298	-1144
955.388	-522
955.477	984
955.567	-1381
955.656	-282
955.746	-525
955.835	-881
955.925	-2096
956.014	-1419
956.103	-1414
956.193	-163
956.282	-414
956.371	-819
956.461	-813
956.550	-1583
956.639	-975
956.728	-1259
956.817	-588
956.906	-1241
956.995	-1097
957.085	-641
957.174	-1426
957.263	-842
957.352	-1360
957.441	-979
957.530	-1431
957.619	-492
957.708	-647
957.796	-266
957.885	-1436
957.974	-458
958.063	-1331
958.152	-1467
958.241	-585
958.329	-1187
958.418	-744
958.507	-1909
958.596	-170
958.684	-532
958.773	-719
958.861	-516
958.950	-808
959.039	-575
959.127	-713
959.216	-283
959.304	-1605
959.393	-305
959.481	-821
959.570	-668
959.658	-1272
959.746	-707
959.835	96
959.923	-437
960.011	-761
960.100	107
960.188	-1029
960.276	-1262
960.365	-1423
960.453	-884
960.541	-2029
960.629	-436
960.717	-1092
960.805	-1272
960.893	-146
960.981	-1038
961.069	-313
961.158	-1527
961.245	-408
961.333	-1070
961.421	-1160
961.509	-1061
961.597	-529
961.685	-656
961.773	-1058
961.861	-985
961.949	-1200
962.036	-2085
962.124	-500
962.212	-845
962.299	-1474
962.387	-1353
962.475	-835
962.562	-1205
962.650	-1564
962.738	-741
962.825	-576
962.913	-902
963.000	-1551
963.088	-1137
963.175	-1010
963.263	-895
963.350	-1361
963.438	-703
963.525	-1435
963.612	450
963.700	15
963.787	2638
963.874	274
963.962	-933
964.049	-713
964.136	-523
964.223	-1487
964.310	-743
964.398	-952
964.485	-1315
964.572	-1529
964.659	-24
964.746	-849
964.833	-210
964.920	-1500
965.007	-875
965.094	-902
965.181	-1302
965.268	-1666
965.355	-913
965.441	-1112
965.528	-1527
965.615	-1182
965.702	-555
965.789	-1470
965.875	-560
965.962	-1127
966.049	-1329
966.136	-1356
966.222	-1194
966.309	-1093
966.395	-1222
966.482	-1190
966.569	-782
966.655	-1068
966.742	-1593
966.828	-794
966.915	-958
967.001	-1006
967.087	-1954
967.174	-923
967.260	-265
967.347	-1402
967.433	-3
967.519	1341
967.605	-1025
967.692	-857
967.778	-624
967.864	-1616
967.950	-1509
968.036	-1352
968.123	-1267
968.209	-1092
968.295	-2612
968.381	-220
968.467	-971
968.553	-1964
968.639	-209
968.725	-1530
968.811	-870
968.897	-513
968.983	-1188
969.069	-1221
969.154	-817
969.240	-1240
969.326	-1302
969.412	-1344
969.497	-1289
969.583	-1996
969.669	-303
969.755	-943
969.840	-1228
969.926	-1166
970.012	-1521
970.097	-261
970.183	-1148
970.268	-1609
970.354	-51
970.439	-1534
970.525	1499
970.610	-1275
970.696	-792
970.781	-1562
970.866	-1206
970.952	-1087
971.037	-2106
971.122	-1452
971.208	-1051
971.293	-897
971.378	-1969
971.463	-1738
971.549	7
971.634	-1732
971.719	-936
971.804	-1441
971.889	58
971.974	-1823
972.059	-1054
972.144	-828
972.229	-1220
972.314	-1834
972.399	-940
972.484	-1796
972.569	-1262
972.654	-1791
972.739	1425
972.824	-187
972.908	-1452
972.993	-1454
973.078	-1648
973.163	-1579
973.247	-1121
973.332	-2693
973.417	26
973.501	-2243
973.586	-1540
973.671	-1758
973.755	-1552
973.840	-1089
973.924	-231
974.009	-1554
974.093	-1743
974.178	-640
974.262	-776
974.346	-958
974.431	-1506
974.515	-2061
974.600	-1151
974.684	-1757
974.768	-963
974.852	-1009
974.937	-1675
975.021	-1053
975.105	-1299
975.189	-1779
975.273	-705
975.358	-1576
975.442	-1451
975.526	-1684
975.610	-1919
975.694	-2419
975.778	-683
975.862	-1176
975.946	-2506
976.030	-1267
976.114	-1708
976.198	-2265
976.281	-1188
976.365	-1233
976.449	-843
976.533	-1423
976.617	-1728
976.700	-1220
976.784	-1222
976.868	-1144
976.951	-934
977.035	-1848
977.119	-1220
977.202	-2191
977.286	-820
977.369	-1859
977.453	-1117
977.536	-2332
977.620	-1329
977.703	-2163
977.787	-1585
977.870	-272
977.953	-498
978.037	-2615
978.120	-197
978.203	-1459
978.287	-854
978.370	-1343
978.453	-831
978.536	-1457
978.620	-627
978.703	-1250
978.786	-1358
978.869	-1890
978.952	-2514
979.035	-587
979.118	110
979.201	-1587
979.284	-710
979.367	-2140
979.450	-994
979.533	-2258
979.616	-1787
979.699	-2353
979.782	-839
979.865	-1530
979.948	-1681
980.030	-2313
980.113	-913
980.196	-3052
980.279	-1206
980.361	-1819
980.444	-1200
980.526	-1941
980.609	-2057
980.692	-2441
980.774	-1690
980.857	-2931
980.939	-810
981.022	-1577
981.104	-2125
981.187	-2140
981.269	-761
981.352	-2104
981.434	-1853
981.516	-1499
981.599	-1103
981.681	-943
981.763	-1058
981.846	-1784
981.928	-1825
982.010	-1461
982.092	-1743
982.174	-1186
982.256	-1280
982.339	-2649
982.421	-2124
982.503	-1681
982.585	-1823
982.667	-1234
982.749	-1335
982.831	-1307
982.913	-2068
982.995	-1350
983.077	-846
983.158	-1373
983.240	-2121
983.322	-1150
983.404	-689
983.486	-2692
983.568	-717
983.649	-1385
983.731	-1184
983.813	-2361
983.894	-1197
983.976	-2679
984.058	-2255
984.139	-914
984.221	-2024
984.302	-1449
984.384	-1622
984.465	-2904
984.547	-494
984.628	-2226
984.710	-1158
984.791	-1825
984.872	-1829
984.954	-2063
985.035	-1555
985.116	-3252
985.198	-2416
985.279	-687
985.360	-1391
985.441	-1758
985.522	-1174
985.604	-1568
985.685	-2400
985.766	-1335
985.847	-238
985.928	-1469
986.009	-1183
986.090	-3096
986.171	-822
986.252	-2676
986.333	-1439
986.414	-1736
986.495	-1406
986.576	-1915
986.656	-1731
986.737	-1321
986.818	-1728
986.899	-2369
986.980	-2095
987.060	-1512
987.141	-2201
987.222	-1762
987.302	-2005
987.383	-1519
987.464	-2042
987.544	-2135
987.625	-1478
987.705	-1167
987.786	-2338
987.866	-1544
987.947	-1589
988.027	-2493
988.108	-1561
988.188	-1396
988.268	-1026
988.349	-2396
988.429	-1427
988.509	-1545
988.589	-1793
988.670	-2994
988.750	-772
988.830	-2062
988.910	-1542
988.990	-2537
989.070	-1537
989.151	-1734
989.231	-2282
989.311	-1156
989.391	-1461
989.471	-1651
989.551	-1609
989.631	-2270
989.711	-956
989.791	-2971
989.870	-3139
989.950	-929
990.030	-1999
990.110	-2177
990.190	-1923
990.269	-1951
990.349	-1813
990.429	-1763
990.509	-1791
990.588	-1801
990.668	-1040
990.747	-2073
990.827	-2145
990.907	-1024
990.986	-1779
991.066	-1717
991.145	-2067
991.225	-1261
991.304	-2315
991.383	-1715
991.463	-991
991.542	-1410
991.622	-1263
991.701	-2435
991.780	-1410
991.859	-2090
991.939	-1576
992.018	-2182
992.097	-1084
992.176	-1710
992.256	-1446
992.335	-2452
992.414	-763
992.493	-1802
992.572	-1556
992.651	-1008
992.730	-1076
992.809	-1732
992.888	-1853
992.967	-2042
993.046	-606
993.125	-2140
993.203	-1980
993.282	-1913
993.361	-1514
993.440	-1516
993.519	-1762
993.597	-1395
993.676	-1803
993.755	-2450
993.834	-1072
993.912	-3378
993.991	-534
994.069	-1466
994.148	-1141
994.226	-1862
994.305	-1486
994.384	-2095
994.462	-1206
994.540	-2568
994.619	-1995
994.697	-1882
994.776	-1652
994.854	-1027
994.932	-1906
995.011	-1577
995.089	-1634
995.167	-1858
995.245	-1169
995.324	-1857
995.402	-1843
995.480	-3062
995.558	-2135
995.636	-2147
995.714	-1484
995.792	-1592
995.870	-1347
995.948	-986
996.026	-538
996.104	-2322
996.182	-1026
996.260	-2416
996.338	-774
996.416	-2272
996.494	-1066
996.572	-1240
996.649	-2078
996.727	-2875
996.805	-1223
996.883	-2180
996.960	-1950
997.038	-781
997.116	-1755
997.193	-2581
997.271	-1148
997.348	-2278
997.426	-1190
997.504	-2161
997.581	-1566
997.658	-1390
997.736	-2204
997.813	-1745
997.891	-1128
997.968	-2960
998.046	-1148
998.123	-2298
998.200	-1418
998.277	-2824
998.355	-1690
998.432	-2495
998.509	-1661
998.586	-1864
998.663	-1395
998.741	-2522
998.818	-1431
998.895	-1923
998.972	-869
999.049	-2453
999.126	-1415
999.203	-1779
999.280	-2220
999.357	-1780
999.434	-649
999.511	-1245
999.587	-874
999.664	-2270
999.741	-1621
999.818	-1778
999.895	-1306
999.971	-2164
1000.048	-1808
1000.125	-1137
1000.202	-2207
1000.278	-2260
1000.355	-1656
1000.431	-2029
1000.508	-2389
1000.584	-1728
1000.661	-773
1000.738	-2304
1000.814	-1844
1000.890	-1258
1000.967	-2411
1001.043	-2187
1001.120	-3358
1001.196	-2397
1001.272	-1434
1001.349	-1469
1001.425	-1052
1001.501	-2132
1001.577	-1448
1001.654	-2085
1001.730	-2044
1001.806	-1465
1001.882	-2281
1001.958	-1254
1002.034	-1381
1002.110	-2516
1002.186	-2321
1002.262	-1534
1002.338	-3130
1002.414	-1517
1002.490	-1318
1002.566	-1997
1002.642	-2147
1002.718	-1277
1002.794	-1508
1002.870	-2540
1002.945	-1821
1003.021	-1801
1003.097	-1605
1003.173	-1812
1003.248	-2435
1003.324	-1829
1003.400	-1442
1003.475	-2705
1003.551	-1878
1003.626	-2350
1003.702	-1880
1003.777	-1853
1003.853	-2141
1003.928	-3061
1004.004	-1834
1004.079	-2150
1004.155	-1138
1004.230	-3731
1004.305	-1466
1004.381	-2719
1004.456	-1743
1004.531	-2677
1004.607	-1776
1004.682	-2287
1004.757	-1247
1004.832	-2131
1004.907	-1972
1004.982	-1520
1005.057	-1768
1005.133	-2306
1005.208	-1153
1005.283	-1484
1005.358	-1643
1005.433	-2471
1005.508	-1645
1005.583	-2773
1005.657	-2241
1005.732	-1747
1005.807	-1461
1005.882	-1773
1005.957	-2610
1006.032	-1345
1006.106	-1400
1006.181	-1953
1006.256	-1455
1006.331	-2152
1006.405	-2518
1006.480	-2343
1006.554	-1759
1006.629	-2093
1006.704	-2791
1006.778	-1828
1006.853	-1595
1006.927	-2758
1007.002	-1987
1007.076	-2404
1007.150	-2169
1007.225	-3206
1007.299	-1886
1007.373	-1912
1007.448	-1814
1007.522	-1926
1007.596	-2617
1007.671	-3074
1007.745	-827
1007.819	-2911
1007.893	-1348
1007.967	-2476
1008.041	-2715
1008.115	-1456
1008.190	-2537
1008.264	-2147
1008.338	-2772
1008.412	-2003
1008.486	-1648
1008.560	-2939
1008.633	-2325
1008.707	-2161
1008.781	-1115
1008.855	-2609
1008.929	-2238
1009.003	-2241
1009.076	-1924
1009.150	-2484
1009.224	-2107
1009.298	-2058
1009.371	-2937
1009.445	-1280
1009.519	-1650
1009.592	-2971
1009.666	-2030
1009.739	-2172
1009.813	-2885
1009.886	-840
1009.960	-3022
1010.033	-1256
1010.107	-1739
1010.180	-2353
1010.253	-1626
1010.327	-1981
1010.400	-2114
1010.473	-2662
1010.547	-565
1010.620	-2874
1010.693	-1339
1010.766	-2332
1010.840	-1978
1010.913	-2092
1010.986	-2791
1011.059	-2065
1011.132	-2974
1011.205	-1940
1011.278	-2284
1011.351	-2142
1011.424	-1634
1011.497	-2530
1011.570	-1820
1011.643	-2263
1011.716	-2755
1011.789	-2035
1011.862	-2196
1011.934	-2084
1012.007	-2983
1012.080	-1802
1012.153	-2492
1012.225	-1590
1012.298	-2997
1012.371	-2309
1012.443	-2312
1012.516	-2763
1012.588	-2187
1012.661	-2195
1012.733	-2174
1012.806	-1727
1012.879	-2279
1012.951	-2954
1013.023	-2482
1013.096	-2634
1013.168	-2364
1013.241	-2131
1013.313	-1479
1013.385	-2747
1013.458	-1609
1013.530	-2187
1013.602	-2762
1013.674	-1524
1013.746	-3020
1013.819	-2645
1013.891	-697
1013.963	-2211
1014.035	-2108
1014.107	-1918
1014.179	-1632
1014.251	-2177
1014.323	-1277
1014.395	-2768
1014.467	-1492
1014.539	-2542
1014.611	-2069
1014.683	-1529
1014.754	-1720
1014.826	-2467
1014.898	-1191
1014.970	-2879
1015.042	-968
1015.113	-2564
1015.185	-1629
1015.257	-3725
1015.328	-1411
1015.400	-3151
1015.471	-1683
1015.543	-2913
1015.615	-1609
1015.686	-2291
1015.757	-2437
1015.829	-2231
1015.901	-2851
1015.972	-2360
1016.043	-2245
1016.115	-3055
1016.186	-2459
1016.257	-2497
1016.328	-880
1016.400	-1118
1016.471	-2068
1016.542	-2821
1016.613	-1869
1016.685	-2149
1016.756	-1520
1016.827	-3295
1016.898	-2155
1016.969	-2736
1017.040	-2080
1017.111	-3104
1017.182	-2854
1017.253	-2142
1017.324	-2032
1017.395	-2232
1017.466	-2230
1017.537	-2829
1017.608	-1368
1017.678	-2400
1017.749	-2447
1017.820	-2958
1017.891	-2591
1017.961	-3615
1018.032	-2441
1018.103	-2237
1018.173	-2415
1018.244	-1997
1018.315	-2199
1018.385	-2364
1018.456	-1926
1018.526	-2496
1018.597	-1551
1018.667	-2305
1018.738	-2406
1018.808	-2690
1018.878	-2022
1018.949	-2272
1019.019	-2246
1019.089	-2225
1019.160	-2298
1019.230	-3610
1019.300	-1906
1019.371	-3232
1019.441	-2139
1019.511	-2490
1019.581	-2071
1019.651	-3064
1019.721	-2706
1019.791	-2242
1019.861	-2232
1019.931	-2353
1020.001	-1749
1020.071	-2247
1020.141	-2833
1020.211	-2795
1020.281	-2778
1020.351	-2365
1020.421	-1951
1020.491	-1910
1020.560	-3622
1020.630	-1929
1020.700	-1620
1020.770	-2438
1020.839	-1473
1020.909	-3128
1020.979	-2089
1021.048	-3012
1021.118	-2965
1021.187	-2555
1021.257	-2194
1021.326	-2223
1021.396	-3312
1021.465	-2227
1021.535	-1733
1021.604	-3125
1021.674	-2348
1021.743	-2452
1021.812	-2413
1021.882	-3244
1021.951	-2830
1022.020	-2546
1022.089	-2039
1022.159	-2284
1022.228	-1518
1022.297	-2980
1022.366	-2606
1022.435	-2580
1022.504	-2537
1022.573	-3233
1022.642	-1891
1022.711	-2654
1022.781	-1900
1022.849	-2196
1022.918	-2231
1022.987	-2551
1023.056	-3316
1023.125	-2613
1023.194	-2603
1023.263	-2427
1023.331	-1798
1023.400	-3048
1023.469	-3136
1023.538	-2077
1023.606	-3307
1023.675	-2648
1023.744	-2148
1023.812	-2503
1023.881	-2456
1023.949	-2690
1024.018	-2375
1024.086	-2765
1024.155	-2049
1024.223	-4095
1024.292	-2901
1024.360	-1951
1024.429	-1809
1024.497	-3597
1024.565	-2584
1024.634	-2514
1024.702	-2202
1024.770	-2453
1024.838	-2309
1024.907	-2501
1024.975	-2345
1025.043	-2275
1025.111	-2691
1025.179	-1840
1025.247	-1821
1025.315	-2434
1025.383	-2722
1025.451	-2098
1025.519	-2134
1025.587	-2629
1025.655	-1979
1025.723	-2970
1025.791	-2614
1025.859	-2156
1025.927	-1984
1025.995	-3094
1026.062	-1417
1026.130	-2885
1026.198	-2737
1026.266	-2383
1026.333	-2195
1026.401	-1823
1026.469	-1936
1026.536	-1864
1026.604	-2594
1026.671	-3683
1026.739	-2194
1026.806	-2669
1026.874	-2720
1026.941	-2833
1027.009	-2394
1027.076	-2683
1027.144	-1451
1027.211	-2764
1027.278	-2939
1027.345	-2277
1027.413	-1656
1027.480	-2814
1027.547	-2069
1027.614	-2591
1027.682	-2139
1027.749	-2636
1027.816	-2416
1027.883	-2274
1027.950	-1967
1028.017	-2717
1028.084	-1899
1028.151	-2965
1028.218	-1742
1028.285	-2671
1028.352	-3067
1028.419	-2187
1028.486	-2983
1028.553	-2451
1028.619	-2138
1028.686	-2878
1028.753	-2288
1028.820	-2478
1028.886	-2548
1028.953	-2863
1029.020	-2434
1029.086	-2697
1029.153	-2361
1029.220	-3351
1029.286	-2509
1029.353	-2507
1029.419	-2569
1029.486	-2965
1029.552	-2873
1029.619	-2820
1029.685	-2621
1029.751	-2620
1029.818	-1782
1029.884	-2421
1029.951	-1676
1030.017	-2952
1030.083	-2559
1030.149	-2525
1030.216	-2413
1030.282	-2004
1030.348	-1826
1030.414	-3125
1030.480	-2340
1030.546	-2511
1030.612	-1762
1030.678	-2243
1030.744	-1946
1030.810	-2480
1030.876	-1968
1030.942	-2076
1031.008	-1838
1031.074	-3109
1031.140	-2072
1031.206	-1757
1031.272	-3266
1031.337	-2860
1031.403	-2316
1031.469	-2440
1031.534	-2632
1031.600	-2609
1031.666	-3053
1031.731	-3109
1031.797	-2677
1031.863	-2542
1031.928	-2470
1031.994	-1381
1032.059	-1557
1032.125	-2079
1032.190	-1949
1032.256	-2414
1032.321	-2499
1032.386	-2462
1032.452	-2292
1032.517	-3083
1032.582	-2514
1032.647	-2353
1032.713	-1981
1032.778	-2436
1032.843	-2745
1032.908	-3608
1032.974	-2718
1033.039	-2873
1033.104	-1981
1033.169	-2439
1033.234	-2114
1033.299	-2377
1033.364	-2405
1033.429	-2730
1033.494	-1839
1033.559	-2329
1033.624	-1002
1033.688	-2121
1033.753	-3388
1033.818	-3035
1033.883	-1646
1033.948	-2446
1034.013	-2356
1034.077	-2385
1034.142	-1030
1034.207	-2300
1034.271	-2184
1034.336	-2209
1034.400	-2322
1034.465	-1466
1034.530	-1933
1034.594	-2289
1034.658	-1647
1034.723	-3062
1034.787	-2658
1034.852	-2478
1034.916	-2174
1034.981	-2724
1035.045	-2304
1035.109	-2374
1035.173	-2221
1035.238	-2863
1035.302	-1709
1035.366	-2688
1035.430	-2237
1035.495	-3183
1035.559	-1774
1035.623	-3010
1035.687	-3051
1035.751	-2325
1035.815	-1668
1035.879	-2398
1035.943	-1934
1036.007	-2997
1036.071	-2029
1036.135	-2365
1036.198	-2757
1036.262	-2443
1036.326	-2434
1036.390	-2218
1036.454	-1790
1036.517	-2326
1036.581	-2859
1036.645	-2745
1036.709	-2459
1036.772	-2483
1036.836	-1748
1036.900	-2082
1036.963	-2278
1037.026	-2287
1037.090	-1756
1037.154	-2409
1037.217	-2680
1037.280	-3307
1037.344	-1381
1037.407	-2835
1037.471	-2523
1037.534	-2825
1037.597	-2418
1037.661	-2594
1037.724	-2857
1037.787	-2543
1037.850	-1957
1037.913	-2504
1037.977	-1903
1038.040	-2721
1038.103	-2509
1038.166	-2840
1038.229	-1893
1038.292	-3139
1038.355	-3001
1038.418	-2417
1038.481	-1932
1038.544	-2291
1038.607	-2123
1038.670	-2045
1038.732	-2638
1038.795	-3171
1038.858	-2440
1038.921	-2412
1038.984	-2033
1039.046	-2555
1039.109	-2420
1039.172	-3117
1039.234	-2351
1039.297	-2271
1039.360	-2184
1039.422	-3222
1039.485	-2375
1039.547	-3393
1039.610	-2772
1039.672	-2658
1039.734	-1787
1039.797	-2436
1039.859	-2109
1039.922	-2634
1039.984	-1800
1040.046	-3081
1040.109	-2283
1040.171	-2482
1040.233	-1957
1040.295	-2574
1040.358	-2564
1040.420	-2479
1040.482	-2634
1040.544	-2418
1040.606	-2058
1040.668	-2819
1040.730	-1881
1040.792	-2423
1040.854	-1634
1040.916	-3633
1040.978	-2080
1041.040	-2249
1041.102	-2844
1041.164	-3226
1041.225	-2345
1041.287	-2831
1041.349	-2640
1041.411	-2604
1041.472	-2553
1041.534	-2412
1041.596	-2590
1041.657	-1955
1041.719	-2172
1041.781	-2564
1041.842	-2632
1041.904	-2614
1041.965	-2629
1042.027	-2399
1042.088	-1767
1042.150	-2805
1042.211	-2377
1042.272	-1950
1042.334	-1775
1042.395	-2835
1042.456	-2943
1042.518	-2958
1042.579	-2414
1042.640	-2461
1042.701	-2036
1042.763	-1795
1042.824	-2418
1042.885	-3208
1042.946	-2132
1043.007	-2738
1043.068	-2696
1043.129	-3070
1043.190	-3185
1043.251	-2362
1043.312	-2665
1043.373	-2407
1043.434	-2955
1043.495	-3850
1043.556	-1726
1043.616	-2023
1043.677	-2904
1043.738	-2708
1043.799	-1693
1043.859	-2109
1043.920	-2327
1043.981	-2738
1044.041	-1612
1044.102	-1849
1044.162	-2031
1044.223	-2376
1044.284	-2425
1044.344	-2648
1044.405	-2670
1044.465	-2476
1044.525	-2369
1044.586	-2416
1044.646	-2327
1044.707	-2476
1044.767	-1881
1044.827	-2779
1044.887	-2207
1044.948	-1784
1045.008	-2196
1045.068	-2776
1045.128	-2176
1045.188	-2335
1045.249	-2009
1045.309	-3231
1045.369	-2563
1045.429	-1978
1045.489	-2063
1045.549	-3218
1045.609	-2314
1045.669	-3063
1045.729	-2192
1045.789	-2601
1045.848	-1561
1045.908	-2186
1045.968	-1737
1046.028	-2845
1046.088	-2543
1046.147	-1730
1046.207	-1633
1046.267	-1711
1046.326	-2127
1046.386	-2089
1046.446	-1876
1046.505	-2227
1046.565	-1403
1046.624	-1935
1046.684	-1166
1046.743	-1129
1046.803	-664
1046.862	-1121
1046.922	0
