'Start Wavelength	183.907
'End Wavelength	1046.922
'Gate Delay	5.000
'Gate Width (ms)	1.050
'Laser Output Level	0.000
'X Position	0.000
'Y Position	0.000
'Z Position	0.000
'Grid Point Number	1.000
'Shot Number	100.000
183.907	492.000
183.977	111.000
184.047	176
184.116	-90
184.186	-16
184.256	386
184.325	11
184.395	-118
184.465	691
184.534	281
184.604	391
184.674	827
184.743	-634
184.813	354
184.883	-96
184.952	365
185.022	-363
185.092	547
185.161	-330
185.231	-12
185.301	-81
185.370	545
185.440	-158
185.509	603
185.579	731
185.649	580
185.718	218
185.788	278
185.857	-166
185.927	714
185.996	24
186.066	-298
186.136	-218
186.205	972
186.275	134
186.344	167
186.414	302
186.483	-219
186.553	436
186.622	1255
186.692	484
186.761	-173
186.831	279
186.900	689
186.970	131
187.039	1324
187.109	2247
187.178	806
187.248	444
187.317	1231
187.387	-59
187.456	910
187.526	907
187.595	180
187.664	-737
187.734	676
187.803	-43
187.873	925
187.942	1801
188.012	891
188.081	302
188.150	791
188.220	898
188.289	1405
188.358	5
188.428	1115
188.497	-177
188.567	1163
188.636	1303
188.705	421
188.775	-685
188.844	294
188.913	364
188.983	620
189.052	-203
189.121	489
189.191	-8
189.260	1631
189.329	908
189.399	618
189.468	628
189.537	586
189.606	754
189.676	1284
189.745	870
189.814	781
189.883	605
189.953	949
190.022	1747
190.091	2938
190.161	4459
190.230	1330
190.299	947
190.368	1211
190.437	154
190.507	947
190.576	1436
190.645	963
190.714	433
190.783	304
190.853	2254
190.922	1194
190.991	972
191.060	1196
191.129	903
191.198	1082
191.268	975
191.337	445
191.406	910
191.475	813
191.544	651
191.613	1247
191.682	981
191.752	521
191.821	586
191.890	800
191.959	755
192.028	748
192.097	1236
192.166	1123
192.235	1087
192.304	942
192.373	320
192.442	1197
192.511	505
192.580	1054
192.650	750
192.719	346
192.788	752
192.857	1516
192.926	315
192.995	1050
193.064	1607
193.133	2869
193.202	4129
193.271	3788
193.340	2096
193.409	2999
193.478	3585
193.547	4710
193.615	5839
193.684	5408
193.753	3394
193.822	2638
193.891	2162
193.960	1740
194.029	1532
194.098	2284
194.167	954
194.236	1237
194.305	1103
194.374	650
194.443	764
194.512	1120
194.580	1038
194.649	1974
194.718	1612
194.787	1747
194.856	678
194.925	624
194.994	1398
195.062	1240
195.131	1293
195.200	2263
195.269	1831
195.338	1359
195.407	1339
195.475	830
195.544	781
195.613	1936
195.682	1573
195.751	1693
195.819	1940
195.888	1956
195.957	2662
196.026	2423
196.094	2013
196.163	1128
196.232	1299
196.301	2475
196.369	1881
196.438	1580
196.507	1264
196.576	2162
196.644	1374
196.713	1759
196.782	822
196.850	1638
196.919	1155
196.988	1557
197.056	781
197.125	2189
197.194	1608
197.262	1898
197.331	1069
197.400	1649
197.468	1236
197.537	1647
197.606	1148
197.674	2384
197.743	4807
197.812	2442
197.880	4220
197.949	3205
198.017	4698
198.086	3223
198.155	1863
198.223	1935
198.292	5327
198.360	2962
198.429	1739
198.497	1935
198.566	4288
198.635	5222
198.703	2752
198.772	2567
198.840	5707
198.909	5891
198.977	1491
199.046	2758
199.114	1958
199.183	2592
199.251	1393
199.320	1742
199.388	1177
199.457	1294
199.525	1645
199.594	1199
199.662	1975
199.731	2133
199.799	1157
199.867	1845
199.936	1105
200.004	1876
200.073	1741
200.141	1815
200.210	1512
200.278	1595
200.346	1996
200.415	1835
200.483	2331
200.552	2515
200.620	1814
200.688	2133
200.757	2402
200.825	2768
200.893	2112
200.962	1841
201.030	1846
201.098	2310
201.167	2114
201.235	2126
201.303	1705
201.372	1492
201.440	2159
201.508	2317
201.577	1939
201.645	2230
201.713	2411
201.781	2418
201.850	2314
201.918	2135
201.986	1733
202.055	2007
202.123	2134
202.191	1960
202.259	1844
202.327	1784
202.396	2020
202.464	2457
202.532	3007
202.600	6848
202.669	3786
202.737	2376
202.805	1622
202.873	2174
202.941	1952
203.009	2090
203.078	1762
203.146	1845
203.214	2249
203.282	2273
203.350	1997
203.418	3132
203.487	2320
203.555	2381
203.623	2648
203.691	2673
203.759	2462
203.827	2314
203.895	2349
203.963	2913
204.031	1594
204.099	2016
204.168	1222
204.236	3135
204.304	2199
204.372	3082
204.440	2459
204.508	2392
204.576	1773
204.644	2401
204.712	1456
204.780	2433
204.848	2549
204.916	2257
204.984	2244
205.052	2152
205.120	2251
205.188	3043
205.256	1972
205.324	2676
205.392	2823
205.460	2751
205.528	2191
205.596	3299
205.664	2684
205.732	2889
205.799	7870
205.867	10706
205.935	2797
206.003	3271
206.071	2720
206.139	3012
206.207	2167
206.275	2236
206.343	2199
206.411	2593
206.478	2950
206.546	3209
206.614	2499
206.682	2557
206.750	2505
206.818	3729
206.885	3751
206.953	2279
207.021	3092
207.089	3532
207.157	1890
207.225	3208
207.292	2514
207.360	4336
207.428	3117
207.496	2783
207.563	2581
207.631	3415
207.699	2059
207.767	2656
207.834	2752
207.902	3146
207.970	3095
208.038	2764
208.105	3651
208.173	4271
208.241	5289
208.309	5622
208.376	4079
208.444	6968
208.512	4150
208.579	2605
208.647	3958
208.715	4356
208.782	3129
208.850	3140
208.918	3774
208.985	3419
209.053	3410
209.120	3126
209.188	3265
209.256	3433
209.323	4150
209.391	4857
209.459	4316
209.526	2894
209.594	3344
209.661	3472
209.729	3788
209.796	4763
209.864	3625
209.932	3155
209.999	5003
210.067	4436
210.134	3987
210.202	4320
210.269	4579
210.337	5028
210.404	4103
210.472	4320
210.539	4729
210.607	4252
210.674	4191
210.742	3961
210.809	4265
210.877	4734
210.944	4892
211.012	4396
211.079	4752
211.146	3990
211.214	3743
211.281	4293
211.349	4790
211.416	4303
211.484	4821
211.551	3905
211.618	4387
211.686	3737
211.753	4114
211.821	4637
211.888	3832
211.955	4177
212.023	3874
212.090	4691
212.157	4116
212.225	5096
212.292	7916
212.359	14261
212.427	28440
212.494	14281
212.561	7207
212.629	6330
212.696	5298
212.763	5471
212.831	4863
212.898	5168
212.965	4557
213.032	5511
213.100	4653
213.167	5206
213.234	5696
213.301	4408
213.369	5118
213.436	5743
213.503	4328
213.570	6045
213.638	5248
213.705	4458
213.772	3856
213.839	6361
213.906	5831
213.973	5103
214.041	4695
214.108	5166
214.175	5326
214.242	5258
214.309	4208
214.376	4838
214.444	4739
214.511	6546
214.578	5898
214.645	6299
214.712	5588
214.779	6007
214.846	5637
214.913	7547
214.980	7343
215.048	8273
215.115	7986
215.182	6420
215.249	5498
215.316	5601
215.383	4582
215.450	5255
215.517	4769
215.584	4269
215.651	4412
215.718	5019
215.785	5449
215.852	5166
215.919	5248
215.986	5204
216.053	4925
216.120	3838
216.187	4531
216.254	3889
216.321	4845
216.388	4981
216.455	5369
216.522	5044
216.589	4818
216.656	9639
216.722	9200
216.789	9033
216.856	9155
216.923	8361
216.990	7185
217.057	6735
217.124	8468
217.191	8724
217.258	10421
217.324	13208
217.391	14140
217.458	11463
217.525	7718
217.592	7344
217.659	6088
217.725	6922
217.792	8218
217.859	8108
217.926	4333
217.993	3709
218.059	4400
218.126	3944
218.193	3965
218.260	4029
218.327	3941
218.393	4229
218.460	2965
218.527	3998
218.594	4236
218.660	8393
218.727	7973
218.794	4022
218.860	3891
218.927	3406
218.994	3193
219.061	2846
219.127	3802
219.194	6566
219.261	3515
219.327	2608
219.394	2880
219.461	2691
219.527	2665
219.594	5933
219.661	4091
219.727	2789
219.794	3230
219.860	3442
219.927	4343
219.994	5827
220.060	9814
220.127	6832
220.193	5526
220.260	6872
220.326	10493
220.393	18081
220.460	23640
220.526	14605
220.593	9981
220.659	9749
220.726	9410
220.792	18970
220.859	19129
220.925	28456
220.992	38304
221.058	31181
221.125	25125
221.191	19064
221.258	10004
221.324	7377
221.391	6653
221.457	5749
221.524	5035
221.590	7579
221.657	19870
221.723	14418
221.789	13854
221.856	11747
221.922	7617
221.989	5354
222.055	3987
222.121	3891
222.188	5774
222.254	4345
222.321	3479
222.387	3526
222.453	3293
222.520	4178
222.586	2332
222.652	4594
222.719	3956
222.785	3556
222.851	3468
222.918	3039
222.984	3315
223.050	3850
223.116	3054
223.183	3319
223.249	2486
223.315	2793
223.382	3204
223.448	3152
223.514	2403
223.580	2592
223.647	2485
223.713	1692
223.779	2643
223.845	2140
223.911	2781
223.978	3167
224.044	2541
224.110	2675
224.176	2991
224.242	2994
224.309	2261
224.375	2907
224.441	2168
224.507	2788
224.573	1978
224.639	3244
224.705	1707
224.772	2417
224.838	2174
224.904	3760
224.970	2541
225.036	2380
225.102	2954
225.168	3197
225.234	3390
225.300	3415
225.366	2492
225.432	2896
225.499	3020
225.565	2766
225.631	3387
225.697	4051
225.763	5497
225.829	6686
225.895	6545
225.961	9663
226.027	7754
226.093	7032
226.159	9338
226.225	14855
226.291	36305
226.357	55653
226.423	28447
226.489	15914
226.554	10237
226.620	9772
226.686	11779
226.752	18591
226.818	32510
226.884	68434
226.950	57824
227.016	25068
227.082	14408
227.148	9329
227.214	9620
227.279	8901
227.345	7239
227.411	6456
227.477	5569
227.543	6215
227.609	8262
227.674	8581
227.740	4758
227.806	5233
227.872	5043
227.938	5337
228.003	8397
228.069	5045
228.135	2764
228.201	4312
228.267	3905
228.332	4493
228.398	6614
228.464	4680
228.530	3187
228.595	3559
228.661	2953
228.727	6551
228.792	4775
228.858	3112
228.924	3265
228.990	5872
229.055	3917
229.121	5660
229.187	3090
229.252	4231
229.318	2957
229.384	3723
229.449	4985
229.515	2010
229.581	1110
229.646	4059
229.712	3917
229.777	9779
229.843	9017
229.909	7221
229.974	8695
230.040	7853
230.105	3942
230.171	6376
230.236	7993
230.302	12411
230.368	9763
230.433	6801
230.499	5322
230.564	7845
230.630	4561
230.695	3832
230.761	4272
230.826	3087
230.892	7229
230.957	3975
231.023	4094
231.088	4266
231.154	3134
231.219	4215
231.284	6055
231.350	6904
231.415	3719
231.481	3964
231.546	3224
231.612	3353
231.677	2451
231.742	2657
231.808	3884
231.873	3412
231.939	2294
232.004	7142
232.069	6279
232.135	4284
232.200	4160
232.265	3306
232.331	2574
232.396	2767
232.461	2228
232.527	2707
232.592	2214
232.657	3459
232.723	5716
232.788	4424
232.853	3343
232.918	3023
232.984	2851
233.049	2036
233.114	4986
233.179	4831
233.245	7812
233.310	8455
233.375	2516
233.440	3812
233.506	3866
233.571	3602
233.636	2243
233.701	3197
233.766	5639
233.832	7517
233.897	3695
233.962	3643
234.027	4368
234.092	4491
234.157	3898
234.222	3462
234.288	6025
234.353	18195
234.418	14030
234.483	8837
234.548	6104
234.613	6082
234.678	5473
234.743	6423
234.808	16846
234.873	11998
234.938	7034
235.004	5748
235.069	5540
235.134	4067
235.199	4978
235.264	4476
235.329	3965
235.394	4454
235.459	5602
235.524	5382
235.589	4642
235.654	4332
235.719	2849
235.784	5103
235.849	4581
235.913	9414
235.978	9870
236.043	10908
236.108	5783
236.173	4775
236.238	6519
236.303	4739
236.368	5234
236.433	8990
236.498	12189
236.563	12089
236.627	26393
236.692	83852
236.757	65957
236.822	24936
236.887	18179
236.952	14293
237.017	11385
237.081	13512
237.146	16640
237.211	39245
237.276	83068
237.341	121057
237.405	57234
237.470	24867
237.535	16688
237.600	11169
237.664	8696
237.729	8634
237.794	13216
237.859	26353
237.923	13749
237.988	8301
238.053	10054
238.118	10499
238.182	25371
238.247	20365
238.312	10608
238.376	9142
238.441	7018
238.506	7561
238.570	3798
238.635	4406
238.700	3601
238.764	4863
238.829	10998
238.893	11845
238.958	7152
239.023	7415
239.087	5034
239.152	5936
239.216	4254
239.281	4567
239.346	3892
239.410	4037
239.475	5576
239.539	21856
239.604	16813
239.668	6043
239.733	4502
239.797	5519
239.862	7832
239.926	16851
239.991	7323
240.055	4552
240.120	3713
240.184	4783
240.249	3535
240.313	3106
240.378	3864
240.442	12939
240.507	21382
240.571	6864
240.635	10598
240.700	12797
240.764	5517
240.829	4007
240.893	2856
240.957	4350
241.022	12923
241.086	20721
241.151	9141
241.215	4164
241.279	6666
241.344	11455
241.408	6679
241.472	5826
241.537	6005
241.601	6284
241.665	4578
241.730	5011
241.794	5860
241.858	6150
241.922	5831
241.987	6002
242.051	4510
242.115	5081
242.179	5784
242.244	4603
242.308	4672
242.372	5301
242.436	7249
242.501	5151
242.565	4792
242.629	4061
242.693	4772
242.757	4220
242.822	4272
242.886	5508
242.950	5417
243.014	4715
243.078	5599
243.142	6740
243.206	4235
243.271	5910
243.335	6693
243.399	10412
243.463	39901
243.527	98234
243.591	29069
243.655	12955
243.719	8082
243.783	8739
243.847	13875
243.911	17315
243.975	17354
244.040	12164
244.104	8178
244.168	6310
244.232	8552
244.296	13506
244.360	16252
244.424	7783
244.488	5620
244.552	5823
244.615	3121
244.679	4527
244.743	6760
244.807	6757
244.871	4792
244.935	4641
244.999	3414
245.063	4714
245.127	5775
245.191	12156
245.255	10529
245.319	7521
245.383	6212
245.446	5741
245.510	4002
245.574	4818
245.638	5313
245.702	5332
245.766	15275
245.829	8901
245.893	5451
245.957	6047
246.021	6153
246.085	5865
246.149	7462
246.212	19678
246.276	27554
246.340	11715
246.404	8740
246.467	9352
246.531	14949
246.595	9860
246.659	7986
246.722	6922
246.786	8745
246.850	9844
246.913	13918
246.977	6044
247.041	5511
247.104	6858
247.168	6960
247.232	18786
247.295	38092
247.359	17438
247.423	8485
247.486	16364
247.550	9402
247.614	7309
247.677	9358
247.741	6493
247.804	5553
247.868	7300
247.932	15629
247.995	32582
248.059	12261
248.122	6041
248.186	9190
248.249	15474
248.313	57999
248.376	56601
248.440	35582
248.503	13188
248.567	11669
248.630	16743
248.694	22411
248.757	28358
248.821	61730
248.884	33560
248.948	32801
249.011	46186
249.075	71723
249.138	57575
249.202	21563
249.265	14888
249.328	16909
249.392	13171
249.455	11506
249.519	9426
249.582	12285
249.645	20837
249.709	15793
249.772	14171
249.835	10675
249.899	10499
249.962	8905
250.025	9881
250.089	23988
250.152	30381
250.215	14306
250.279	10701
250.342	11526
250.405	12118
250.468	10614
250.532	14560
250.595	24042
250.658	94569
250.721	137803
250.785	48026
250.848	24569
250.911	16329
250.974	14417
251.038	19861
251.101	37766
251.164	19300
251.227	19775
251.290	19384
251.354	32175
251.417	126800
251.480	116614
251.543	86606
251.606	224072
251.669	157589
251.732	60524
251.795	59020
251.859	63602
251.922	142834
251.985	74477
252.048	31491
252.111	22070
252.174	19764
252.237	35325
252.300	74760
252.363	88438
252.426	175332
252.489	71696
252.552	38175
252.615	26289
252.678	25092
252.741	58258
252.804	85727
252.867	180157
252.930	97413
252.993	54499
253.056	30537
253.119	25883
253.182	21224
253.245	33792
253.308	21936
253.371	18536
253.434	17453
253.497	19695
253.559	36269
253.622	23903
253.685	26024
253.748	25315
253.811	13385
253.874	15429
253.937	14639
254.000	12436
254.062	23250
254.125	35550
254.188	35868
254.251	27362
254.314	12783
254.376	23623
254.439	25794
254.502	19935
254.565	24307
254.628	39784
254.690	21823
254.753	12361
254.816	11311
254.878	11756
254.941	25685
255.004	25687
255.067	10739
255.129	9763
255.192	7746
255.255	5954
255.317	7788
255.380	6210
255.443	5385
255.505	5080
255.568	5010
255.631	6121
255.693	7151
255.756	4920
255.819	5898
255.881	4773
255.944	4846
256.006	4313
256.069	4772
256.132	4589
256.194	7339
256.257	17158
256.319	12720
256.382	11589
256.444	7579
256.507	7353
256.569	6725
256.632	9266
256.694	14241
256.757	48793
256.819	131713
256.882	48477
256.944	19102
257.007	14399
257.069	14593
257.132	11399
257.194	9751
257.257	8195
257.319	8284
257.381	12082
257.444	34543
257.506	153198
257.569	149220
257.631	49019
257.693	29609
257.756	17421
257.818	13961
257.880	9506
257.943	8346
258.005	7614
258.067	7690
258.130	7075
258.192	8737
258.254	15829
258.317	9799
258.379	7965
258.441	22490
258.503	20316
258.566	26154
258.628	29105
258.690	9341
258.753	9424
258.815	15098
258.877	7783
258.939	6116
259.001	6869
259.064	6415
259.126	6882
259.188	10182
259.250	7436
259.312	8069
259.375	14880
259.437	10768
259.499	5390
259.561	6189
259.623	6684
259.685	9036
259.747	8213
259.809	24127
259.872	41648
259.934	67567
259.996	62074
260.058	18871
260.120	8323
260.182	7609
260.244	6687
260.306	5096
260.368	6104
260.430	6138
260.492	17769
260.554	25395
260.616	12192
260.678	35381
260.740	43415
260.802	11278
260.864	9586
260.926	7801
260.988	8125
261.050	8896
261.112	29031
261.174	60723
261.236	34875
261.298	12566
261.359	20654
261.421	26179
261.483	9297
261.545	8271
261.607	5207
261.669	6505
261.731	13258
261.793	28165
261.854	12716
261.916	8811
261.978	9805
262.040	10862
262.102	7115
262.164	11300
262.225	8466
262.287	7016
262.349	17800
262.411	13414
262.472	6467
262.534	13350
262.596	25548
262.658	8859
262.719	5522
262.781	9558
262.843	24656
262.904	12289
262.966	8919
263.028	13550
263.090	62658
263.151	150058
263.213	46402
263.275	26763
263.336	11447
263.398	8788
263.459	5561
263.521	6969
263.583	16215
263.644	10827
263.706	5169
263.767	4402
263.829	4090
263.891	4232
263.952	3871
264.014	3706
264.075	14805
264.137	35022
264.198	12968
264.260	5883
264.321	6188
264.383	19186
264.444	50530
264.506	14357
264.567	9485
264.629	22749
264.690	47444
264.752	15456
264.813	7723
264.875	6592
264.936	7014
264.998	6740
265.059	4655
265.120	7111
265.182	13956
265.243	77075
265.305	67766
265.366	15460
265.427	9448
265.489	8283
265.550	5605
265.611	7196
265.673	5695
265.734	5844
265.795	5484
265.857	5421
265.918	7292
265.979	22027
266.040	121928
266.102	85341
266.163	23391
266.224	17804
266.286	9883
266.347	7293
266.408	7400
266.469	6265
266.530	4781
266.592	5096
266.653	9916
266.714	16680
266.775	5654
266.836	4501
266.898	4834
266.959	11328
267.020	7767
267.081	4995
267.142	4317
267.203	3664
267.264	3107
267.326	5727
267.387	4172
267.448	4043
267.509	4253
267.570	3812
267.631	3119
267.692	3592
267.753	4281
267.814	3488
267.875	10967
267.936	24088
267.997	17152
268.058	12457
268.119	6515
268.180	6689
268.241	4465
268.302	4344
268.363	4113
268.424	5129
268.485	4790
268.546	3779
268.607	2669
268.668	3772
268.729	3539
268.790	3958
268.851	5477
268.912	16336
268.972	15905
269.033	7609
269.094	4342
269.155	4605
269.216	3288
269.277	4009
269.338	3495
269.398	4318
269.459	5166
269.520	6719
269.581	9627
269.642	10389
269.702	7463
269.763	6456
269.824	4611
269.885	6222
269.945	10261
270.006	4694
270.067	3743
270.128	3773
270.188	2960
270.249	4013
270.310	2726
270.370	3656
270.431	3415
270.492	3256
270.553	4314
270.613	10331
270.674	22129
270.734	8630
270.795	5498
270.856	7726
270.916	5762
270.977	4743
271.038	5465
271.098	6261
271.159	10585
271.219	8947
271.280	4870
271.340	4773
271.401	5126
271.462	13360
271.522	7105
271.583	5660
271.643	5792
271.704	5692
271.764	6623
271.825	16504
271.885	53731
271.946	68730
272.006	20902
272.066	32710
272.127	53726
272.187	15263
272.248	9663
272.308	11493
272.369	42484
272.429	21799
272.489	15921
272.550	15986
272.610	15518
272.671	11342
272.731	12612
272.791	17008
272.852	9803
272.912	8304
272.972	4849
273.033	5489
273.093	9114
273.153	10418
273.214	7584
273.274	9195
273.334	38143
273.394	62203
273.455	21119
273.515	24207
273.575	54378
273.635	19883
273.696	26652
273.756	54618
273.816	18899
273.876	11920
273.936	24646
273.997	42879
274.057	12649
274.117	10302
274.177	17018
274.237	75934
274.297	56794
274.358	34462
274.418	47609
274.478	32343
274.538	13146
274.598	10869
274.658	33666
274.718	40487
274.778	15293
274.838	9926
274.898	20942
274.958	57078
275.018	56356
275.078	33196
275.138	13883
275.198	9170
275.258	6249
275.318	8984
275.378	14312
275.438	14392
275.498	11322
275.558	29117
275.618	59667
275.678	40106
275.738	23964
275.798	20645
275.858	13977
275.918	6764
275.978	7782
276.038	6945
276.098	5787
276.157	13338
276.217	35310
276.277	16093
276.337	10843
276.397	6640
276.457	8002
276.517	6696
276.576	4380
276.636	4799
276.696	8853
276.756	21163
276.815	14023
276.875	6903
276.935	8014
276.995	7142
277.055	5210
277.114	4954
277.174	8792
277.234	31528
277.293	12152
277.353	6866
277.413	5062
277.472	6064
277.532	6072
277.592	7752
277.651	21404
277.711	38810
277.771	13992
277.830	51819
277.890	36973
277.950	32561
278.009	88542
278.069	29649
278.128	29373
278.188	38160
278.248	17868
278.307	43713
278.367	24224
278.426	9166
278.486	7613
278.545	6084
278.605	4397
278.664	4828
278.724	7427
278.783	22970
278.843	58167
278.902	15920
278.962	8097
279.021	9798
279.081	9341
279.140	9363
279.199	9834
279.259	9403
279.318	8186
279.378	11982
279.437	21177
279.496	70796
279.556	218508
279.615	154516
279.675	37471
279.734	24308
279.793	33239
279.853	45512
279.912	17330
279.971	10623
280.031	9820
280.090	18433
280.149	29592
280.208	33427
280.268	168412
280.327	146739
280.386	32694
280.445	27988
280.505	26639
280.564	14544
280.623	12558
280.682	19108
280.742	24813
280.801	8620
280.860	6929
280.919	6077
280.978	6154
281.037	5660
281.097	4922
281.156	5221
281.215	5925
281.274	8356
281.333	40259
281.392	27823
281.451	7346
281.510	5761
281.569	4790
281.628	4647
281.688	4304
281.747	6208
281.806	5769
281.865	5036
281.924	2951
281.983	3695
282.042	3178
282.101	3830
282.160	3714
282.219	3854
282.278	4985
282.337	19609
282.396	12078
282.454	5921
282.513	7686
282.572	29150
282.631	15917
282.690	6432
282.749	4455
282.808	6870
282.867	6660
282.926	5961
282.985	3286
283.043	3156
283.102	4305
283.161	5726
283.220	18174
283.279	37180
283.338	10825
283.396	6363
283.455	5336
283.514	6074
283.573	10766
283.631	7977
283.690	4843
283.749	5836
283.808	12672
283.866	13514
283.925	5621
283.984	5330
284.043	7588
284.101	7505
284.160	5557
284.219	11884
284.277	8277
284.336	12930
284.395	40847
284.453	32678
284.512	10971
284.570	13881
284.629	11260
284.688	9825
284.746	8707
284.805	11263
284.863	13296
284.922	16359
284.981	17062
285.039	27276
285.098	51932
285.156	137715
285.215	333236
285.273	303486
285.332	141443
285.390	68224
285.449	43160
285.507	30418
285.566	22163
285.624	17641
285.683	13530
285.741	10289
285.799	9556
285.858	8736
285.916	7265
285.975	6644
286.033	6229
286.091	5949
286.150	4496
286.208	5862
286.267	7700
286.325	6656
286.383	11332
286.442	9245
286.500	4949
286.558	4816
286.616	4743
286.675	7126
286.733	6211
286.791	5237
286.850	7330
286.908	9735
286.966	15981
287.024	7328
287.083	4974
287.141	4490
287.199	5431
287.257	8072
287.315	5898
287.374	7530
287.432	18487
287.490	11659
287.548	6930
287.606	6580
287.664	6873
287.723	10073
287.781	13678
287.839	8558
287.897	8477
287.955	12059
288.013	21738
288.071	51756
288.129	190471
288.187	444786
288.245	192951
288.303	64882
288.361	38582
288.419	32237
288.477	23416
288.535	15000
288.593	11721
288.651	9495
288.709	7046
288.767	6699
288.825	5759
288.883	5741
288.941	6251
288.999	5809
289.057	4013
289.115	5279
289.173	5225
289.231	4999
289.289	5719
289.346	5427
289.404	6607
289.462	9800
289.520	9194
289.578	5681
289.636	3843
289.694	3506
289.751	4131
289.809	3760
289.867	3915
289.925	6053
289.983	6547
290.040	3748
290.098	3367
290.156	4761
290.214	6037
290.271	3620
290.329	3531
290.387	3074
290.444	3347
290.502	2584
290.560	4081
290.617	3938
290.675	3449
290.733	3205
290.790	4952
290.848	3986
290.906	4712
290.963	3746
291.021	3969
291.078	4717
291.136	7568
291.194	25536
291.251	48608
291.309	13217
291.366	5729
291.424	5526
291.481	5036
291.539	4525
291.596	3635
291.654	3549
291.711	3394
291.769	3913
291.826	9392
291.884	6527
291.941	3998
291.999	4204
292.056	4609
292.114	5903
292.171	4550
292.228	3428
292.286	5678
292.343	10639
292.401	12241
292.458	8939
292.515	4986
292.573	6069
292.630	6062
292.687	6274
292.745	6324
292.802	12252
292.859	31122
292.917	40729
292.974	21962
293.031	8726
293.089	5600
293.146	5423
293.203	4914
293.260	4788
293.318	5757
293.375	14323
293.432	7809
293.489	4489
293.546	5176
293.604	9637
293.661	25152
293.718	64733
293.775	32482
293.832	14324
293.889	9968
293.947	8528
294.004	7306
294.061	9262
294.118	19581
294.175	46111
294.232	65561
294.289	24282
294.346	11870
294.403	10757
294.460	9297
294.517	7352
294.574	7191
294.631	6793
294.688	9852
294.745	23646
294.802	85320
294.859	99184
294.916	33174
294.973	15985
295.030	13122
295.087	12916
295.144	8872
295.201	8490
295.258	7317
295.315	11050
295.372	29488
295.429	53947
295.486	23984
295.542	18721
295.599	51646
295.656	81884
295.713	49330
295.770	53674
295.827	21877
295.883	12978
295.940	11769
295.997	16797
296.054	15066
296.111	9124
296.167	6331
296.224	5761
296.281	5169
296.338	5634
296.394	5912
296.451	9282
296.508	25304
296.564	49154
296.621	32843
296.678	56994
296.734	80081
296.791	32089
296.848	17760
296.904	18466
296.961	35258
297.018	60488
297.074	45694
297.131	18768
297.187	14192
297.244	21140
297.301	61487
297.357	103369
297.414	35127
297.470	15769
297.527	11456
297.583	9323
297.640	9518
297.696	8045
297.753	7183
297.809	5114
297.866	4710
297.922	5586
297.979	5374
298.035	7230
298.092	13221
298.148	34865
298.204	31254
298.261	17646
298.317	29999
298.374	71682
298.430	39015
298.486	18268
298.543	12614
298.599	13537
298.656	16472
298.712	26122
298.768	62648
298.824	45146
298.881	16030
298.937	10349
298.993	8739
299.050	11090
299.106	9302
299.162	8501
299.218	8621
299.275	7124
299.331	9488
299.387	17881
299.443	58059
299.500	54601
299.556	20163
299.612	10812
299.668	9394
299.724	9469
299.780	9019
299.837	8478
299.893	15439
299.949	49898
300.005	55192
300.061	48570
300.117	85429
300.173	40537
300.229	18606
300.285	20728
300.341	22548
300.397	12646
300.453	8902
300.510	7670
300.566	8002
300.622	9370
300.678	15006
300.734	35955
300.790	45091
300.845	59413
300.901	33378
300.957	43276
301.013	35674
301.069	15272
301.125	10625
301.181	12241
301.237	9243
301.293	7879
301.349	6790
301.405	6931
301.461	7721
301.516	10397
301.572	9492
301.628	15052
301.684	15063
301.740	23662
301.796	36685
301.851	24708
301.907	37897
301.963	40803
302.019	65424
302.074	166031
302.130	154112
302.186	69969
302.242	30726
302.297	20214
302.353	22154
302.409	38977
302.464	34552
302.520	27868
302.576	61654
302.631	69846
302.687	38159
302.743	17707
302.798	11702
302.854	10317
302.910	10315
302.965	14090
303.021	21124
303.076	20165
303.132	22572
303.187	26848
303.243	14973
303.299	10450
303.354	8142
303.410	8147
303.465	7824
303.521	7832
303.576	8364
303.632	11257
303.687	20489
303.743	55376
303.798	45332
303.853	20106
303.909	11980
303.964	11461
304.020	15967
304.075	21040
304.130	19157
304.186	32404
304.241	31206
304.297	26850
304.352	14625
304.358	14285
304.407	11523
304.449	9789
304.463	9211
304.518	10131
304.539	9753
304.573	9172
304.629	10975
304.630	11132
304.684	18623
304.720	33408
304.739	40804
304.794	61037
304.811	51803
304.850	29653
304.902	15573
304.905	14690
304.960	11938
304.992	12169
305.015	12299
305.071	12097
305.083	11373
305.126	8741
305.173	7514
305.181	7331
305.236	6654
305.264	7040
305.292	7475
305.347	8730
305.354	8912
305.402	10151
305.445	11743
305.457	12147
305.512	14095
305.535	13818
305.567	13510
305.622	15714
305.626	16294
305.678	29463
305.716	56095
305.733	65661
305.788	71125
305.807	61936
305.843	45747
305.897	55199
305.898	55280
305.953	54987
305.988	37946
306.008	28563
306.063	16881
306.078	15513
306.118	12810
306.168	9739
306.173	9490
306.228	7751
306.259	7554
306.283	7448
306.338	7773
306.349	7919
306.393	8978
306.440	11709
306.448	12126
306.503	12977
306.530	14320
306.558	19923
306.613	47073
306.620	49968
306.668	60800
306.711	63499
306.723	62682
306.778	45555
306.801	35086
306.833	23554
306.888	13183
306.892	12759
306.943	9954
306.982	9616
306.997	9625
307.052	9558
307.072	10045
307.107	13009
307.162	20176
307.163	20304
307.217	34845
307.253	42143
307.272	42941
307.327	43201
307.343	39116
307.381	29364
307.434	23428
307.436	24040
307.491	50567
307.524	72765
307.546	76707
307.600	60255
307.614	52631
307.655	32904
307.704	20051
307.710	19946
307.765	26120
307.795	33627
307.819	42638
307.874	74845
307.885	75255
307.929	54602
307.975	33876
307.984	33597
308.038	45179
308.065	56748
308.093	91842
308.148	186692
308.156	208156
308.202	318820
308.246	378747
308.257	369223
308.312	205155
308.336	145476
308.366	108138
308.421	66429
308.426	63127
308.475	42727
308.517	31403
308.530	29298
308.585	25462
308.607	24044
308.639	24542
308.694	28821
308.697	29286
308.748	57355
308.787	88491
308.803	88656
308.857	64720
308.877	53649
308.912	41822
308.967	33422
308.967	33368
309.021	42121
309.058	51002
309.076	63995
309.130	114904
309.148	136285
309.185	238193
309.238	417701
309.239	418967
309.293	453658
309.328	417007
309.348	361068
309.402	182014
309.418	138576
309.457	95742
309.508	57390
309.511	56191
309.566	45973
309.598	41732
309.620	43568
309.674	52112
309.688	54646
309.729	50976
309.778	41780
309.783	40860
309.837	30827
309.868	26656
309.892	31888
309.946	47679
309.959	52898
310.001	70405
310.049	85986
310.055	83458
310.109	51315
310.139	32842
310.163	25949
310.218	16032
310.229	14458
310.272	12887
310.319	11795
310.326	11826
310.381	12859
310.409	13209
310.435	12919
310.489	12847
310.499	12775
310.543	14190
310.589	15896
310.598	15861
310.652	15908
310.679	15510
310.706	13344
310.760	8925
310.769	8237
310.814	6866
310.859	5948
310.868	6110
310.923	6916
310.948	7516
310.977	8398
311.031	9799
311.038	10033
311.085	9964
311.128	9397
311.139	9317
311.193	9230
311.218	9185
311.247	8530
311.301	7145
311.308	6973
311.356	7702
311.398	8599
311.410	8418
311.464	7245
311.488	6726
311.518	6649
311.572	6601
311.578	6608
311.626	9009
311.668	11157
311.680	11936
311.734	15313
311.758	16816
311.788	15947
311.842	14199
311.847	14008
311.896	19684
311.937	24744
311.950	24348
312.004	22358
312.027	21382
312.058	17308
312.112	10086
312.117	9366
312.165	9059
312.207	8806
312.297	16894
312.386	13306
312.476	9041
312.566	16605
312.656	8998
312.745	7955
312.835	9642
312.925	11346
313.015	11135
313.104	15297
313.194	7420
313.284	7936
313.374	8959
313.463	8696
313.553	6477
313.643	6838
313.732	6303
313.822	6353
313.912	8355
314.001	8623
314.091	12177
314.180	18622
314.270	12332
314.360	16126
314.449	11595
314.539	7538
314.628	6868
314.718	10771
314.808	16139
314.897	7269
314.987	6362
315.076	8308
315.166	13744
315.255	16038
315.345	12480
315.434	15429
315.524	12251
315.613	13232
315.703	11935
315.792	11953
315.881	14961
315.971	11785
316.060	27468
316.150	61816
316.239	67585
316.328	24176
316.418	8199
316.507	6771
316.597	9442
316.686	11837
316.775	25329
316.865	71788
316.954	13109
317.043	6458
317.133	6387
317.222	6399
317.311	6146
317.400	4574
317.490	8333
317.579	9185
317.668	6220
317.757	7801
317.847	11741
317.936	23761
318.025	20577
318.114	12118
318.203	11086
318.293	17007
318.382	29325
318.471	25289
318.560	44778
318.649	116843
318.738	25160
318.828	13935
318.917	15858
319.006	25372
319.095	70999
319.184	139661
319.273	65870
319.362	24974
319.451	10598
319.540	10528
319.629	19336
319.718	33207
319.807	21068
319.896	43724
319.985	161892
320.074	55896
320.163	19301
320.252	40719
320.341	28669
320.430	22638
320.519	18423
320.608	12363
320.697	10783
320.786	9764
320.875	11723
320.964	14405
321.053	20460
321.142	29048
321.230	31414
321.319	28500
321.408	64473
321.497	31969
321.586	28102
321.675	57110
321.764	49832
321.852	29777
321.941	34911
322.030	24009
322.119	30933
322.207	70480
322.296	90109
322.385	38664
322.474	30870
322.562	67863
322.651	44719
322.740	28820
322.829	51786
322.917	87851
323.006	36520
323.095	23350
323.183	26487
323.272	38587
323.361	66303
323.449	220596
323.538	79164
323.626	162638
323.715	104027
323.804	42484
323.892	155339
323.981	79314
324.069	27064
324.158	90744
324.246	88474
324.335	18588
324.424	21094
324.512	9907
324.601	12173
324.689	19781
324.778	39481
324.866	61515
324.954	17068
325.043	13337
325.131	36338
325.220	75636
325.308	88793
325.397	54908
325.485	33039
325.574	8172
325.662	6241
325.750	7635
325.839	7197
325.927	7386
326.015	12136
326.104	29280
326.192	47024
326.280	10367
326.369	8568
326.457	9264
326.545	16689
326.634	8510
326.722	5792
326.810	6201
326.898	5745
326.987	8389
327.075	17629
327.163	29251
327.251	17570
327.340	12815
327.428	16119
327.516	6376
327.604	7661
327.692	11053
327.781	16733
327.869	32576
327.957	17391
328.045	10646
328.133	6750
328.221	15166
328.309	9146
328.397	5917
328.485	8612
328.574	12159
328.662	34914
328.750	34309
328.838	17689
328.926	8312
329.014	6518
329.102	11327
329.190	35869
329.278	20603
329.366	5554
329.454	6333
329.542	7460
329.630	5661
329.718	6439
329.806	7280
329.893	10032
329.981	11782
330.069	14664
330.157	50806
330.245	146982
330.333	79614
330.421	15920
330.509	14364
330.597	41345
330.684	33144
330.772	17000
330.860	33063
330.948	41133
331.036	15143
331.123	5683
331.211	7402
331.299	12199
331.387	30277
331.475	56129
331.562	18474
331.650	7332
331.738	11511
331.825	21999
331.913	7970
332.001	7272
332.089	13941
332.176	38586
332.264	94229
332.352	70000
332.439	16339
332.527	10413
332.614	11241
332.702	19442
332.790	11049
332.877	35409
332.965	84612
333.052	15646
333.140	14598
333.228	31228
333.315	10827
333.403	13153
333.490	54194
333.578	40473
333.665	20775
333.753	13007
333.840	8131
333.928	14181
334.015	57169
334.103	72710
334.190	194436
334.278	50095
334.365	21988
334.452	12774
334.540	8744
334.627	16197
334.715	26447
334.802	52688
334.889	282253
334.977	251783
335.064	27054
335.151	10978
335.239	13368
335.326	22545
335.413	88569
335.501	117536
335.588	15147
335.675	9315
335.762	15837
335.850	31004
335.937	18827
336.024	58703
336.111	265184
336.199	99106
336.286	14741
336.373	6758
336.460	5528
336.547	6553
336.635	11170
336.722	8484
336.809	9665
336.896	15692
336.983	54821
337.070	139083
337.157	191236
337.245	183081
337.332	133912
337.419	16836
337.506	10229
337.593	14310
337.680	49156
337.767	146035
337.854	40759
337.941	48598
338.028	71559
338.115	23821
338.202	25329
338.289	53368
338.376	187105
338.463	58872
338.550	86077
338.637	92080
338.724	41079
338.811	70642
338.898	13010
338.984	7802
339.071	12185
339.158	11338
339.245	25458
339.332	19936
339.419	42921
339.506	43758
339.593	6283
339.679	5046
339.766	5138
339.853	8314
339.940	15145
340.027	6596
340.113	5872
340.200	8781
340.287	7895
340.374	7687
340.460	13222
340.547	6753
340.634	11014
340.720	40069
340.807	23323
340.894	5201
340.980	6894
341.067	4684
341.154	6211
341.240	8243
341.327	18358
341.414	6958
341.500	6696
341.587	5855
341.674	6355
341.760	12493
341.847	14652
341.933	5590
342.020	2863
342.106	3006
342.193	5616
342.279	10253
342.366	7400
342.452	12750
342.539	7550
342.625	17071
342.712	41331
342.798	17373
342.885	8290
342.971	4047
343.058	3667
343.144	3197
343.230	4187
343.317	4613
343.403	3542
343.490	3237
343.576	4106
343.662	4515
343.749	5806
343.835	9253
343.921	17343
344.008	88114
344.094	194809
344.180	43518
344.267	16665
344.353	60644
344.439	79192
344.525	25615
344.612	11674
344.698	9877
344.784	7248
344.870	4366
344.957	4411
345.043	7511
345.129	5785
345.215	12572
345.301	6996
345.387	4408
345.474	3956
345.560	4701
345.646	9530
345.732	6833
345.818	6611
345.904	6178
345.990	6613
346.076	11113
346.162	29956
346.249	8663
346.335	4957
346.421	6226
346.507	24095
346.593	80547
346.679	20632
346.765	6990
346.851	5147
346.937	4657
347.023	4604
347.108	5651
347.194	4810
347.280	5111
347.366	6963
347.452	22231
347.538	96181
347.624	69741
347.710	66933
347.796	13866
347.882	7743
347.967	6232
348.053	12733
348.139	7816
348.225	4363
348.311	4160
348.397	3429
348.482	4990
348.568	7707
348.654	3307
348.740	2813
348.825	3481
348.911	10551
348.997	47348
349.083	95892
349.168	20183
349.254	5743
349.340	4825
349.425	4049
349.511	6496
349.597	10633
349.682	16151
349.768	48669
349.854	24509
349.939	7682
350.025	4529
350.110	5474
350.196	3535
350.282	2594
350.367	4659
350.453	17750
350.538	20148
350.624	8776
350.709	8080
350.795	4689
350.880	4493
350.966	6134
351.051	15948
351.137	14176
351.222	5463
351.308	15451
351.393	40773
351.479	11419
351.564	4124
351.649	4228
351.735	3560
351.820	2908
351.906	3886
351.991	9556
352.076	29027
352.162	39046
352.247	8321
352.332	5666
352.418	9972
352.503	15442
352.588	55288
352.673	45534
352.759	10559
352.844	5665
352.929	5541
353.014	7832
353.100	4393
353.185	5684
353.270	13251
353.355	14555
353.441	5491
353.526	10212
353.611	14661
353.696	14987
353.781	9272
353.866	3957
353.952	5133
354.037	12797
354.122	29511
354.207	25858
354.292	11506
354.377	4450
354.462	3492
354.547	6435
354.632	6611
354.717	10630
354.802	7007
354.887	4008
354.972	3380
355.057	3508
355.142	3277
355.227	4621
355.312	8789
355.397	18922
355.482	45626
355.567	23741
355.652	17568
355.737	18945
355.822	59630
355.907	47640
355.991	8358
356.076	3988
356.161	4535
356.246	3586
356.331	5626
356.416	16220
356.501	103913
356.585	108137
356.670	14168
356.755	9096
356.840	13568
356.924	63472
357.009	234625
357.094	88220
357.179	19237
357.263	13692
357.348	12679
357.433	14177
357.517	10350
357.602	9304
357.687	7843
357.771	11591
357.856	38773
357.941	25647
358.025	53713
358.110	220077
358.195	99492
358.279	14574
358.364	11183
358.448	38744
358.533	104184
358.617	75460
358.702	76355
358.787	28411
358.871	14283
358.956	12415
359.040	4709
359.125	3520
359.209	4765
359.294	18649
359.378	29508
359.462	12322
359.547	9706
359.631	9724
359.716	4651
359.800	6191
359.885	13312
359.969	6371
360.053	6673
360.138	6572
360.222	8002
360.306	14065
360.391	12538
360.475	22012
360.559	46989
360.644	40926
360.728	30371
360.812	56131
360.896	156904
360.981	69702
361.065	39368
361.149	9901
361.233	8470
361.318	7560
361.402	9117
361.486	7447
361.570	4725
361.654	7602
361.739	21198
361.823	99791
361.907	153544
361.991	27051
362.075	13487
362.159	28909
362.243	19096
362.327	13439
362.411	13036
362.495	12969
362.580	7697
362.664	4883
362.748	2806
362.832	4122
362.916	6087
363.000	18868
363.084	90284
363.168	170171
363.252	39026
363.336	14984
363.420	25379
363.503	121370
363.587	140491
363.671	21573
363.755	11486
363.839	15366
363.923	6838
364.007	15780
364.091	23359
364.175	47799
364.258	182209
364.342	85064
364.426	26290
364.510	17746
364.594	20871
364.677	32262
364.761	134952
364.845	94705
364.929	26646
365.013	20475
365.096	17386
365.180	24067
365.264	52200
365.347	191791
365.431	85827
365.515	21635
365.598	7290
365.682	7008
365.766	21777
365.849	29421
365.933	11793
366.017	17714
366.100	16037
366.184	6446
366.267	7719
366.351	5306
366.435	4015
366.518	3107
366.602	3240
366.685	4521
366.769	6098
366.852	16896
366.936	27195
367.019	11302
367.103	14867
367.186	32798
367.270	8526
367.353	2506
367.436	3921
367.520	3294
367.603	4690
367.687	8746
367.770	17225
367.853	11068
367.937	37776
368.020	63450
368.104	15137
368.187	12720
368.270	18301
368.353	17905
368.437	44492
368.520	142151
368.603	64851
368.687	46923
368.770	82716
368.853	19937
368.936	23979
369.020	28252
369.103	8168
369.186	4628
369.269	5099
369.352	10979
369.436	19402
369.519	11744
369.602	4463
369.685	7327
369.768	7530
369.851	6756
369.934	3755
370.018	7239
370.101	14443
370.184	13521
370.267	10812
370.350	15433
370.433	27386
370.516	68024
370.599	79519
370.682	23301
370.765	38844
370.848	53749
370.931	106989
371.014	48364
371.097	9233
371.180	4962
371.263	3924
371.346	3462
371.429	4678
371.511	4572
371.594	10056
371.677	21672
371.760	31162
371.843	17726
371.926	74451
372.009	173821
372.091	55457
372.174	45449
372.257	104087
372.340	41317
372.423	40202
372.505	52334
372.588	19580
372.671	31365
372.754	99708
372.836	52771
372.919	59376
373.002	122666
373.085	31252
373.167	15102
373.250	39340
373.332	95425
373.415	123904
373.498	248687
373.580	88548
373.663	104349
373.746	145375
373.828	34626
373.911	17309
373.993	26561
374.076	118818
374.159	116795
374.241	35959
374.324	83380
374.406	55291
374.489	75216
374.571	211694
374.654	85852
374.736	42069
374.819	136979
374.901	189643
374.983	187903
375.066	32558
375.148	18048
375.231	92766
375.313	176404
375.395	63329
375.478	12584
375.560	7272
375.643	10765
375.725	45092
375.807	182211
375.890	184038
375.972	119449
376.054	55008
376.136	117779
376.219	45892
376.301	52526
376.383	149200
376.465	54692
376.548	28809
376.630	41806
376.712	120307
376.794	55169
376.877	7327
376.959	4824
377.041	7091
377.123	25663
377.205	32385
377.287	4949
377.369	4394
377.452	5541
377.534	4302
377.616	4346
377.698	4511
377.780	3300
377.862	4647
377.944	4290
378.026	3553
378.108	3873
378.190	3469
378.272	3265
378.354	2519
378.436	3469
378.518	12697
378.600	50717
378.682	35113
378.764	55522
378.846	43534
378.928	15791
379.010	15461
379.091	9485
379.173	5237
379.255	3955
379.337	6831
379.419	26553
379.501	81040
379.583	34253
379.664	9783
379.746	19408
379.828	53859
379.910	73463
379.991	65045
380.073	12187
380.155	7904
380.237	5701
380.318	3850
380.400	5009
380.482	11550
380.564	17536
380.645	13965
380.727	13617
380.809	9105
380.890	6394
380.972	4666
381.053	5127
381.135	6860
381.217	17855
381.298	55667
381.380	28643
381.461	27018
381.543	120767
381.624	146870
381.706	26677
381.787	14341
381.869	15329
381.951	52157
382.032	198751
382.113	117679
382.195	24962
382.276	15881
382.358	34393
382.439	105154
382.521	121014
382.602	187817
382.684	81386
382.765	146621
382.846	135411
382.928	140028
383.009	74510
383.090	51042
383.172	204004
383.253	318495
383.334	126367
383.416	163375
383.497	79994
383.578	27690
383.659	49854
383.741	182334
383.822	493559
383.903	248604
383.984	102416
384.066	190430
384.147	116939
384.228	23062
384.309	15840
384.390	10894
384.471	8171
384.553	10361
384.634	15867
384.715	15942
384.796	8386
384.877	11371
384.958	47521
385.039	58783
385.120	19510
385.201	9053
385.282	16512
385.363	20047
385.444	13396
385.525	21598
385.606	83832
385.687	72902
385.768	21417
385.849	24807
385.930	86064
386.011	148824
386.092	39399
386.173	10281
386.254	10260
386.335	11039
386.416	11324
386.496	32109
386.577	56538
386.658	28220
386.739	17168
386.820	19625
386.901	17134
386.981	11722
387.062	6144
387.143	12141
387.224	51786
387.304	50740
387.385	20104
387.466	14468
387.547	20678
387.627	10309
387.708	20111
387.789	96415
387.869	123769
387.950	32919
388.031	7111
388.111	9686
388.192	35168
388.273	56209
388.353	28068
388.434	11376
388.514	22366
388.595	99265
388.676	121251
388.756	53588
388.837	48440
388.917	29119
388.998	7495
389.078	7794
389.159	6392
389.239	4782
389.320	10203
389.400	8813
389.480	25792
389.561	63207
389.641	29815
389.722	10514
389.802	16529
389.883	27041
389.963	77138
390.043	62750
390.124	28031
390.204	20598
390.284	60138
390.365	43383
390.445	85152
390.525	195724
390.605	144800
390.686	35666
390.766	12400
390.846	6334
390.927	4752
391.007	4403
391.087	8896
391.167	9251
391.247	8793
391.328	23126
391.408	33159
391.488	19954
391.568	5927
391.648	6746
391.728	9683
391.808	9113
391.888	10903
391.969	30228
392.049	50315
392.129	28620
392.209	29445
392.289	66342
392.369	42048
392.449	53012
392.529	28361
392.609	14260
392.689	19543
392.769	63467
392.849	54707
392.929	44027
393.009	108163
393.089	63380
393.169	24371
393.248	77333
393.328	396656
393.408	436049
393.488	82302
393.568	20380
393.648	12128
393.728	8777
393.807	8151
393.887	10017
393.967	9560
394.047	13339
394.127	19409
394.206	37483
394.286	147240
394.366	592746
394.446	619964
394.525	154562
394.605	40058
394.685	31652
394.764	76041
394.844	130145
394.924	85607
395.003	20206
395.083	13351
395.163	10702
395.242	9970
395.322	10934
395.402	8776
395.481	14811
395.561	50340
395.640	131589
395.720	87386
395.799	149982
395.879	121533
395.958	67253
396.038	222962
396.117	778929
396.197	825120
396.276	274062
396.356	92779
396.435	63756
396.515	32810
396.594	23185
396.673	31106
396.753	106141
396.832	394329
396.912	297901
396.991	68331
397.070	17041
397.150	9045
397.229	7823
397.308	7633
397.388	8433
397.467	6720
397.546	3994
397.625	3997
397.705	8001
397.784	7793
397.863	4804
397.942	4298
398.022	7428
398.101	45859
398.180	138658
398.259	73377
398.338	15254
398.417	8447
398.497	6499
398.576	7673
398.655	3645
398.734	4457
398.813	7282
398.892	41735
398.971	145576
399.050	70009
399.129	7872
399.208	4036
399.287	4655
399.366	3825
399.445	3681
399.524	4222
399.603	3593
399.682	8922
399.761	37359
399.840	146680
399.919	113450
399.998	15904
400.077	3755
400.156	2820
400.235	6964
400.313	5604
400.392	7514
400.471	27259
400.550	45397
400.629	12931
400.708	6403
400.786	10200
400.865	34095
400.944	36413
401.023	13576
401.102	1754
401.180	3543
401.259	5424
401.338	7862
401.416	7656
401.495	7037
401.574	8150
401.652	5018
401.731	8200
401.810	5929
401.888	2867
401.967	1628
402.046	2776
402.124	7582
402.203	10876
402.281	6053
402.360	11146
402.438	42840
402.517	31856
402.596	10294
402.674	10213
402.753	5744
402.831	4720
402.910	4060
402.988	11057
403.066	30022
403.145	17242
403.223	10527
403.302	17647
403.380	13350
403.459	12256
403.537	7195
403.615	5174
403.694	1136
403.772	2016
403.850	1183
403.929	1199
404.007	2335
404.085	5379
404.164	3238
404.242	3512
404.320	12908
404.398	41582
404.477	54866
404.555	156139
404.633	135207
404.711	38728
404.789	18424
404.868	4213
404.946	1736
405.024	1980
405.102	1912
405.180	1110
405.258	1280
405.336	2845
405.415	3116
405.493	11452
405.571	7517
405.649	2402
405.727	2987
405.805	7511
405.883	6061
405.961	8828
406.039	12435
406.117	4719
406.195	6146
406.273	31924
406.351	127227
406.429	80059
406.507	18409
406.585	6327
406.663	3964
406.740	4727
406.818	5387
406.896	4179
406.974	4120
407.052	10550
407.130	70666
407.208	101827
407.285	20466
407.363	3273
407.441	3221
407.519	2761
407.596	3473
407.674	12458
407.752	40598
407.830	50173
407.907	22686
407.985	5886
408.063	3222
408.141	2666
408.218	9655
408.296	8615
408.373	2457
408.451	3561
408.529	3570
408.606	1838
408.684	817
408.762	460
408.839	23
408.917	-216
408.994	-302
409.072	848
409.149	256
409.227	1804
409.304	2422
409.382	1526
409.459	503
409.537	2021
409.614	1968
409.692	861
409.769	783
409.846	2387
409.924	5669
410.001	3410
410.079	3111
410.156	2755
410.233	3719
410.311	2686
410.388	1286
410.465	2119
410.543	1997
410.620	2030
410.697	2148
410.775	3074
410.852	138
410.929	3461
411.006	4688
411.083	2581
411.161	6367
411.238	11506
411.315	7768
411.392	2263
411.469	3440
411.547	3912
411.624	512
411.701	1822
411.778	3596
411.855	7563
411.932	4281
412.009	2018
412.086	2123
412.163	4291
412.240	6189
412.317	8527
412.394	7545
412.471	2406
412.548	1080
412.625	2352
412.702	4830
412.779	10362
412.856	6460
412.933	2237
413.010	2635
413.087	5183
413.164	23224
413.241	34343
413.318	8181
413.395	4761
413.471	6556
413.548	3804
413.625	2125
413.702	5921
413.779	4662
413.855	1557
413.932	511
414.009	321
414.086	432
414.162	1790
414.239	6269
414.316	26836
414.393	55660
414.469	19579
414.546	2418
414.623	2088
414.699	927
414.776	2822
414.853	1767
414.929	2901
415.006	3454
415.082	5768
415.159	4379
415.236	2774
415.312	2798
415.389	4518
415.465	6872
415.542	4011
415.618	1920
415.695	5306
415.771	3273
415.848	2734
415.924	3862
416.000	4107
416.077	2656
416.153	-151
416.230	-84
416.306	1641
416.383	2948
416.459	2539
416.535	989
416.612	947
416.688	2200
416.764	1542
416.841	1160
416.917	2113
416.993	2248
417.069	3982
417.146	5890
417.222	7278
417.298	3436
417.374	2151
417.451	2954
417.527	3369
417.603	3294
417.679	2937
417.755	2774
417.831	706
417.908	1757
417.984	1080
418.060	1009
418.136	5410
418.212	8270
418.288	3028
418.364	2383
418.440	1688
418.516	4231
418.592	11500
418.668	15550
418.744	16235
418.820	11075
418.896	2799
418.972	634
419.048	1716
419.124	7060
419.200	4872
419.276	2039
419.352	244
419.428	605
419.504	1233
419.579	2876
419.655	1923
419.731	1919
419.807	9662
419.883	18230
419.959	13018
420.034	3881
420.110	8273
420.186	32181
420.262	26078
420.337	5064
420.413	3005
420.489	1601
420.565	1672
420.640	373
420.716	1478
420.792	-441
420.867	1655
420.943	839
421.019	3745
421.094	2149
421.170	1309
421.245	496
421.321	2077
421.397	868
421.472	5457
421.548	17117
421.623	11028
421.699	2721
421.774	1874
421.850	2109
421.925	5252
422.001	3097
422.076	1831
422.152	2089
422.227	5065
422.302	4248
422.378	5542
422.453	9505
422.529	24949
422.604	117653
422.679	283361
422.755	145086
422.830	28753
422.905	8183
422.981	3811
423.056	1761
423.131	1942
423.207	1868
423.282	2869
423.357	9064
423.432	4836
423.508	4619
423.583	13768
423.658	11341
423.733	3749
423.808	6515
423.883	5937
423.959	3265
424.034	2244
424.109	2026
424.184	960
424.259	385
424.334	625
424.409	609
424.484	885
424.559	2296
424.634	2088
424.709	2710
424.784	3728
424.859	2525
424.934	5669
425.009	20958
425.084	38091
425.159	14728
425.234	2737
425.309	865
425.384	7949
425.459	15425
425.534	5075
425.609	4156
425.683	2700
425.758	1143
425.833	2260
425.908	3631
425.983	13508
426.058	39965
426.132	18939
426.207	5447
426.282	11926
426.357	11509
426.431	2721
426.506	2481
426.581	3158
426.655	2956
426.730	1517
426.805	845
426.879	2054
426.954	2430
427.029	7554
427.103	39682
427.178	104377
427.253	47001
427.327	7418
427.402	10698
427.476	27649
427.551	12431
427.625	6516
427.700	5085
427.774	2803
427.849	5327
427.923	2512
427.998	1462
428.072	3213
428.147	7801
428.221	18612
428.296	36047
428.370	16559
428.444	6297
428.519	14217
428.593	33803
428.667	28708
428.742	34372
428.816	25756
428.890	46301
428.965	57247
429.039	33683
429.113	39387
429.188	13689
429.262	2429
429.336	6178
429.410	20433
429.485	15751
429.559	28290
429.633	21871
429.707	5443
429.781	13615
429.855	66485
429.930	83294
430.004	82271
430.078	152707
430.152	110219
430.226	56324
430.300	48464
430.374	8551
430.448	8610
430.522	44945
430.596	140688
430.670	70343
430.744	69959
430.818	114530
430.892	27597
430.966	4793
431.040	2957
431.114	1806
431.188	2837
431.262	2076
431.336	2573
431.410	12585
431.484	40337
431.557	22707
431.631	3199
431.705	1882
431.779	5146
431.853	25961
431.927	20090
432.000	2564
432.074	2313
432.148	6261
432.222	5392
432.295	1871
432.369	1631
432.443	6242
432.516	44711
432.590	109298
432.664	43126
432.737	5537
432.811	1243
432.885	3
432.958	1030
433.032	124
433.106	418
433.179	-44
433.253	23
433.326	781
433.400	1098
433.473	886
433.547	-131
433.620	388
433.694	3753
433.767	6267
433.841	3839
433.914	1138
433.988	529
434.061	828
434.134	939
434.208	127
434.281	-21
434.355	714
434.428	1822
434.501	653
434.575	1726
434.648	1877
434.721	242
434.795	-158
434.868	444
434.941	-453
435.014	453
435.088	123
435.161	2135
435.234	3118
435.307	4312
435.381	2594
435.454	1578
435.527	869
435.600	1435
435.673	1229
435.746	186
435.819	362
435.892	368
435.966	423
436.039	1936
436.112	1434
436.185	-215
436.258	615
436.331	-264
436.404	-348
436.477	350
436.550	-227
436.623	664
436.696	773
436.769	2065
436.842	817
436.915	2548
436.987	3635
437.060	2217
437.133	547
437.206	1072
437.279	1825
437.352	332
437.425	1051
437.498	2808
437.570	4303
437.643	4991
437.716	1304
437.789	637
437.861	3041
437.934	10741
438.007	5993
438.080	1062
438.152	1647
438.225	6733
438.298	54919
438.370	156009
438.443	63539
438.516	12102
438.588	3526
438.661	881
438.734	2015
438.806	2494
438.879	2180
438.951	2800
439.024	6111
439.096	2552
439.169	957
439.241	1487
439.314	1626
439.386	6791
439.459	10420
439.531	15428
439.604	4814
439.676	1788
439.749	396
439.821	353
439.893	1027
439.966	2175
440.038	3246
440.110	3150
440.183	1257
440.255	1465
440.327	4607
440.400	24253
440.472	95853
440.544	62976
440.617	8719
440.689	4887
440.761	5573
440.833	9209
440.905	6716
440.978	2027
441.050	1151
441.122	977
441.194	219
441.266	1081
441.338	660
441.411	3928
441.483	23425
441.555	37494
441.627	10151
441.699	8778
441.771	10234
441.843	4052
441.915	1511
441.987	743
442.059	1034
442.131	2526
442.203	5474
442.275	7075
442.347	4911
442.419	3419
442.491	7719
442.563	20525
442.635	19760
442.706	34978
442.778	26376
442.850	3845
442.922	1545
442.994	2922
443.066	6180
443.137	4763
443.209	2239
443.281	2914
443.353	6716
443.425	17692
443.496	38091
443.568	37266
443.640	14212
443.711	6174
443.783	2895
443.855	2442
443.926	801
443.998	2938
444.070	4922
444.141	4183
444.213	4667
444.285	6398
444.356	8141
444.428	9046
444.499	1933
444.571	1209
444.642	383
444.714	2157
444.785	4063
444.857	9741
444.928	30687
445.000	17870
445.071	18547
445.143	20691
445.214	7628
445.285	12890
445.357	40863
445.428	46683
445.500	84141
445.571	71442
445.642	27678
445.714	29197
445.785	44829
445.856	12821
445.928	5644
445.999	4364
446.070	3683
446.141	3827
446.213	5467
446.284	4041
446.355	5800
446.426	4165
446.497	2880
446.569	8314
446.640	11656
446.711	6511
446.782	2242
446.853	8566
446.924	6488
446.995	3240
447.066	4549
447.138	10672
447.209	6249
447.280	1079
447.351	1239
447.422	2588
447.493	3991
447.564	3926
447.635	4722
447.706	2002
447.777	1027
447.847	1739
447.918	1509
447.989	4921
448.060	7941
448.131	21945
448.202	16073
448.273	8126
448.344	4424
448.414	1997
448.485	1937
448.556	1625
448.627	663
448.698	1623
448.768	1923
448.839	3085
448.910	10207
448.981	9142
449.051	2530
449.122	1212
449.193	1174
449.263	2394
449.334	2185
449.405	3340
449.475	7331
449.546	7269
449.616	12232
449.687	10759
449.758	4724
449.828	2594
449.899	1761
449.969	1991
450.040	2255
450.110	5692
450.181	6808
450.251	2977
450.322	2302
450.392	3207
450.463	2938
450.533	1994
450.604	2965
450.674	2068
450.744	2408
450.815	1975
450.885	2419
450.955	1413
451.026	1591
451.096	2381
451.166	4448
451.237	12547
451.307	34201
451.377	15421
451.447	3208
451.518	2420
451.588	2861
451.658	3590
451.728	7083
451.799	33387
451.869	41542
451.939	10680
452.009	3359
452.079	2273
452.149	3804
452.219	9453
452.289	39338
452.360	33195
452.430	6959
452.500	3584
452.570	4136
452.640	6185
452.710	18939
452.780	35033
452.850	17056
452.920	13072
452.990	5913
453.060	4230
453.129	6410
453.199	10847
453.269	39191
453.339	91395
453.409	143646
453.479	139262
453.549	202756
453.619	222728
453.688	95472
453.758	16649
453.828	6901
453.898	5462
453.968	4594
454.037	3905
454.087	3446
454.107	3226
454.168	2397
454.177	2241
454.247	3565
454.249	3601
454.316	3826
454.330	4175
454.386	5299
454.411	11012
454.456	19504
454.492	25736
454.525	31157
454.574	17487
454.595	11662
454.655	5400
454.665	4491
454.734	6195
454.736	6477
454.804	13081
454.817	18389
454.873	36990
454.898	40775
454.943	46257
454.979	32487
455.013	20682
455.060	11824
455.082	8795
455.141	11480
455.152	11729
455.221	30243
455.222	30892
455.291	60843
455.303	60672
455.360	56029
455.384	72012
455.430	94491
455.465	76230
455.499	59292
455.546	46960
455.569	40608
455.627	26965
455.638	24905
455.707	7575
455.708	7593
455.777	4539
455.789	4708
455.846	5298
455.869	5152
455.916	4980
455.950	5117
455.985	4958
456.031	5303
456.054	5427
456.112	4395
456.124	4277
456.193	3959
456.193	3922
456.262	5658
456.274	6273
456.332	8584
456.355	9396
456.401	9830
456.436	7957
456.470	6156
456.516	4706
456.540	4128
456.597	3630
456.609	3555
456.678	3481
456.678	3457
456.747	3705
456.759	3461
456.817	2370
456.840	2609
456.886	2822
456.920	3489
456.955	4443
457.001	4621
457.024	5057
457.082	6971
457.093	7267
457.162	10179
457.163	10250
457.232	14499
457.243	13724
457.301	7670
457.324	5788
457.370	3853
457.405	4241
457.439	4875
457.485	4500
457.508	4287
457.566	5371
457.577	5547
457.646	5833
457.647	5863
457.715	5782
457.727	5860
457.784	6734
457.808	6921
457.853	7094
457.889	8126
457.922	8526
457.969	7611
457.991	7404
458.050	8100
458.060	8298
458.129	9433
458.130	9508
458.198	9323
458.211	9039
458.267	7495
458.292	6664
458.336	5999
458.372	5638
458.405	5991
458.453	7138
458.474	7792
458.533	10206
458.543	10521
458.611	14944
458.614	15079
458.680	11962
458.694	10741
458.749	7935
458.775	6887
458.818	5923
458.855	5633
458.887	5728
458.936	6203
458.955	6178
459.016	6228
459.024	6243
459.093	6573
459.097	6587
459.162	7092
459.177	7404
459.230	8388
459.257	8895
459.299	8789
459.338	8538
459.368	8779
459.418	9890
459.437	9778
459.499	8324
459.505	8265
459.574	7377
459.579	7378
459.643	7159
459.659	7052
459.711	7159
459.740	7658
459.780	8579
459.820	9036
459.849	9204
459.900	9732
459.917	9678
459.981	9824
459.986	9763
460.054	8006
460.061	7937
460.123	8748
460.141	8926
460.191	10843
460.222	12252
460.260	13337
460.302	14703
460.328	13595
460.382	10923
460.397	10715
460.462	9239
460.465	9313
460.534	11658
460.543	12022
460.602	27631
460.623	33597
460.671	51359
460.703	67828
460.739	65032
460.783	58804
460.808	51270
460.864	17992
460.876	15577
460.944	9732
460.945	9663
461.013	9608
461.024	9557
461.081	9538
461.104	9809
461.150	9517
461.184	9388
461.218	9238
461.264	8198
461.286	8325
461.345	9511
461.355	9469
461.423	9163
461.425	9155
461.491	11092
461.505	11496
461.559	20880
461.585	25644
461.628	44059
461.665	61313
461.696	69783
461.745	89334
461.764	77649
461.825	25093
461.832	24077
461.901	12379
461.905	12096
461.969	11007
461.985	10874
462.037	10427
462.065	9978
462.105	11712
462.145	13958
462.173	21005
462.225	33994
462.241	38020
462.305	57223
462.310	55701
462.378	31591
462.385	27976
462.446	15224
462.465	12051
462.514	11137
462.545	11231
462.582	10993
462.625	10908
462.650	10675
462.705	10282
462.718	10801
462.785	13310
462.786	13432
462.854	20483
462.865	21726
462.922	27853
462.945	30689
462.990	22811
463.025	14946
463.058	12869
463.104	10059
463.126	9640
463.184	9340
463.194	9561
463.262	11701
463.264	11756
463.330	11915
463.344	12012
463.398	13515
463.424	14021
463.466	13731
463.504	13858
463.533	14242
463.583	14305
463.601	14780
463.663	16570
463.669	17105
463.737	23266
463.743	23866
463.805	36369
463.823	39884
463.873	62283
463.903	76504
463.940	84380
463.982	95061
464.008	76637
464.062	31683
464.076	28808
464.142	13306
464.144	13199
464.211	12179
464.221	12176
464.279	13315
464.301	13638
464.347	15176
464.381	16383
464.414	18155
464.461	20793
464.482	22302
464.540	26507
464.550	25445
464.617	17139
464.620	16820
464.685	18662
464.699	19108
464.753	21614
464.779	22986
464.820	25824
464.859	28585
464.888	28643
464.938	28354
464.956	28766
465.018	30079
465.023	29573
465.091	22313
465.098	21518
465.158	20737
465.177	20491
465.226	21197
465.257	21774
465.293	22765
465.336	23735
465.361	25365
465.416	28956
465.428	31168
465.495	43049
465.496	43304
465.563	73119
465.575	78294
465.631	98503
465.654	107465
465.698	68747
465.734	34555
465.765	29410
465.813	21436
465.833	21048
465.893	21385
465.900	21431
465.968	21425
465.972	21408
466.035	21503
466.052	21473
466.102	22025
466.131	22261
466.170	22297
466.210	22347
466.237	23287
466.290	24992
466.304	25237
466.369	26170
466.372	26264
466.439	27761
466.449	27924
466.506	30854
466.528	31933
466.573	42725
466.607	50681
466.641	74908
466.687	108562
466.708	122309
466.766	160162
466.775	148578
466.842	59143
466.845	54775
466.909	37689
466.925	33727
466.977	31431
467.004	30256
467.044	32084
467.083	33843
467.111	35687
467.163	38998
467.178	40552
467.242	46653
467.245	46469
467.312	40881
467.321	40065
467.379	40351
467.400	40342
467.446	43189
467.480	45110
467.559	39467
467.638	32243
467.717	33253
467.796	36255
467.875	40431
467.955	39116
468.034	53763
468.113	125140
468.192	189860
468.271	57468
468.350	27005
468.429	27072
468.508	26937
468.588	26845
468.667	29532
468.746	34592
468.825	33023
468.904	25651
468.983	31949
469.062	51658
469.141	66140
469.220	29912
469.299	25290
469.378	30219
469.456	33434
469.535	32625
469.614	30815
469.693	32482
469.772	42985
469.851	58558
469.930	45739
470.009	27716
470.088	26038
470.166	27081
470.245	31916
470.324	35129
470.403	30351
470.482	26892
470.560	25695
470.639	28498
470.718	32822
470.797	28722
470.875	33392
470.954	47422
471.033	55883
471.111	24026
471.190	21833
471.269	19590
471.347	21975
471.426	23477
471.505	28019
471.583	30632
471.662	27754
471.740	24586
471.819	24197
471.898	23733
471.976	24003
472.055	24070
472.133	26135
472.212	36979
472.290	41657
472.369	27076
472.447	22279
472.526	20762
472.604	23065
472.683	22511
472.761	24082
472.839	22995
472.918	23194
472.996	24024
473.075	28668
473.153	29251
473.231	23568
473.310	27154
473.388	28152
473.466	25188
473.545	28194
473.623	36426
473.701	35772
473.780	22826
473.858	22173
473.936	25705
474.014	23836
474.093	26562
474.171	41405
474.249	61148
474.327	44490
474.405	21329
474.484	21647
474.562	21397
474.640	22272
474.718	23401
474.796	26394
474.874	22638
474.952	21143
475.030	21481
475.108	21660
475.187	24915
475.265	24973
475.343	25341
475.421	27069
475.499	23545
475.577	25694
475.655	31974
475.733	71619
475.811	131562
475.889	120191
475.966	87825
476.044	22563
476.122	20325
476.200	23992
476.278	22266
476.356	19888
476.434	22455
476.512	23210
476.590	24355
476.667	25003
476.745	19718
476.823	21873
476.901	20853
476.979	23961
477.056	22108
477.134	24393
477.212	24385
477.290	22458
477.367	19298
477.445	18991
477.523	18477
477.601	20394
477.678	19633
477.756	26690
477.834	30907
477.911	20892
477.989	19200
478.066	18572
478.144	21980
478.222	21841
478.299	20466
478.377	21865
478.454	18027
478.532	18049
478.609	18775
478.687	21242
478.764	16676
478.842	20417
478.919	22373
478.997	21623
479.074	17770
479.152	23825
479.229	32980
479.307	22569
479.384	14711
479.461	14700
479.539	18746
479.616	24714
479.694	20183
479.771	21998
479.848	23705
479.926	34936
480.003	39915
480.080	18600
480.157	16047
480.235	16912
480.312	17251
480.389	21594
480.467	38206
480.544	52429
480.621	25176
480.698	18772
480.775	23976
480.853	25917
480.930	19234
481.007	19988
481.084	23389
481.161	26823
481.238	24456
481.315	17660
481.392	17042
481.470	19077
481.547	19854
481.624	19092
481.701	17160
481.778	18604
481.855	22568
481.932	36050
482.009	65346
482.086	51422
482.163	17115
482.240	17089
482.317	20445
482.393	21055
482.470	18670
482.547	19666
482.624	16171
482.701	18623
482.778	17891
482.855	14694
482.932	13917
483.009	15080
483.085	16670
483.162	19538
483.239	19441
483.316	15419
483.393	14578
483.469	15163
483.546	20377
483.623	24941
483.699	17213
483.776	20043
483.853	23322
483.930	34546
484.006	98368
484.083	181807
484.160	92832
484.236	103564
484.313	85223
484.389	63190
484.466	51874
484.543	50364
484.619	49861
484.696	51540
484.772	57357
484.849	64288
484.925	50670
485.002	47474
485.078	50057
485.155	52085
485.231	47147
485.308	46876
485.384	48295
485.461	58673
485.537	108164
485.614	140746
485.690	55458
485.766	44766
485.843	46745
485.919	63071
485.995	68213
486.072	42705
486.148	41311
486.224	40646
486.301	43244
486.377	51437
486.453	51058
486.530	47352
486.606	62579
486.682	74078
486.758	91674
486.835	116062
486.911	86310
486.987	136436
487.063	144473
487.139	153135
487.215	108557
487.292	56092
487.368	44936
487.444	48097
487.520	50838
487.596	48428
487.672	47764
487.748	66879
487.824	86279
487.900	55044
487.976	43390
488.052	49181
488.128	56639
488.204	51113
488.280	46695
488.356	55443
488.432	120493
488.508	206256
488.584	79229
488.660	42027
488.736	41606
488.812	43554
488.888	54832
488.964	69020
489.039	136218
489.115	221543
489.191	141785
489.267	45537
489.343	42802
489.418	36014
489.494	35544
489.570	34083
489.646	36940
489.722	37631
489.797	38250
489.873	59312
489.949	142887
490.024	146131
490.100	38217
490.176	35526
490.251	41861
490.327	54865
490.403	35633
490.478	31088
490.554	27742
490.629	29399
490.705	27557
490.781	32560
490.856	31910
490.932	37552
491.007	35822
491.083	36448
491.158	33546
491.234	45018
491.309	105827
491.385	128646
491.460	39298
491.536	38219
491.611	33883
491.686	34268
491.762	46754
491.837	89214
491.913	158653
491.988	213461
492.063	281724
492.139	94628
492.214	60506
492.289	28271
492.365	25634
492.440	32375
492.515	33506
492.590	34812
492.666	27149
492.741	38625
492.816	65927
492.891	40353
492.967	26560
493.042	25793
493.117	29561
493.192	33389
493.267	57668
493.342	205211
493.418	329458
493.493	67442
493.568	23526
493.643	23906
493.718	32443
493.793	51394
493.868	56882
493.943	33108
494.018	24311
494.093	23886
494.168	24210
494.243	20731
494.318	19637
494.393	19870
494.468	19878
494.543	19335
494.618	23536
494.693	23239
494.768	20917
494.842	23598
494.917	18380
494.992	20901
495.067	19132
495.142	18367
495.217	21500
495.292	21275
495.366	26014
495.441	34321
495.516	41853
495.591	55200
495.665	171294
495.740	444983
495.815	210957
495.890	38491
495.964	28382
496.039	29173
496.114	26252
496.188	27887
496.263	28899
496.338	26246
496.412	31611
496.487	39187
496.561	37484
496.636	41269
496.710	31083
496.785	35362
496.860	43414
496.934	33832
497.009	32510
497.083	31788
497.158	33137
497.232	39233
497.307	52678
497.381	43499
497.455	50502
497.530	73258
497.604	54106
497.679	51639
497.753	81304
497.827	113500
497.902	100321
497.976	109145
498.050	207145
498.125	782049
498.199	1008045
498.273	179097
498.348	108277
498.422	90925
498.496	83774
498.570	76518
498.645	61167
498.719	59985
498.793	69330
498.867	101790
498.941	134237
499.016	310847
499.090	928472
499.164	462843
499.238	48550
499.312	36224
499.386	43469
499.460	42383
499.534	38025
499.609	47492
499.683	75346
499.757	77767
499.831	134145
499.905	581927
499.979	709783
500.053	116135
500.127	97086
500.201	60692
500.275	37923
500.349	37886
500.422	43593
500.496	59502
500.570	120997
500.644	316758
500.718	693871
500.792	216681
500.866	39864
500.940	51341
501.013	45699
501.087	40718
501.161	68894
501.235	94424
501.309	195542
501.382	578577
501.456	629786
501.530	126304
501.603	201847
501.677	99985
501.751	32142
501.825	36462
501.898	70649
501.972	236171
502.046	194120
502.119	43754
502.193	91112
502.266	260714
502.340	162060
502.413	102387
502.487	237651
502.561	157719
502.634	48735
502.708	28423
502.781	24864
502.855	21394
502.928	17783
503.002	19514
503.075	19191
503.149	23623
503.222	23757
503.295	28656
503.369	35131
503.442	48420
503.516	158413
503.589	475836
503.662	367773
503.736	98456
503.809	201714
503.882	198171
503.956	214819
504.029	239480
504.102	66200
504.175	54028
504.249	26505
504.322	28553
504.395	30572
504.468	21492
504.542	22861
504.615	17763
504.688	15778
504.761	15689
504.834	21282
504.907	26722
504.980	43681
505.053	24852
505.127	27070
505.200	34850
505.273	37852
505.346	25598
505.419	18193
505.492	16035
505.565	12726
505.638	12653
505.711	13360
505.784	14872
505.857	12518
505.930	14944
506.003	14975
506.076	19286
506.149	26201
506.221	39008
506.294	31343
506.367	77279
506.440	300256
506.513	218869
506.586	41451
506.659	24167
506.731	16413
506.804	22286
506.877	33465
506.950	25333
507.022	16068
507.095	22682
507.168	33333
507.241	19213
507.313	13578
507.386	16545
507.459	24926
507.531	16517
507.604	12750
507.677	13573
507.749	11826
507.822	18432
507.894	39000
507.967	50413
508.040	28671
508.112	24245
508.185	22133
508.257	21884
508.330	31329
508.402	23096
508.475	22693
508.547	25435
508.620	22975
508.692	41478
508.765	29635
508.837	18568
508.909	16761
508.982	17823
509.054	20770
509.127	17900
509.199	15820
509.271	16216
509.344	14804
509.416	15849
509.488	16060
509.560	17810
509.633	17934
509.705	23864
509.777	20753
509.849	31112
509.922	23237
509.994	19064
510.066	19266
510.138	21069
510.210	39808
510.283	38064
510.355	30025
510.427	25750
510.499	23482
510.571	24247
510.643	24339
510.715	37052
510.787	35188
510.859	26125
510.931	29471
511.003	37000
511.076	34441
511.148	22725
511.219	23518
511.291	39905
511.363	56300
511.435	25303
511.507	19794
511.579	20060
511.651	19849
511.723	20451
511.795	19259
511.867	20807
511.939	25955
512.010	60961
512.082	59657
512.154	23401
512.226	21888
512.298	30405
512.369	47900
512.441	38201
512.513	36124
512.585	27955
512.656	28325
512.728	31111
512.800	24715
512.871	23423
512.943	25450
513.015	20948
513.086	23630
513.158	25207
513.230	25135
513.301	37352
513.373	44488
513.444	27143
513.516	22189
513.588	21797
513.659	23479
513.731	31169
513.802	26438
513.874	47913
513.945	93644
514.016	37000
514.088	21920
514.159	25042
514.231	31277
514.302	44700
514.374	31547
514.445	33755
514.516	66802
514.588	61204
514.659	31002
514.730	61504
514.802	51380
514.873	35785
514.944	37126
515.016	31349
515.087	32490
515.158	42216
515.229	67019
515.301	39461
515.372	47898
515.443	37147
515.514	25596
515.585	21141
515.656	22004
515.728	20177
515.799	19384
515.870	22011
515.941	22508
516.012	23415
516.083	29429
516.154	34260
516.225	41240
516.296	37801
516.367	31191
516.438	34118
516.509	40291
516.580	52080
516.651	114844
516.722	443389
516.793	281783
516.864	59638
516.935	54745
517.006	59727
517.077	73892
517.148	145344
517.219	373662
517.289	744680
517.360	384948
517.431	170162
517.502	36300
517.573	31628
517.643	29731
517.714	33845
517.785	34522
517.856	34023
517.926	38964
517.997	42833
518.068	51419
518.138	62374
518.209	80765
518.280	239875
518.350	992414
518.421	540145
518.492	64481
518.562	40047
518.633	38815
518.703	30984
518.774	34242
518.845	49279
518.915	52731
518.986	40337
519.056	43411
519.127	77357
519.197	123454
519.268	317640
519.338	272561
519.408	56805
519.479	53440
519.549	41764
519.620	27457
519.690	22013
519.760	21485
519.831	22749
519.901	24823
519.971	19773
520.042	23137
520.112	30956
520.182	30001
520.253	34268
520.323	24710
520.393	30389
520.463	46500
520.534	33824
520.604	68347
520.674	39719
520.744	37188
520.814	73936
520.885	76215
520.955	91790
521.025	388769
521.095	219192
521.165	31661
521.235	27536
521.305	22474
521.375	20151
521.445	21027
521.515	30265
521.585	32763
521.655	33942
521.725	27565
521.795	26948
521.865	19307
521.935	34543
522.005	36299
522.075	20171
522.145	21931
522.215	26804
522.285	42139
522.355	54916
522.424	112717
522.494	112629
522.564	46260
522.634	66242
522.704	201382
522.774	90466
522.843	24571
522.913	22973
522.983	30064
523.053	23498
523.122	22475
523.192	29858
523.262	102749
523.331	116494
523.401	24968
523.471	16463
523.540	18114
523.610	14697
523.680	14225
523.749	15900
523.819	22321
523.888	26872
523.958	15334
524.027	15781
524.097	18449
524.166	16812
524.236	19044
524.305	19903
524.375	16450
524.444	14640
524.514	17367
524.583	18598
524.653	25553
524.722	30531
524.791	19916
524.861	17666
524.930	15285
524.999	16571
525.069	24701
525.138	22564
525.207	28691
525.277	20201
525.346	17565
525.415	17612
525.484	15415
525.554	21673
525.623	22722
525.692	15981
525.761	16814
525.830	15295
525.900	14843
525.969	21209
526.038	24585
526.107	23601
526.176	49926
526.245	50587
526.314	39019
526.383	48358
526.452	47783
526.522	70186
526.591	115648
526.660	107352
526.729	50681
526.797	44605
526.867	92480
526.935	439196
527.004	405373
527.073	165297
527.142	28155
527.211	20815
527.280	19950
527.349	24542
527.418	13071
527.487	14904
527.555	12599
527.624	12971
527.693	10192
527.762	14049
527.831	12013
527.899	13379
527.968	12197
528.037	13986
528.106	17081
528.174	33876
528.243	31450
528.312	43438
528.380	64239
528.449	21186
528.518	13799
528.586	9718
528.655	11490
528.723	10393
528.792	10248
528.861	15260
528.929	12269
528.998	11871
529.066	10274
529.135	10175
529.203	9213
529.272	9621
529.340	11093
529.409	12800
529.477	11031
529.545	17982
529.614	23321
529.682	22026
529.751	31925
529.819	26316
529.887	21434
529.956	11479
530.024	13288
530.092	10686
530.161	14293
530.229	25891
530.297	15193
530.365	11177
530.434	9853
530.502	9246
530.570	9933
530.638	8269
530.707	10819
530.775	13366
530.843	9879
530.911	10892
530.979	9849
531.047	9942
531.115	11980
531.183	10654
531.252	11068
531.320	12742
531.388	9901
531.456	10699
531.524	9267
531.592	11153
531.660	11709
531.728	9606
531.796	9934
531.864	11431
531.932	11493
532.000	11306
532.067	11973
532.135	13581
532.203	15964
532.271	17370
532.339	28917
532.407	84656
532.475	56750
532.542	25092
532.610	25587
532.678	32744
532.746	120233
532.814	373673
532.881	102808
532.949	19718
533.017	15040
533.084	13413
533.152	11239
533.220	11940
533.287	13514
533.355	11159
533.423	11666
533.490	11191
533.558	10519
533.625	13343
533.693	16437
533.761	14396
533.828	16051
533.896	15753
533.963	30569
534.031	38522
534.098	49826
534.166	26165
534.233	13522
534.300	16097
534.368	14915
534.435	13850
534.503	12414
534.570	14332
534.637	11474
534.705	11669
534.772	13068
534.840	13243
534.907	24779
534.974	35348
535.041	15637
535.109	21796
535.176	13609
535.243	11152
535.310	12079
535.378	11377
535.445	9914
535.512	9790
535.579	10550
535.646	10713
535.714	11949
535.781	16570
535.848	15685
535.915	16857
535.982	17354
536.049	17662
536.116	16489
536.183	14592
536.250	14493
536.317	15676
536.384	16419
536.451	26771
536.518	28525
536.585	19672
536.652	25750
536.719	36150
536.786	30990
536.853	22429
536.920	32769
536.987	56340
537.053	49004
537.120	168256
537.187	170304
537.254	21081
537.321	14077
537.388	14381
537.454	11671
537.521	11394
537.588	11317
537.654	14833
537.721	16666
537.788	15406
537.855	13700
537.921	14675
537.988	13700
538.055	14742
538.121	14458
538.188	16100
538.254	22365
538.321	53450
538.388	34872
538.454	16157
538.521	14570
538.587	12448
538.654	12033
538.720	13422
538.787	11658
538.853	13638
538.920	20615
538.986	22844
539.053	18691
539.119	16953
539.185	16103
539.252	18252
539.318	31160
539.385	23620
539.451	20771
539.517	21229
539.583	23494
539.650	47803
539.716	143900
539.782	46197
539.849	17521
539.915	15735
539.981	15977
540.047	20977
540.114	19285
540.180	19245
540.246	17843
540.312	25232
540.378	49922
540.444	56831
540.510	49186
540.576	154239
540.643	56164
540.709	17490
540.775	15442
540.841	16050
540.907	23542
540.973	42244
541.039	32817
541.105	34521
541.171	19488
541.237	17136
541.303	16393
541.369	19038
541.435	24037
541.500	46173
541.566	31137
541.632	15649
541.698	12677
541.764	14604
541.830	12770
541.896	15005
541.961	13827
542.027	13912
542.093	14994
542.159	15961
542.224	18678
542.290	27475
542.356	44365
542.421	57563
542.487	26600
542.553	19264
542.618	22111
542.684	18552
542.750	18211
542.815	20917
542.881	35996
542.947	128087
543.012	103088
543.078	19099
543.143	15497
543.209	17732
543.274	17406
543.340	20129
543.405	45276
543.471	82439
543.536	22086
543.602	16039
543.667	15157
543.732	16066
543.798	13851
543.863	16954
543.928	13358
543.994	13970
544.059	14451
544.124	13827
544.190	14936
544.255	15067
544.320	16153
544.386	17279
544.451	23958
544.516	29716
544.581	27183
544.646	74783
544.712	134374
544.777	30245
544.842	21451
544.907	24650
544.972	20100
545.037	18750
545.102	20519
545.168	21031
545.233	21521
545.298	23076
545.363	28093
545.428	29860
545.493	45720
545.558	110136
545.623	49603
545.688	22043
545.753	19585
545.818	19702
545.883	20050
545.947	18700
546.012	21523
546.077	24192
546.142	20147
546.207	19915
546.272	26745
546.337	29223
546.401	23140
546.466	21838
546.531	19070
546.596	22056
546.661	21746
546.725	20640
546.790	16663
546.855	17730
546.919	16203
546.984	18564
547.049	20402
547.113	25952
547.178	21396
547.243	23032
547.307	23332
547.372	28694
547.436	36514
547.501	23395
547.565	21046
547.630	26921
547.695	28656
547.759	35831
547.823	32666
547.888	20040
547.952	18506
548.017	20763
548.081	26401
548.146	40959
548.210	36504
548.274	21939
548.339	18912
548.403	19082
548.468	17343
548.532	17802
548.596	18353
548.660	19605
548.725	20215
548.789	27209
548.853	32327
548.917	23258
548.982	34515
549.046	44566
549.110	21444
549.174	19616
549.238	17532
549.303	16697
549.367	19620
549.431	18106
549.495	17956
549.559	18672
549.623	18070
549.687	22125
549.751	33290
549.815	24465
549.879	21795
549.943	19389
550.007	21192
550.071	22801
550.135	30204
550.199	25985
550.263	20495
550.327	25208
550.391	40007
550.455	29044
550.519	20905
550.582	22816
550.646	32333
550.710	34640
550.774	23293
550.838	22543
550.901	21378
550.965	24831
551.029	25939
551.093	30562
551.156	40259
551.220	86306
551.284	115209
551.347	47118
551.411	107180
551.475	161093
551.538	36184
551.602	22548
551.666	20073
551.729	19067
551.793	20555
551.856	21162
551.920	20728
551.983	20314
552.047	18928
552.110	18520
552.174	18480
552.237	18821
552.301	18273
552.364	18337
552.428	17789
552.491	18565
552.554	18985
552.618	19888
552.681	20718
552.745	21950
552.808	29461
552.871	40013
552.934	28633
552.998	22457
553.061	25083
553.124	24752
553.187	23402
553.251	25754
553.314	30190
553.377	29256
553.440	41057
553.503	125561
553.567	256021
553.630	55584
553.693	22904
553.756	21476
553.819	18115
553.882	19845
553.945	16811
554.008	17776
554.071	17392
554.134	17900
554.197	17010
554.260	16778
554.323	19498
554.386	19535
554.449	18149
554.512	18730
554.575	16552
554.638	18388
554.701	17935
554.764	15775
554.827	16436
554.889	16908
554.952	15278
555.015	15598
555.078	15144
555.141	16082
555.203	15178
555.266	15462
555.329	15742
555.391	16632
555.454	17248
555.517	18742
555.580	15931
555.642	14571
555.705	14925
555.768	16814
555.830	16292
555.893	15409
555.955	15806
556.018	15986
556.080	15684
556.143	15350
556.206	14811
556.268	18134
556.330	19048
556.393	18813
556.455	17959
556.518	32363
556.580	40101
556.643	17935
556.705	15213
556.767	15103
556.830	16895
556.892	19323
556.955	31216
557.017	26382
557.079	17496
557.142	16178
557.204	20312
557.266	41327
557.328	38393
557.391	15909
557.453	13502
557.515	16715
557.577	20752
557.639	21981
557.701	14727
557.764	13725
557.826	13222
557.888	17108
557.950	14393
558.012	14879
558.074	15719
558.136	21795
558.198	40073
558.260	26727
558.322	18260
558.384	17814
558.446	20194
558.508	21863
558.570	28137
558.632	46406
558.694	75472
558.756	40494
558.818	67364
558.880	186653
558.942	75808
559.003	42306
559.065	28453
559.127	18446
559.189	18058
559.251	19644
559.312	20787
559.374	33852
559.436	102040
559.498	69217
559.559	19845
559.621	18441
559.683	20370
559.744	29352
559.806	61510
559.868	87028
559.929	32272
559.991	23323
560.052	24138
560.114	40248
560.176	34947
560.237	29768
560.299	47075
560.360	23633
560.422	17955
560.483	18867
560.545	17827
560.606	17192
560.667	17548
560.729	17519
560.790	16375
560.852	17481
560.913	17172
560.974	17938
561.036	17118
561.097	17668
561.158	17482
561.220	19619
561.281	18275
561.342	20220
561.403	22407
561.465	26987
561.526	61033
561.587	90803
561.648	28596
561.709	20025
561.771	19200
561.832	17919
561.893	17523
561.954	18036
562.015	17254
562.076	17939
562.137	18320
562.198	19250
562.259	18286
562.320	17740
562.381	19718
562.442	26781
562.503	24799
562.564	18094
562.625	16774
562.686	17777
562.747	19063
562.808	18815
562.869	19498
562.930	23627
562.991	22834
563.051	22025
563.112	20350
563.173	19180
563.234	18085
563.294	19475
563.355	18734
563.416	20313
563.477	19065
563.537	18807
563.598	20938
563.659	20803
563.720	19687
563.780	20348
563.841	21160
563.901	19995
563.962	19920
564.023	19487
564.083	20212
564.144	21344
564.204	20264
564.265	21929
564.325	26264
564.386	53426
564.446	60032
564.507	22963
564.567	19369
564.628	20448
564.688	19039
564.749	19933
564.809	23359
564.869	30968
564.930	22422
564.990	19829
565.050	18497
565.111	18925
565.171	18330
565.231	19699
565.292	19497
565.352	18566
565.412	19954
565.472	20729
565.532	21868
565.593	20346
565.653	18193
565.713	21377
565.773	21632
565.833	24532
565.893	30382
565.953	24271
566.013	21559
566.074	23321
566.134	28112
566.194	50234
566.254	58294
566.314	35495
566.374	24584
566.434	25112
566.494	23776
566.554	23791
566.614	24967
566.673	25407
566.733	26064
566.793	29307
566.853	28855
566.913	29539
566.973	29713
567.033	31000
567.092	29749
567.152	29628
567.212	31656
567.272	31608
567.331	35218
567.391	34488
567.451	37432
567.511	48718
567.570	54310
567.630	34806
567.690	31191
567.749	32251
567.809	33052
567.868	38580
567.928	43196
567.988	51700
568.047	57884
568.107	66449
568.166	87785
568.226	132214
568.285	190907
568.345	182930
568.404	146937
568.464	122980
568.523	110159
568.582	109066
568.642	118707
568.701	143131
568.761	198387
568.820	306049
568.879	338479
568.939	272257
568.998	197284
569.057	142168
569.116	110895
569.176	87788
569.235	70844
569.294	61533
569.353	52721
569.413	47496
569.472	44004
569.531	39325
569.590	34787
569.649	34476
569.708	30396
569.767	30018
569.827	31222
569.886	29362
569.945	25272
570.004	25551
570.063	25080
570.122	26401
570.181	26037
570.240	30089
570.299	29350
570.358	24590
570.417	21911
570.475	20733
570.534	21375
570.593	21791
570.652	21370
570.711	22021
570.770	21166
570.829	25329
570.887	23314
570.946	23781
571.005	20522
571.064	19466
571.122	21347
571.181	25369
571.240	21037
571.299	19042
571.357	20061
571.416	23340
571.475	24491
571.533	27384
571.592	19940
571.650	21872
571.709	18365
571.768	17610
571.826	17470
571.885	17261
571.943	15764
572.002	17367
572.060	19150
572.119	15600
572.177	15062
572.236	15770
572.294	14526
572.352	15151
572.411	15051
572.469	14880
572.528	14286
572.586	15856
572.644	15761
572.703	20140
572.761	17704
572.819	14908
572.877	15267
572.936	14138
572.994	14878
573.052	15141
573.110	15213
573.169	15647
573.227	14731
573.285	15188
573.343	14086
573.401	15067
573.459	13898
573.517	13945
573.576	14527
573.634	14106
573.692	16022
573.750	14705
573.808	14598
573.866	16988
573.924	22088
573.982	23967
574.040	16371
574.098	15664
574.155	13620
574.213	14057
574.271	14069
574.329	14223
574.387	13260
574.445	13708
574.503	12755
574.560	12204
574.618	10902
574.676	12787
574.734	12805
574.792	14044
574.849	12657
574.907	12439
574.965	13168
575.022	12773
575.080	12853
575.138	13269
575.195	14268
575.253	14744
575.311	16152
575.368	14125
575.426	12336
575.483	13799
575.541	12378
575.598	13360
575.656	15490
575.713	14960
575.771	13811
575.828	13605
575.886	13463
575.943	13923
576.001	15998
576.058	15519
576.115	16515
576.173	19379
576.230	22137
576.287	23243
576.345	18847
576.402	15940
576.459	15280
576.517	15848
576.574	18324
576.631	20458
576.688	17917
576.746	15458
576.803	15406
576.860	16035
576.917	14708
576.974	14521
577.031	14616
577.089	15626
577.146	15608
577.203	16817
577.260	16866
577.317	18205
577.374	21023
577.431	19880
577.488	17221
577.545	15655
577.602	15331
577.659	16466
577.716	17124
577.773	20056
577.830	17537
577.886	15601
577.943	14772
578.000	15207
578.057	17955
578.114	18087
578.171	17443
578.227	22028
578.284	22032
578.341	20711
578.398	17814
578.454	19166
578.511	20743
578.568	23198
578.625	20165
578.681	16695
578.738	14669
578.794	15149
578.851	15330
578.908	16794
578.964	16550
579.021	16858
579.077	16174
579.134	15904
579.190	14325
579.247	15333
579.303	14691
579.360	14372
579.416	13615
579.473	14316
579.529	14152
579.586	15685
579.642	15305
579.698	16873
579.755	16979
579.811	16691
579.867	16322
579.924	16525
579.980	16498
580.036	18565
580.093	22022
580.149	28448
580.205	32330
580.261	26443
580.317	22653
580.374	22069
580.430	23770
580.486	22466
580.542	19760
580.598	18106
580.619	18130
580.654	18195
580.692	17833
580.710	17681
580.765	16897
580.767	16891
580.823	17516
580.838	17283
580.879	16714
580.911	16451
580.935	16294
580.984	16269
580.991	16285
581.047	16790
581.057	16770
581.103	16804
581.130	17586
581.159	18410
581.203	19665
581.215	20016
581.270	20156
581.276	19930
581.326	17927
581.349	18031
581.382	18252
581.422	18136
581.438	18101
581.494	18332
581.494	18305
581.550	16846
581.567	17115
581.606	17642
581.640	17624
581.661	17677
581.713	18208
581.717	18259
581.773	16828
581.786	16854
581.829	16999
581.859	17161
581.885	17333
581.932	17290
581.940	17281
581.996	17742
582.004	17704
582.052	17561
582.077	17299
582.107	17039
582.150	17906
582.163	18164
582.219	17081
582.223	17157
582.274	18183
582.296	18458
582.330	18900
582.368	19488
582.386	19777
582.441	18160
582.441	18163
582.497	17917
582.514	17860
582.552	17869
582.587	19947
582.608	21130
582.659	18649
582.663	18471
582.719	18174
582.732	18207
582.774	18332
582.805	18548
582.830	18693
582.877	18379
582.885	18320
582.941	18577
582.950	18542
582.996	18672
583.023	19509
583.052	20377
583.095	21007
583.107	21215
583.162	23740
583.168	23897
583.218	25127
583.240	24752
583.273	23890
583.313	21535
583.328	20675
583.384	20609
583.385	20580
583.439	20170
583.458	20025
583.494	19550
583.531	18710
583.549	18325
583.603	19223
583.605	19252
583.660	19368
583.676	19239
583.715	18960
583.748	19543
583.770	19984
583.820	20803
583.825	20849
583.881	19815
583.893	19836
583.936	19998
583.965	19550
583.991	19180
584.038	19967
584.046	20111
584.101	19976
584.110	20107
584.156	20647
584.183	20546
584.211	20427
584.255	19897
584.266	19783
584.321	19804
584.328	19859
584.376	20424
584.400	20901
584.431	21240
584.472	20460
584.486	20260
584.541	20609
584.545	20624
584.596	20674
584.617	20850
584.651	21463
584.689	22217
584.706	22343
584.761	22568
584.762	22571
584.816	22645
584.834	22439
584.871	21992
584.906	23020
584.926	23494
584.978	22718
584.980	22701
585.035	23713
585.051	24194
585.090	25365
585.123	25449
585.145	25367
585.195	25635
585.200	25731
585.254	28288
585.267	28912
585.309	30958
585.340	33804
585.364	35545
585.412	32174
585.419	31554
585.473	28961
585.484	28826
585.528	29528
585.556	31049
585.583	33061
585.628	35302
585.637	36236
585.692	47706
585.700	50155
585.747	62388
585.772	58843
585.801	48467
585.845	34817
585.856	32821
585.910	31674
585.917	31454
585.965	30998
585.989	30922
586.019	31060
586.061	31818
586.074	32087
586.128	33772
586.133	33874
586.183	35054
586.205	35604
586.237	35785
586.277	35613
586.292	35789
586.346	36658
586.349	36733
586.401	37523
586.421	38061
586.455	39382
586.493	41721
586.509	43746
586.564	52110
586.565	52571
586.618	78143
586.637	80984
586.672	72927
586.709	55319
586.727	48464
586.781	44240
586.781	44226
586.835	43480
586.853	43240
586.889	43243
586.925	44043
586.944	44779
586.996	46660
586.998	46692
587.052	48832
587.068	49320
587.106	50600
587.140	51318
587.161	51547
587.212	54155
587.215	54273
587.269	55422
587.284	56049
587.323	58190
587.356	59844
587.377	60671
587.427	62921
587.431	63136
587.485	66339
587.499	67378
587.539	70202
587.571	72528
587.593	74245
587.643	78588
587.648	79019
587.702	83756
587.715	85264
587.755	89987
587.786	93631
587.810	96497
587.858	102490
587.864	103282
587.917	113146
587.930	115505
587.971	124196
588.001	131376
588.025	137626
588.073	150013
588.079	151539
588.133	168140
588.145	172342
588.187	190519
588.217	203793
588.241	215343
588.288	241619
588.295	245410
588.348	281197
588.360	289873
588.402	327076
588.431	355764
588.456	383140
588.503	440032
588.510	449492
588.564	536301
588.575	557309
588.617	655179
588.646	730425
588.671	816517
588.718	1003024
588.725	1042774
588.778	1384896
588.789	1459727
588.832	1813192
588.861	2040266
588.886	2125238
588.932	2132579
588.939	2095967
588.993	1718414
589.004	1714410
589.047	2065064
589.075	2220344
589.100	2103658
589.147	1713178
589.154	1658424
589.207	1270515
589.218	1201492
589.261	1075397
589.290	1013993
589.314	1022387
589.361	1069928
589.368	1095868
589.421	1353426
589.433	1415794
589.475	1734884
589.504	1940124
589.528	1966476
589.576	1863959
589.582	1851512
589.635	1911460
589.647	1901755
589.689	1625497
589.718	1365694
589.742	1154036
589.790	777141
589.795	752374
589.849	560250
589.861	520230
589.902	445443
589.932	394013
589.955	359699
590.004	291681
590.009	287009
590.062	244759
590.075	235101
590.115	212291
590.146	195969
590.168	187511
590.218	169744
590.222	168398
590.275	152935
590.289	149147
590.328	139623
590.360	132329
590.381	128222
590.431	118846
590.435	118278
590.488	109386
590.503	107278
590.541	102961
590.574	98987
590.594	96593
590.645	90808
590.647	90579
590.700	85098
590.716	83608
590.753	81156
590.787	78987
590.806	77418
590.859	73240
590.859	73184
590.912	70668
590.930	69865
590.965	67809
591.001	65931
591.018	65414
591.071	63733
591.072	63719
591.124	61837
591.143	61221
591.177	59698
591.214	58008
591.230	57672
591.283	56858
591.285	56819
591.336	55847
591.356	55573
591.389	54647
591.427	53294
591.442	52722
591.495	50816
591.498	50668
591.547	49674
591.569	49258
591.600	48728
591.640	48014
591.653	47911
591.706	47546
591.711	47498
591.759	47729
591.782	47884
591.811	48860
591.853	50288
591.864	49578
591.917	45545
591.924	44969
591.969	43758
591.995	43179
592.022	43324
592.066	43476
592.075	43706
592.127	45117
592.137	45407
592.180	49078
592.208	51348
592.233	48434
592.279	42587
592.285	42271
592.338	39758
592.350	39182
592.390	38411
592.421	37833
592.443	37853
592.491	37835
592.495	37780
592.548	36889
592.562	36634
592.600	36424
592.633	36233
592.653	36116
592.704	35604
592.705	35802
592.775	35565
592.846	34932
592.916	35315
592.987	35521
593.058	35251
593.128	32781
593.199	32226
593.270	31573
593.341	30936
593.411	31137
593.482	31070
593.553	30661
593.623	30219
593.694	30572
593.764	32488
593.835	30081
593.906	30159
593.976	29268
594.047	30155
594.117	33429
594.188	36708
594.258	28338
594.329	26529
594.399	27073
594.470	27060
594.540	26498
594.611	26801
594.681	24880
594.751	27241
594.822	28354
594.892	27539
594.963	28499
595.033	28317
595.103	28703
595.174	30196
595.244	40846
595.314	54619
595.384	30632
595.455	26839
595.525	27476
595.595	26532
595.665	28512
595.736	27718
595.806	26641
595.876	26468
595.946	25377
596.016	25466
596.087	25405
596.157	25832
596.227	25754
596.297	26407
596.367	26583
596.437	29511
596.507	37878
596.577	50325
596.647	30236
596.717	26239
596.787	27065
596.857	26408
596.927	25954
596.997	25591
597.067	26429
597.137	29558
597.207	28969
597.277	26002
597.347	26565
597.417	26172
597.487	25751
597.557	26487
597.626	26683
597.696	28431
597.766	34036
597.836	45420
597.906	31213
597.975	25325
598.045	24527
598.115	23772
598.185	23849
598.254	25505
598.324	25684
598.394	25402
598.464	26341
598.533	24828
598.603	23579
598.672	24824
598.742	24556
598.812	24319
598.881	24661
598.951	24385
599.020	23189
599.090	23526
599.159	23447
599.229	23656
599.299	22129
599.368	23019
599.437	22508
599.507	22749
599.576	24433
599.646	25327
599.715	27052
599.785	24538
599.854	25030
599.924	28471
599.993	26232
600.062	23962
600.132	22057
600.201	23799
600.270	24618
600.340	24422
600.409	23123
600.478	24237
600.547	23320
600.617	24503
600.686	23308
600.755	22663
600.824	22711
600.894	22742
600.963	20988
601.032	20892
601.101	22264
601.170	21731
601.239	21155
601.308	22569
601.378	21667
601.447	21577
601.516	21384
601.585	20450
601.654	21534
601.723	21389
601.792	21490
601.861	23171
601.930	27588
601.999	24485
602.068	21604
602.137	21714
602.206	21137
602.275	21541
602.343	23924
602.412	23732
602.481	21407
602.550	21689
602.619	20948
602.688	21627
602.756	21429
602.825	21149
602.894	21128
602.963	21602
603.032	21339
603.100	20919
603.169	20205
603.238	21179
603.307	20510
603.375	19985
603.444	20389
603.513	21285
603.581	20813
603.650	20760
603.719	20414
603.787	20321
603.856	20786
603.924	20275
603.993	21140
604.061	20171
604.130	21080
604.198	20512
604.267	21550
604.335	20813
604.404	20331
604.472	20437
604.541	20744
604.609	21139
604.678	20833
604.746	21066
604.815	21317
604.883	21862
604.951	22920
605.020	21505
605.088	20912
605.156	21327
605.225	21283
605.293	20002
605.361	21138
605.429	21301
605.498	21103
605.566	21373
605.634	22181
605.702	22164
605.771	21379
605.839	22831
605.907	21995
605.975	20957
606.043	21501
606.111	21904
606.180	22502
606.248	25494
606.316	29652
606.384	23605
606.452	27768
606.520	24790
606.588	22550
606.656	19547
606.724	19742
606.792	19408
606.860	17953
606.928	17792
606.996	17529
607.064	17757
607.132	17322
607.200	18867
607.267	17772
607.335	18154
607.403	18435
607.471	18302
607.539	17450
607.607	17993
607.674	17075
607.742	18723
607.810	17160
607.878	17557
607.946	17122
608.013	16812
608.081	18195
608.149	17613
608.216	17470
608.284	18302
608.352	17874
608.419	19676
608.487	27399
608.555	22636
608.622	17520
608.690	17894
608.757	17797
608.825	18640
608.893	18740
608.960	20234
609.028	22830
609.095	30358
609.163	21239
609.230	18159
609.298	17695
609.365	16852
609.432	16123
609.500	17686
609.567	19070
609.635	21011
609.702	20278
609.769	21117
609.837	22255
609.904	20178
609.971	17617
610.039	21010
610.106	26198
610.173	42311
610.241	89687
610.308	118792
610.375	86712
610.442	29139
610.509	19454
610.577	18462
610.644	17697
610.711	17573
610.778	17447
610.845	18167
610.912	19056
610.980	22723
611.047	29740
611.114	25266
611.181	18110
611.248	17767
611.315	18830
611.382	17566
611.449	17534
611.516	19157
611.583	18230
611.650	18770
611.717	19077
611.784	18596
611.851	20543
611.918	21498
611.984	23734
612.051	32124
612.118	57670
612.185	135847
612.252	109359
612.319	27738
612.386	22173
612.452	21644
612.519	23211
612.586	31540
612.653	26529
612.719	19289
612.786	18156
612.853	17508
612.919	16987
612.986	17799
613.053	17020
613.120	16884
613.186	15726
613.253	18440
613.319	16243
613.386	16165
613.453	16862
613.519	18775
613.586	19398
613.652	26077
613.719	22709
613.785	22018
613.852	18486
613.918	18719
613.985	21725
614.051	30505
614.118	62427
614.184	74766
614.250	21552
614.317	17547
614.383	16476
614.449	16583
614.516	16928
614.582	17915
614.648	17997
614.715	16512
614.781	16669
614.847	18017
614.914	19422
614.980	18624
615.046	17929
615.112	17447
615.179	18016
615.245	20938
615.311	27755
615.377	48488
615.443	59867
615.509	31903
615.575	22538
615.642	20041
615.708	21227
615.774	23520
615.840	27492
615.906	36189
615.972	54439
616.038	107395
616.104	150390
616.170	204834
616.236	200088
616.302	48986
616.368	31188
616.434	25457
616.500	24834
616.565	24361
616.631	27384
616.697	24853
616.763	24980
616.829	29968
616.895	44833
616.961	44776
617.026	27870
617.092	21048
617.158	20798
617.224	18868
617.289	19265
617.355	20720
617.421	20943
617.487	20377
617.552	20011
617.618	18417
617.684	17395
617.749	21146
617.815	18386
617.880	18143
617.946	19058
618.012	18735
618.077	17991
618.143	17971
618.208	18663
618.274	19388
618.339	19420
618.405	18794
618.470	18950
618.536	20019
618.601	23024
618.667	21700
618.732	20115
618.798	19408
618.863	19271
618.928	19478
618.994	19725
619.059	21616
619.124	25270
619.190	23545
619.255	20339
619.320	21240
619.386	20184
619.451	18001
619.516	18380
619.581	19455
619.647	19356
619.712	19295
619.777	18427
619.842	19151
619.907	19580
619.972	19003
620.038	20344
620.103	19718
620.168	18146
620.233	18224
620.298	18723
620.363	17535
620.428	18709
620.493	18827
620.558	19120
620.623	18460
620.688	18019
620.753	18288
620.818	17875
620.883	19178
620.948	19226
621.013	18649
621.078	19101
621.143	19089
621.207	22226
621.272	20449
621.337	21415
621.402	24638
621.467	30463
621.532	34450
621.596	26127
621.661	24100
621.726	21271
621.791	22017
621.855	22895
621.920	24700
621.985	25747
622.049	30207
622.114	27984
622.179	24750
622.243	26425
622.308	25503
622.373	24804
622.437	25212
622.502	23865
622.566	24669
622.631	24917
622.695	24844
622.760	24698
622.824	23826
622.889	23618
622.953	25887
623.018	29765
623.082	30387
623.147	24317
623.211	22892
623.276	23079
623.340	22463
623.404	22074
623.469	23472
623.533	22542
623.597	22035
623.662	22030
623.726	21763
623.790	20888
623.854	21801
623.919	23454
623.983	20691
624.047	21447
624.111	20785
624.176	21751
624.240	21501
624.304	23982
624.368	20987
624.432	21403
624.496	21525
624.560	22180
624.625	22115
624.689	21790
624.753	20992
624.817	21142
624.881	20945
624.945	20471
625.009	20517
625.073	20626
625.137	20631
625.201	22569
625.265	24037
625.329	20625
625.393	21233
625.456	21630
625.520	22749
625.584	24782
625.648	30282
625.712	45545
625.776	105610
625.839	133228
625.903	59769
625.967	26529
626.031	41458
626.095	74083
626.158	29972
626.222	18409
626.286	17875
626.349	16369
626.413	16767
626.477	17925
626.540	16298
626.604	16866
626.668	17759
626.731	16694
626.795	18286
626.858	18117
626.922	17364
626.986	17289
627.049	15524
627.113	17218
627.176	16288
627.240	15802
627.303	16064
627.366	16465
627.430	16394
627.493	16096
627.557	17005
627.620	17823
627.684	16658
627.747	17741
627.810	15452
627.874	16110
627.937	14753
628.000	17231
628.064	17464
628.127	13530
628.190	15030
628.253	15704
628.317	15660
628.380	14943
628.443	15643
628.506	14200
628.569	15069
628.632	13794
628.696	14154
628.759	14769
628.822	13352
628.885	13010
628.948	13328
629.011	13295
629.074	14562
629.137	13620
629.200	13577
629.263	14590
629.326	12078
629.389	13509
629.452	13290
629.515	14675
629.578	13933
629.641	14076
629.704	13532
629.767	13989
629.830	13131
629.892	13112
629.955	11750
630.018	13575
630.081	13504
630.144	14738
630.207	13250
630.269	15050
630.332	15243
630.395	14927
630.458	11784
630.520	11838
630.583	13192
630.646	11652
630.708	11474
630.771	11880
630.834	12388
630.896	11301
630.959	12088
631.021	11026
631.084	12201
631.146	12760
631.209	15883
631.272	11960
631.334	11837
631.397	9996
631.459	10722
631.522	10930
631.584	11527
631.646	12082
631.709	11349
631.771	14379
631.834	13158
631.896	11053
631.958	9905
632.021	11110
632.083	10088
632.145	11296
632.208	10626
632.270	11537
632.332	10570
632.395	9490
632.457	11432
632.519	9860
632.581	11539
632.643	9361
632.706	10179
632.768	9755
632.830	11150
632.892	9281
632.954	9837
633.016	11342
633.078	9801
633.141	9546
633.203	9888
633.265	10150
633.327	9672
633.389	9516
633.451	10817
633.513	11777
633.575	13082
633.637	12133
633.698	10676
633.760	10702
633.822	10081
633.884	8798
633.946	9245
634.008	9739
634.070	10829
634.132	12222
634.193	11439
634.255	9932
634.317	9276
634.379	10068
634.441	9652
634.502	9631
634.564	9684
634.626	8947
634.687	9676
634.749	10044
634.811	9129
634.873	8151
634.934	8592
634.996	9332
635.057	8653
635.119	8232
635.181	9464
635.242	8892
635.304	7853
635.365	9824
635.427	8075
635.488	9239
635.550	7998
635.611	8583
635.673	6832
635.734	10461
635.796	9094
635.857	9437
635.918	8710
635.980	9395
636.041	9639
636.102	9042
636.164	9164
636.225	9093
636.286	7876
636.348	8835
636.409	8526
636.470	7642
636.531	9318
636.593	10677
636.654	10981
636.715	8914
636.776	7991
636.838	7282
636.899	9294
636.960	7468
637.021	7537
637.082	7669
637.143	8547
637.204	6541
637.265	6511
637.326	7743
637.387	7992
637.448	6674
637.509	8037
637.570	7392
637.631	7896
637.692	6353
637.753	6185
637.814	6764
637.875	6945
637.936	8351
637.997	7023
638.058	7422
638.119	9104
638.179	7129
638.240	6580
638.301	6767
638.362	7163
638.423	7959
638.483	7625
638.544	5968
638.605	6960
638.666	6888
638.726	7461
638.787	7725
638.848	7374
638.908	6732
638.969	7310
639.030	7292
639.090	5925
639.151	6412
639.211	7788
639.272	8156
639.332	11223
639.393	8589
639.453	6629
639.514	6902
639.574	6862
639.635	5799
639.695	8112
639.756	5903
639.816	6446
639.877	7009
639.937	10171
639.997	12375
640.058	7165
640.118	6183
640.178	6812
640.239	6145
640.299	6421
640.359	5938
640.420	7063
640.480	6202
640.540	5552
640.600	6157
640.661	6927
640.721	6215
640.781	9521
640.841	5651
640.901	7529
640.961	6458
641.021	6858
641.082	5625
641.142	8243
641.202	7913
641.262	5644
641.322	6415
641.382	5962
641.442	6542
641.502	5961
641.562	6502
641.622	6048
641.682	5698
641.742	6790
641.802	6161
641.861	6562
641.921	6176
641.981	7097
642.041	6847
642.101	8420
642.161	5648
642.221	5734
642.280	5585
642.340	5195
642.400	5384
642.460	7029
642.519	5009
642.579	5145
642.639	6176
642.698	3943
642.758	7282
642.818	5206
642.877	5914
642.937	5990
642.997	7067
643.056	8048
643.116	4955
643.175	6684
643.235	5118
643.294	5918
643.354	5823
643.414	5732
643.473	6889
643.532	6779
643.592	7485
643.651	9947
643.711	15856
643.770	26384
643.830	54194
643.889	136341
643.948	45179
644.008	8898
644.067	6143
644.126	6140
644.186	5329
644.245	5500
644.304	3269
644.363	6756
644.423	5205
644.482	6161
644.541	4996
644.600	3983
644.659	5619
644.719	5058
644.778	7347
644.837	7812
644.896	12927
644.955	24494
645.014	14417
645.073	7735
645.132	6053
645.191	6391
645.250	4573
645.309	6422
645.368	4872
645.427	6713
645.486	5565
645.545	9099
645.604	5043
645.663	5513
645.722	4897
645.781	5812
645.840	5324
645.898	6504
645.957	7262
646.016	8028
646.075	13256
646.134	21155
646.192	49453
646.251	93203
646.310	18907
646.369	6650
646.427	6025
646.486	4364
646.545	5186
646.603	4989
646.662	5647
646.721	4728
646.779	3789
646.838	3607
646.896	4196
646.955	5084
647.014	5994
647.072	7349
647.131	15497
647.189	10457
647.248	3644
647.306	5790
647.365	5222
647.423	2981
647.481	5897
647.540	3087
647.598	4386
647.657	4185
647.715	4774
647.773	3791
647.832	5232
647.890	3428
647.948	4349
648.007	5566
648.065	3628
648.123	3692
648.181	6740
648.240	6419
648.298	6021
648.356	5073
648.414	5541
648.472	5641
648.531	5435
648.589	4345
648.647	4363
648.705	4423
648.763	3791
648.821	4433
648.879	4375
648.937	4774
648.995	3657
649.053	5339
649.111	5373
649.169	7748
649.227	10538
649.285	16000
649.343	43158
649.401	31127
649.459	14120
649.516	13527
649.574	10707
649.632	24411
649.690	37100
649.748	13720
649.806	10580
649.863	18846
649.921	13636
649.979	10218
650.037	5052
650.094	3676
650.152	4128
650.210	3645
650.268	5394
650.325	4576
650.383	4367
650.440	3919
650.498	5529
650.556	3737
650.613	3670
650.671	4545
650.728	4506
650.786	5377
650.843	4270
650.901	2377
650.958	4517
651.016	3983
651.073	3151
651.131	3018
651.188	2992
651.246	4090
651.303	3480
651.360	4338
651.418	3176
651.475	4035
651.532	3420
651.590	2846
651.647	2946
651.704	3409
651.762	2843
651.819	3754
651.876	2903
651.933	3670
651.990	3259
652.048	2205
652.105	3397
652.162	3929
652.219	3220
652.276	3729
652.333	3764
652.390	2513
652.448	4007
652.505	4409
652.562	3986
652.619	4518
652.676	7650
652.733	9699
652.790	4524
652.847	2516
652.904	3045
652.961	2051
653.017	2285
653.074	3454
653.131	3160
653.188	2791
653.245	2541
653.302	4156
653.359	2697
653.415	2896
653.472	2505
653.529	3504
653.586	2787
653.642	2831
653.699	2442
653.756	2449
653.813	1989
653.869	2717
653.926	2875
653.983	2835
654.039	2872
654.096	2832
654.152	4218
654.209	2503
654.266	4259
654.322	2645
654.379	4523
654.435	5036
654.492	4333
654.548	5852
654.605	7900
654.661	6327
654.717	2969
654.774	4461
654.830	3914
654.887	3406
654.943	3826
655.000	4378
655.056	3766
655.112	3885
655.168	3090
655.225	3918
655.281	4769
655.337	6245
655.394	10057
655.450	8783
655.506	6321
655.562	9527
655.618	11074
655.675	3541
655.731	3702
655.787	3337
655.843	4140
655.899	2670
655.955	3755
656.011	2993
656.067	1476
656.123	3843
656.179	3267
656.235	4283
656.291	2060
656.347	3789
656.403	3586
656.459	3752
656.515	4806
656.571	5053
656.627	3569
656.683	3852
656.739	3294
656.795	3442
656.850	2979
656.906	3860
656.962	3853
657.018	2493
657.074	1953
657.129	3782
657.185	3914
657.241	3951
657.297	3054
657.352	3366
657.408	2236
657.464	5099
657.519	3481
657.575	1922
657.630	3497
657.686	3030
657.742	2927
657.797	3979
657.853	3229
657.908	4694
657.964	1823
658.019	3459
658.075	3527
658.130	3692
658.186	2257
658.241	2724
658.297	2563
658.352	3081
658.407	3991
658.463	2948
658.518	3908
658.573	3392
658.629	2015
658.684	2539
658.739	3075
658.795	2090
658.850	2626
658.905	3375
658.960	2519
659.016	2132
659.071	3121
659.126	2923
659.181	2116
659.236	5186
659.291	5747
659.346	3927
659.401	3616
659.457	5113
659.512	6347
659.567	5428
659.622	3475
659.677	3219
659.732	2375
659.787	3247
659.842	3165
659.897	5641
659.952	4167
660.007	3129
660.061	2917
660.116	2444
660.171	2805
660.226	3000
660.281	3264
660.336	2794
660.391	3324
660.445	2915
660.500	2548
660.555	2541
660.610	2356
660.664	3208
660.719	3040
660.774	4126
660.828	3242
660.883	4096
660.938	2929
660.992	1946
661.047	3486
661.101	3012
661.156	2870
661.211	2894
661.265	2802
661.320	2279
661.374	2508
661.429	2215
661.483	2460
661.538	2333
661.592	2702
661.647	3141
661.701	2626
661.755	3111
661.810	2985
661.864	2376
661.919	2849
661.973	3580
662.027	2980
662.081	1918
662.136	2709
662.190	3318
662.244	3870
662.299	2867
662.353	3376
662.407	2592
662.461	2804
662.515	3485
662.569	3428
662.624	3937
662.678	3261
662.732	3321
662.786	2413
662.840	3501
662.894	3783
662.948	2313
663.002	1996
663.056	3012
663.110	2472
663.164	2083
663.218	2664
663.272	3371
663.326	2953
663.380	3214
663.434	3572
663.488	2178
663.542	2782
663.595	3582
663.649	2623
663.703	3267
663.757	3050
663.811	2867
663.864	2850
663.918	3857
663.972	2722
664.026	3264
664.079	3120
664.133	3678
664.187	2461
664.240	1919
664.294	2281
664.348	3437
664.401	3258
664.455	3599
664.508	2598
664.562	2870
664.615	2647
664.669	1873
664.722	2996
664.776	2992
664.829	2309
664.883	3273
664.936	2558
664.990	3054
665.043	3279
665.097	3999
665.150	3985
665.203	3086
665.257	3289
665.310	3258
665.363	3325
665.417	2831
665.470	3911
665.523	3464
665.576	3165
665.630	3616
665.683	2697
665.736	3838
665.789	3678
665.842	2955
665.895	3016
665.949	3295
666.002	2578
666.055	3571
666.108	3834
666.161	4019
666.214	3666
666.267	3599
666.320	3789
666.373	3213
666.426	4270
666.479	3023
666.532	4245
666.585	4794
666.638	5981
666.691	5087
666.744	5000
666.796	5149
666.849	4227
666.902	4315
666.955	3744
667.008	3020
667.060	2672
667.113	2179
667.166	2873
667.219	3231
667.271	3445
667.324	3415
667.377	3987
667.430	3183
667.482	4390
667.535	4409
667.587	3273
667.640	3510
667.693	4154
667.745	4908
667.798	5592
667.850	4184
667.903	3772
667.955	4136
668.008	3162
668.060	5341
668.113	4557
668.165	4285
668.218	4477
668.270	3731
668.322	4343
668.375	3773
668.427	3936
668.479	4094
668.532	3950
668.584	3634
668.636	4097
668.689	3786
668.741	3108
668.793	3704
668.845	3423
668.898	5087
668.950	3694
669.002	4328
669.054	3316
669.106	4334
669.158	4964
669.211	4493
669.263	4137
669.315	5281
669.367	6288
669.419	5242
669.471	5800
669.523	5768
669.575	7093
669.627	7131
669.679	4485
669.731	4408
669.783	5249
669.835	6722
669.886	5130
669.938	4889
669.990	4575
670.042	4157
670.094	5094
670.146	5229
670.197	5895
670.249	6924
670.301	8366
670.353	11485
670.404	15253
670.456	21227
670.508	33731
670.560	56781
670.611	94611
670.663	163924
670.715	352821
670.766	667535
670.818	297495
670.869	49339
670.921	22550
670.972	15557
671.024	11382
671.075	9330
671.127	7171
671.178	7055
671.230	6435
671.281	5910
671.333	5328
671.384	5344
671.436	5663
671.487	5518
671.538	5525
671.590	6089
671.641	6840
671.692	7450
671.744	10396
671.795	10027
671.846	5600
671.897	4190
671.949	4275
672.000	4528
672.051	4101
672.102	5866
672.153	3659
672.204	4834
672.256	4020
672.307	4221
672.358	4343
672.409	4729
672.460	4951
672.511	4135
672.562	4309
672.613	4510
672.664	3441
672.715	3888
672.766	3570
672.817	3507
672.868	3921
672.919	3785
672.970	3796
673.021	3912
673.071	2646
673.122	4014
673.173	3643
673.224	3433
673.275	3193
673.326	3899
673.376	3608
673.427	3422
673.478	3175
673.528	4145
673.579	3852
673.630	3308
673.680	4086
673.731	3253
673.782	3148
673.832	3903
673.883	2706
673.934	3602
673.984	4343
674.035	3341
674.085	3845
674.136	4697
674.186	3801
674.237	4812
674.287	7561
674.338	5545
674.388	2995
674.438	3840
674.489	3269
674.539	3945
674.589	3786
674.640	3971
674.690	3276
674.740	3865
674.791	4457
674.841	4475
674.891	4166
674.942	3317
674.992	3805
675.042	3128
675.092	3026
675.142	3473
675.193	3327
675.243	2848
675.293	3308
675.343	3077
675.393	3266
675.443	3480
675.493	2997
675.543	2185
675.593	3444
675.643	3906
675.693	2540
675.743	3350
675.793	3365
675.843	2953
675.893	2912
675.943	3987
675.993	3181
676.043	2670
676.093	3620
676.142	2772
676.192	3435
676.242	2938
676.292	2505
676.341	3292
676.391	3397
676.441	2892
676.491	2682
676.540	2532
676.590	2838
676.640	2971
676.689	2494
676.739	1905
676.789	2321
676.838	2548
676.888	2939
676.937	3345
676.987	2438
677.037	2278
677.086	2476
677.136	2966
677.185	2745
677.235	1121
677.284	2367
677.333	2956
677.383	1927
677.432	2449
677.482	2781
677.531	2657
677.580	2570
677.630	2515
677.679	2236
677.728	2873
677.778	2620
677.827	2601
677.876	2062
677.925	2242
677.975	2014
678.024	2850
678.073	2768
678.122	3301
678.171	2519
678.220	3298
678.269	3023
678.319	3577
678.368	1977
678.417	2863
678.466	2744
678.515	2876
678.564	2821
678.613	3290
678.662	2691
678.711	3054
678.760	2807
678.809	2935
678.857	2429
678.906	3433
678.955	2323
679.004	2964
679.053	2819
679.102	2516
679.151	2448
679.199	2613
679.248	1915
679.297	3016
679.346	2918
679.394	3362
679.443	2267
679.492	3052
679.540	2083
679.589	2895
679.638	3034
679.686	2482
679.735	3199
679.784	2499
679.832	2451
679.881	2376
679.929	3595
679.978	1904
680.026	1450
680.075	2379
680.123	2684
680.172	2705
680.220	1212
680.268	2586
680.317	2385
680.365	2040
680.414	2285
680.462	1887
680.510	2497
680.559	1848
680.607	1927
680.655	2588
680.703	2246
680.752	1629
680.800	1954
680.848	2067
680.896	1525
680.945	1909
680.993	1718
681.041	1469
681.089	1722
681.137	1962
681.185	1972
681.233	2043
681.258	2137
681.281	2172
681.329	2084
681.377	1349
681.380	1456
681.425	2328
681.473	2943
681.502	3350
681.521	3536
681.569	3463
681.617	2871
681.624	2947
681.665	3003
681.713	3290
681.745	3753
681.761	3877
681.809	3431
681.857	3650
681.867	3564
681.904	3093
681.952	3747
681.989	3619
682.000	3509
682.048	3778
682.096	4497
682.111	4278
682.143	3634
682.191	4141
682.233	4836
682.239	4879
682.286	3809
682.334	3379
682.354	4028
682.382	4814
682.430	4960
682.476	5246
682.477	5203
682.525	4401
682.572	5190
682.598	4930
682.620	4644
682.667	5387
682.715	5633
682.720	5680
682.763	5617
682.810	5388
682.841	5319
682.857	5232
682.905	5584
682.952	5985
682.963	6043
683.000	5990
683.047	6009
683.085	6169
683.095	6160
683.142	5880
683.190	5753
683.206	6009
683.237	6415
683.284	6392
683.328	6560
683.332	6528
683.379	6347
683.426	6622
683.449	6467
683.473	6204
683.521	7389
683.568	7496
683.571	7476
683.615	6733
683.662	7340
683.693	7400
683.709	7414
683.757	6812
683.804	7652
683.814	7679
683.851	7542
683.898	8274
683.936	7680
683.945	7487
683.992	8333
684.039	8492
684.057	8269
684.086	7850
684.133	7607
684.179	8153
684.180	8139
684.227	8163
684.274	8373
684.300	8357
684.321	8281
684.368	8876
684.415	9144
684.422	9118
684.462	8793
684.509	8440
684.543	8857
684.556	8985
684.603	8501
684.649	8718
684.665	8835
684.696	9049
684.743	9650
684.786	10007
684.790	10012
684.837	10288
684.883	10404
684.908	10865
684.930	11315
684.977	12121
685.023	11195
685.029	11301
685.070	11357
685.117	11312
685.150	11637
685.164	11923
685.210	12487
685.257	12800
685.272	12973
685.303	12805
685.350	12852
685.393	11901
685.396	11825
685.443	12320
685.490	12222
685.514	12470
685.536	12681
685.583	12742
685.629	12589
685.636	12643
685.675	12650
685.722	13059
685.757	12874
685.768	12887
685.815	13130
685.861	13570
685.878	13640
685.908	13575
685.954	13776
686.000	13764
686.000	13755
686.047	14608
686.093	16179
686.121	16262
686.139	16065
686.185	14798
686.232	14612
686.242	14597
686.278	14473
686.324	14410
686.363	13753
686.370	13644
686.416	13774
686.463	13767
686.484	13778
686.509	13919
686.555	14303
686.601	14101
686.606	14108
686.647	13776
686.693	14140
686.727	14010
686.739	14065
686.785	14369
686.831	14126
686.848	14481
686.877	14847
686.923	14603
686.969	13924
686.969	13920
687.015	14440
687.061	15392
687.090	15408
687.107	15178
687.153	14969
687.199	15101
687.211	14866
687.245	14536
687.291	14787
687.332	14872
687.336	14893
687.382	16157
687.428	16506
687.453	16171
687.474	15596
687.520	15534
687.565	15255
687.574	15227
687.611	15659
687.657	15266
687.695	15855
687.702	15991
687.748	16377
687.794	17001
687.816	17018
687.839	16679
687.885	15981
687.931	16160
687.937	16065
687.976	15807
688.022	15842
688.058	15904
688.067	15953
688.113	15863
688.158	16001
688.179	16114
688.204	16273
688.249	16026
688.295	16559
688.300	16572
688.340	17056
688.386	17564
688.421	17547
688.431	17400
688.477	16746
688.522	17615
688.542	17279
688.567	17027
688.613	16822
688.658	16832
688.663	16842
688.703	17384
688.749	17459
688.784	18101
688.794	18205
688.839	18059
688.884	17697
688.905	17601
688.930	17460
688.975	17678
689.020	17755
689.026	17706
689.065	17952
689.110	17881
689.146	18604
689.155	18679
689.201	18415
689.246	17419
689.267	17386
689.291	17634
689.336	18075
689.381	18361
689.388	18280
689.426	17903
689.471	18173
689.509	18399
689.516	18419
689.561	17950
689.606	18024
689.630	17840
689.651	17832
689.696	17930
689.741	17717
689.750	17734
689.785	18104
689.830	18625
689.871	18937
689.875	18942
689.920	18006
689.965	18241
689.992	18083
690.010	18219
690.054	18296
690.099	18801
690.112	19036
690.144	19587
690.189	19008
690.233	18706
690.233	18731
690.278	19059
690.323	19095
690.354	19024
690.367	19235
690.412	20208
690.457	20934
690.474	21040
690.501	21114
690.546	21515
690.590	21795
690.595	21796
690.635	22825
690.680	23969
690.716	24627
690.724	25090
690.769	27835
690.813	31016
690.836	32218
690.857	35419
690.902	42346
690.946	49489
690.957	51244
690.991	70076
691.035	95123
691.077	119293
691.080	119651
691.124	119959
691.168	119774
691.198	120229
691.213	111780
691.257	86382
691.301	60499
691.318	50411
691.346	46007
691.390	38428
691.434	31223
691.439	30343
691.478	28740
691.522	27495
691.559	25754
691.567	25658
691.611	25221
691.655	24590
691.680	23937
691.699	23667
691.743	23852
691.787	23665
691.800	23484
691.831	23344
691.875	23160
691.919	23577
691.921	23528
691.964	23661
692.008	24356
692.041	24312
692.052	24271
692.096	24430
692.139	24153
692.162	24036
692.183	23965
692.227	23860
692.271	23663
692.282	23582
692.315	23691
692.359	23775
692.402	23695
692.403	23738
692.447	23621
692.490	23408
692.523	23072
692.534	23185
692.578	23721
692.622	24185
692.643	24293
692.666	24104
692.709	23872
692.753	23067
692.763	22977
692.797	23355
692.840	23553
692.884	24013
692.884	24067
692.928	24442
692.971	25218
693.004	25710
693.015	25761
693.059	25429
693.102	25427
693.124	25367
693.146	25695
693.189	26164
693.233	26780
693.245	26799
693.276	27823
693.320	29686
693.363	31236
693.365	31235
693.407	34086
693.450	36799
693.485	38708
693.493	39956
693.537	46504
693.580	52941
693.605	56610
693.624	64339
693.667	82385
693.710	100528
693.725	106800
693.753	144335
693.797	202684
693.840	262365
693.845	268923
693.883	268612
693.926	266198
693.966	264702
693.970	259381
694.013	198816
694.056	137499
694.086	95235
694.099	90422
694.142	74637
694.185	58471
694.206	50730
694.229	48290
694.272	43179
694.315	38389
694.326	37077
694.358	35746
694.401	33653
694.444	31496
694.446	31326
694.487	30828
694.530	29985
694.566	29487
694.573	29388
694.616	27962
694.659	26820
694.686	25966
694.702	25940
694.745	25598
694.787	25381
694.806	25268
694.830	25430
694.873	25545
694.916	25631
694.926	25590
694.959	25217
695.002	24537
695.044	23903
695.046	23823
695.087	24427
695.130	24978
695.166	25382
695.172	25440
695.215	25567
695.258	25343
695.286	25315
695.301	25350
695.343	25107
695.386	24922
695.406	24721
695.428	24486
695.471	24080
695.514	23740
695.526	23532
695.556	23768
695.599	24160
695.641	24428
695.646	24416
695.684	24404
695.726	24292
695.766	23862
695.769	23927
695.811	24239
695.854	24525
695.886	24727
695.896	24689
695.938	24105
695.981	23534
696.005	23209
696.023	23384
696.065	23739
696.108	23885
696.125	24037
696.150	24455
696.192	24656
696.235	24864
696.245	24923
696.277	25080
696.319	25030
696.361	24982
696.365	24921
696.404	25839
696.446	26688
696.485	27408
696.488	27452
696.530	26995
696.572	26777
696.604	26416
696.614	26367
696.656	25974
696.698	25463
696.724	25101
696.740	25015
696.783	24637
696.825	24298
696.844	24021
696.867	24178
696.909	24457
696.951	24669
696.964	24711
696.992	24519
697.034	23964
697.076	23582
697.083	23417
697.118	23621
697.160	24096
697.202	24210
697.203	24154
697.244	24053
697.286	23814
697.323	23557
697.327	23593
697.369	23307
697.411	23011
697.442	22710
697.453	22858
697.494	23286
697.536	23613
697.562	23834
697.578	23975
697.620	24153
697.661	24254
697.682	24213
697.703	24157
697.744	24018
697.786	23936
697.801	23796
697.828	23965
697.869	24168
697.911	24364
697.921	24352
697.952	24289
697.994	24133
698.035	23958
698.040	23866
698.077	23605
698.118	23281
698.160	22935
698.160	22869
698.201	23010
698.243	23021
698.279	22982
698.284	23097
698.325	23612
698.367	24093
698.399	24398
698.408	24343
698.449	23769
698.491	23269
698.518	22819
698.532	22938
698.573	23153
698.614	23334
698.638	23383
698.656	23584
698.697	23919
698.738	24229
698.757	24304
698.779	24416
698.820	24514
698.862	24626
698.877	24595
698.903	24956
698.944	25427
698.985	25904
698.996	25966
699.026	25902
699.067	25714
699.116	25423
699.235	24153
699.354	23689
699.474	23732
699.593	26201
699.713	25794
699.832	23548
699.951	25443
700.070	23934
700.190	23606
700.309	24148
700.428	24658
700.547	24170
700.667	23418
700.786	23137
700.905	23039
701.024	23493
701.143	22831
701.262	21799
701.381	20876
701.500	22830
701.619	22263
701.738	20915
701.857	20511
701.976	21134
702.095	19882
702.214	21586
702.333	21848
702.452	21106
702.571	20953
702.690	21798
702.809	20051
702.928	18747
703.047	20999
703.165	19812
703.284	19921
703.403	20237
703.522	22036
703.640	22271
703.759	22789
703.878	27096
703.997	21098
704.115	20479
704.234	19195
704.353	19725
704.471	19980
704.590	19433
704.708	19130
704.827	18985
704.946	19405
705.064	21350
705.183	19826
705.301	23806
705.420	37208
705.538	34846
705.656	30554
705.775	31575
705.893	51997
706.012	77474
706.130	32619
706.249	29032
706.367	28105
706.485	29716
706.604	28456
706.722	28594
706.840	29670
706.958	31629
707.077	29110
707.195	25862
707.313	26640
707.431	26143
707.549	25977
707.668	25364
707.786	26250
707.904	24435
708.022	24893
708.140	24078
708.258	24303
708.376	24343
708.494	25138
708.612	27314
708.730	40179
708.848	38479
708.966	33420
709.084	31779
709.202	31303
709.320	32275
709.438	32543
709.556	32259
709.674	32675
709.791	32198
709.909	31876
710.027	30581
710.145	31410
710.263	31556
710.380	30028
710.498	30250
710.616	29462
710.733	28390
710.851	29395
710.969	30756
711.086	28979
711.204	28649
711.322	27563
711.439	28993
711.557	28811
711.674	29238
711.792	28165
711.909	31507
712.027	34565
712.144	28054
712.262	27935
712.379	30591
712.497	43890
712.614	47668
712.732	38057
712.849	34276
712.966	35558
713.084	37872
713.201	37233
713.318	36826
713.436	35774
713.553	37336
713.670	36680
713.787	38066
713.905	38752
714.022	35674
714.139	33131
714.256	35495
714.373	35111
714.490	36792
714.608	44170
714.725	92857
714.842	119323
714.959	36262
715.076	31495
715.193	30653
715.310	30927
715.427	31012
715.544	28901
715.661	31041
715.778	30322
715.895	34676
716.011	32057
716.128	31959
716.245	29319
716.362	30246
716.479	30661
716.596	29306
716.713	30124
716.829	28547
716.946	29550
717.063	27159
717.180	27860
717.296	27004
717.413	27708
717.530	26570
717.646	26781
717.763	25766
717.880	26356
717.996	25247
718.113	26099
718.229	25230
718.346	25213
718.462	24231
718.579	25615
718.695	28535
718.812	30684
718.928	29513
719.045	26845
719.161	23065
719.277	24081
719.394	22570
719.510	26061
719.626	23671
719.743	28440
719.859	26592
719.975	26866
720.092	37604
720.208	62962
720.324	30250
720.440	24331
720.557	25782
720.673	28686
720.789	38524
720.905	72263
721.021	37884
721.137	22964
721.253	24498
721.369	24102
721.486	24640
721.602	31189
721.718	24021
721.834	20405
721.950	21531
722.066	21387
722.181	20720
722.297	22269
722.413	20869
722.529	20584
722.645	21484
722.761	20587
722.877	20620
722.993	19640
723.108	20262
723.224	19253
723.340	19427
723.456	19216
723.571	19464
723.687	18609
723.803	19241
723.918	18539
724.034	18434
724.150	19064
724.265	19605
724.381	30944
724.497	41162
724.612	19029
724.728	18177
724.843	17171
724.959	19458
725.074	30369
725.190	36435
725.305	19275
725.421	18420
725.536	17131
725.651	17133
725.767	16538
725.882	15883
725.997	16631
726.113	15863
726.228	15963
726.343	16421
726.459	15194
726.574	15539
726.689	16238
726.804	15144
726.920	15787
727.035	17096
727.150	16075
727.265	15089
727.380	15442
727.495	15639
727.610	14495
727.725	16290
727.841	18636
727.956	33233
728.071	31509
728.186	15480
728.301	13961
728.416	15178
728.531	14125
728.645	14241
728.760	14147
728.875	14546
728.990	14242
729.105	14830
729.220	14664
729.335	13190
729.449	13511
729.564	13398
729.679	12906
729.794	12728
729.908	14409
730.023	14472
730.138	12349
730.253	12902
730.367	12126
730.482	12728
730.596	12390
730.711	12924
730.826	13007
730.940	12553
731.055	12406
731.169	11756
731.284	12088
731.398	12459
731.513	12872
731.627	13819
731.742	14089
731.856	14502
731.970	10974
732.085	11446
732.199	12235
732.313	12953
732.428	16120
732.542	26722
732.656	22114
732.771	13101
732.885	11981
732.999	12687
733.113	13005
733.227	12530
733.342	10472
733.456	10757
733.570	10859
733.684	11135
733.798	11138
733.912	12205
734.026	10321
734.140	10989
734.254	12569
734.368	17582
734.482	22212
734.596	10957
734.710	10478
734.824	10345
734.938	10379
735.052	9663
735.166	11766
735.280	11029
735.393	10840
735.507	11157
735.621	14113
735.735	20699
735.849	12918
735.962	10876
736.076	11084
736.190	11047
736.303	13440
736.417	17764
736.531	10417
736.644	11081
736.758	8953
736.872	10103
736.985	10038
737.099	10664
737.212	9483
737.326	9425
737.439	9549
737.553	9851
737.666	9474
737.780	9432
737.893	10034
738.007	9927
738.120	9079
738.233	9729
738.347	8866
738.460	9299
738.573	9218
738.687	9279
738.800	9849
738.913	10514
739.026	10085
739.140	10373
739.253	10648
739.366	10118
739.479	8920
739.592	8709
739.705	8731
739.818	9363
739.932	8948
740.045	8290
740.158	9166
740.271	9085
740.384	9586
740.497	8553
740.610	9868
740.723	9131
740.836	8564
740.949	10030
741.062	9700
741.174	10537
741.287	9275
741.400	9434
741.513	8823
741.626	10228
741.739	9741
741.851	8739
741.964	8298
742.077	8853
742.189	9094
742.302	8879
742.415	9070
742.527	8527
742.640	7718
742.753	9201
742.865	8307
742.978	8199
743.090	8904
743.203	7961
743.316	8364
743.428	8808
743.541	7832
743.653	8159
743.766	8470
743.878	8938
743.990	10271
744.103	10053
744.215	7842
744.327	8846
744.440	9401
744.552	9984
744.664	8474
744.777	7841
744.889	7820
745.001	8449
745.113	8392
745.226	8095
745.338	8491
745.450	8071
745.562	8404
745.674	8520
745.786	8394
745.898	7844
746.010	9112
746.122	8149
746.234	7975
746.347	7562
746.459	8249
746.570	8445
746.682	7965
746.794	8347
746.906	8541
747.018	8392
747.130	8449
747.242	8286
747.354	7985
747.466	8289
747.577	7612
747.689	9347
747.801	8175
747.913	7929
748.024	7314
748.136	7655
748.248	7060
748.359	7746
748.471	8173
748.583	8517
748.694	8802
748.806	12442
748.918	9869
749.029	9452
749.141	8506
749.252	8702
749.364	8901
749.475	10339
749.587	10699
749.698	8303
749.809	8216
749.921	7950
750.032	8077
750.144	7736
750.255	8193
750.366	7509
750.478	8074
750.589	8130
750.700	7620
750.811	8108
750.923	8321
751.034	10515
751.145	11805
751.256	7873
751.367	8115
751.479	8260
751.590	8369
751.701	8123
751.812	7846
751.923	8653
752.034	8238
752.145	8042
752.256	7944
752.367	8235
752.478	9299
752.589	8342
752.700	8274
752.811	7606
752.922	8021
753.032	7269
753.143	8438
753.254	7692
753.365	8298
753.476	8195
753.586	8382
753.697	8226
753.808	8093
753.919	8087
754.029	8395
754.140	8940
754.251	8103
754.361	8954
754.472	7926
754.582	8126
754.693	8468
754.804	9173
754.914	8402
755.025	8122
755.135	8322
755.246	9079
755.356	8386
755.466	8057
755.577	9159
755.687	9117
755.798	8566
755.908	9083
756.018	8253
756.129	8888
756.239	9029
756.349	9909
756.460	8572
756.570	9365
756.680	9329
756.790	9265
756.900	9289
757.011	9803
757.121	9423
757.231	10061
757.341	10737
757.451	9798
757.561	9962
757.671	10335
757.781	9555
757.891	10459
758.001	10641
758.111	10861
758.221	10746
758.331	10762
758.441	11063
758.551	11646
758.661	11293
758.771	11130
758.880	12141
758.990	12538
759.100	12557
759.210	12589
759.320	12721
759.429	13292
759.539	12403
759.649	13172
759.758	13091
759.868	13687
759.978	12436
760.087	13976
760.197	13984
760.307	14591
760.416	14543
760.526	13768
760.635	14376
760.745	15483
760.854	14939
760.964	15890
761.073	16150
761.182	16757
761.292	16310
761.401	17905
761.511	17590
761.620	17012
761.729	18076
761.839	19231
761.948	19295
762.057	19879
762.166	19136
762.276	19816
762.385	22055
762.494	22127
762.603	22296
762.712	23615
762.822	24100
762.931	24620
763.040	25554
763.149	26900
763.258	28044
763.367	29738
763.476	31396
763.585	32752
763.694	34203
763.803	35705
763.912	37538
764.021	39242
764.130	42046
764.238	46187
764.347	48002
764.456	50821
764.565	56458
764.674	60645
764.783	65977
764.891	73427
765.000	82641
765.109	92746
765.217	105432
765.326	125194
765.435	147400
765.543	177454
765.652	221665
765.761	285188
765.869	379225
765.978	524882
766.086	762540
766.195	1130329
766.303	1558665
766.412	1417783
766.520	1160832
766.629	1544087
766.737	1194375
766.846	803529
766.954	554944
767.062	402373
767.171	308743
767.279	235627
767.387	187373
767.496	157373
767.604	132330
767.712	116771
767.820	104031
767.928	93964
768.037	87510
768.145	82672
768.253	78380
768.361	75441
768.469	75607
768.577	76396
768.685	80068
768.793	84997
768.901	93162
769.009	107270
769.117	128059
769.225	160711
769.333	218064
769.441	323544
769.549	507927
769.657	872975
769.765	1368595
769.873	1212952
769.981	1308850
770.088	978644
770.196	571795
770.304	365750
770.412	255274
770.519	192245
770.627	149987
770.735	119481
770.842	102314
770.950	88096
771.058	76638
771.165	67304
771.273	60753
771.380	55256
771.488	50749
771.595	46457
771.703	42663
771.810	39901
771.918	37081
772.025	35605
772.133	33120
772.240	31521
772.348	30578
772.455	27595
772.562	26544
772.670	26214
772.777	25337
772.884	23598
772.991	22738
773.099	21885
773.206	20816
773.313	20907
773.420	19940
773.528	19468
773.635	19134
773.742	18226
773.849	17650
773.956	17434
774.063	16300
774.170	16286
774.277	16931
774.384	15550
774.491	14832
774.598	16116
774.705	14932
774.812	14923
774.919	15834
775.026	14778
775.133	15241
775.239	13606
775.346	14043
775.453	13482
775.560	13453
775.667	13001
775.773	12776
775.880	12974
775.987	12048
776.093	12840
776.200	11421
776.307	11910
776.413	11907
776.520	10984
776.627	11876
776.733	11190
776.840	10475
776.946	11969
777.053	10367
777.159	11519
777.266	9903
777.372	11874
777.478	10761
777.585	10034
777.691	9886
777.798	10217
777.904	11172
778.010	12450
778.117	11443
778.223	9453
778.329	9000
778.435	10218
778.542	9246
778.648	10056
778.754	9240
778.860	9821
778.966	9279
779.072	9803
779.178	9366
779.284	9207
779.391	8260
779.497	10762
779.603	14401
779.708	19309
779.815	40243
779.920	132445
780.026	355363
780.132	83308
780.238	17197
780.344	12070
780.450	10883
780.556	9859
780.661	8283
780.767	8339
780.873	7406
780.979	7952
781.085	6757
781.190	7171
781.296	7084
781.402	7211
781.507	6596
781.613	7426
781.719	7200
781.824	7234
781.930	7373
782.035	6903
782.141	6082
782.246	6232
782.352	6995
782.457	7177
782.563	6305
782.668	6629
782.773	6980
782.879	6972
782.984	7256
783.090	7108
783.195	8272
783.300	7165
783.405	6271
783.511	6727
783.616	6935
783.721	6766
783.826	5926
783.932	6146
784.037	6082
784.142	6592
784.247	6394
784.352	6067
784.457	6279
784.562	5041
784.667	5615
784.772	6337
784.877	5926
784.982	6160
785.087	6864
785.192	6183
785.297	5406
785.402	5288
785.507	5591
785.611	5815
785.716	5822
785.821	5997
785.926	4451
786.031	4903
786.135	6076
786.240	5331
786.345	4675
786.450	5718
786.554	4495
786.659	5217
786.763	4112
786.868	5263
786.973	5807
787.077	4686
787.182	5186
787.286	4507
787.391	4348
787.495	4901
787.600	4779
787.704	5106
787.809	5605
787.913	4537
788.017	4721
788.122	4208
788.226	5337
788.330	4675
788.435	4500
788.539	5232
788.643	4257
788.747	4330
788.852	4727
788.956	4622
789.060	4743
789.164	4826
789.268	3887
789.372	4702
789.476	4632
789.580	4756
789.684	4665
789.788	4789
789.892	4219
789.996	4564
790.100	4297
790.204	4794
790.308	4064
790.412	4805
790.516	6265
790.620	5016
790.724	5329
790.828	4277
790.931	4849
791.035	4668
791.139	5080
791.242	4327
791.346	4622
791.450	4533
791.554	4728
791.657	3851
791.761	4917
791.864	4957
791.968	3520
792.072	4225
792.175	5068
792.279	4635
792.382	4553
792.486	4757
792.589	4167
792.693	4704
792.796	4078
792.899	4258
793.003	3981
793.106	2918
793.209	3540
793.313	4731
793.416	3246
793.519	4408
793.623	4623
793.726	5131
793.829	4044
793.932	4775
794.035	3443
794.138	5123
794.242	5116
794.345	6894
794.448	10942
794.551	21177
794.654	71973
794.757	207831
794.860	55361
794.963	9687
795.066	5174
795.169	5887
795.272	4496
795.375	4568
795.477	4203
795.580	4166
795.683	2565
795.786	4376
795.889	3039
795.991	4065
796.094	4557
796.197	3954
796.300	4069
796.402	2761
796.505	2724
796.608	3245
796.710	2952
796.813	3267
796.915	2974
797.018	3673
797.120	3361
797.223	2914
797.326	3854
797.428	3320
797.530	2944
797.633	3140
797.735	4661
797.838	6284
797.940	6204
798.042	2775
798.145	2682
798.247	3792
798.349	2260
798.452	3805
798.554	2529
798.656	2750
798.758	3185
798.860	3212
798.962	2652
799.065	3195
799.167	2828
799.269	3071
799.371	3559
799.473	3586
799.575	3818
799.677	4399
799.779	4023
799.881	3196
799.983	4448
800.085	2846
800.187	2707
800.289	2772
800.390	2547
800.492	2944
800.594	3536
800.696	2649
800.798	2166
800.899	2870
801.001	1937
801.103	2017
801.205	2655
801.306	3112
801.408	1937
801.509	2211
801.611	1989
801.713	2060
801.814	1534
801.916	2450
802.017	2630
802.119	2078
802.220	2376
802.322	1281
802.423	4124
802.525	3774
802.626	3024
802.727	2497
802.829	3005
802.930	396
803.031	3875
803.133	1730
803.234	2449
803.335	2093
803.436	1686
803.538	2555
803.639	1627
803.740	2530
803.841	1886
803.942	2663
804.043	2482
804.144	1795
804.245	2549
804.346	2144
804.447	1847
804.548	3081
804.649	3481
804.750	2058
804.851	1858
804.952	1597
805.053	1292
805.154	2170
805.255	2345
805.355	2053
805.456	2094
805.557	1794
805.658	1877
805.758	2228
805.859	1747
805.960	2090
806.061	1686
806.161	2132
806.262	2403
806.362	2305
806.463	1633
806.564	2632
806.664	2055
806.765	2922
806.865	3156
806.966	2223
807.066	1382
807.166	1670
807.267	2363
807.367	1650
807.468	2783
807.568	605
807.668	1607
807.769	2875
807.869	2415
807.969	2184
808.069	1970
808.170	1485
808.270	1457
808.370	2455
808.470	2280
808.570	1875
808.670	2348
808.770	2075
808.870	1379
808.970	2799
809.070	1185
809.170	1942
809.271	2037
809.370	1774
809.470	2095
809.570	1400
809.670	2180
809.770	1420
809.870	2186
809.970	1510
810.070	1607
810.169	2053
810.269	1328
810.369	2688
810.469	1680
810.568	1029
810.668	1044
810.768	1978
810.867	2260
810.967	2253
811.066	2133
811.166	1753
811.265	2433
811.365	1743
811.464	1497
811.564	1929
811.663	1822
811.763	999
811.862	2395
811.962	3297
812.061	2075
812.160	1934
812.260	1734
812.359	2407
812.458	3563
812.557	6531
812.657	11298
812.756	5465
812.855	2559
812.954	2166
813.053	2000
813.153	1441
813.252	1752
813.351	2235
813.450	1835
813.549	2256
813.648	2351
813.747	2500
813.846	1922
813.945	1714
814.044	2915
814.143	2067
814.242	2783
814.341	2627
814.439	2118
814.538	2774
814.637	3154
814.736	2417
814.835	3768
814.933	2332
815.032	2641
815.131	3314
815.229	2260
815.328	3024
815.427	3539
815.525	3373
815.624	3583
815.722	2798
815.821	3467
815.919	3595
816.018	3949
816.116	3901
816.215	4172
816.313	3473
816.412	3902
816.510	4952
816.609	5488
816.707	5531
816.805	4908
816.904	4835
817.002	6653
817.100	7682
817.198	8559
817.296	9904
817.395	10651
817.493	12877
817.591	14856
817.689	20763
817.787	28386
817.885	42941
817.983	71437
818.081	138338
818.179	297584
818.277	641856
818.375	674666
818.473	296720
818.571	126694
818.669	76646
818.767	61838
818.865	58541
818.963	67167
819.061	88831
819.158	141713
819.256	255058
819.354	502617
819.452	879905
819.549	746466
819.647	372988
819.745	177229
819.842	102194
819.940	67162
820.038	48549
820.135	36899
820.233	29528
820.330	23122
820.428	19259
820.525	17987
820.623	14678
820.720	12575
820.818	11418
820.915	10275
821.012	9571
821.110	7520
821.207	8393
821.304	7039
821.402	6541
821.499	6821
821.596	6620
821.693	5973
821.791	6083
821.888	4105
821.985	6046
822.082	5153
822.179	5268
822.276	4308
822.373	3336
822.470	3942
822.567	3334
822.664	2692
822.761	4142
822.858	2941
822.955	3933
823.052	2628
823.149	2092
823.246	2531
823.343	2106
823.440	2935
823.536	2325
823.633	2479
823.730	2203
823.827	2085
823.923	2184
824.020	2894
824.117	2119
824.213	1657
824.310	3103
824.407	2263
824.503	2359
824.600	2017
824.696	1674
824.793	3307
824.889	2258
824.986	2156
825.082	1531
825.179	2925
825.275	1931
825.371	1845
825.468	2212
825.564	640
825.660	1322
825.757	776
825.853	3384
825.949	1471
826.045	1577
826.142	1828
826.238	1124
826.334	1348
826.430	1105
826.526	1921
826.622	1118
826.718	1261
826.814	1167
826.910	1759
827.006	1093
827.102	-3
827.198	2092
827.294	584
827.390	1481
827.486	1845
827.582	637
827.678	12
827.774	1957
827.869	877
827.965	1408
828.061	744
828.157	1713
828.252	665
828.348	-67
828.444	2766
828.539	1093
828.635	1540
828.731	2082
828.826	471
828.922	1622
829.017	568
829.113	1298
829.208	539
829.304	633
829.399	2148
829.495	962
829.590	1172
829.685	679
829.781	1368
829.876	880
829.971	637
830.066	766
830.162	1378
830.257	606
830.352	756
830.447	1733
830.543	374
830.638	1038
830.733	1240
830.828	288
830.923	1449
831.018	354
831.113	729
831.208	1045
831.303	1674
831.398	-145
831.493	-63
831.588	1681
831.683	-16
831.778	1289
831.873	639
831.967	1716
832.062	789
832.157	-194
832.252	1605
832.346	447
832.441	1385
832.536	2303
832.631	2573
832.725	3132
832.820	818
832.914	674
833.009	390
833.104	696
833.198	1352
833.293	302
833.387	717
833.482	1356
833.576	387
833.670	1693
833.765	124
833.859	62
833.954	1461
834.048	324
834.142	617
834.237	899
834.331	866
834.425	1370
834.519	822
834.613	1296
834.708	717
834.802	1237
834.896	946
834.990	531
835.084	1291
835.178	1464
835.272	625
835.366	570
835.460	980
835.554	906
835.648	540
835.742	686
835.836	615
835.930	191
836.024	775
836.117	1668
836.211	1540
836.305	1284
836.399	3295
836.493	961
836.586	1784
836.680	-204
836.774	712
836.867	1437
836.961	295
837.055	144
837.148	1097
837.242	764
837.335	871
837.429	583
837.522	1493
837.616	1287
837.709	3945
837.803	3058
837.896	1254
837.989	1279
838.083	2112
838.176	3635
838.269	4332
838.363	1115
838.456	242
838.549	1703
838.642	1107
838.735	3335
838.829	1888
838.922	307
839.015	1306
839.108	194
839.201	1075
839.294	931
839.387	1046
839.480	48
839.573	2058
839.666	2994
839.759	1031
839.852	-573
839.945	526
840.038	1116
840.131	135
840.223	1611
840.316	970
840.409	693
840.502	-114
840.594	989
840.687	-39
840.780	795
840.873	-218
840.965	1440
841.058	2020
841.150	4194
841.243	3125
841.336	1907
841.428	675
841.521	-323
841.613	-234
841.706	1758
841.798	154
841.890	61
841.983	225
842.075	407
842.167	1139
842.260	1767
842.352	1723
842.444	3000
842.537	4222
842.629	7457
842.721	1827
842.813	7
842.905	262
842.997	595
843.090	710
843.182	2776
843.274	4912
843.366	11363
843.458	21714
843.550	16264
843.642	3626
843.734	1183
843.826	1674
843.918	1351
844.009	944
844.101	-629
844.193	719
844.285	-418
844.377	811
844.469	1085
844.560	8
844.652	580
844.744	918
844.835	857
844.927	996
845.019	1514
845.110	976
845.202	52
845.293	178
845.385	53
845.476	483
845.568	1122
845.659	816
845.751	1157
845.842	1091
845.934	73
846.025	234
846.116	715
846.208	363
846.299	314
846.390	671
846.482	1486
846.573	1795
846.664	1701
846.755	1440
846.846	2861
846.937	-71
847.029	1466
847.120	90
847.211	416
847.302	951
847.393	51
847.484	1580
847.575	544
847.666	222
847.757	1056
847.847	1442
847.938	1153
848.029	290
848.120	560
848.211	753
848.302	586
848.392	-77
848.483	1273
848.574	326
848.664	640
848.755	647
848.846	240
848.936	-73
849.027	274
849.118	628
849.208	839
849.299	624
849.389	635
849.480	1817
849.570	1557
849.661	1900
849.751	2678
849.841	1527
849.932	235
850.022	-553
850.112	900
850.203	111
850.293	822
850.383	438
850.474	348
850.564	475
850.654	1097
850.744	759
850.834	866
850.924	614
851.014	245
851.104	-175
851.194	286
851.284	921
851.374	1701
851.464	779
851.554	1197
851.644	1432
851.734	2509
851.824	2933
851.914	4447
852.004	7192
852.094	10075
852.183	2677
852.273	951
852.363	723
852.452	57
852.542	-124
852.632	713
852.721	136
852.811	633
852.901	648
852.990	1246
853.080	10
853.169	742
853.259	235
853.348	-82
853.438	610
853.527	1696
853.617	220
853.706	1026
853.795	1245
853.885	3345
853.974	6086
854.063	10658
854.152	18291
854.242	8183
854.331	1449
854.420	308
854.509	678
854.598	984
854.687	664
854.777	1419
854.866	250
854.955	282
855.044	-70
855.133	160
855.222	18
855.311	-348
855.400	961
855.488	-49
855.577	-5
855.666	782
855.755	1592
855.844	1299
855.933	2129
856.021	1667
856.110	153
856.199	-221
856.288	114
856.376	-47
856.465	426
856.554	-203
856.642	-293
856.731	233
856.819	173
856.908	94
856.996	-360
857.085	428
857.173	1101
857.262	368
857.350	712
857.438	-69
857.527	610
857.615	41
857.703	618
857.792	-424
857.880	-350
857.968	373
858.056	413
858.145	184
858.233	328
858.321	32
858.409	788
858.497	-469
858.585	149
858.673	929
858.761	77
858.849	409
858.937	-314
859.025	793
859.113	526
859.201	540
859.289	815
859.377	48
859.465	631
859.552	1527
859.640	540
859.728	346
859.816	40
859.903	691
859.991	-34
860.079	292
860.166	954
860.254	-175
860.342	-119
860.429	247
860.517	-200
860.604	615
860.692	-131
860.779	-1094
860.867	-506
860.954	74
861.042	182
861.129	508
861.216	727
861.304	110
861.391	292
861.478	252
861.565	487
861.653	633
861.740	-66
861.827	-411
861.914	483
862.001	266
862.089	-352
862.176	-149
862.263	650
862.350	-351
862.437	-208
862.524	-38
862.611	-149
862.698	434
862.785	106
862.871	627
862.958	-193
863.045	-98
863.132	-1034
863.219	-458
863.306	-827
863.392	19
863.479	188
863.566	-665
863.652	-53
863.739	546
863.826	-55
863.912	-614
863.999	-456
864.086	482
864.172	-261
864.259	591
864.345	388
864.432	484
864.518	-717
864.604	-62
864.691	-245
864.777	1198
864.863	388
864.950	-110
865.036	-32
865.122	489
865.209	-400
865.295	-815
865.381	-377
865.467	170
865.553	513
865.639	444
865.726	-159
865.812	987
865.898	3265
865.984	4375
866.070	7848
866.156	9985
866.242	2793
866.328	755
866.414	-267
866.499	310
866.585	-62
866.671	603
866.757	-101
866.843	323
866.928	19
867.014	165
867.100	109
867.186	311
867.271	397
867.357	372
867.442	2003
867.528	421
867.614	-298
867.699	-262
867.785	-118
867.870	98
867.956	388
868.041	808
868.127	197
868.212	929
868.297	749
868.383	-47
868.468	918
868.553	1812
868.639	1510
868.724	3237
868.809	3751
868.894	1236
868.979	-139
869.065	1188
869.150	-203
869.235	-105
869.320	-787
869.405	-496
869.490	-569
869.575	-273
869.660	-360
869.745	-186
869.830	-1069
869.915	-152
870.000	166
870.085	73
870.169	94
870.254	-326
870.339	-1218
870.424	-635
870.509	-138
870.593	-589
870.678	852
870.763	-306
870.847	-933
870.932	-413
871.016	-432
871.101	-364
871.186	-516
871.270	-459
871.355	-555
871.439	676
871.523	-439
871.608	-627
871.692	-793
871.777	-38
871.861	791
871.945	-420
872.030	-233
872.114	-506
872.198	-386
872.282	-307
872.367	-517
872.451	-477
872.535	-578
872.619	264
872.703	-1029
872.787	311
872.871	-305
872.955	117
873.039	-68
873.123	-1041
873.207	-334
873.291	68
873.375	-527
873.459	852
873.543	-664
873.627	-743
873.711	-665
873.794	-529
873.878	-1276
873.962	69
874.045	-949
874.129	290
874.137	203
874.213	-666
874.245	-630
874.296	-574
874.352	-331
874.380	-209
874.460	-611
874.464	-628
874.547	-606
874.568	-433
874.631	70
874.676	-464
874.714	-887
874.784	69
874.798	252
874.881	941
874.892	772
874.965	-391
874.999	-290
875.048	-155
875.107	522
875.131	797
875.215	-731
875.215	-730
875.298	-670
875.323	-468
875.381	2
875.430	24
875.465	14
875.538	-596
875.548	-666
875.631	-329
875.646	-231
875.714	180
875.753	54
875.798	-39
875.861	-52
875.881	-95
875.964	34
875.968	23
876.047	-64
876.076	-129
876.130	-261
876.183	-280
876.213	-262
876.291	-275
876.296	-284
876.379	192
876.398	157
876.462	47
876.506	25
876.545	60
876.613	-108
876.628	-160
876.711	-836
876.721	-761
876.794	-251
876.828	-251
876.877	-137
876.935	357
876.960	537
877.043	-582
877.043	-578
877.125	393
877.150	311
877.208	266
877.258	341
877.291	396
877.365	481
877.374	480
877.456	587
877.472	625
877.539	849
877.579	929
877.622	883
877.687	591
877.704	545
877.787	-63
877.794	-28
877.869	518
877.901	519
877.952	381
878.008	253
878.034	229
878.115	-305
878.117	-317
878.199	103
878.222	129
878.282	418
878.329	591
878.364	559
878.437	664
878.447	719
878.529	-135
878.544	-91
878.611	8
878.651	81
878.694	45
878.758	-221
878.776	-195
878.858	-140
878.865	-96
878.941	81
878.972	-99
879.023	-323
879.078	-302
879.105	-253
879.185	-37
879.187	-35
879.269	-281
879.292	-271
879.351	-209
879.399	-260
879.433	-197
879.506	317
879.516	345
879.598	78
879.613	-6
879.680	-93
879.720	91
879.762	249
879.827	-52
879.844	-144
879.926	249
879.933	277
880.007	476
880.040	369
880.089	308
880.147	346
880.171	310
880.253	566
880.254	567
880.335	1026
880.360	1140
880.417	1618
880.467	2464
880.499	3273
880.574	4680
880.580	4622
880.662	2529
880.680	2068
880.744	602
880.787	179
880.825	186
880.893	-153
880.907	-239
880.989	-372
881.000	-318
881.070	567
881.106	558
881.152	259
881.213	34
881.233	-11
881.315	-376
881.319	-349
881.396	159
881.426	98
881.478	214
881.532	515
881.559	563
881.639	142
881.641	125
881.722	63
881.745	-134
881.803	-81
881.852	195
881.885	212
881.958	228
881.966	255
882.047	474
882.064	456
882.129	695
882.171	854
882.210	973
882.277	1892
882.291	1920
882.372	744
882.383	599
882.454	-71
882.489	-163
882.535	112
882.596	276
882.616	104
882.697	-11
882.702	-53
882.778	307
882.808	504
882.859	484
882.914	489
882.940	418
883.020	-190
883.021	-189
883.102	250
883.127	293
883.183	409
883.233	464
883.264	308
883.339	42
883.345	51
883.426	4
883.445	66
883.507	390
883.551	355
883.587	324
883.657	581
883.668	619
883.749	596
883.763	655
883.830	486
883.869	310
883.910	381
883.975	365
883.991	300
884.072	22
884.081	-22
884.152	258
884.187	410
884.233	343
884.292	157
884.314	40
884.394	13
884.398	-8
884.475	131
884.504	208
884.555	370
884.610	638
884.636	544
884.716	-127
884.716	-124
884.797	122
884.821	304
884.877	454
884.927	153
884.958	88
885.033	234
885.038	212
885.118	-53
885.139	-179
885.199	184
885.244	345
885.279	256
885.350	395
885.359	381
885.439	105
885.456	-3
885.520	312
885.561	723
885.600	641
885.667	205
885.680	255
885.760	945
885.773	968
885.840	722
885.878	726
885.920	862
885.984	1061
886.000	1070
886.080	893
886.089	881
886.160	443
886.195	222
886.240	338
886.300	484
886.320	538
886.400	800
886.406	817
886.480	990
886.511	1058
886.560	1319
886.616	1275
886.640	902
886.720	49
886.722	22
886.800	-1
886.827	49
886.879	251
886.932	310
886.959	311
887.038	489
887.039	492
887.119	398
887.143	432
887.198	421
887.248	355
887.278	304
887.354	188
887.358	209
887.437	507
887.459	638
887.517	641
887.564	578
887.596	732
887.669	1042
887.676	994
887.755	367
887.774	202
887.835	153
887.880	257
887.914	550
887.985	1012
887.994	960
888.073	253
888.090	179
888.153	568
888.195	718
888.232	654
888.300	634
888.311	659
888.391	671
888.405	707
888.470	560
888.510	350
888.549	374
888.615	577
888.628	605
888.708	679
888.720	689
888.787	595
888.825	526
888.866	604
888.930	766
888.945	785
889.024	902
889.035	907
889.103	966
889.140	1002
889.182	983
889.245	961
889.261	963
889.340	960
889.349	957
889.419	741
889.454	640
889.498	812
889.559	1057
889.577	1020
889.656	838
889.664	821
889.735	1037
889.768	1132
889.814	1346
889.873	1625
889.978	1188
890.083	726
890.187	1530
890.292	356
890.397	710
890.501	931
890.606	1010
890.710	1045
890.815	910
890.919	342
891.024	-239
891.128	1148
891.233	835
891.337	776
891.442	72
891.546	-280
891.650	-103
891.755	747
891.859	2452
891.963	1032
892.068	303
892.172	687
892.276	487
892.380	784
892.484	127
892.589	1096
892.693	412
892.797	597
892.901	-124
893.005	345
893.109	519
893.213	432
893.317	226
893.421	832
893.525	723
893.629	927
893.733	582
893.837	175
893.941	9
894.045	2137
894.148	848
894.252	1875
894.356	1466
894.460	1299
894.564	837
894.667	1149
894.771	-22
894.875	1401
894.978	-466
895.082	504
895.186	976
895.289	1407
895.393	666
895.496	480
895.600	271
895.703	327
895.807	965
895.910	151
896.014	76
896.117	688
896.221	1620
896.324	1155
896.427	411
896.531	318
896.634	513
896.737	-15
896.840	658
896.944	569
897.047	1067
897.150	1108
897.253	119
897.356	796
897.460	973
897.563	429
897.666	704
897.769	-66
897.872	780
897.975	503
898.078	-375
898.181	76
898.284	181
898.387	175
898.490	1267
898.593	931
898.695	-719
898.798	90
898.901	838
899.004	254
899.107	526
899.209	904
899.312	634
899.415	148
899.518	414
899.620	865
899.723	1561
899.826	1584
899.928	1770
900.031	187
900.133	125
900.236	679
900.338	863
900.441	1116
900.543	-94
900.646	824
900.748	-57
900.851	874
900.953	670
901.055	75
901.158	549
901.260	1013
901.362	496
901.465	616
901.567	900
901.669	520
901.771	86
901.873	-315
901.976	-105
902.078	14
902.180	731
902.282	1136
902.384	-281
902.486	1223
902.588	640
902.690	1571
902.792	129
902.894	967
902.996	757
903.098	412
903.200	-62
903.302	36
903.404	-137
903.505	683
903.607	775
903.709	667
903.811	-291
903.913	-56
904.014	468
904.116	439
904.218	319
904.319	530
904.421	1180
904.523	425
904.624	707
904.726	-278
904.827	356
904.929	74
905.030	726
905.132	247
905.233	220
905.335	75
905.436	861
905.537	141
905.639	105
905.740	333
905.841	579
905.943	22
906.044	544
906.145	535
906.247	-251
906.348	112
906.449	275
906.550	374
906.651	481
906.752	98
906.854	-393
906.955	342
907.056	681
907.157	391
907.258	44
907.359	165
907.460	-16
907.561	-343
907.662	294
907.762	505
907.863	640
907.964	516
908.065	-384
908.166	109
908.267	-1039
908.367	470
908.468	153
908.569	282
908.670	664
908.770	1203
908.871	1569
908.971	1359
909.072	915
909.173	1053
909.273	429
909.374	474
909.474	-96
909.575	48
909.675	223
909.776	545
909.876	275
909.977	483
910.077	597
910.177	430
910.278	-3
910.378	-265
910.478	253
910.579	546
910.679	-194
910.779	-55
910.879	554
910.980	834
911.080	-61
911.180	519
911.280	-60
911.380	660
911.480	-118
911.580	251
911.680	211
911.780	405
911.880	1663
911.980	207
912.080	-593
912.180	242
912.280	210
912.380	1029
912.480	48
912.580	-694
912.679	-507
912.779	-397
912.879	331
912.979	426
913.078	-216
913.178	906
913.278	1282
913.377	325
913.477	32
913.577	841
913.676	1191
913.776	433
913.875	287
913.975	889
914.074	584
914.174	370
914.273	-36
914.373	1083
914.472	195
914.572	-252
914.671	-478
914.770	502
914.870	-202
914.969	317
915.068	453
915.167	643
915.267	209
915.366	-149
915.465	-508
915.564	349
915.663	722
915.763	287
915.862	374
915.961	543
916.060	420
916.159	-392
916.258	313
916.357	163
916.456	555
916.555	-169
916.654	-33
916.752	492
916.851	45
916.950	-365
917.049	16
917.148	-431
917.247	355
917.345	-591
917.444	452
917.543	-94
917.642	225
917.740	598
917.839	-251
917.937	325
918.036	677
918.135	-325
918.233	299
918.332	-210
918.430	92
918.529	367
918.627	351
918.726	-346
918.824	-696
918.923	459
919.021	-584
919.119	802
919.218	-56
919.316	-182
919.414	-362
919.512	381
919.611	129
919.709	281
919.807	-36
919.905	528
920.003	749
920.102	-526
920.200	-337
920.298	446
920.396	-366
920.494	257
920.592	-475
920.690	254
920.788	-21
920.886	32
920.984	-105
921.082	-128
921.180	1040
921.277	186
921.375	549
921.473	-300
921.571	-132
921.669	253
921.766	-305
921.864	345
921.962	873
922.060	105
922.157	294
922.255	250
922.352	151
922.450	307
922.548	82
922.645	354
922.743	-559
922.840	-62
922.938	-758
923.035	515
923.133	611
923.230	1043
923.327	-86
923.425	53
923.522	523
923.619	-374
923.717	320
923.814	500
923.911	361
924.008	637
924.106	188
924.203	68
924.300	-79
924.397	161
924.494	-10
924.591	533
924.688	196
924.786	-469
924.883	542
924.979	382
925.077	380
925.173	144
925.270	-125
925.367	415
925.464	249
925.561	406
925.658	412
925.755	1128
925.852	643
925.948	513
926.045	-401
926.142	405
926.239	492
926.335	281
926.432	726
926.529	-175
926.625	-660
926.722	472
926.818	319
926.915	81
927.011	613
927.108	664
927.204	-187
927.301	488
927.397	-745
927.494	-473
927.590	469
927.687	-299
927.783	-247
927.879	107
927.976	-181
928.072	-595
928.168	393
928.264	306
928.361	255
928.457	-22
928.553	169
928.649	343
928.745	107
928.841	-682
928.937	-172
929.033	361
929.129	-239
929.225	-203
929.321	530
929.417	401
929.513	-699
929.609	354
929.705	-91
929.801	-232
929.897	-146
929.993	-280
930.089	210
930.184	-584
930.280	-692
930.376	-231
930.471	116
930.567	805
930.663	-453
930.758	-278
930.854	-181
930.950	-61
931.045	-163
931.141	-10
931.236	163
931.332	359
931.427	139
931.523	828
931.618	-190
931.714	-464
931.809	190
931.905	-289
932.000	-186
932.095	5
932.191	376
932.286	-180
932.381	-232
932.476	127
932.572	-166
932.667	-99
932.762	380
932.857	-204
932.952	-120
933.047	-556
933.142	-241
933.237	-373
933.332	-302
933.427	336
933.522	-377
933.617	-461
933.712	-53
933.807	511
933.902	384
933.997	449
934.092	-38
934.187	41
934.282	23
934.376	-218
934.471	111
934.566	-251
934.661	418
934.755	333
934.850	197
934.945	-14
935.039	-263
935.134	-576
935.228	-297
935.323	-859
935.417	-398
935.512	-341
935.606	-346
935.701	461
935.795	-149
935.890	-818
935.984	-455
936.079	-880
936.173	-237
936.267	193
936.362	-164
936.456	372
936.550	-266
936.644	-116
936.738	36
936.833	154
936.927	-512
937.021	354
937.115	-280
937.209	-709
937.303	339
937.397	-638
937.491	-360
937.585	-128
937.679	-465
937.773	-45
937.867	218
937.961	-294
938.055	-88
938.149	-351
938.243	-101
938.337	622
938.430	-554
938.524	-819
938.618	-461
938.712	-800
938.805	-368
938.899	-118
938.993	-348
939.086	-108
939.180	-50
939.274	-509
939.367	-245
939.461	-148
939.554	-705
939.648	365
939.741	-1405
939.835	-845
939.928	80
940.022	-161
940.115	-187
940.208	99
940.302	349
940.395	-138
940.488	-1003
940.582	-728
940.675	-1031
940.768	-716
940.861	-63
940.954	-1385
941.048	-1670
941.141	-1056
941.234	604
941.327	345
941.420	1503
941.513	558
941.606	254
941.699	28
941.792	-849
941.885	132
941.978	-95
942.071	-1188
942.164	-386
942.257	-747
942.349	232
942.442	-709
942.535	-1036
942.628	-217
942.721	-139
942.813	-943
942.906	387
942.999	-50
943.091	-1276
943.184	-257
943.277	-695
943.369	-1163
943.462	-39
943.554	-330
943.647	-889
943.739	789
943.832	-1207
943.924	-1838
944.017	101
944.109	-1995
944.201	-630
944.294	-40
944.386	-224
944.478	-5
944.571	-327
944.663	-497
944.755	124
944.847	-945
944.940	-220
945.032	-1147
945.124	-301
945.216	-2
945.308	-629
945.400	-597
945.492	-872
945.584	-609
945.676	-754
945.768	-702
945.860	-101
945.952	-307
946.044	-274
946.136	-884
946.228	-314
946.320	-373
946.412	-485
946.503	-863
946.595	107
946.687	-827
946.779	-199
946.870	16
946.962	-549
947.054	199
947.145	-522
947.237	-754
947.329	-424
947.420	-94
947.512	-374
947.603	-724
947.695	135
947.786	-406
947.878	-1160
947.969	-1433
948.061	-310
948.152	-1319
948.243	-519
948.335	-621
948.426	-1391
948.517	-1255
948.609	-1080
948.700	-714
948.791	-1276
948.882	-509
948.973	-232
949.065	-1108
949.156	-758
949.247	-865
949.338	-69
949.429	-200
949.520	-542
949.611	-128
949.702	397
949.793	-1412
949.884	-340
949.975	-902
950.066	-920
950.157	-561
950.247	-1026
950.338	-895
950.429	-822
950.520	-56
950.611	-199
950.701	79
950.792	-265
950.883	295
950.973	140
951.064	-922
951.155	-663
951.245	-45
951.336	-127
951.427	-1412
951.517	-349
951.608	-425
951.698	-971
951.788	-132
951.879	-268
951.969	-1309
952.060	-828
952.150	-685
952.240	-728
952.331	-2075
952.421	-45
952.511	-892
952.602	-188
952.692	239
952.782	-557
952.872	-708
952.962	-995
953.052	-259
953.143	-1978
953.233	-69
953.323	-157
953.413	-1209
953.503	-672
953.593	-702
953.683	-1391
953.773	-469
953.863	-1317
953.953	-246
954.042	-652
954.132	-1095
954.222	-775
954.312	-897
954.402	-1228
954.492	30
954.581	1757
954.671	210
954.761	-901
954.850	1088
954.940	-848
955.030	-922
955.119	-1504
955.209	-332
955.298	-524
955.388	-623
955.477	-749
955.567	-959
955.656	-516
955.746	123
955.835	-369
955.925	-361
956.014	-857
956.103	-1426
956.193	-931
956.282	-817
956.371	-697
956.461	-495
956.550	-934
956.639	-1032
956.728	-1071
956.817	-899
956.906	-838
956.995	-405
957.085	-894
957.174	-646
957.263	-1134
957.352	-255
957.441	-519
957.530	-1085
957.619	-1111
957.708	-264
957.796	-90
957.885	-1127
957.974	-1534
958.063	-1055
958.152	-1606
958.241	-432
958.329	-739
958.418	-1192
958.507	-1003
958.596	367
958.684	-1286
958.773	-813
958.861	306
958.950	-394
959.039	-181
959.127	180
959.216	905
959.304	75
959.393	259
959.481	25
959.570	404
959.658	-335
959.746	1025
959.835	1360
959.923	2008
960.011	773
960.100	-193
960.188	-212
960.276	-476
960.365	-428
960.453	-129
960.541	-410
960.629	-392
960.717	-718
960.805	-1073
960.893	170
960.981	-666
961.069	-856
961.158	-499
961.245	-1290
961.333	-301
961.421	-572
961.509	-353
961.597	8
961.685	-672
961.773	-1242
961.861	-821
961.949	-162
962.036	-1091
962.124	-292
962.212	-887
962.299	-229
962.387	-1135
962.475	-972
962.562	-658
962.650	-399
962.738	-493
962.825	-1024
962.913	-764
963.000	-857
963.088	-917
963.175	-518
963.263	-669
963.350	-429
963.438	-189
963.525	-113
963.612	2028
963.700	6843
963.787	14327
963.874	7372
963.962	649
964.049	-353
964.136	-147
964.223	-470
964.310	61
964.398	-615
964.485	-83
964.572	220
964.659	1185
964.746	1346
964.833	-741
964.920	-538
965.007	-527
965.094	-418
965.181	-984
965.268	-176
965.355	-969
965.441	-786
965.528	-1181
965.615	-758
965.702	-484
965.789	-16
965.875	-494
965.962	-1078
966.049	-395
966.136	-863
966.222	-174
966.309	-768
966.395	-1453
966.482	-839
966.569	-1642
966.655	-825
966.742	-1095
966.828	-1079
966.915	-665
967.001	-1395
967.087	-1278
967.174	-523
967.260	359
967.347	838
967.433	3671
967.519	8801
967.605	2796
967.692	-499
967.778	46
967.864	-170
967.950	-595
968.036	-1657
968.123	-628
968.209	-921
968.295	-1014
968.381	443
968.467	-144
968.553	-822
968.639	10
968.725	-745
968.811	850
968.897	606
968.983	-1031
969.069	-1510
969.154	-250
969.240	84
969.326	-1130
969.412	-1010
969.497	-654
969.583	-554
969.669	-293
969.755	-346
969.840	-1212
969.926	-187
970.012	-780
970.097	-1070
970.183	-1181
970.268	-181
970.354	161
970.439	2436
970.525	6315
970.610	1203
970.696	-270
970.781	-200
970.866	-790
970.952	-804
971.037	-1578
971.122	-1553
971.208	-1374
971.293	-1374
971.378	-1822
971.463	-800
971.549	-527
971.634	-762
971.719	802
971.804	-774
971.889	-112
971.974	-1108
972.059	-1642
972.144	-623
972.229	-773
972.314	-1487
972.399	-566
972.484	-408
972.569	60
972.654	-227
972.739	2499
972.824	1844
972.908	518
972.993	-541
973.078	-450
973.163	-1298
973.247	-1487
973.332	-2582
973.417	-217
973.501	-752
973.586	-486
973.671	-543
973.755	-130
973.840	732
973.924	-712
974.009	-839
974.093	-843
974.178	951
974.262	391
974.346	1329
974.431	-51
974.515	-863
974.600	-791
974.684	-536
974.768	-1717
974.852	-324
974.937	-1462
975.021	-1700
975.105	-1252
975.189	-788
975.273	-515
975.358	-809
975.442	-1628
975.526	-1050
975.610	-1060
975.694	-1066
975.778	-723
975.862	-785
975.946	-2147
976.030	-21
976.114	-482
976.198	-1170
976.281	-348
976.365	-938
976.449	-1678
976.533	-399
976.617	-1388
976.700	-727
976.784	-560
976.868	-221
976.951	36
977.035	640
977.119	-559
977.202	-1069
977.286	-1292
977.369	-747
977.453	-917
977.536	-1232
977.620	-1183
977.703	-781
977.787	-1203
977.870	-414
977.953	-279
978.037	-1483
978.120	367
978.203	194
978.287	1998
978.370	439
978.453	-1680
978.536	-671
978.620	583
978.703	855
978.786	125
978.869	-472
978.952	-1826
979.035	69
979.118	-1332
979.201	-1114
979.284	-690
979.367	-1618
979.450	-498
979.533	-1216
979.616	-1237
979.699	-1215
979.782	-634
979.865	-912
979.948	17
980.030	-1785
980.113	-1361
980.196	-1388
980.279	-130
980.361	-1411
980.444	-1632
980.526	-707
980.609	-928
980.692	-765
980.774	-639
980.857	-2084
980.939	-1086
981.022	-1078
981.104	-907
981.187	-1408
981.269	-1058
981.352	-1546
981.434	-1721
981.516	-2287
981.599	-1096
981.681	-629
981.763	-1470
981.846	-859
981.928	-1015
982.010	-859
982.092	-1979
982.174	-1342
982.256	-2126
982.339	-917
982.421	-1083
982.503	-845
982.585	-1294
982.667	-1982
982.749	-1241
982.831	-1113
982.913	-1189
982.995	-482
983.077	-1956
983.158	125
983.240	-1565
983.322	-559
983.404	6
983.486	-1892
983.568	-1133
983.649	-1675
983.731	-1548
983.813	-943
983.894	-858
983.976	-1717
984.058	-1837
984.139	-614
984.221	-1395
984.302	-895
984.384	-1385
984.465	-1581
984.547	-566
984.628	-1965
984.710	-627
984.791	-681
984.872	-1193
984.954	-1380
985.035	-1545
985.116	-1289
985.198	-1429
985.279	-375
985.360	-1342
985.441	-1585
985.522	-914
985.604	-1070
985.685	-2539
985.766	-615
985.847	-180
985.928	-2218
986.009	-1192
986.090	-1260
986.171	-933
986.252	-2014
986.333	-1665
986.414	-1138
986.495	-1340
986.576	-1595
986.656	-1390
986.737	-1199
986.818	-1248
986.899	-1634
986.980	-519
987.060	-622
987.141	-1977
987.222	-1418
987.302	-1613
987.383	-478
987.464	-1152
987.544	-1245
987.625	-1758
987.705	-781
987.786	-1105
987.866	-1282
987.947	-1209
988.027	-1028
988.108	-1361
988.188	-1087
988.268	-854
988.349	-712
988.429	-2300
988.509	-1319
988.589	-1937
988.670	-2898
988.750	-494
988.830	-648
988.910	-1605
988.990	-1923
989.070	-865
989.151	-951
989.231	-1272
989.311	-946
989.391	-864
989.471	-1361
989.551	-1530
989.631	-1826
989.711	-1594
989.791	-1689
989.870	-1127
989.950	200
990.030	-1516
990.110	-1815
990.190	-1219
990.269	-1393
990.349	-1409
990.429	-718
990.509	-891
990.588	-1879
990.668	-1755
990.747	-1593
990.827	-1919
990.907	-1554
990.986	-1567
991.066	-929
991.145	-1513
991.225	-849
991.304	-1292
991.383	-644
991.463	-2119
991.542	-1431
991.622	-1473
991.701	-1448
991.780	-1759
991.859	-1262
991.939	-1507
992.018	-975
992.097	-796
992.176	-1069
992.256	-1452
992.335	-1796
992.414	-585
992.493	-1570
992.572	-1962
992.651	-477
992.730	-1032
992.809	-996
992.888	-1739
992.967	-1128
993.046	-1465
993.125	-2551
993.203	-620
993.282	-1357
993.361	-1547
993.440	-1151
993.519	-2386
993.597	-1409
993.676	-1573
993.755	-1034
993.834	-1642
993.912	-918
993.991	-1115
994.069	-1656
994.148	-1248
994.226	-1482
994.305	-1158
994.384	-1692
994.462	-944
994.540	-1114
994.619	-1258
994.697	200
994.776	-2137
994.854	-992
994.932	-1516
995.011	-742
995.089	-1612
995.167	-2101
995.245	-1961
995.324	-2184
995.402	-1650
995.480	-2252
995.558	-1473
995.636	-1593
995.714	-1847
995.792	-240
995.870	-2022
995.948	-1439
996.026	-1074
996.104	-1658
996.182	-1072
996.260	-856
996.338	-718
996.416	-1714
996.494	-1837
996.572	-998
996.649	-1458
996.727	-2379
996.805	-1266
996.883	-2047
996.960	-2213
997.038	-1136
997.116	-2095
997.193	-1271
997.271	-1377
997.348	-1377
997.426	-1891
997.504	-2087
997.581	-735
997.658	-1418
997.736	-2486
997.813	-2158
997.891	-1495
997.968	-1304
998.046	-1532
998.123	-1146
998.200	-811
998.277	-1460
998.355	-1016
998.432	-2380
998.509	-1410
998.586	-1509
998.663	-1436
998.741	-1540
998.818	-1142
998.895	-1802
998.972	-779
999.049	-1396
999.126	-1534
999.203	-958
999.280	-1578
999.357	-2031
999.434	-1581
999.511	-1073
999.587	-881
999.664	-1654
999.741	-1178
999.818	-369
999.895	-1801
999.971	-1354
1000.048	-2000
1000.125	-1555
1000.202	-1480
1000.278	-553
1000.355	-1470
1000.431	-1394
1000.508	-1689
1000.584	-1892
1000.661	-1371
1000.738	-2034
1000.814	-1154
1000.890	-1089
1000.967	-1740
1001.043	-1235
1001.120	-2319
1001.196	-805
1001.272	-2218
1001.349	-1497
1001.425	-1181
1001.501	-1786
1001.577	-1377
1001.654	-1056
1001.730	-1437
1001.806	-2008
1001.882	-2566
1001.958	-819
1002.034	-973
1002.110	-1076
1002.186	-1704
1002.262	-2316
1002.338	-2499
1002.414	-1411
1002.490	-1558
1002.566	-1920
1002.642	-1720
1002.718	-1679
1002.794	-1312
1002.870	-897
1002.945	-2357
1003.021	-1804
1003.097	-1764
1003.173	-710
1003.248	-1782
1003.324	-2137
1003.400	-1911
1003.475	-1383
1003.551	-1448
1003.626	-2434
1003.702	-1805
1003.777	-1824
1003.853	-2533
1003.928	-1773
1004.004	-2361
1004.079	-739
1004.155	-2118
1004.230	-1711
1004.305	-775
1004.381	-1405
1004.456	-1570
1004.531	-1267
1004.607	-1994
1004.682	-1236
1004.757	-2141
1004.832	-1869
1004.907	-1802
1004.982	-1105
1005.057	-1811
1005.133	-813
1005.208	-2057
1005.283	-2041
1005.358	-1378
1005.433	-2782
1005.508	-1571
1005.583	-1802
1005.657	-1151
1005.732	-670
1005.807	-1865
1005.882	-2048
1005.957	-1716
1006.032	-1227
1006.106	-1901
1006.181	-2664
1006.256	-901
1006.331	-1944
1006.405	-2108
1006.480	-1139
1006.554	-1488
1006.629	-1878
1006.704	-1250
1006.778	-1781
1006.853	-1206
1006.927	-1792
1007.002	-2421
1007.076	-1413
1007.150	-1636
1007.225	-1332
1007.299	-1231
1007.373	-2773
1007.448	-1287
1007.522	-843
1007.596	-1462
1007.671	-1642
1007.745	-1253
1007.819	-2600
1007.893	-1570
1007.967	-1325
1008.041	-2412
1008.115	-758
1008.190	-1744
1008.264	-1408
1008.338	-2203
1008.412	-1387
1008.486	-1678
1008.560	-1404
1008.633	-2508
1008.707	-2167
1008.781	-1724
1008.855	-2501
1008.929	-1172
1009.003	-1699
1009.076	-1789
1009.150	-1412
1009.224	-1683
1009.298	-1289
1009.371	-2120
1009.445	-1556
1009.519	-1962
1009.592	-2224
1009.666	-1326
1009.739	-1300
1009.813	-2013
1009.886	-1116
1009.960	-1903
1010.033	-1785
1010.107	-1398
1010.180	-2299
1010.253	-1377
1010.327	-2159
1010.400	-2162
1010.473	-2131
1010.547	-1467
1010.620	-2021
1010.693	-1014
1010.766	-2140
1010.840	-1102
1010.913	-1566
1010.986	-2780
1011.059	-1719
1011.132	-1619
1011.205	-788
1011.278	-1806
1011.351	-1748
1011.424	-1075
1011.497	-1858
1011.570	-1883
1011.643	-2046
1011.716	-2564
1011.789	-1486
1011.862	-1686
1011.934	-1563
1012.007	-2399
1012.080	-1528
1012.153	-1314
1012.225	-2011
1012.298	-1875
1012.371	-1885
1012.443	-1319
1012.516	-2264
1012.588	-2072
1012.661	-1817
1012.733	-1649
1012.806	-1018
1012.879	-1829
1012.951	-1653
1013.023	-2403
1013.096	-1234
1013.168	-1905
1013.241	-703
1013.313	-1152
1013.385	-2115
1013.458	-1868
1013.530	-1715
1013.602	-2609
1013.674	-1314
1013.746	-2623
1013.819	-1890
1013.891	-831
1013.963	-2379
1014.035	-2010
1014.107	-1337
1014.179	-1647
1014.251	-1134
1014.323	-1513
1014.395	-1084
1014.467	-1770
1014.539	-1400
1014.611	-2491
1014.683	-1729
1014.754	-1596
1014.826	-1748
1014.898	-878
1014.970	-2458
1015.042	-685
1015.113	-1499
1015.185	-1660
1015.257	-2344
1015.328	-1216
1015.400	-1157
1015.471	-1173
1015.543	-2204
1015.615	-1926
1015.686	-1914
1015.757	-1774
1015.829	-1572
1015.901	-2646
1015.972	-1977
1016.043	-1304
1016.115	-1751
1016.186	-2315
1016.257	-2433
1016.328	-1202
1016.400	-1119
1016.471	-2099
1016.542	-2206
1016.613	-1503
1016.685	-1657
1016.756	-1770
1016.827	-1209
1016.898	-3001
1016.969	-1273
1017.040	-1587
1017.111	-2064
1017.182	-2671
1017.253	-1419
1017.324	-1794
1017.395	-1388
1017.466	-1470
1017.537	-1671
1017.608	-2744
1017.678	-1897
1017.749	-2444
1017.820	-2181
1017.891	-2823
1017.961	-2884
1018.032	-1302
1018.103	-2052
1018.173	-1986
1018.244	-1900
1018.315	-2464
1018.385	-1542
1018.456	-1600
1018.526	-1073
1018.597	-2582
1018.667	-1535
1018.738	-2080
1018.808	-1136
1018.878	-2328
1018.949	-823
1019.019	-2481
1019.089	-2015
1019.160	-2176
1019.230	-2721
1019.300	-1639
1019.371	-2505
1019.441	-1756
1019.511	-1800
1019.581	-1673
1019.651	-1541
1019.721	-1592
1019.791	-1730
1019.861	-1946
1019.931	-1804
1020.001	-2532
1020.071	-2269
1020.141	-1522
1020.211	-1961
1020.281	-1839
1020.351	-1302
1020.421	-2051
1020.491	-1645
1020.560	-1625
1020.630	-2367
1020.700	-2237
1020.770	-2112
1020.839	-1980
1020.909	-2373
1020.979	-2311
1021.048	-1883
1021.118	-1802
1021.187	-1931
1021.257	-2094
1021.326	-1597
1021.396	-1953
1021.465	-1782
1021.535	-1598
1021.604	-2679
1021.674	-1420
1021.743	-2071
1021.812	-1482
1021.882	-1836
1021.951	-1968
1022.020	-1094
1022.089	-1715
1022.159	-2464
1022.228	-2012
1022.297	-1259
1022.366	-2033
1022.435	-1576
1022.504	-1891
1022.573	-2215
1022.642	-1735
1022.711	-1194
1022.781	-1723
1022.849	-1677
1022.918	-2400
1022.987	-1640
1023.056	-2243
1023.125	-2190
1023.194	-2746
1023.263	-1553
1023.331	-1591
1023.400	-1720
1023.469	-2271
1023.538	-1344
1023.606	-2267
1023.675	-1220
1023.744	-2036
1023.812	-2584
1023.881	-1973
1023.949	-1000
1024.018	-2998
1024.086	-2014
1024.155	-1889
1024.223	-1681
1024.292	-2354
1024.360	-1766
1024.429	-1872
1024.497	-2621
1024.565	-1028
1024.634	-1814
1024.702	-2042
1024.770	-2060
1024.838	-2409
1024.907	-1768
1024.975	-1954
1025.043	-1521
1025.111	-1921
1025.179	-1745
1025.247	-2206
1025.315	-1525
1025.383	-1933
1025.451	-2842
1025.519	-2188
1025.587	-2299
1025.655	-1569
1025.723	-1985
1025.791	-2356
1025.859	-1381
1025.927	-1647
1025.995	-2055
1026.062	-2242
1026.130	-1166
1026.198	-2101
1026.266	-1926
1026.333	-1241
1026.401	-1670
1026.469	-2282
1026.536	-1354
1026.604	-3165
1026.671	-1685
1026.739	-1831
1026.806	-1740
1026.874	-1782
1026.941	-1748
1027.009	-2515
1027.076	-1800
1027.144	-1367
1027.211	-2347
1027.278	-1833
1027.345	-1322
1027.413	-1806
1027.480	-2347
1027.547	-1211
1027.614	-1969
1027.682	-1572
1027.749	-1688
1027.816	-1863
1027.883	-2267
1027.950	-2406
1028.017	-2161
1028.084	-1487
1028.151	-2167
1028.218	-1397
1028.285	-2437
1028.352	-1463
1028.419	-2033
1028.486	-2311
1028.553	-2336
1028.619	-2207
1028.686	-1720
1028.753	-2393
1028.820	-1911
1028.886	-1869
1028.953	-1546
1029.020	-1919
1029.086	-2313
1029.153	-2533
1029.220	-2521
1029.286	-1664
1029.353	-2001
1029.419	-2280
1029.486	-1656
1029.552	-2190
1029.619	-2313
1029.685	-2060
1029.751	-2130
1029.818	-966
1029.884	-2556
1029.951	-1362
1030.017	-1649
1030.083	-1782
1030.149	-1977
1030.216	-1829
1030.282	-1866
1030.348	-1971
1030.414	-2073
1030.480	-2290
1030.546	-1226
1030.612	-1475
1030.678	-3140
1030.744	-2355
1030.810	-2096
1030.876	-2015
1030.942	-2344
1031.008	-1831
1031.074	-1751
1031.140	-2706
1031.206	-1588
1031.272	-2535
1031.337	-2138
1031.403	-2296
1031.469	-1877
1031.534	-2760
1031.600	-1935
1031.666	-2180
1031.731	-2380
1031.797	-1308
1031.863	-2044
1031.928	-2256
1031.994	-2459
1032.059	-2208
1032.125	-2322
1032.190	-2627
1032.256	-2133
1032.321	-2499
1032.386	-1991
1032.452	-2011
1032.517	-1260
1032.582	-1754
1032.647	-2275
1032.713	-2208
1032.778	-2000
1032.843	-2140
1032.908	-2046
1032.974	-2076
1033.039	-2417
1033.104	-1633
1033.169	-2286
1033.234	-1155
1033.299	-1692
1033.364	-1634
1033.429	-1585
1033.494	-1870
1033.559	-1550
1033.624	-2206
1033.688	-1577
1033.753	-2947
1033.818	-1138
1033.883	-2022
1033.948	-2493
1034.013	-2041
1034.077	-1656
1034.142	-1232
1034.207	-1856
1034.271	-1649
1034.336	-1324
1034.400	-916
1034.465	-1345
1034.530	-2105
1034.594	-2282
1034.658	-1406
1034.723	-2641
1034.787	-2144
1034.852	-1922
1034.916	-2502
1034.981	-1480
1035.045	-1497
1035.109	-2093
1035.173	-2179
1035.238	-2348
1035.302	-1661
1035.366	-2096
1035.430	-2799
1035.495	-2598
1035.559	-1753
1035.623	-1801
1035.687	-2801
1035.751	-1980
1035.815	-1654
1035.879	-2624
1035.943	-2171
1036.007	-2770
1036.071	-1745
1036.135	-1492
1036.198	-1870
1036.262	-1604
1036.326	-2205
1036.390	-1722
1036.454	-1749
1036.517	-1935
1036.581	-1855
1036.645	-2203
1036.709	-1666
1036.772	-1583
1036.836	-1445
1036.900	-1651
1036.963	-2585
1037.026	-2424
1037.090	-2025
1037.154	-1641
1037.217	-1615
1037.280	-2043
1037.344	-2155
1037.407	-1368
1037.471	-1545
1037.534	-2503
1037.597	-1836
1037.661	-2403
1037.724	-1965
1037.787	-2956
1037.850	-1947
1037.913	-2490
1037.977	-1299
1038.040	-2168
1038.103	-1593
1038.166	-2250
1038.229	-1474
1038.292	-2935
1038.355	-2050
1038.418	-1503
1038.481	-972
1038.544	-2732
1038.607	-2347
1038.670	-2054
1038.732	-2612
1038.795	-2333
1038.858	-1968
1038.921	-1572
1038.984	-1418
1039.046	-2300
1039.109	-2210
1039.172	-2006
1039.234	-2210
1039.297	-1883
1039.360	-1471
1039.422	-1451
1039.485	-2187
1039.547	-2855
1039.610	-2376
1039.672	-1970
1039.734	-2120
1039.797	-1727
1039.859	-1547
1039.922	-2082
1039.984	-1730
1040.046	-2146
1040.109	-1928
1040.171	-1780
1040.233	-1486
1040.295	-1304
1040.358	-2799
1040.420	-2462
1040.482	-1802
1040.544	-1730
1040.606	-2114
1040.668	-2189
1040.730	-1999
1040.792	-1259
1040.854	-1744
1040.916	-2212
1040.978	-1905
1041.040	-1579
1041.102	-2793
1041.164	-1597
1041.225	-1853
1041.287	-2680
1041.349	-1625
1041.411	-2095
1041.472	-1982
1041.534	-1484
1041.596	-1970
1041.657	-1870
1041.719	-2087
1041.781	-1750
1041.842	-2328
1041.904	-1821
1041.965	-1878
1042.027	-1043
1042.088	-1181
1042.150	-1633
1042.211	-2273
1042.272	-1379
1042.334	-1550
1042.395	-1513
1042.456	-2713
1042.518	-1058
1042.579	-1580
1042.640	-2099
1042.701	-1974
1042.763	-2254
1042.824	-1356
1042.885	-1713
1042.946	-2029
1043.007	-1868
1043.068	-2451
1043.129	-1946
1043.190	-1970
1043.251	-1446
1043.312	-1460
1043.373	-1359
1043.434	-1998
1043.495	-1635
1043.556	-1780
1043.616	-2284
1043.677	-2009
1043.738	-1308
1043.799	-1908
1043.859	-1566
1043.920	-1607
1043.981	-2482
1044.041	-1134
1044.102	-2616
1044.162	-1489
1044.223	-1731
1044.284	-2367
1044.344	-1936
1044.405	-1736
1044.465	-2643
1044.525	-2356
1044.586	-2101
1044.646	-1908
1044.707	-1353
1044.767	-1654
1044.827	-1895
1044.887	-1717
1044.948	-1972
1045.008	-1808
1045.068	-2018
1045.128	-894
1045.188	-2219
1045.249	-1167
1045.309	-1288
1045.369	-1622
1045.429	-2385
1045.489	-2259
1045.549	-1367
1045.609	-1739
1045.669	-2187
1045.729	-1721
1045.789	-1736
1045.848	-2022
1045.908	-1971
1045.968	-1419
1046.028	-1565
1046.088	-765
1046.147	-787
1046.207	-1914
1046.267	-1710
1046.326	-1089
1046.386	-989
1046.446	-926
1046.505	-949
1046.565	-833
1046.624	-1868
1046.684	-671
1046.743	-408
1046.803	-629
1046.862	-597
1046.922	0
