'Start Wavelength	183.907
'End Wavelength	1046.922
'Gate Delay	5.000
'Gate Width (ms)	1.050
'Laser Output Level	0.000
'X Position	0.000
'Y Position	0.000
'Z Position	0.000
'Grid Point Number	1.000
'Shot Number	100.000
183.907	222.000
183.977	327.000
184.047	-753
184.116	644
184.186	916
184.256	-150
184.325	-507
184.395	-24
184.465	48
184.534	-461
184.604	-340
184.674	-19
184.743	-158
184.813	-76
184.883	-472
184.952	-119
185.022	-248
185.092	-332
185.161	393
185.231	-380
185.301	-177
185.370	273
185.440	348
185.509	-358
185.579	164
185.649	-19
185.718	195
185.788	754
185.857	-119
185.927	-663
185.996	-74
186.066	523
186.136	-300
186.205	-104
186.275	-375
186.344	387
186.414	-365
186.483	-296
186.553	796
186.622	1323
186.692	240
186.761	307
186.831	39
186.900	321
186.970	414
187.039	-256
187.109	867
187.178	334
187.248	-35
187.317	-37
187.387	922
187.456	191
187.526	154
187.595	447
187.664	-603
187.734	-503
187.803	-50
187.873	-78
187.942	371
188.012	976
188.081	-413
188.150	-419
188.220	14
188.289	-270
188.358	-158
188.428	864
188.497	-415
188.567	-294
188.636	-542
188.705	669
188.775	103
188.844	-211
188.913	-90
188.983	-225
189.052	23
189.121	234
189.191	-78
189.260	-402
189.329	-815
189.399	408
189.468	484
189.537	39
189.606	-327
189.676	183
189.745	-576
189.814	1100
189.883	639
189.953	-269
190.022	233
190.091	453
190.161	912
190.230	415
190.299	-113
190.368	176
190.437	-185
190.507	157
190.576	92
190.645	289
190.714	-395
190.783	-56
190.853	301
190.922	-407
190.991	142
191.060	-33
191.129	-37
191.198	126
191.268	-133
191.337	-152
191.406	222
191.475	50
191.544	-695
191.613	765
191.682	-775
191.752	167
191.821	-426
191.890	-81
191.959	62
192.028	717
192.097	32
192.166	571
192.235	-598
192.304	471
192.373	-216
192.442	343
192.511	-238
192.580	333
192.650	-126
192.719	577
192.788	160
192.857	468
192.926	-956
192.995	-228
193.064	-465
193.133	944
193.202	101
193.271	-281
193.340	735
193.409	955
193.478	-229
193.547	832
193.615	345
193.684	980
193.753	521
193.822	690
193.891	417
193.960	738
194.029	-65
194.098	470
194.167	-549
194.236	302
194.305	-5
194.374	125
194.443	165
194.512	-35
194.580	53
194.649	659
194.718	-233
194.787	335
194.856	-285
194.925	385
194.994	-632
195.062	182
195.131	28
195.200	-358
195.269	-147
195.338	284
195.407	525
195.475	630
195.544	-27
195.613	342
195.682	199
195.751	356
195.819	-533
195.888	-295
195.957	905
196.026	69
196.094	-10
196.163	-17
196.232	246
196.301	257
196.369	-548
196.438	253
196.507	139
196.576	-30
196.644	-103
196.713	425
196.782	239
196.850	-257
196.919	-443
196.988	1088
197.056	-25
197.125	384
197.194	-437
197.262	758
197.331	781
197.400	13
197.468	241
197.537	733
197.606	-107
197.674	861
197.743	1159
197.812	328
197.880	1431
197.949	944
198.017	394
198.086	227
198.155	362
198.223	909
198.292	991
198.360	-167
198.429	-110
198.497	298
198.566	354
198.635	1404
198.703	173
198.772	86
198.840	1245
198.909	763
198.977	423
199.046	177
199.114	-138
199.183	447
199.251	220
199.320	176
199.388	78
199.457	-406
199.525	-590
199.594	-83
199.662	66
199.731	-196
199.799	-34
199.867	104
199.936	-361
200.004	-860
200.073	755
200.141	59
200.210	259
200.278	-357
200.346	-319
200.415	17
200.483	89
200.552	351
200.620	-221
200.688	-49
200.757	-321
200.825	251
200.893	5
200.962	363
201.030	460
201.098	90
201.167	80
201.235	-843
201.303	-175
201.372	225
201.440	539
201.508	209
201.577	297
201.645	-71
201.713	635
201.781	-305
201.850	-18
201.918	943
201.986	774
202.055	653
202.123	68
202.191	731
202.259	52
202.327	473
202.396	-576
202.464	773
202.532	405
202.600	1056
202.669	221
202.737	190
202.805	77
202.873	334
202.941	376
203.009	539
203.078	-190
203.146	201
203.214	-1088
203.282	193
203.350	559
203.418	-125
203.487	-47
203.555	118
203.623	-557
203.691	872
203.759	-341
203.827	74
203.895	159
203.963	-76
204.031	-512
204.099	743
204.168	706
204.236	326
204.304	251
204.372	-404
204.440	122
204.508	325
204.576	268
204.644	1080
204.712	-51
204.780	336
204.848	-242
204.916	632
204.984	-310
205.052	198
205.120	-352
205.188	72
205.256	99
205.324	450
205.392	1
205.460	676
205.528	-424
205.596	323
205.664	432
205.732	-163
205.799	1164
205.867	1157
205.935	164
206.003	599
206.071	-852
206.139	861
206.207	-460
206.275	617
206.343	-634
206.411	-96
206.478	-164
206.546	447
206.614	-62
206.682	-55
206.750	-51
206.818	485
206.885	1037
206.953	-868
207.021	246
207.089	417
207.157	-70
207.225	1200
207.292	443
207.360	-420
207.428	441
207.496	398
207.563	-309
207.631	690
207.699	-377
207.767	246
207.834	309
207.902	621
207.970	-165
208.038	690
208.105	234
208.173	320
208.241	-62
208.309	774
208.376	364
208.444	770
208.512	517
208.579	-9
208.647	222
208.715	891
208.782	-312
208.850	117
208.918	487
208.985	24
209.053	347
209.120	122
209.188	189
209.256	412
209.323	-297
209.391	773
209.459	699
209.526	390
209.594	-427
209.661	-216
209.729	700
209.796	317
209.864	-80
209.932	-19
209.999	683
210.067	112
210.134	96
210.202	285
210.269	943
210.337	886
210.404	410
210.472	485
210.539	328
210.607	604
210.674	907
210.742	450
210.809	425
210.877	611
210.944	415
211.012	-6
211.079	1190
211.146	154
211.214	154
211.281	403
211.349	112
211.416	476
211.484	402
211.551	189
211.618	211
211.686	87
211.753	451
211.821	775
211.888	253
211.955	1085
212.023	1086
212.090	1051
212.157	238
212.225	427
212.292	1385
212.359	3765
212.427	6209
212.494	3010
212.561	1519
212.629	522
212.696	580
212.763	370
212.831	264
212.898	829
212.965	703
213.032	472
213.100	-213
213.167	472
213.234	1572
213.301	1087
213.369	678
213.436	435
213.503	527
213.570	873
213.638	-117
213.705	612
213.772	-120
213.839	998
213.906	1182
213.973	1354
214.041	-172
214.108	598
214.175	154
214.242	846
214.309	678
214.376	730
214.444	951
214.511	941
214.578	422
214.645	1542
214.712	212
214.779	689
214.846	-190
214.913	284
214.980	1172
215.048	1086
215.115	-146
215.182	1116
215.249	105
215.316	1004
215.383	1448
215.450	995
215.517	356
215.584	781
215.651	278
215.718	839
215.785	1646
215.852	255
215.919	-107
215.986	1196
216.053	60
216.120	762
216.187	291
216.254	406
216.321	700
216.388	567
216.455	451
216.522	1125
216.589	444
216.656	931
216.722	1765
216.789	999
216.856	714
216.923	2041
216.990	760
217.057	714
217.124	1261
217.191	1110
217.258	1889
217.324	1820
217.391	1730
217.458	1061
217.525	661
217.592	212
217.659	573
217.725	603
217.792	1390
217.859	1695
217.926	989
217.993	-86
218.059	831
218.126	1041
218.193	712
218.260	372
218.327	-183
218.393	385
218.460	93
218.527	559
218.594	488
218.660	1455
218.727	1823
218.794	464
218.860	1344
218.927	1049
218.994	471
219.061	1285
219.127	478
219.194	959
219.261	170
219.327	161
219.394	130
219.461	1045
219.527	650
219.594	1539
219.661	1310
219.727	-50
219.794	752
219.860	-162
219.927	665
219.994	1047
220.060	1129
220.127	1387
220.193	836
220.260	1161
220.326	1537
220.393	2477
220.460	2607
220.526	2008
220.593	1103
220.659	1863
220.726	1809
220.792	3906
220.859	3139
220.925	4006
220.992	4761
221.058	5546
221.125	4959
221.191	4333
221.258	1141
221.324	897
221.391	773
221.457	646
221.524	839
221.590	1701
221.657	5251
221.723	2499
221.789	2578
221.856	2538
221.922	1584
221.989	820
222.055	748
222.121	3
222.188	1037
222.254	1142
222.321	644
222.387	426
222.453	445
222.520	-118
222.586	147
222.652	507
222.719	65
222.785	847
222.851	814
222.918	342
222.984	198
223.050	503
223.116	-53
223.183	1391
223.249	687
223.315	504
223.382	173
223.448	593
223.514	-260
223.580	432
223.647	-95
223.713	137
223.779	-81
223.845	542
223.911	435
223.978	-147
224.044	55
224.110	383
224.176	665
224.242	1055
224.309	83
224.375	604
224.441	255
224.507	318
224.573	-37
224.639	476
224.705	834
224.772	728
224.838	128
224.904	933
224.970	406
225.036	-72
225.102	352
225.168	138
225.234	441
225.300	434
225.366	426
225.432	411
225.499	255
225.565	-111
225.631	-420
225.697	1847
225.763	790
225.829	1332
225.895	1114
225.961	1668
226.027	1347
226.093	1308
226.159	1946
226.225	3166
226.291	5574
226.357	8122
226.423	3632
226.489	2267
226.554	1571
226.620	1835
226.686	2033
226.752	3581
226.818	6710
226.884	11233
226.950	8055
227.016	2726
227.082	2541
227.148	2427
227.214	1119
227.279	1073
227.345	1193
227.411	1483
227.477	531
227.543	1253
227.609	1576
227.674	988
227.740	794
227.806	913
227.872	92
227.938	1312
228.003	1221
228.069	440
228.135	310
228.201	921
228.267	-247
228.332	1459
228.398	282
228.464	1421
228.530	242
228.595	379
228.661	-193
228.727	1267
228.792	602
228.858	1201
228.924	-420
228.990	1781
229.055	207
229.121	452
229.187	-401
229.252	608
229.318	250
229.384	907
229.449	336
229.515	273
229.581	-876
229.646	1717
229.712	777
229.777	1580
229.843	1503
229.909	1587
229.974	925
230.040	1814
230.105	1158
230.171	1264
230.236	909
230.302	1651
230.368	933
230.433	1010
230.499	266
230.564	1143
230.630	294
230.695	494
230.761	874
230.826	373
230.892	866
230.957	994
231.023	-85
231.088	960
231.154	1112
231.219	1557
231.284	208
231.350	993
231.415	-405
231.481	632
231.546	1009
231.612	612
231.677	319
231.742	-282
231.808	1059
231.873	86
231.939	77
232.004	633
232.069	982
232.135	801
232.200	-173
232.265	1010
232.331	122
232.396	279
232.461	-314
232.527	261
232.592	-280
232.657	581
232.723	1224
232.788	1234
232.853	428
232.918	655
232.984	-278
233.049	434
233.114	-295
233.179	318
233.245	1715
233.310	2254
233.375	-39
233.440	1347
233.506	464
233.571	-291
233.636	330
233.701	643
233.766	989
233.832	675
233.897	426
233.962	-764
234.027	1145
234.092	280
234.157	333
234.222	-53
234.288	525
234.353	2798
234.418	2110
234.483	1951
234.548	924
234.613	999
234.678	993
234.743	1098
234.808	3033
234.873	1657
234.938	1492
235.004	1271
235.069	69
235.134	110
235.199	1108
235.264	478
235.329	-269
235.394	1130
235.459	898
235.524	737
235.589	1051
235.654	1285
235.719	-137
235.784	906
235.849	545
235.913	1609
235.978	1736
236.043	2136
236.108	592
236.173	1419
236.238	704
236.303	1097
236.368	380
236.433	2001
236.498	1808
236.563	2825
236.627	5535
236.692	15592
236.757	11201
236.822	4963
236.887	3000
236.952	2901
237.017	1559
237.081	2738
237.146	3048
237.211	7616
237.276	16080
237.341	23017
237.405	10452
237.470	4522
237.535	2895
237.600	2216
237.664	2096
237.729	1402
237.794	2385
237.859	4296
237.923	1831
237.988	1238
238.053	2110
238.118	1817
238.182	5034
238.247	4925
238.312	1178
238.376	2515
238.441	22
238.506	2835
238.570	241
238.635	1978
238.700	500
238.764	46
238.829	2378
238.893	1715
238.958	1094
239.023	1641
239.087	854
239.152	1652
239.216	499
239.281	1659
239.346	1043
239.410	872
239.475	1094
239.539	5355
239.604	2126
239.668	1052
239.733	1179
239.797	826
239.862	1267
239.926	2826
239.991	912
240.055	83
240.120	1221
240.184	318
240.249	970
240.313	844
240.378	604
240.442	2798
240.507	4085
240.571	1629
240.635	1466
240.700	2454
240.764	797
240.829	700
240.893	-807
240.957	1219
241.022	2274
241.086	3927
241.151	944
241.215	329
241.279	1313
241.344	1006
241.408	984
241.472	1059
241.537	1305
241.601	1509
241.665	-413
241.730	830
241.794	1486
241.858	1625
241.922	751
241.987	1336
242.051	224
242.115	390
242.179	1556
242.244	889
242.308	951
242.372	1307
242.436	1528
242.501	1317
242.565	1311
242.629	560
242.693	1418
242.757	-535
242.822	697
242.886	1491
242.950	1513
243.014	1092
243.078	456
243.142	1226
243.206	775
243.271	1973
243.335	1543
243.399	2209
243.463	10387
243.527	20452
243.591	5008
243.655	2344
243.719	535
243.783	2566
243.847	1945
243.911	3453
243.975	2284
244.040	1525
244.104	2339
244.168	915
244.232	943
244.296	2028
244.360	1958
244.424	1096
244.488	1281
244.552	1056
244.615	403
244.679	790
244.743	971
244.807	399
244.871	696
244.935	1424
244.999	-235
245.063	216
245.127	1239
245.191	1729
245.255	623
245.319	613
245.383	-170
245.446	1615
245.510	-248
245.574	1302
245.638	598
245.702	344
245.766	3053
245.829	1304
245.893	-7
245.957	657
246.021	845
246.085	924
246.149	985
246.212	4669
246.276	5636
246.340	2416
246.404	1244
246.467	2871
246.531	1683
246.595	2685
246.659	1745
246.722	357
246.786	1243
246.850	2529
246.913	2467
246.977	1127
247.041	923
247.104	1663
247.168	1175
247.232	4721
247.295	8873
247.359	3605
247.423	1839
247.486	3008
247.550	1734
247.614	2075
247.677	1914
247.741	1314
247.804	793
247.868	2320
247.932	3883
247.995	7658
248.059	2454
248.122	1009
248.186	2380
248.249	4843
248.313	15996
248.376	13665
248.440	8430
248.503	1495
248.567	2974
248.630	3469
248.694	4566
248.757	8141
248.821	15688
248.884	8586
248.948	7993
249.011	11455
249.075	18262
249.138	12765
249.202	4818
249.265	2921
249.328	3649
249.392	2356
249.455	2894
249.519	1707
249.582	2070
249.645	4240
249.709	2037
249.772	1990
249.835	2339
249.899	1776
249.962	3047
250.025	2074
250.089	6585
250.152	6906
250.215	2881
250.279	2277
250.342	2658
250.405	2308
250.468	2038
250.532	3271
250.595	7381
250.658	24920
250.721	32726
250.785	10325
250.848	6163
250.911	3961
250.974	4214
251.038	5559
251.101	9030
251.164	5281
251.227	4511
251.290	4042
251.354	8225
251.417	33826
251.480	25515
251.543	21582
251.606	58231
251.669	35775
251.732	14732
251.795	14326
251.859	16089
251.922	35162
251.985	16623
252.048	7185
252.111	4509
252.174	4647
252.237	9045
252.300	19014
252.363	21865
252.426	42845
252.489	13965
252.552	8290
252.615	5028
252.678	7151
252.741	15384
252.804	21798
252.867	43825
252.930	21932
252.993	9975
253.056	6887
253.119	4498
253.182	3896
253.245	5766
253.308	4895
253.371	3213
253.434	3405
253.497	3903
253.559	7475
253.622	4584
253.685	4982
253.748	3732
253.811	2205
253.874	3143
253.937	2670
254.000	2071
254.062	5367
254.125	7084
254.188	7937
254.251	3990
254.314	2365
254.376	3649
254.439	4133
254.502	3034
254.565	5452
254.628	7883
254.690	3514
254.753	1711
254.816	1640
254.878	1800
254.941	6801
255.004	4639
255.067	2284
255.129	1595
255.192	1194
255.255	127
255.317	1707
255.380	88
255.443	585
255.505	516
255.568	-179
255.631	903
255.693	762
255.756	-162
255.819	1918
255.881	411
255.944	1252
256.006	-264
256.069	863
256.132	1
256.194	1378
256.257	2882
256.319	2631
256.382	1113
256.444	2133
256.507	800
256.569	1048
256.632	1791
256.694	3059
256.757	10474
256.819	24573
256.882	7857
256.944	3504
257.007	3400
257.069	1795
257.132	2079
257.194	2452
257.257	725
257.319	605
257.381	2216
257.444	8019
257.506	30965
257.569	25561
257.631	8665
257.693	6057
257.756	2351
257.818	2642
257.880	1077
257.943	1514
258.005	210
258.067	1138
258.130	234
258.192	1829
258.254	2124
258.317	1555
258.379	1405
258.441	4445
258.503	3245
258.566	4253
258.628	4948
258.690	809
258.753	1998
258.815	2351
258.877	1376
258.939	718
259.001	1796
259.064	1089
259.126	1598
259.188	1418
259.250	954
259.312	1180
259.375	2364
259.437	990
259.499	1488
259.561	1240
259.623	1508
259.685	1082
259.747	658
259.809	5218
259.872	6650
259.934	13035
259.996	9353
260.058	2945
260.120	533
260.182	1496
260.244	461
260.306	829
260.368	969
260.430	388
260.492	3158
260.554	3661
260.616	1903
260.678	6051
260.740	5668
260.802	571
260.864	1454
260.926	1051
260.988	1778
261.050	1197
261.112	3960
261.174	10081
261.236	4404
261.298	2020
261.359	3069
261.421	4086
261.483	468
261.545	2310
261.607	-198
261.669	867
261.731	907
261.793	4576
261.854	417
261.916	1745
261.978	535
262.040	1400
262.102	1543
262.164	1451
262.225	463
262.287	1406
262.349	2379
262.411	1966
262.472	1813
262.534	1884
262.596	2969
262.658	1053
262.719	424
262.781	1263
262.843	2416
262.904	1980
262.966	1612
263.028	2034
263.090	12137
263.151	25491
263.213	6402
263.275	3351
263.336	1569
263.398	1474
263.459	-242
263.521	883
263.583	2445
263.644	1470
263.706	-112
263.767	-306
263.829	601
263.891	816
263.952	-41
264.014	-185
264.075	1572
264.137	4231
264.198	2091
264.260	-219
264.321	587
264.383	3391
264.444	6083
264.506	1274
264.567	1308
264.629	4235
264.690	5252
264.752	1865
264.813	711
264.875	43
264.936	841
264.998	225
265.059	-231
265.120	1078
265.182	1755
265.243	14351
265.305	10657
265.366	2887
265.427	912
265.489	941
265.550	-206
265.611	590
265.673	72
265.734	1143
265.795	410
265.857	426
265.918	727
265.979	5035
266.040	21420
266.102	14030
266.163	3498
266.224	2564
266.286	992
266.347	419
266.408	1008
266.469	804
266.530	94
266.592	-553
266.653	1121
266.714	2335
266.775	167
266.836	427
266.898	-163
266.959	535
267.020	147
267.081	816
267.142	-76
267.203	487
267.264	-388
267.326	1382
267.387	38
267.448	-352
267.509	181
267.570	275
267.631	104
267.692	-1090
267.753	604
267.814	27
267.875	2329
267.936	3680
267.997	3207
268.058	1682
268.119	730
268.180	527
268.241	-770
268.302	589
268.363	256
268.424	384
268.485	-455
268.546	-355
268.607	150
268.668	489
268.729	-281
268.790	-133
268.851	333
268.912	1896
268.972	1172
269.033	596
269.094	-701
269.155	730
269.216	255
269.277	-409
269.338	-452
269.398	508
269.459	-614
269.520	965
269.581	486
269.642	1160
269.702	711
269.763	751
269.824	42
269.885	1144
269.945	1160
270.006	-151
270.067	-262
270.128	320
270.188	-238
270.249	-40
270.310	-185
270.370	656
270.431	297
270.492	-507
270.553	-85
270.613	1475
270.674	3420
270.734	732
270.795	151
270.856	514
270.916	-362
270.977	887
271.038	212
271.098	808
271.159	430
271.219	1028
271.280	-195
271.340	594
271.401	456
271.462	1907
271.522	941
271.583	-83
271.643	-295
271.704	379
271.764	553
271.825	2987
271.885	13587
271.946	15699
272.006	4089
272.066	8636
272.127	11824
272.187	2369
272.248	896
272.308	1459
272.369	8224
272.429	3527
272.489	2493
272.550	1875
272.610	2629
272.671	1661
272.731	1550
272.791	2477
272.852	-245
272.912	1072
272.972	794
273.033	1299
273.093	886
273.153	1851
273.214	492
273.274	883
273.334	6966
273.394	9988
273.455	2563
273.515	4217
273.575	7402
273.635	2822
273.696	5969
273.756	10410
273.816	2284
273.876	1912
273.936	3998
273.997	7135
274.057	605
274.117	1163
274.177	2996
274.237	14877
274.297	9987
274.358	5953
274.418	8106
274.478	5490
274.538	1031
274.598	990
274.658	5421
274.718	6471
274.778	1840
274.838	756
274.898	3268
274.958	9782
275.018	11262
275.078	5945
275.138	1882
275.198	936
275.258	794
275.318	752
275.378	2093
275.438	1884
275.498	1313
275.558	4915
275.618	10054
275.678	6230
275.738	3539
275.798	2430
275.858	958
275.918	-3
275.978	765
276.038	225
276.098	-156
276.157	2208
276.217	6047
276.277	2469
276.337	1110
276.397	400
276.457	770
276.517	-251
276.576	307
276.636	-161
276.696	589
276.756	4041
276.815	1537
276.875	731
276.935	234
276.995	504
277.055	-166
277.114	613
277.174	1516
277.234	5381
277.293	815
277.353	972
277.413	843
277.472	812
277.532	40
277.592	1446
277.651	3388
277.711	5390
277.771	1927
277.830	9470
277.890	5169
277.950	6516
278.009	14850
278.069	5231
278.128	5262
278.188	5149
278.248	2279
278.307	7168
278.367	2669
278.426	958
278.486	576
278.545	-18
278.605	426
278.664	365
278.724	682
278.783	5574
278.843	11024
278.902	2122
278.962	638
279.021	2079
279.081	1843
279.140	2253
279.199	1271
279.259	2286
279.318	1660
279.378	2523
279.437	5464
279.496	19372
279.556	53604
279.615	30589
279.675	8464
279.734	6002
279.793	8332
279.853	12520
279.912	3056
279.971	2506
280.031	2020
280.090	5777
280.149	6947
280.208	7799
280.268	36332
280.327	27602
280.386	5783
280.445	5666
280.505	3436
280.564	1828
280.623	1509
280.682	3737
280.742	3556
280.801	1149
280.860	81
280.919	602
280.978	-406
281.037	-41
281.097	-1
281.156	1019
281.215	-430
281.274	597
281.333	6694
281.392	3144
281.451	615
281.510	608
281.569	-297
281.628	-432
281.688	-66
281.747	15
281.806	-170
281.865	-176
281.924	-965
281.983	-698
282.042	-634
282.101	-435
282.160	-130
282.219	11
282.278	-17
282.337	3149
282.396	277
282.454	896
282.513	295
282.572	4791
282.631	1543
282.690	383
282.749	-252
282.808	427
282.867	365
282.926	156
282.985	40
283.043	-601
283.102	-206
283.161	1129
283.220	3180
283.279	5653
283.338	784
283.396	491
283.455	302
283.514	518
283.573	920
283.631	1144
283.690	176
283.749	-310
283.808	1882
283.866	1133
283.925	-215
283.984	241
284.043	1003
284.101	149
284.160	-1194
284.219	1141
284.277	327
284.336	2289
284.395	6852
284.453	4548
284.512	1409
284.570	2430
284.629	1069
284.688	1160
284.746	1177
284.805	1269
284.863	1655
284.922	3179
284.981	3012
285.039	5655
285.098	14260
285.156	37996
285.215	89191
285.273	78076
285.332	34506
285.390	17117
285.449	9963
285.507	6889
285.566	4690
285.624	3940
285.683	2071
285.741	1916
285.799	1600
285.858	1441
285.916	1141
285.975	744
286.033	93
286.091	191
286.150	21
286.208	-191
286.267	1177
286.325	735
286.383	1003
286.442	1231
286.500	-328
286.558	869
286.616	-92
286.675	1371
286.733	223
286.791	98
286.850	963
286.908	1544
286.966	1906
287.024	971
287.083	-180
287.141	-33
287.199	-163
287.257	637
287.315	252
287.374	1105
287.432	2559
287.490	1539
287.548	668
287.606	751
287.664	-308
287.723	1093
287.781	1307
287.839	545
287.897	753
287.955	1320
288.013	4398
288.071	13147
288.129	53044
288.187	114232
288.245	47160
288.303	14665
288.361	8208
288.419	5554
288.477	4504
288.535	2140
288.593	1787
288.651	1237
288.709	134
288.767	436
288.825	351
288.883	799
288.941	467
288.999	-266
289.057	-54
289.115	-302
289.173	-906
289.231	-624
289.289	79
289.346	-271
289.404	-824
289.462	1043
289.520	587
289.578	224
289.636	206
289.694	641
289.751	-1295
289.809	-111
289.867	-209
289.925	74
289.983	80
290.040	322
290.098	-116
290.156	280
290.214	-277
290.271	-214
290.329	-21
290.387	-136
290.444	-1236
290.502	-997
290.560	-1361
290.617	-430
290.675	-686
290.733	-521
290.790	-152
290.848	311
290.906	-1
290.963	-287
291.021	-603
291.078	-6
291.136	-494
291.194	3546
291.251	5811
291.309	1142
291.366	-154
291.424	-129
291.481	-431
291.539	-547
291.596	-225
291.654	-130
291.711	-1060
291.769	369
291.826	629
291.884	537
291.941	-385
291.999	-341
292.056	-90
292.114	-236
292.171	74
292.228	-256
292.286	-474
292.343	1102
292.401	1091
292.458	170
292.515	-357
292.573	307
292.630	336
292.687	-271
292.745	-435
292.802	1072
292.859	3702
292.917	5828
292.974	2743
293.031	495
293.089	11
293.146	-464
293.203	-200
293.260	-517
293.318	-467
293.375	924
293.432	-497
293.489	-41
293.546	138
293.604	1087
293.661	5719
293.718	13667
293.775	5577
293.832	1165
293.889	-314
293.947	1359
294.004	-216
294.061	885
294.118	2479
294.175	7384
294.232	8905
294.289	3032
294.346	523
294.403	1526
294.460	651
294.517	-117
294.574	563
294.631	-583
294.688	386
294.745	5669
294.802	17284
294.859	16087
294.916	4840
294.973	1664
295.030	1486
295.087	433
295.144	511
295.201	829
295.258	-235
295.315	1096
295.372	5814
295.429	10913
295.486	3148
295.542	2902
295.599	7987
295.656	12394
295.713	7247
295.770	9801
295.827	2859
295.883	1637
295.940	1207
295.997	1949
296.054	1177
296.111	70
296.167	99
296.224	-353
296.281	-671
296.338	290
296.394	79
296.451	782
296.508	4016
296.564	7804
296.621	6083
296.678	14455
296.734	18906
296.791	6151
296.848	2286
296.904	2747
296.961	6527
297.018	12179
297.074	7787
297.131	2911
297.187	2218
297.244	3523
297.301	14734
297.357	22610
297.414	7110
297.470	2009
297.527	895
297.583	1040
297.640	826
297.696	494
297.753	180
297.809	1110
297.866	-295
297.922	324
297.979	-672
298.035	313
298.092	2061
298.148	6198
298.204	4912
298.261	2684
298.317	6566
298.374	16685
298.430	8245
298.486	3305
298.543	1473
298.599	1971
298.656	1701
298.712	5610
298.768	11831
298.824	8023
298.881	2127
298.937	1076
298.993	570
299.050	1173
299.106	659
299.162	289
299.218	960
299.275	811
299.331	1115
299.387	4381
299.443	14439
299.500	12438
299.556	3598
299.612	1984
299.668	1243
299.724	450
299.780	664
299.837	849
299.893	2228
299.949	10288
300.005	10754
300.061	11065
300.117	17775
300.173	8336
300.229	3931
300.285	3709
300.341	3417
300.397	794
300.453	413
300.510	651
300.566	1018
300.622	848
300.678	2518
300.734	6894
300.790	8853
300.845	12576
300.901	7125
300.957	8951
301.013	6156
301.069	2177
301.125	710
301.181	1585
301.237	957
301.293	768
301.349	-215
301.405	897
301.461	926
301.516	1525
301.572	1111
301.628	1508
301.684	2254
301.740	4595
301.796	6566
301.851	4376
301.907	7325
301.963	8437
302.019	18027
302.074	44909
302.130	41175
302.186	17871
302.242	6648
302.297	3373
302.353	3983
302.409	8108
302.464	6422
302.520	5461
302.576	13070
302.631	14327
302.687	7036
302.743	2811
302.798	934
302.854	989
302.910	1163
302.965	1799
303.021	3236
303.076	3561
303.132	3292
303.187	4548
303.243	2027
303.299	1407
303.354	1058
303.410	1035
303.465	643
303.521	1189
303.576	1232
303.632	1853
303.687	4687
303.743	13173
303.798	10740
303.853	4396
303.909	1419
303.964	1788
304.020	2709
304.075	2816
304.130	2924
304.186	6134
304.241	6283
304.297	4121
304.352	1331
304.358	1325
304.407	1264
304.449	1559
304.463	1662
304.518	868
304.539	931
304.573	1017
304.629	1672
304.630	1699
304.684	3082
304.720	8362
304.739	11027
304.794	14811
304.811	12646
304.850	7150
304.902	2611
304.905	2338
304.960	2652
304.992	2106
305.015	1671
305.071	2059
305.083	2047
305.126	1958
305.173	1011
305.181	874
305.236	826
305.264	840
305.292	888
305.347	1256
305.354	1388
305.402	2174
305.445	1154
305.457	851
305.512	2356
305.535	2368
305.567	2384
305.622	2531
305.626	2678
305.678	6351
305.716	12460
305.733	14623
305.788	16347
305.807	14864
305.843	12174
305.897	14893
305.898	14919
305.953	14941
305.988	10193
306.008	7507
306.063	4421
306.078	3957
306.118	3009
306.168	1826
306.173	1755
306.228	1328
306.259	1269
306.283	1184
306.338	1453
306.349	1439
306.393	1841
306.440	2379
306.448	2368
306.503	2743
306.530	2665
306.558	3500
306.613	7368
306.620	7832
306.668	11118
306.711	14881
306.723	15082
306.778	11761
306.801	9198
306.833	6052
306.888	3129
306.892	2964
306.943	2360
306.982	1620
306.997	1382
307.052	1918
307.072	1840
307.107	1959
307.162	3096
307.163	3098
307.217	4011
307.253	4868
307.272	5081
307.327	5767
307.343	5554
307.381	4859
307.434	3772
307.436	3883
307.491	8594
307.524	12075
307.546	13268
307.600	14874
307.614	13968
307.655	8931
307.704	5151
307.710	5120
307.765	5723
307.795	6566
307.819	8067
307.874	12189
307.885	12636
307.929	11786
307.975	10196
307.984	10742
308.038	17465
308.065	21882
308.093	35855
308.148	71147
308.156	78156
308.202	118588
308.246	144602
308.257	140074
308.312	86577
308.336	64890
308.366	49519
308.421	28833
308.426	27023
308.475	18914
308.517	12816
308.530	11842
308.585	9802
308.607	8988
308.639	8885
308.694	8594
308.697	8628
308.748	12538
308.787	16249
308.803	16352
308.857	14704
308.877	13720
308.912	13156
308.967	13368
308.967	13349
309.021	18496
309.058	23061
309.076	29316
309.130	50979
309.148	59450
309.185	97599
309.238	161402
309.239	162203
309.293	183788
309.328	179410
309.348	158111
309.402	92164
309.418	75038
309.457	54231
309.508	30788
309.511	30260
309.566	23592
309.598	19732
309.620	19318
309.674	19103
309.688	19015
309.729	18025
309.778	16544
309.783	16356
309.837	13783
309.868	12516
309.892	14591
309.946	20107
309.959	21672
310.001	29646
310.049	37615
310.055	36352
310.109	22288
310.139	14585
310.163	12227
310.218	7714
310.229	6924
310.272	6000
310.319	5049
310.326	5012
310.381	4626
310.409	4445
310.435	4167
310.489	3592
310.499	3511
310.543	3824
310.589	4011
310.598	4059
310.652	4462
310.679	4567
310.706	4215
310.760	3391
310.769	3274
310.814	3324
310.859	3339
310.868	3310
310.923	3068
310.948	2894
310.977	3182
311.031	3875
311.038	3961
311.085	3863
311.128	3605
311.139	3616
311.193	3721
311.218	3728
311.247	3721
311.301	3680
311.308	3658
311.356	3645
311.398	3610
311.410	3664
311.464	3921
311.488	3960
311.518	3800
311.572	3608
311.578	3568
311.626	4870
311.668	5977
311.680	5941
311.734	5658
311.758	5512
311.788	5409
311.842	5165
311.847	5123
311.896	6738
311.937	8114
311.950	8209
312.004	8470
312.027	8555
312.058	7403
312.112	5285
312.117	5056
312.165	4753
312.207	4465
312.297	6829
312.386	6183
312.476	5166
312.566	8169
312.656	5558
312.745	4594
312.835	4651
312.925	5595
313.015	5087
313.104	4280
313.194	4187
313.284	4220
313.374	5239
313.463	4868
313.553	3933
313.643	3841
313.732	3292
313.822	3762
313.912	4633
314.001	5102
314.091	5053
314.180	7661
314.270	5758
314.360	5656
314.449	5854
314.539	4053
314.628	4044
314.718	4549
314.808	4521
314.897	3604
314.987	3190
315.076	4860
315.166	4985
315.255	5820
315.345	5228
315.434	4764
315.524	4192
315.613	4249
315.703	5315
315.792	5992
315.881	5501
315.971	4411
316.060	7566
316.150	9597
316.239	10407
316.328	5634
316.418	4360
316.507	3866
316.597	4603
316.686	3990
316.775	4889
316.865	10727
316.954	4242
317.043	3264
317.133	3894
317.222	2947
317.311	3033
317.400	3564
317.490	4873
317.579	5108
317.668	3708
317.757	4535
317.847	5445
317.936	8159
318.025	10439
318.114	6157
318.203	5667
318.293	9077
318.382	20712
318.471	16690
318.560	21162
318.649	43133
318.738	12892
318.828	5573
318.917	6685
319.006	7054
319.095	15150
319.184	48426
319.273	31152
319.362	14475
319.451	5847
319.540	4884
319.629	8605
319.718	15743
319.807	9284
319.896	15000
319.985	58775
320.074	26813
320.163	7153
320.252	8599
320.341	8988
320.430	10358
320.519	8548
320.608	5478
320.697	5373
320.786	5086
320.875	4631
320.964	6199
321.053	9494
321.142	12928
321.230	16127
321.319	11764
321.408	25290
321.497	14421
321.586	10177
321.675	11621
321.764	12901
321.852	9846
321.941	14649
322.030	12204
322.119	10332
322.207	25069
322.296	17442
322.385	11470
322.474	9964
322.562	28193
322.651	19334
322.740	9919
322.829	15858
322.917	13667
323.006	9935
323.095	8656
323.183	6585
323.272	9893
323.361	15167
323.449	39387
323.538	17386
323.626	26180
323.715	21607
323.804	7736
323.892	23329
323.981	17812
324.069	6983
324.158	12223
324.246	15475
324.335	6541
324.424	10136
324.512	5092
324.601	7363
324.689	12604
324.778	26672
324.866	13042
324.954	4685
325.043	4043
325.131	6729
325.220	10857
325.308	13430
325.397	9459
325.485	7690
325.574	3526
325.662	3207
325.750	4683
325.839	4206
325.927	3012
326.015	4864
326.104	4289
326.192	7332
326.280	4275
326.369	4268
326.457	4940
326.545	8213
326.634	5627
326.722	3119
326.810	2848
326.898	3108
326.987	3958
327.075	7510
327.163	8405
327.251	5228
327.340	8597
327.428	17042
327.516	4223
327.604	3563
327.692	4390
327.781	3837
327.869	5820
327.957	4656
328.045	4370
328.133	3389
328.221	4172
328.309	4242
328.397	3575
328.485	4609
328.574	5716
328.662	15498
328.750	11542
328.838	5256
328.926	4094
329.014	3673
329.102	5606
329.190	13283
329.278	10606
329.366	4400
329.454	4716
329.542	5325
329.630	4987
329.718	6323
329.806	7940
329.893	11079
329.981	17290
330.069	33762
330.157	97349
330.245	193227
330.333	140267
330.421	42126
330.509	18373
330.597	24328
330.684	19894
330.772	9055
330.860	11287
330.948	13768
331.036	7221
331.123	4234
331.211	3886
331.299	4957
331.387	9522
331.475	20216
331.562	7198
331.650	3472
331.738	3116
331.825	4517
331.913	3026
332.001	2379
332.089	3627
332.176	7766
332.264	12222
332.352	12218
332.439	4761
332.527	3996
332.614	3175
332.702	3927
332.790	3596
332.877	5955
332.965	13079
333.052	4322
333.140	4517
333.228	7013
333.315	3269
333.403	3553
333.490	7388
333.578	7841
333.665	7425
333.753	6370
333.840	2949
333.928	4138
334.015	9373
334.103	15451
334.190	55702
334.278	20084
334.365	5546
334.452	3641
334.540	3150
334.627	3611
334.715	4577
334.802	8455
334.889	38041
334.977	48411
335.064	6779
335.151	4209
335.239	4208
335.326	7409
335.413	25750
335.501	47155
335.588	6869
335.675	4141
335.762	5341
335.850	10552
335.937	5624
336.024	10495
336.111	49699
336.199	26422
336.286	5976
336.373	2408
336.460	2487
336.547	3336
336.635	4435
336.722	4314
336.809	3553
336.896	5183
336.983	17575
337.070	45499
337.157	64354
337.245	34243
337.332	26164
337.419	4450
337.506	3149
337.593	4748
337.680	13495
337.767	50636
337.854	15800
337.941	15083
338.028	12276
338.115	5449
338.202	7494
338.289	10274
338.376	29294
338.463	14519
338.550	24370
338.637	34478
338.724	7770
338.811	9633
338.898	3512
338.984	2819
339.071	3864
339.158	5075
339.245	9912
339.332	7867
339.419	6701
339.506	7757
339.593	2354
339.679	3066
339.766	2253
339.853	3599
339.940	7629
340.027	3946
340.113	3280
340.200	4249
340.287	3740
340.374	3942
340.460	7429
340.547	3555
340.634	4712
340.720	17514
340.807	13659
340.894	3162
340.980	2858
341.067	2756
341.154	3482
341.240	4148
341.327	10613
341.414	4622
341.500	4922
341.587	3982
341.674	2687
341.760	5724
341.847	8254
341.933	3238
342.020	1964
342.106	1657
342.193	1921
342.279	5193
342.366	4839
342.452	7014
342.539	4889
342.625	7198
342.712	21349
342.798	9565
342.885	4661
342.971	1934
343.058	1655
343.144	2189
343.230	2462
343.317	2525
343.403	2231
343.490	2120
343.576	1676
343.662	2555
343.749	3137
343.835	3656
343.921	8169
344.008	36928
344.094	97330
344.180	26636
344.267	8339
344.353	22012
344.439	28045
344.525	12204
344.612	10266
344.698	13365
344.784	8402
344.870	2952
344.957	2835
345.043	4969
345.129	3397
345.215	7209
345.301	4245
345.387	2437
345.474	2262
345.560	1777
345.646	2240
345.732	2949
345.818	3553
345.904	3576
345.990	3213
346.076	3038
346.162	5588
346.249	3205
346.335	2148
346.421	2676
346.507	8907
346.593	35057
346.679	11735
346.765	3317
346.851	2149
346.937	1814
347.023	3146
347.108	2835
347.194	3187
347.280	2873
347.366	3302
347.452	9169
347.538	40212
347.624	32712
347.710	26409
347.796	5437
347.882	3179
347.967	2654
348.053	4845
348.139	3131
348.225	2159
348.311	2313
348.397	1787
348.482	3046
348.568	3402
348.654	1327
348.740	1205
348.825	1470
348.911	4234
348.997	16749
349.083	40022
349.168	8456
349.254	3530
349.340	4127
349.425	2130
349.511	2383
349.597	4525
349.682	6126
349.768	24220
349.854	14414
349.939	3315
350.025	1893
350.110	2956
350.196	2041
350.282	1443
350.367	1566
350.453	3382
350.538	3771
350.624	3616
350.709	3805
350.795	2014
350.880	2091
350.966	2739
351.051	3803
351.137	3176
351.222	2068
351.308	6723
351.393	22800
351.479	8249
351.564	2777
351.649	2738
351.735	2204
351.820	986
351.906	2510
351.991	3693
352.076	11923
352.162	23393
352.247	5243
352.332	3318
352.418	6059
352.503	8515
352.588	28880
352.673	28698
352.759	6288
352.844	3355
352.929	2850
353.014	4720
353.100	3788
353.185	3805
353.270	6701
353.355	7628
353.441	2807
353.526	3611
353.611	6012
353.696	7802
353.781	5035
353.866	2408
353.952	2764
354.037	5630
354.122	13777
354.207	12746
354.292	6925
354.377	2763
354.462	2761
354.547	3322
354.632	3658
354.717	5536
354.802	4655
354.887	2793
354.972	2610
355.057	1784
355.142	1766
355.227	2557
355.312	4549
355.397	9373
355.482	21339
355.567	13238
355.652	8069
355.737	9363
355.822	25897
355.907	27540
355.991	4390
356.076	2767
356.161	2752
356.246	2485
356.331	3328
356.416	6800
356.501	38758
356.585	51662
356.670	9908
356.755	4994
356.840	7047
356.924	25546
357.009	101680
357.094	49462
357.179	10100
357.263	6534
357.348	5969
357.433	6334
357.517	5739
357.602	4285
357.687	4228
357.771	6994
357.856	28046
357.941	21137
358.025	24077
358.110	105510
358.195	65032
358.279	10771
358.364	6732
358.448	15951
358.533	51785
358.617	41839
358.702	38502
358.787	16837
358.871	8495
358.956	8108
359.040	2953
359.125	2295
359.209	3362
359.294	11835
359.378	26724
359.462	8057
359.547	3931
359.631	3208
359.716	1992
359.800	3122
359.885	5716
359.969	3365
360.053	2820
360.138	3003
360.222	3283
360.306	7468
360.391	6465
360.475	11990
360.559	32010
360.644	20705
360.728	16359
360.812	20843
360.896	68325
360.981	33395
361.065	18019
361.149	5247
361.233	4402
361.318	4212
361.402	4339
361.486	3963
361.570	3032
361.654	3444
361.739	8313
361.823	36124
361.907	71987
361.991	16246
362.075	6697
362.159	14113
362.243	10003
362.327	6620
362.411	5361
362.495	4627
362.580	3296
362.664	2528
362.748	2147
362.832	2931
362.916	2719
363.000	8957
363.084	33602
363.168	78316
363.252	22071
363.336	7958
363.420	8963
363.503	36922
363.587	57093
363.671	11299
363.755	5138
363.839	7820
363.923	4202
364.007	7207
364.091	9694
364.175	12142
364.258	62073
364.342	38535
364.426	12357
364.510	8096
364.594	10159
364.677	12662
364.761	52996
364.845	49031
364.929	14840
365.013	12006
365.096	8067
365.180	11549
365.264	14538
365.347	67342
365.431	36962
365.515	9873
365.598	3423
365.682	3668
365.766	7782
365.849	12640
365.933	4179
366.017	6475
366.100	6497
366.184	2130
366.267	2962
366.351	2338
366.435	2387
366.518	2214
366.602	1881
366.685	2147
366.769	2527
366.852	5997
366.936	12181
367.019	6292
367.103	5413
367.186	13322
367.270	3940
367.353	1844
367.436	2322
367.520	2343
367.603	3608
367.687	3590
367.770	8866
367.853	5326
367.937	15372
368.020	33630
368.104	9238
368.187	5716
368.270	10384
368.353	10041
368.437	9318
368.520	19041
368.603	14602
368.687	18085
368.770	41905
368.853	12328
368.936	9713
369.020	13414
369.103	4879
369.186	3190
369.269	3933
369.352	6042
369.436	7947
369.519	6177
369.602	2806
369.685	3641
369.768	4327
369.851	3839
369.934	1921
370.018	2939
370.101	6519
370.184	6908
370.267	5749
370.350	8284
370.433	13422
370.516	30448
370.599	38273
370.682	9645
370.765	21055
370.848	25264
370.931	49064
371.014	23588
371.097	5410
371.180	4090
371.263	3098
371.346	2537
371.429	3173
371.511	3007
371.594	5607
371.677	8852
371.760	13897
371.843	10059
371.926	39463
372.009	106616
372.091	41769
372.174	19308
372.257	47039
372.340	22452
372.423	14906
372.505	21730
372.588	9278
372.671	12532
372.754	43366
372.836	27820
372.919	18879
373.002	45995
373.085	14999
373.167	8434
373.250	19394
373.332	46510
373.415	57515
373.498	127138
373.580	56395
373.663	52917
373.746	87956
373.828	23060
373.911	9905
373.993	9076
374.076	36602
374.159	43374
374.241	14303
374.324	38792
374.406	31359
374.489	31639
374.571	102587
374.654	51065
374.736	19782
374.819	59848
374.901	84722
374.983	97856
375.066	22092
375.148	7076
375.231	27004
375.313	65679
375.395	28366
375.478	6267
375.560	4685
375.643	4838
375.725	14753
375.807	69619
375.890	62651
375.972	22190
376.054	12210
376.136	16055
376.219	8858
376.301	16811
376.383	63150
376.465	29273
376.548	13702
376.630	15772
376.712	52576
376.794	30015
376.877	3989
376.959	2547
377.041	3561
377.123	9068
377.205	13507
377.287	4010
377.369	3315
377.452	2741
377.534	2469
377.616	1967
377.698	1892
377.780	978
377.862	2670
377.944	2915
378.026	1353
378.108	2832
378.190	2402
378.272	2596
378.354	1398
378.436	1937
378.518	3788
378.600	17806
378.682	15740
378.764	25648
378.846	26179
378.928	7646
379.010	9713
379.091	5642
379.173	3512
379.255	2233
379.337	4356
379.419	11341
379.501	40430
379.583	20760
379.664	4520
379.746	8304
379.828	25542
379.910	38163
379.991	36422
380.073	8100
380.155	4159
380.237	3562
380.318	2791
380.400	2839
380.482	5214
380.564	9255
380.645	7990
380.727	7635
380.809	5292
380.890	3636
380.972	2395
381.053	2389
381.135	3897
381.217	8392
381.298	29440
381.380	16655
381.461	11414
381.543	46169
381.624	72065
381.706	15914
381.787	7599
381.869	8371
381.951	20231
382.032	89477
382.113	68142
382.195	14971
382.276	9675
382.358	14537
382.439	49190
382.521	54428
382.602	88376
382.684	42067
382.765	62075
382.846	68320
382.928	61364
383.009	39356
383.090	28922
383.172	84231
383.253	132189
383.334	60880
383.416	73671
383.497	45153
383.578	18231
383.659	28015
383.741	79494
383.822	196091
383.903	119834
383.984	49923
384.066	88469
384.147	64884
384.228	14762
384.309	8572
384.390	7370
384.471	4838
384.553	5610
384.634	7657
384.715	7754
384.796	4696
384.877	5473
384.958	22134
385.039	34840
385.120	13759
385.201	6021
385.282	7151
385.363	8124
385.444	5695
385.525	9962
385.606	38365
385.687	39588
385.768	10230
385.849	10861
385.930	41963
386.011	89184
386.092	30090
386.173	6931
386.254	5317
386.335	4835
386.416	5258
386.496	16121
386.577	31183
386.658	12771
386.739	7953
386.820	6747
386.901	5619
386.981	5422
387.062	3042
387.143	5636
387.224	24171
387.304	28800
387.385	10356
387.466	6384
387.547	8219
387.627	5925
387.708	8374
387.789	43091
387.869	64366
387.950	20689
388.031	3886
388.111	3342
388.192	11366
388.273	16055
388.353	10275
388.434	5610
388.514	9159
388.595	43699
388.676	66183
388.756	33284
388.837	24982
388.917	19132
388.998	3680
389.078	4287
389.159	4209
389.239	2640
389.320	5086
389.400	4504
389.480	9745
389.561	29691
389.641	18456
389.722	5462
389.802	8680
389.883	12043
389.963	34540
390.043	25300
390.124	9096
390.204	9799
390.284	30837
390.365	24031
390.445	26570
390.525	70290
390.605	67264
390.686	24228
390.766	7941
390.846	4222
390.927	2722
391.007	2443
391.087	3782
391.167	4310
391.247	3378
391.328	3962
391.408	9091
391.488	9098
391.568	1900
391.648	4372
391.728	6271
391.808	5637
391.888	5352
391.969	13240
392.049	28992
392.129	14954
392.209	12752
392.289	35160
392.369	22308
392.449	18845
392.529	12556
392.609	6555
392.689	7669
392.769	28741
392.849	30131
392.929	16537
393.009	46050
393.089	34373
393.169	11612
393.248	22763
393.328	124407
393.408	167926
393.488	37900
393.568	9740
393.648	6665
393.728	5644
393.807	3266
393.887	6153
393.967	5109
394.047	9189
394.127	12245
394.206	22470
394.286	68069
394.366	258298
394.446	331357
394.525	122220
394.605	34649
394.685	20311
394.764	29394
394.844	47865
394.924	38078
395.003	12500
395.083	8435
395.163	6839
395.242	7364
395.322	7534
395.402	5230
395.481	8191
395.561	17253
395.640	49561
395.720	36864
395.799	53488
395.879	57565
395.958	40842
396.038	107971
396.117	331568
396.197	404432
396.276	193896
396.356	69506
396.435	40363
396.515	23123
396.594	15269
396.673	16454
396.753	32671
396.832	125821
396.912	121882
396.991	39523
397.070	10440
397.150	5212
397.229	5154
397.308	4546
397.388	5524
397.467	5144
397.546	3012
397.625	2011
397.705	4993
397.784	5232
397.863	3864
397.942	2621
398.022	3304
398.101	10919
398.180	47234
398.259	30316
398.338	8052
398.417	3498
398.497	3119
398.576	2793
398.655	1759
398.734	1435
398.813	3428
398.892	10239
398.971	49564
399.050	30221
399.129	4103
399.208	1883
399.287	2805
399.366	2824
399.445	2000
399.524	2639
399.603	1600
399.682	3931
399.761	11587
399.840	46510
399.919	47918
399.998	7459
400.077	2022
400.156	1343
400.235	3674
400.313	2664
400.392	3096
400.471	12433
400.550	25326
400.629	8031
400.708	3546
400.786	2888
400.865	11279
400.944	13928
401.023	7537
401.102	1122
401.180	1956
401.259	1405
401.338	2921
401.416	3666
401.495	3455
401.574	3225
401.652	2430
401.731	3553
401.810	2795
401.888	2108
401.967	1200
402.046	2507
402.124	2908
402.203	4508
402.281	3217
402.360	4206
402.438	14606
402.517	12299
402.596	3583
402.674	2667
402.753	2158
402.831	1962
402.910	2123
402.988	6937
403.066	26782
403.145	20469
403.223	8845
403.302	25363
403.380	19639
403.459	17437
403.537	8413
403.615	3983
403.694	932
403.772	1783
403.850	1891
403.929	1893
404.007	1397
404.085	5039
404.164	4037
404.242	4503
404.320	13712
404.398	56558
404.477	68258
404.555	76040
404.633	76191
404.711	47402
404.789	38275
404.868	10291
404.946	2915
405.024	1668
405.102	1951
405.180	1421
405.258	979
405.336	2517
405.415	1666
405.493	4315
405.571	3793
405.649	1240
405.727	975
405.805	3399
405.883	2299
405.961	3279
406.039	4606
406.117	1484
406.195	3262
406.273	11443
406.351	54532
406.429	41911
406.507	7974
406.585	3523
406.663	2090
406.740	2634
406.818	2355
406.896	1781
406.974	2266
407.052	3967
407.130	26906
407.208	52461
407.285	13201
407.363	1783
407.441	2135
407.519	2395
407.596	1116
407.674	3987
407.752	8666
407.830	14142
407.907	9258
407.985	2360
408.063	1639
408.141	1372
408.218	3814
408.296	3262
408.373	1842
408.451	2211
408.529	1931
408.606	982
408.684	189
408.762	503
408.839	556
408.917	650
408.994	521
409.072	168
409.149	943
409.227	1457
409.304	1938
409.382	961
409.459	204
409.537	1241
409.614	1178
409.692	927
409.769	482
409.846	1247
409.924	2563
410.001	2130
410.079	2159
410.156	2362
410.233	1982
410.311	1967
410.388	1079
410.465	1605
410.543	2293
410.620	1442
410.697	963
410.775	919
410.852	316
410.929	2047
411.006	3861
411.083	1187
411.161	4194
411.238	7570
411.315	3362
411.392	1254
411.469	2204
411.547	3422
411.624	1127
411.701	1399
411.778	1903
411.855	3714
411.932	2325
412.009	979
412.086	1216
412.163	846
412.240	2251
412.317	3468
412.394	3279
412.471	2033
412.548	817
412.625	797
412.702	2911
412.779	4808
412.856	3484
412.933	1366
413.010	1394
413.087	1845
413.164	11101
413.241	21485
413.318	5254
413.395	2826
413.471	4902
413.548	3070
413.625	1729
413.702	1171
413.779	1949
413.855	1088
413.932	575
414.009	499
414.086	772
414.162	1585
414.239	1596
414.316	9363
414.393	30401
414.469	13542
414.546	1918
414.623	1150
414.699	911
414.776	1040
414.853	1106
414.929	1586
415.006	1394
415.082	1686
415.159	1848
415.236	1805
415.312	1020
415.389	1988
415.465	3776
415.542	2104
415.618	1011
415.695	3053
415.771	1315
415.848	1611
415.924	1502
416.000	1640
416.077	1229
416.153	-739
416.230	178
416.306	1210
416.383	470
416.459	655
416.535	405
416.612	494
416.688	419
416.764	583
416.841	-329
416.917	1190
416.993	1435
417.069	1635
417.146	2716
417.222	7405
417.298	3884
417.374	816
417.451	1190
417.527	723
417.603	1470
417.679	1686
417.755	1761
417.831	170
417.908	211
417.984	374
418.060	-122
418.136	2982
418.212	4546
418.288	1623
418.364	1185
418.440	585
418.516	2750
418.592	3864
418.668	6331
418.744	8199
418.820	7017
418.896	2117
418.972	-156
419.048	907
419.124	3654
419.200	2484
419.276	1415
419.352	-1
419.428	925
419.504	775
419.579	562
419.655	1232
419.731	1559
419.807	4266
419.883	9297
419.959	8268
420.034	2708
420.110	3832
420.186	18110
420.262	17308
420.337	2813
420.413	1156
420.489	1270
420.565	1429
420.640	-68
420.716	1267
420.792	-260
420.867	1181
420.943	541
421.019	1624
421.094	1866
421.170	837
421.245	-240
421.321	1148
421.397	-71
421.472	1793
421.548	4126
421.623	4892
421.699	2511
421.774	1720
421.850	951
421.925	2419
422.001	1740
422.076	1447
422.152	711
422.227	3267
422.302	3633
422.378	4014
422.453	7212
422.529	16048
422.604	66017
422.679	182267
422.755	114394
422.830	27797
422.905	8373
422.981	5197
423.056	3423
423.131	2334
423.207	1245
423.282	1576
423.357	4363
423.432	4051
423.508	2476
423.583	7565
423.658	7669
423.733	2339
423.808	2319
423.883	2762
423.959	2499
424.034	1004
424.109	1092
424.184	488
424.259	236
424.334	1148
424.409	441
424.484	169
424.559	785
424.634	502
424.709	1757
424.784	1974
424.859	1745
424.934	2040
425.009	9404
425.084	21499
425.159	10479
425.234	1947
425.309	603
425.384	5838
425.459	15945
425.534	5918
425.609	1651
425.683	1368
425.758	437
425.833	682
425.908	1969
425.983	4415
426.058	19732
426.132	11330
426.207	2474
426.282	4444
426.357	3903
426.431	1234
426.506	1622
426.581	956
426.655	739
426.730	427
426.805	886
426.879	1614
426.954	515
427.029	2138
427.103	14813
427.178	49426
427.253	29274
427.327	3868
427.402	3716
427.476	16256
427.551	11316
427.625	3017
427.700	1857
427.774	484
427.849	2170
427.923	871
427.998	368
428.072	1001
428.147	3229
428.221	7862
428.296	17940
428.370	10298
428.444	2411
428.519	4482
428.593	9665
428.667	10501
428.742	10592
428.816	9074
428.890	15605
428.965	29198
429.039	16529
429.113	14081
429.188	5459
429.262	994
429.336	2134
429.410	8693
429.485	8628
429.559	8657
429.633	8957
429.707	2350
429.781	3035
429.855	20577
429.930	33572
430.004	25022
430.078	47340
430.152	42053
430.226	25096
430.300	28807
430.374	5517
430.448	2902
430.522	11253
430.596	45413
430.670	30482
430.744	26823
430.818	57886
430.892	17292
430.966	2114
431.040	2005
431.114	463
431.188	894
431.262	-7
431.336	-149
431.410	3653
431.484	12709
431.557	10365
431.631	1228
431.705	342
431.779	2126
431.853	10999
431.927	11088
432.000	951
432.074	793
432.148	849
432.222	2003
432.295	1273
432.369	1349
432.443	2306
432.516	14411
432.590	49622
432.664	24986
432.737	3302
432.811	169
432.885	561
432.958	223
433.032	838
433.106	-605
433.179	-39
433.253	408
433.326	-64
433.400	682
433.473	340
433.547	147
433.620	528
433.694	1549
433.767	2658
433.841	11
433.914	549
433.988	385
434.061	952
434.134	217
434.208	988
434.281	161
434.355	-482
434.428	944
434.501	-250
434.575	304
434.648	986
434.721	-7
434.795	-605
434.868	-409
434.941	-220
435.014	-992
435.088	59
435.161	1028
435.234	1065
435.307	2400
435.381	610
435.454	196
435.527	11
435.600	14
435.673	334
435.746	-437
435.819	38
435.892	-48
435.966	-110
436.039	-41
436.112	1266
436.185	-223
436.258	405
436.331	-892
436.404	-1476
436.477	312
436.550	64
436.623	-290
436.696	131
436.769	411
436.842	840
436.915	206
436.987	771
437.060	680
437.133	92
437.206	-93
437.279	145
437.352	775
437.425	241
437.498	1031
437.570	3078
437.643	4142
437.716	1141
437.789	256
437.861	1879
437.934	8511
438.007	4836
438.080	1794
438.152	847
438.225	3455
438.298	17484
438.370	68814
438.443	37537
438.516	10230
438.588	1617
438.661	67
438.734	587
438.806	601
438.879	1068
438.951	1544
439.024	4043
439.096	1143
439.169	250
439.241	892
439.314	363
439.386	1387
439.459	2448
439.531	3973
439.604	2077
439.676	412
439.749	-177
439.821	42
439.893	453
439.966	618
440.038	529
440.110	1847
440.183	618
440.255	-267
440.327	1952
440.400	7513
440.472	39948
440.544	35038
440.617	5221
440.689	3270
440.761	3741
440.833	6962
440.905	4325
440.978	194
441.050	449
441.122	555
441.194	-33
441.266	753
441.338	161
441.411	1648
441.483	10000
441.555	21396
441.627	5244
441.699	2793
441.771	2775
441.843	341
441.915	-214
441.987	-70
442.059	342
442.131	361
442.203	1511
442.275	1893
442.347	2484
442.419	1642
442.491	2636
442.563	8278
442.635	7338
442.706	10611
442.778	11472
442.850	2097
442.922	491
442.994	480
443.066	2386
443.137	1814
443.209	19
443.281	1220
443.353	1778
443.425	6554
443.496	17136
443.568	18708
443.640	6392
443.711	2020
443.783	912
443.855	404
443.926	-56
443.998	342
444.070	1374
444.141	1437
444.213	1721
444.285	2026
444.356	1395
444.428	2176
444.499	415
444.571	579
444.642	100
444.714	614
444.785	1126
444.857	2153
444.928	8175
445.000	5316
445.071	4495
445.143	6431
445.214	2465
445.285	2979
445.357	12547
445.428	17997
445.500	35579
445.571	30253
445.642	12257
445.714	8328
445.785	14700
445.856	4297
445.928	2849
445.999	2754
446.070	1850
446.141	1791
446.213	3297
446.284	1486
446.355	1332
446.426	1360
446.497	278
446.569	1753
446.640	3523
446.711	2415
446.782	678
446.853	899
446.924	1845
446.995	715
447.066	1131
447.138	3447
447.209	2131
447.280	-772
447.351	28
447.422	-631
447.493	442
447.564	1749
447.635	1422
447.706	591
447.777	92
447.847	831
447.918	-60
447.989	1136
448.060	2351
448.131	6130
448.202	4830
448.273	3656
448.344	1862
448.414	1233
448.485	211
448.556	546
448.627	-133
448.698	1265
448.768	-415
448.839	-14
448.910	2002
448.981	3293
449.051	857
449.122	778
449.193	530
449.263	428
449.334	596
449.405	1516
449.475	3598
449.546	3083
449.616	3769
449.687	3975
449.758	933
449.828	1018
449.899	1299
449.969	564
450.040	1078
450.110	1419
450.181	1387
450.251	1355
450.322	582
450.392	1098
450.463	274
450.533	-615
450.604	848
450.674	951
450.744	1104
450.815	500
450.885	1323
450.955	1091
451.026	381
451.096	538
451.166	606
451.237	2470
451.307	10373
451.377	4864
451.447	1119
451.518	-96
451.588	943
451.658	1757
451.728	2268
451.799	9028
451.869	14310
451.939	2990
452.009	750
452.079	1036
452.149	909
452.219	1798
452.289	11120
452.360	11329
452.430	1807
452.500	618
452.570	1608
452.640	1918
452.710	4378
452.780	10658
452.850	6384
452.920	5911
452.990	2266
453.060	1604
453.129	1280
453.199	2741
453.269	9161
453.339	29098
453.409	49082
453.479	40107
453.549	61587
453.619	70533
453.688	32656
453.758	5243
453.828	2935
453.898	2033
453.968	1254
454.037	1137
454.087	633
454.107	424
454.168	684
454.177	717
454.247	425
454.249	454
454.316	982
454.330	1134
454.386	1754
454.411	2630
454.456	3959
454.492	7125
454.525	9941
454.574	5702
454.595	3878
454.655	1422
454.665	1020
454.734	1204
454.736	1228
454.804	1852
454.817	3284
454.873	9020
454.898	10522
454.943	13070
454.979	8015
455.013	3463
455.060	1804
455.082	1158
455.141	1978
455.152	2116
455.221	5875
455.222	6009
455.291	15160
455.303	14488
455.360	11171
455.384	15346
455.430	22150
455.465	18247
455.499	14580
455.546	11442
455.569	9971
455.627	7978
455.638	7660
455.707	2273
455.708	2270
455.777	756
455.789	875
455.846	1536
455.869	1098
455.916	120
455.950	554
455.985	966
456.031	861
456.054	827
456.112	727
456.124	731
456.193	73
456.193	63
456.262	895
456.274	897
456.332	873
456.355	892
456.401	767
456.436	709
456.470	698
456.516	304
456.540	109
456.597	-58
456.609	-101
456.678	621
456.678	619
456.747	273
456.759	226
456.817	-26
456.840	-59
456.886	-223
456.920	5
456.955	369
457.001	584
457.024	564
457.082	289
457.093	288
457.162	1281
457.163	1287
457.232	759
457.243	854
457.301	1089
457.324	659
457.370	-18
457.405	354
457.439	729
457.485	477
457.508	289
457.566	581
457.577	687
457.646	968
457.647	973
457.715	456
457.727	449
457.784	648
457.808	773
457.853	1080
457.889	1260
457.922	1227
457.969	1716
457.991	1927
458.050	1408
458.060	1367
458.129	2425
458.130	2428
458.198	1806
458.211	1671
458.267	992
458.292	868
458.336	759
458.372	604
458.405	669
458.453	927
458.474	1021
458.533	1928
458.543	2108
458.611	2637
458.614	2696
458.680	2866
458.694	2419
458.749	935
458.775	805
458.818	772
458.855	820
458.887	835
458.936	793
458.955	750
459.016	244
459.024	261
459.093	863
459.097	909
459.162	1299
459.177	1396
459.230	1603
459.257	1442
459.299	1216
459.338	1139
459.368	1205
459.418	1910
459.437	1899
459.499	1775
459.505	1862
459.574	1248
459.579	1269
459.643	640
459.659	458
459.711	565
459.740	849
459.780	1095
459.820	1479
459.849	1664
459.900	921
459.917	720
459.981	1628
459.986	1663
460.054	885
460.061	853
460.123	948
460.141	1053
460.191	1846
460.222	2172
460.260	2117
460.302	2371
460.328	2373
460.382	2093
460.397	2067
460.462	1267
460.465	1267
460.534	2131
460.543	2208
460.602	4141
460.623	5108
460.671	8600
460.703	12377
460.739	13593
460.783	14760
460.808	13965
460.864	4298
460.876	3102
460.944	1581
460.945	1567
461.013	1444
461.024	1395
461.081	1121
461.104	1322
461.150	1459
461.184	1528
461.218	1638
461.264	983
461.286	806
461.345	1279
461.355	1355
461.423	1614
461.425	1613
461.491	1066
461.505	997
461.559	1995
461.585	2532
461.628	4925
461.665	7486
461.696	8913
461.745	12748
461.764	11940
461.825	5072
461.832	4819
461.901	1728
461.905	1659
461.969	1435
461.985	1522
462.037	1636
462.065	1541
462.105	1792
462.145	2165
462.173	2990
462.225	4483
462.241	4856
462.305	7059
462.310	6957
462.378	5830
462.385	5402
462.446	2913
462.465	2286
462.514	1766
462.545	1885
462.582	2123
462.625	2312
462.650	2123
462.705	1697
462.718	1738
462.785	1757
462.786	1766
462.854	2835
462.865	2899
462.922	3586
462.945	4254
462.990	3817
463.025	2716
463.058	2300
463.104	1753
463.126	1364
463.184	807
463.194	982
463.262	2118
463.264	2152
463.330	1547
463.344	1489
463.398	2034
463.424	2117
463.466	1828
463.504	1881
463.533	2159
463.583	2282
463.601	2367
463.663	2727
463.669	2737
463.737	2963
463.743	2987
463.805	4973
463.823	5459
463.873	8114
463.903	10170
463.940	11190
463.982	12584
464.008	10872
464.062	5699
464.076	5247
464.142	2864
464.144	2833
464.211	2136
464.221	2092
464.279	1861
464.301	1728
464.347	1882
464.381	2118
464.414	2446
464.461	2894
464.482	3313
464.540	4598
464.550	4466
464.617	3125
464.620	3084
464.685	3681
464.699	3721
464.753	4006
464.779	4285
464.820	4773
464.859	5350
464.888	5290
464.938	4882
464.956	4921
465.018	5096
465.023	5044
465.091	4142
465.098	4063
465.158	4375
465.177	4481
465.226	4573
465.257	4667
465.293	4844
465.336	4877
465.361	5056
465.416	5578
465.428	5838
465.495	7231
465.496	7260
465.563	10543
465.575	11132
465.631	14646
465.654	16378
465.698	12001
465.734	7634
465.765	6848
465.813	5515
465.833	5095
465.893	4441
465.900	4497
465.968	4964
465.972	4987
466.035	4393
466.052	4233
466.102	4906
466.131	5305
466.170	5780
466.210	6214
466.237	6228
466.290	6296
466.304	6368
466.369	6583
466.372	6626
466.439	7745
466.449	7895
466.506	7518
466.528	7366
466.573	8677
466.607	9612
466.641	12935
466.687	17613
466.708	19554
466.766	24989
466.775	23708
466.842	13816
466.845	13321
466.909	10321
466.925	9660
466.977	8415
467.004	7777
467.044	8325
467.083	8870
467.111	9150
467.163	9633
467.178	9912
467.242	11068
467.245	10987
467.312	9084
467.321	8827
467.379	8859
467.400	8850
467.446	8923
467.480	8960
467.559	8746
467.638	6244
467.717	6978
467.796	7114
467.875	7445
467.955	7069
468.034	9225
468.113	17854
468.192	27779
468.271	10496
468.350	6266
468.429	5190
468.508	5180
468.588	5141
468.667	4782
468.746	4770
468.825	5846
468.904	5415
468.983	6085
469.062	8099
469.141	10649
469.220	5210
469.299	4680
469.378	4692
469.456	6237
469.535	6155
469.614	5972
469.693	5658
469.772	6198
469.851	8538
469.930	7637
470.009	4210
470.088	5027
470.166	3962
470.245	5551
470.324	6422
470.403	5335
470.482	4523
470.560	5570
470.639	5062
470.718	5796
470.797	4152
470.875	4659
470.954	6552
471.033	8156
471.111	4526
471.190	3788
471.269	3792
471.347	3355
471.426	3396
471.505	4874
471.583	5625
471.662	5080
471.740	4259
471.819	3466
471.898	4162
471.976	3662
472.055	3582
472.133	4124
472.212	5917
472.290	6189
472.369	4150
472.447	3470
472.526	3569
472.604	3786
472.683	4357
472.761	4075
472.839	3764
472.918	3921
472.996	3243
473.075	5362
473.153	4645
473.231	2839
473.310	3001
473.388	4649
473.466	4472
473.545	4200
473.623	5835
473.701	5990
473.780	4205
473.858	3407
473.936	4652
474.014	3938
474.093	4279
474.171	5068
474.249	7871
474.327	6789
474.405	3270
474.484	3585
474.562	3151
474.640	3775
474.718	4111
474.796	5393
474.874	4541
474.952	4839
475.030	4676
475.108	5221
475.187	5290
475.265	6606
475.343	6035
475.421	6047
475.499	4772
475.577	4315
475.655	4877
475.733	9438
475.811	15991
475.889	15283
475.966	12328
476.044	3987
476.122	3789
476.200	4647
476.278	4097
476.356	3550
476.434	3879
476.512	3925
476.590	4291
476.667	5529
476.745	3126
476.823	3567
476.901	3542
476.979	3553
477.056	3457
477.134	3936
477.212	3203
477.290	3141
477.367	2731
477.445	3491
477.523	2541
477.601	2373
477.678	3901
477.756	3933
477.834	4371
477.911	2656
477.989	2915
478.066	1738
478.144	3159
478.222	3489
478.299	5386
478.377	4167
478.454	3004
478.532	2777
478.609	2084
478.687	3926
478.764	1735
478.842	2755
478.919	2869
478.997	2811
479.074	2618
479.152	3179
479.229	4571
479.307	3245
479.384	2673
479.461	2213
479.539	2687
479.616	3916
479.694	2453
479.771	3000
479.848	3046
479.926	3825
480.003	5775
480.080	3251
480.157	2476
480.235	3282
480.312	2698
480.389	3005
480.467	4261
480.544	7010
480.621	3882
480.698	3701
480.775	3570
480.853	3877
480.930	2991
481.007	3180
481.084	3971
481.161	3599
481.238	3519
481.315	2832
481.392	2613
481.470	2846
481.547	2307
481.624	2871
481.701	2008
481.778	2372
481.855	2774
481.932	4716
482.009	8028
482.086	6526
482.163	2778
482.240	2777
482.317	3910
482.393	5175
482.470	2813
482.547	2450
482.624	2495
482.701	2707
482.778	2881
482.855	2839
482.932	2102
483.009	1816
483.085	2447
483.162	3730
483.239	3430
483.316	2171
483.393	2123
483.469	1806
483.546	1422
483.623	4221
483.699	2115
483.776	2265
483.853	2769
483.930	4930
484.006	11781
484.083	25160
484.160	16051
484.236	20833
484.313	17925
484.389	12543
484.466	10724
484.543	10347
484.619	9168
484.696	10570
484.772	10115
484.849	11339
484.925	9669
485.002	9895
485.078	10652
485.155	10445
485.231	9222
485.308	9239
485.384	8030
485.461	9882
485.537	14615
485.614	20598
485.690	10897
485.766	8836
485.843	8626
485.919	11589
485.995	11724
486.072	8375
486.148	7482
486.224	8235
486.301	7356
486.377	9395
486.453	9331
486.530	9182
486.606	11396
486.682	14733
486.758	14680
486.835	17741
486.911	13286
486.987	19532
487.063	20598
487.139	22829
487.215	18049
487.292	10861
487.368	9054
487.444	9760
487.520	10601
487.596	10331
487.672	9123
487.748	11306
487.824	14796
487.900	11184
487.976	7648
488.052	8468
488.128	11023
488.204	9905
488.280	8114
488.356	9311
488.432	15987
488.508	26470
488.584	13460
488.660	7579
488.736	6994
488.812	6954
488.888	9886
488.964	11944
489.039	18468
489.115	30292
489.191	24007
489.267	9420
489.343	8146
489.418	7192
489.494	6074
489.570	5536
489.646	6785
489.722	7399
489.797	6234
489.873	8576
489.949	18795
490.024	20953
490.100	7491
490.176	6943
490.251	7208
490.327	9403
490.403	6619
490.478	6233
490.554	4742
490.629	5231
490.705	5131
490.781	5109
490.856	5150
490.932	6857
491.007	5727
491.083	7320
491.158	5771
491.234	6793
491.309	13938
491.385	18470
491.460	7079
491.536	6870
491.611	5683
491.686	6178
491.762	7768
491.837	12191
491.913	21960
491.988	27429
492.063	40313
492.139	16408
492.214	9418
492.289	5957
492.365	4261
492.440	5634
492.515	4864
492.590	5733
492.666	4789
492.741	4877
492.816	8275
492.891	6909
492.967	4923
493.042	4808
493.117	4335
493.192	4887
493.267	7884
493.342	25004
493.418	45713
493.493	11303
493.568	4451
493.643	3784
493.718	4709
493.793	6423
493.868	8754
493.943	5795
494.018	4670
494.093	4153
494.168	4134
494.243	4411
494.318	3964
494.393	3964
494.468	4575
494.543	4289
494.618	4605
494.693	2928
494.768	3927
494.842	4497
494.917	3197
494.992	3794
495.067	3173
495.142	3814
495.217	4528
495.292	3822
495.366	5013
495.441	5875
495.516	7419
495.591	9101
495.665	20012
495.740	61684
495.815	40298
495.890	8454
495.964	4250
496.039	7133
496.114	5023
496.188	6122
496.263	6500
496.338	6400
496.412	5755
496.487	7873
496.561	8236
496.636	8886
496.710	7763
496.785	7690
496.860	9301
496.934	9124
497.009	8646
497.083	8750
497.158	9522
497.232	10875
497.307	12638
497.381	11734
497.455	13490
497.530	17417
497.604	15315
497.679	16392
497.753	22198
497.827	29189
497.902	29668
497.976	32634
498.050	41752
498.125	129036
498.199	186255
498.273	50970
498.348	35737
498.422	31829
498.496	28512
498.570	25780
498.645	22539
498.719	20576
498.793	20133
498.867	23622
498.941	26607
499.016	46235
499.090	144550
499.164	89320
499.238	13564
499.312	11405
499.386	11026
499.460	10503
499.534	9579
499.609	10265
499.683	13072
499.757	14743
499.831	18960
499.905	79363
499.979	114178
500.053	21267
500.127	14909
500.201	11556
500.275	7087
500.349	7385
500.422	7164
500.496	10706
500.570	16468
500.644	41273
500.718	100059
500.792	40460
500.866	7490
500.940	7214
501.013	7127
501.087	6952
501.161	10181
501.235	13738
501.309	22928
501.382	72107
501.456	94398
501.530	19018
501.603	26548
501.677	16972
501.751	4465
501.825	7071
501.898	8179
501.972	29605
502.046	30167
502.119	6936
502.193	11190
502.266	33364
502.340	24944
502.413	12289
502.487	30288
502.561	21150
502.634	8326
502.708	5683
502.781	3506
502.855	3836
502.928	1761
503.002	2583
503.075	2739
503.149	2783
503.222	3788
503.295	4229
503.369	4996
503.442	6676
503.516	15928
503.589	56705
503.662	51799
503.736	14378
503.809	23748
503.882	27108
503.956	26193
504.029	36932
504.102	10305
504.175	8389
504.249	4334
504.322	4530
504.395	4591
504.468	2625
504.542	3045
504.615	1916
504.688	2648
504.761	1487
504.834	3142
504.907	3805
504.980	6268
505.053	3847
505.127	2870
505.200	6616
505.273	4902
505.346	3763
505.419	2352
505.492	3156
505.565	1322
505.638	2375
505.711	1296
505.784	1387
505.857	1437
505.930	3538
506.003	1861
506.076	3992
506.149	3192
506.221	3574
506.294	4778
506.367	8247
506.440	39479
506.513	35264
506.586	6598
506.659	3764
506.731	2726
506.804	1623
506.877	3736
506.950	3412
507.022	2603
507.095	2283
507.168	4308
507.241	3366
507.313	1401
507.386	2046
507.459	2953
507.531	2851
507.604	1105
507.677	2778
507.749	1071
507.822	2108
507.894	5215
507.967	9402
508.040	5388
508.112	5051
508.185	4010
508.257	3496
508.330	5305
508.402	4730
508.475	3161
508.547	3677
508.620	4465
508.692	6202
508.765	4023
508.837	2408
508.909	2319
508.982	2361
509.054	3690
509.127	2987
509.199	2786
509.271	2622
509.344	1785
509.416	2810
509.488	2906
509.560	3010
509.633	2909
509.705	3859
509.777	3275
509.849	4817
509.922	3303
509.994	3511
510.066	3554
510.138	3509
510.210	7602
510.283	8806
510.355	6707
510.427	5704
510.499	4970
510.571	4325
510.643	4345
510.715	6661
510.787	5378
510.859	5031
510.931	5169
511.003	5735
511.076	7461
511.148	3502
511.219	3218
511.291	6392
511.363	8586
511.435	4893
511.507	2647
511.579	4005
511.651	4384
511.723	2989
511.795	2636
511.867	3499
511.939	3959
512.010	7141
512.082	8299
512.154	3073
512.226	4090
512.298	5336
512.369	8838
512.441	7827
512.513	5955
512.585	4394
512.656	5149
512.728	5292
512.800	4480
512.871	3612
512.943	3933
513.015	4180
513.086	3972
513.158	4406
513.230	4486
513.301	4561
513.373	7434
513.444	4802
513.516	3755
513.588	3582
513.659	3403
513.731	5007
513.802	3752
513.874	6850
513.945	13718
514.016	7552
514.088	4008
514.159	4547
514.231	4767
514.302	8132
514.374	7707
514.445	4894
514.516	9864
514.588	10175
514.659	5787
514.730	9252
514.802	9669
514.873	8218
514.944	12459
515.016	9355
515.087	8113
515.158	8415
515.229	13182
515.301	11267
515.372	16579
515.443	14742
515.514	9626
515.585	7347
515.656	7225
515.728	5428
515.799	5170
515.870	4217
515.941	4399
516.012	3810
516.083	5979
516.154	5481
516.225	7186
516.296	7243
516.367	5963
516.438	6052
516.509	7748
516.580	8965
516.651	17900
516.722	72317
516.793	62142
516.864	12487
516.935	10467
517.006	11181
517.077	12872
517.148	24227
517.219	64734
517.289	154993
517.360	69790
517.431	32319
517.502	7586
517.573	6199
517.643	5329
517.714	6333
517.785	6851
517.856	6289
517.926	7823
517.997	7945
518.068	9944
518.138	13223
518.209	16483
518.280	40812
518.350	192624
518.421	140082
518.492	17805
518.562	9100
518.633	6670
518.703	4993
518.774	6458
518.845	7520
518.915	9222
518.986	6306
519.056	7346
519.127	11362
519.197	16673
519.268	41340
519.338	45853
519.408	9491
519.479	8627
519.549	7971
519.620	4892
519.690	3863
519.760	4115
519.831	4317
519.901	4908
519.971	3680
520.042	3478
520.112	4291
520.182	3863
520.253	6623
520.323	4821
520.393	5593
520.463	12244
520.534	6663
520.604	15769
520.674	9269
520.744	5430
520.814	14619
520.885	19674
520.955	11825
521.025	49816
521.095	37967
521.165	5650
521.235	3689
521.305	3277
521.375	2324
521.445	3136
521.515	3602
521.585	5058
521.655	5636
521.725	4360
521.795	4322
521.865	2043
521.935	5055
522.005	5944
522.075	3053
522.145	3803
522.215	3524
522.285	5502
522.355	6517
522.424	13478
522.494	14372
522.564	8084
522.634	7966
522.704	27202
522.774	18562
522.843	4939
522.913	3425
522.983	4268
523.053	3214
523.122	2999
523.192	3483
523.262	11295
523.331	19171
523.401	4974
523.471	2416
523.540	2173
523.610	1957
523.680	1847
523.749	2787
523.819	2638
523.888	3147
523.958	2369
524.027	3143
524.097	3360
524.166	3217
524.236	1789
524.305	3939
524.375	2336
524.444	1456
524.514	3335
524.583	2806
524.653	2519
524.722	4098
524.791	2442
524.861	2695
524.930	2068
524.999	1930
525.069	3319
525.138	3040
525.207	3784
525.277	3807
525.346	2980
525.415	3581
525.484	1779
525.554	2760
525.623	2706
525.692	3049
525.761	2587
525.830	2200
525.900	2946
525.969	3266
526.038	3641
526.107	3295
526.176	9388
526.245	9560
526.314	7185
526.383	7555
526.452	7883
526.522	13537
526.591	20287
526.660	15899
526.729	8721
526.797	7903
526.867	12437
526.935	64150
527.004	81357
527.073	36581
527.142	5878
527.211	3571
527.280	2200
527.349	3917
527.418	1522
527.487	2730
527.555	1458
527.624	966
527.693	185
527.762	3188
527.831	831
527.899	2372
527.968	1982
528.037	615
528.106	2237
528.174	4319
528.243	4817
528.312	5979
528.380	8581
528.449	2986
528.518	2065
528.586	1005
528.655	1875
528.723	1209
528.792	1104
528.861	1382
528.929	910
528.998	2291
529.066	896
529.135	621
529.203	1632
529.272	95
529.340	1912
529.409	2996
529.477	1423
529.545	1933
529.614	3360
529.682	1344
529.751	3991
529.819	4641
529.887	3421
529.956	1028
530.024	2281
530.092	1333
530.161	2164
530.229	3305
530.297	1836
530.365	3064
530.434	1546
530.502	1232
530.570	1569
530.638	104
530.707	2576
530.775	2806
530.843	1646
530.911	1737
530.979	1083
531.047	1380
531.115	1655
531.183	1916
531.252	1471
531.320	1438
531.388	2002
531.456	2128
531.524	735
531.592	2599
531.660	3611
531.728	1871
531.796	468
531.864	1399
531.932	1806
532.000	1301
532.067	2034
532.135	3131
532.203	2929
532.271	2648
532.339	4163
532.407	11574
532.475	10778
532.542	5403
532.610	4339
532.678	4860
532.746	14942
532.814	61890
532.881	25551
532.949	4784
533.017	1828
533.084	2536
533.152	1498
533.220	2349
533.287	1962
533.355	2345
533.423	1580
533.490	1238
533.558	1566
533.625	1742
533.693	1461
533.761	2517
533.828	2605
533.896	2580
533.963	4755
534.031	7665
534.098	8414
534.166	6693
534.233	2608
534.300	3456
534.368	2910
534.435	2637
534.503	2927
534.570	3122
534.637	2031
534.705	2916
534.772	1795
534.840	2386
534.907	4426
534.974	7675
535.041	3082
535.109	3163
535.176	2474
535.243	2228
535.310	2048
535.378	1286
535.445	2127
535.512	1891
535.579	2191
535.646	2091
535.714	1976
535.781	3813
535.848	3118
535.915	3786
535.982	3294
536.049	3593
536.116	4631
536.183	2756
536.250	2868
536.317	2696
536.384	2793
536.451	4715
536.518	4461
536.585	1438
536.652	4848
536.719	5969
536.786	3858
536.853	3987
536.920	5342
536.987	8116
537.053	6828
537.120	22955
537.187	37298
537.254	5347
537.321	1956
537.388	3627
537.454	1278
537.521	1830
537.588	2002
537.654	3185
537.721	2338
537.788	3576
537.855	2546
537.921	2992
537.988	2240
538.055	2456
538.121	2562
538.188	1959
538.254	3989
538.321	6788
538.388	6532
538.454	2723
538.521	2512
538.587	2216
538.654	1473
538.720	1346
538.787	2582
538.853	1870
538.920	2970
538.986	3633
539.053	2766
539.119	3244
539.185	2169
539.252	3559
539.318	3870
539.385	4441
539.451	2921
539.517	4333
539.583	3729
539.650	6728
539.716	21660
539.782	11597
539.849	3142
539.915	3135
539.981	1845
540.047	3455
540.114	3621
540.180	4475
540.246	2281
540.312	3730
540.378	6851
540.444	9790
540.510	8149
540.576	23631
540.643	13561
540.709	2820
540.775	3023
540.841	2597
540.907	3997
540.973	7000
541.039	5499
541.105	5890
541.171	3048
541.237	1715
541.303	3035
541.369	3836
541.435	4313
541.500	7020
541.566	4471
541.632	2965
541.698	1219
541.764	3830
541.830	2387
541.896	2104
541.961	2856
542.027	2941
542.093	2772
542.159	3198
542.224	2623
542.290	4903
542.356	6680
542.421	9528
542.487	5029
542.553	3934
542.618	4445
542.684	3881
542.750	2752
542.815	3953
542.881	5207
542.947	16728
543.012	23870
543.078	3959
543.143	2194
543.209	3278
543.274	2099
543.340	4808
543.405	5725
543.471	14629
543.536	5551
543.602	3047
543.667	2043
543.732	4094
543.798	2083
543.863	3358
543.928	1689
543.994	1855
544.059	3058
544.124	2359
544.190	2499
544.255	2757
544.320	2235
544.386	2815
544.451	4540
544.516	4417
544.581	3937
544.646	9575
544.712	25661
544.777	8543
544.842	3740
544.907	4599
544.972	3606
545.037	3749
545.102	3903
545.168	3934
545.233	3955
545.298	5414
545.363	5184
545.428	5385
545.493	7773
545.558	17009
545.623	12603
545.688	4122
545.753	3987
545.818	3537
545.883	4254
545.947	3817
546.012	4415
546.077	4168
546.142	5001
546.207	4041
546.272	4380
546.337	5283
546.401	5518
546.466	3938
546.531	3101
546.596	4625
546.661	3831
546.725	4172
546.790	3217
546.855	3725
546.919	2710
546.984	3072
547.049	3407
547.113	4938
547.178	3721
547.243	4563
547.307	4869
547.372	4993
547.436	4909
547.501	4823
547.565	4297
547.630	4827
547.695	4929
547.759	5641
547.823	5484
547.888	4455
547.952	3141
548.017	4890
548.081	4156
548.146	6038
548.210	6487
548.274	3559
548.339	3385
548.403	4752
548.468	3119
548.532	3895
548.596	3272
548.660	3897
548.725	3918
548.789	4735
548.853	7029
548.917	4829
548.982	4725
549.046	7285
549.110	3995
549.174	4087
549.238	3514
549.303	3527
549.367	4271
549.431	3341
549.495	3366
549.559	3406
549.623	3526
549.687	4750
549.751	6886
549.815	5618
549.879	5761
549.943	3435
550.007	4431
550.071	3749
550.135	5768
550.199	4414
550.263	4453
550.327	6030
550.391	5905
550.455	6101
550.519	4859
550.582	4709
550.646	4788
550.710	6531
550.774	4633
550.838	4708
550.901	5028
550.965	6026
551.029	5020
551.093	6893
551.156	7895
551.220	12623
551.284	18170
551.347	9724
551.411	13858
551.475	25333
551.538	8622
551.602	5868
551.666	4455
551.729	4787
551.793	4904
551.856	4983
551.920	4788
551.983	4645
552.047	3736
552.110	5119
552.174	4429
552.237	4631
552.301	4074
552.364	4890
552.428	4137
552.491	3866
552.554	4276
552.618	4412
552.681	5548
552.745	4224
552.808	5702
552.871	9068
552.934	7645
552.998	4735
553.061	6187
553.124	5268
553.187	6077
553.251	5975
553.314	6910
553.377	6298
553.440	9946
553.503	21334
553.567	59587
553.630	22574
553.693	6732
553.756	5170
553.819	4789
553.882	4411
553.945	4483
554.008	4148
554.071	2899
554.134	5251
554.197	2543
554.260	3815
554.323	4938
554.386	4556
554.449	3926
554.512	5226
554.575	3829
554.638	4433
554.701	4675
554.764	4354
554.827	4376
554.889	3209
554.952	3488
555.015	2909
555.078	3505
555.141	5120
555.203	4024
555.266	3750
555.329	3596
555.391	4272
555.454	3959
555.517	4147
555.580	3646
555.642	3689
555.705	2566
555.768	3764
555.830	3760
555.893	3297
555.955	4554
556.018	4418
556.080	3592
556.143	3918
556.206	2186
556.268	3913
556.330	4363
556.393	4344
556.455	3411
556.518	5121
556.580	7078
556.643	4262
556.705	3941
556.767	3173
556.830	4164
556.892	4480
556.955	4931
557.017	5827
557.079	4476
557.142	3033
557.204	3198
557.266	7414
557.328	8153
557.391	3933
557.453	3736
557.515	3633
557.577	3941
557.639	5376
557.701	3620
557.764	3413
557.826	3777
557.888	4477
557.950	2677
558.012	3132
558.074	3353
558.136	5396
558.198	8503
558.260	7498
558.322	3851
558.384	4740
558.446	4421
558.508	4701
558.570	5758
558.632	8533
558.694	13929
558.756	10000
558.818	12991
558.880	42193
558.942	25719
559.003	10759
559.065	9210
559.127	4649
559.189	4756
559.251	5056
559.312	4669
559.374	8040
559.436	21393
559.498	21780
559.559	6352
559.621	5326
559.683	5968
559.744	6932
559.806	11760
559.868	21647
559.929	9421
559.991	6147
560.052	5639
560.114	9711
560.176	9679
560.237	7353
560.299	10688
560.360	6909
560.422	3882
560.483	4653
560.545	4830
560.606	4419
560.667	3689
560.729	4573
560.790	4684
560.852	4640
560.913	4327
560.974	3912
561.036	4193
561.097	4491
561.158	5203
561.220	5214
561.281	4120
561.342	5094
561.403	6263
561.465	5955
561.526	10091
561.587	17555
561.648	7106
561.709	3931
561.771	4776
561.832	4510
561.893	4826
561.954	3942
562.015	4593
562.076	4596
562.137	4468
562.198	4268
562.259	5589
562.320	4753
562.381	4644
562.442	6359
562.503	6350
562.564	5148
562.625	4790
562.686	5052
562.747	5686
562.808	6126
562.869	4556
562.930	5409
562.991	5824
563.051	5019
563.112	4876
563.173	5969
563.234	4764
563.294	4535
563.355	4588
563.416	5235
563.477	4867
563.537	5494
563.598	5210
563.659	5698
563.720	5157
563.780	5055
563.841	5510
563.901	6817
563.962	5308
564.023	5059
564.083	5723
564.144	5245
564.204	6303
564.265	5996
564.325	5783
564.386	9720
564.446	11988
564.507	6234
564.567	5260
564.628	5406
564.688	5884
564.749	6224
564.809	6285
564.869	7125
564.930	6738
564.990	6432
565.050	5530
565.111	7306
565.171	5531
565.231	6617
565.292	6498
565.352	6298
565.412	6359
565.472	6744
565.532	7005
565.593	8204
565.653	6633
565.713	7756
565.773	7663
565.833	7928
565.893	11341
565.953	8537
566.013	8615
566.074	9637
566.134	10266
566.194	12936
566.254	15941
566.314	13334
566.374	10732
566.434	10959
566.494	11892
566.554	12042
566.614	13137
566.673	14084
566.733	14065
566.793	15967
566.853	16668
566.913	17114
566.973	17608
567.033	18126
567.092	16856
567.152	16834
567.212	17062
567.272	18581
567.331	19200
567.391	19933
567.451	21928
567.511	22520
567.570	23117
567.630	20515
567.690	18059
567.749	19013
567.809	20617
567.868	24397
567.928	25637
567.988	30765
568.047	36352
568.107	42337
568.166	55183
568.226	77930
568.285	111464
568.345	117507
568.404	102845
568.464	92657
568.523	86993
568.582	85948
568.642	91561
568.701	103296
568.761	129740
568.820	181757
568.879	208383
568.939	182210
568.998	150626
569.057	121783
569.116	102029
569.176	84089
569.235	69841
569.294	60321
569.353	51516
569.413	45813
569.472	41915
569.531	35565
569.590	31620
569.649	29381
569.708	25380
569.767	24632
569.827	23599
569.886	21082
569.945	18863
570.004	17712
570.063	16469
570.122	15649
570.181	14994
570.240	14481
570.299	15074
570.358	14157
570.417	11854
570.475	11302
570.534	11381
570.593	11569
570.652	10632
570.711	10827
570.770	10347
570.829	10494
570.887	9540
570.946	9995
571.005	8456
571.064	8525
571.122	8387
571.181	9033
571.240	8438
571.299	7228
571.357	8406
571.416	8279
571.475	8109
571.533	9289
571.592	7658
571.650	7896
571.709	6154
571.768	6131
571.826	6543
571.885	7430
571.943	6059
572.002	6715
572.060	6511
572.119	5719
572.177	6362
572.236	6265
572.294	5755
572.352	6088
572.411	6041
572.469	6394
572.528	5846
572.586	6158
572.644	5560
572.703	7652
572.761	6808
572.819	6194
572.877	5284
572.936	5492
572.994	5490
573.052	5264
573.110	5396
573.169	6365
573.227	5515
573.285	5521
573.343	4458
573.401	5451
573.459	5240
573.517	4813
573.576	5363
573.634	5663
573.692	5229
573.750	5864
573.808	4571
573.866	5854
573.924	6767
573.982	6869
574.040	5391
574.098	5485
574.155	5501
574.213	4267
574.271	4945
574.329	4637
574.387	4645
574.445	4272
574.503	5382
574.560	4896
574.618	4544
574.676	4067
574.734	5124
574.792	4366
574.849	4803
574.907	4638
574.965	5351
575.022	4892
575.080	4729
575.138	5502
575.195	5504
575.253	4803
575.311	5434
575.368	5775
575.426	4843
575.483	5125
575.541	5121
575.598	4415
575.656	4353
575.713	4224
575.771	5108
575.828	5056
575.886	4471
575.943	6210
576.001	5281
576.058	5157
576.115	5023
576.173	5825
576.230	6604
576.287	6634
576.345	6802
576.402	6220
576.459	5809
576.517	5723
576.574	5809
576.631	5672
576.688	5827
576.746	5516
576.803	4723
576.860	5727
576.917	5617
576.974	5302
577.031	4676
577.089	4940
577.146	5808
577.203	5559
577.260	6334
577.317	6257
577.374	6192
577.431	6539
577.488	6404
577.545	6086
577.602	6566
577.659	6389
577.716	6032
577.773	6386
577.830	7048
577.886	6390
577.943	6235
578.000	6086
578.057	7244
578.114	7511
578.171	7712
578.227	8692
578.284	9230
578.341	8730
578.398	8189
578.454	7552
578.511	7235
578.568	8224
578.625	7390
578.681	6326
578.738	6904
578.794	6725
578.851	6158
578.908	6660
578.964	6149
579.021	7447
579.077	6788
579.134	6963
579.190	7208
579.247	7201
579.303	5637
579.360	6915
579.416	6659
579.473	7121
579.529	6342
579.586	6491
579.642	6952
579.698	7125
579.755	7536
579.811	7358
579.867	7477
579.924	8326
579.980	6453
580.036	9784
580.093	10149
580.149	12011
580.205	14089
580.261	12736
580.317	10549
580.374	10469
580.430	9712
580.486	9904
580.542	8509
580.598	9210
580.619	8781
580.654	8025
580.692	8356
580.710	8509
580.765	8178
580.767	8155
580.823	8161
580.838	7945
580.879	7316
580.911	7832
580.935	8198
580.984	7746
580.991	7671
581.047	9255
581.057	9197
581.103	8846
581.130	9202
581.159	9601
581.203	10218
581.215	10332
581.270	10566
581.276	10498
581.326	9750
581.349	9592
581.382	9281
581.422	10141
581.438	10501
581.494	10046
581.494	10064
581.550	10153
581.567	10231
581.606	10453
581.640	10302
581.661	10144
581.713	10763
581.717	10806
581.773	10591
581.786	10780
581.829	11297
581.859	10933
581.885	10653
581.932	11427
581.940	11542
581.996	11387
582.004	11620
582.052	12627
582.077	12318
582.107	12072
582.150	12128
582.163	12106
582.219	12244
582.223	12262
582.274	12306
582.296	12521
582.330	12847
582.368	13657
582.386	14021
582.441	14176
582.441	14164
582.497	13751
582.514	13739
582.552	13757
582.587	14579
582.608	15021
582.659	14819
582.663	14793
582.719	15565
582.732	15723
582.774	16142
582.805	15918
582.830	15798
582.877	16192
582.885	16265
582.941	16770
582.950	16918
582.996	17536
583.023	17992
583.052	18581
583.095	18606
583.107	18647
583.162	21149
583.168	21337
583.218	22790
583.240	22888
583.273	22800
583.313	21901
583.328	21562
583.384	22852
583.385	22824
583.439	21965
583.458	22060
583.494	22300
583.531	22617
583.549	22832
583.603	23664
583.605	23695
583.660	23262
583.676	23419
583.715	23814
583.748	24235
583.770	24737
583.820	26718
583.825	26893
583.881	25945
583.893	26091
583.936	26693
583.965	26934
583.991	27208
584.038	28113
584.046	28314
584.101	28643
584.110	28749
584.156	29429
584.183	29952
584.211	30375
584.255	31220
584.266	31528
584.321	32402
584.328	32434
584.376	33304
584.400	33511
584.431	33742
584.472	34966
584.486	35363
584.541	36056
584.545	36047
584.596	36994
584.617	37217
584.651	37994
584.689	39398
584.706	39890
584.761	40651
584.762	40604
584.816	42614
584.834	43133
584.871	43645
584.906	44112
584.926	44804
584.978	46038
584.980	46162
585.035	47732
585.051	48291
585.090	50059
585.123	51286
585.145	52062
585.195	52940
585.200	53223
585.254	55549
585.267	56143
585.309	58459
585.340	60302
585.364	61748
585.412	63419
585.419	63624
585.473	63566
585.484	63486
585.528	65338
585.556	66860
585.583	68892
585.628	71949
585.637	73400
585.692	82125
585.700	83635
585.747	92811
585.772	95617
585.801	92326
585.845	84941
585.856	84265
585.910	83446
585.917	83072
585.965	84083
585.989	84356
586.019	86205
586.061	88634
586.074	89703
586.128	94030
586.133	94063
586.183	96321
586.205	97417
586.237	100347
586.277	103048
586.292	104333
586.346	108077
586.349	107987
586.401	112108
586.421	113539
586.455	116995
586.493	120088
586.509	123079
586.564	132943
586.565	132825
586.618	150062
586.637	155546
586.672	155987
586.709	152572
586.727	151884
586.781	150070
586.781	150521
586.835	157166
586.853	158797
586.889	164718
586.925	169330
586.944	172880
586.996	182175
586.998	182955
587.052	190319
587.068	192167
587.106	200811
587.140	207081
587.161	211643
587.212	222329
587.215	223690
587.269	236530
587.284	239515
587.323	249968
587.356	257216
587.377	264227
587.427	278696
587.431	280682
587.485	295940
587.499	299382
587.539	317265
587.571	329593
587.593	339837
587.643	358994
587.648	362467
587.702	389916
587.715	395356
587.755	419241
587.786	434566
587.810	450177
587.858	480226
587.864	485792
587.917	525774
587.930	533237
587.971	572298
588.001	598474
588.025	625297
588.073	674599
588.079	684094
588.133	749390
588.145	761541
588.187	821821
588.217	860889
588.241	904493
588.288	982971
588.295	998650
588.348	1104944
588.360	1124277
588.402	1220271
588.431	1281786
588.456	1345718
588.503	1458407
588.510	1479366
588.564	1613125
588.575	1636185
588.617	1733807
588.646	1791466
588.671	1826523
588.718	1878839
588.725	1879963
588.778	1841029
588.789	1826732
588.832	1682338
588.861	1568788
588.886	1431851
588.932	1139826
588.939	1116432
588.993	908590
589.004	879785
589.047	1152797
589.075	1336631
589.100	1517462
589.147	1820040
589.154	1848472
589.207	2026835
589.218	2057541
589.261	2092742
589.290	2109725
589.314	2110710
589.361	2100846
589.368	2098090
589.421	2026049
589.433	2004566
589.475	1802009
589.504	1644390
589.528	1479706
589.576	1118778
589.582	1135146
589.635	1303021
589.647	1340097
589.689	1686443
589.718	1908686
589.742	1972942
589.790	2075084
589.795	2074444
589.849	2000671
589.861	1976482
589.902	1866485
589.932	1774756
589.955	1709693
590.004	1553257
590.009	1546825
590.062	1413232
590.075	1374953
590.115	1289132
590.146	1214081
590.168	1179198
590.218	1086217
590.222	1082781
590.275	980419
590.289	949846
590.328	891771
590.360	837751
590.381	816669
590.431	755244
590.435	755211
590.488	701458
590.503	683377
590.541	657265
590.574	629460
590.594	617931
590.645	579863
590.647	581146
590.700	548314
590.716	536167
590.753	517933
590.787	496675
590.806	490471
590.859	465513
590.859	467161
590.912	442072
590.930	432104
590.965	422183
591.001	408543
591.018	404882
591.071	388150
591.072	386251
591.124	372711
591.143	365547
591.177	358292
591.214	347155
591.230	345064
591.283	333128
591.285	331141
591.336	321332
591.356	315404
591.389	310252
591.427	301023
591.442	299760
591.495	290030
591.498	287988
591.547	281514
591.569	276813
591.600	272354
591.640	263508
591.653	263404
591.706	257625
591.711	255846
591.759	251870
591.782	248072
591.811	248513
591.853	246298
591.864	245250
591.917	234252
591.924	231559
591.969	227247
591.995	223146
592.022	221973
592.066	217188
592.075	217976
592.127	216603
592.137	215341
592.180	215518
592.208	213963
592.233	211040
592.279	202509
592.285	202650
592.338	195823
592.350	193346
592.390	190821
592.421	187337
592.443	187702
592.491	185663
592.495	186204
592.548	181515
592.562	179363
592.600	177962
592.633	175175
592.653	174937
592.704	171171
592.705	172069
592.775	167026
592.846	164863
592.916	160750
592.987	157024
593.058	154763
593.128	148983
593.199	144075
593.270	142030
593.341	137081
593.411	133900
593.482	132313
593.553	130226
593.623	126307
593.694	124303
593.764	122690
593.835	121189
593.906	117600
593.976	114319
594.047	114886
594.117	115926
594.188	118722
594.258	107850
594.329	103154
594.399	102500
594.470	101583
594.540	99041
594.611	96952
594.681	95808
594.751	95713
594.822	95332
594.892	93736
594.963	94356
595.033	91691
595.103	91264
595.174	91479
595.244	98917
595.314	114190
595.384	91835
595.455	84017
595.525	82896
595.595	81041
595.665	83039
595.736	81323
595.806	79803
595.876	77520
595.946	76149
596.016	75171
596.087	74424
596.157	75064
596.227	73526
596.297	73874
596.367	74107
596.437	74624
596.507	81670
596.577	94887
596.647	76279
596.717	69781
596.787	68481
596.857	69612
596.927	66981
596.997	66280
597.067	68547
597.137	71186
597.207	70485
597.277	66673
597.347	64013
597.417	66227
597.487	63551
597.557	64956
597.626	63073
597.696	64205
597.766	70376
597.836	80616
597.906	69968
597.975	60640
598.045	60615
598.115	58534
598.185	58082
598.254	60029
598.324	60349
598.394	59269
598.464	58657
598.533	58059
598.603	56534
598.672	57679
598.742	57344
598.812	54596
598.881	56132
598.951	56146
599.020	54001
599.090	53655
599.159	54129
599.229	53338
599.299	51131
599.368	52515
599.437	51766
599.507	51534
599.576	54004
599.646	55258
599.715	57799
599.785	51542
599.854	52828
599.924	55513
599.993	54805
600.062	50108
600.132	51002
600.201	50136
600.270	52008
600.340	51116
600.409	49908
600.478	48764
600.547	49372
600.617	48779
600.686	50162
600.755	48681
600.824	48545
600.894	48936
600.963	46407
601.032	45877
601.101	46976
601.170	45778
601.239	46508
601.308	47082
601.378	46719
601.447	44836
601.516	44766
601.585	45288
601.654	45752
601.723	46351
601.792	45543
601.861	47824
601.930	51593
601.999	50556
602.068	44499
602.137	45415
602.206	46719
602.275	45005
602.343	46157
602.412	47106
602.481	45265
602.550	43312
602.619	43639
602.688	43967
602.756	43626
602.825	42046
602.894	43050
602.963	42640
603.032	42541
603.100	41443
603.169	41641
603.238	42305
603.307	41484
603.375	41318
603.444	41663
603.513	41679
603.581	40982
603.650	40974
603.719	40192
603.787	40112
603.856	39599
603.924	39835
603.993	40787
604.061	39539
604.130	40084
604.198	39404
604.267	39247
604.335	39391
604.404	38602
604.472	39526
604.541	39738
604.609	39563
604.678	38638
604.746	40340
604.815	38620
604.883	40101
604.951	39075
605.020	38789
605.088	39351
605.156	39263
605.225	38470
605.293	38056
605.361	39066
605.429	38255
605.498	38950
605.566	38610
605.634	39434
605.702	39065
605.771	39069
605.839	38667
605.907	38389
605.975	38193
606.043	37710
606.111	38187
606.180	40137
606.248	43650
606.316	50968
606.384	41509
606.452	43466
606.520	43407
606.588	40681
606.656	34226
606.724	35682
606.792	34141
606.860	33062
606.928	31933
606.996	32439
607.064	31824
607.132	31928
607.200	31519
607.267	33146
607.335	31809
607.403	32179
607.471	31816
607.539	31448
607.607	31520
607.674	30263
607.742	32016
607.810	32346
607.878	30932
607.946	30743
608.013	31291
608.081	33149
608.149	31780
608.216	31384
608.284	32556
608.352	31557
608.419	33393
608.487	41101
608.555	38588
608.622	31192
608.690	30424
608.757	31773
608.825	31575
608.893	32857
608.960	35770
609.028	40806
609.095	44085
609.163	36432
609.230	32176
609.298	31797
609.365	30073
609.432	30770
609.500	30683
609.567	33704
609.635	34059
609.702	34728
609.769	35435
609.837	37892
609.904	36527
609.971	34974
610.039	39823
610.106	48436
610.173	72633
610.241	137496
610.308	201101
610.375	149908
610.442	64273
610.509	41664
610.577	36014
610.644	33601
610.711	33054
610.778	32557
610.845	32015
610.912	32751
610.980	36624
611.047	49500
611.114	46069
611.181	33390
611.248	30737
611.315	30694
611.382	29857
611.449	30124
611.516	31099
611.583	31430
611.650	30625
611.717	30946
611.784	31453
611.851	32476
611.918	34777
611.984	37502
612.051	44332
612.118	69581
612.185	146050
612.252	177100
612.319	57572
612.386	37452
612.452	33679
612.519	35052
612.586	42852
612.653	41753
612.719	31809
612.786	30742
612.853	29985
612.919	28410
612.986	30227
613.053	27874
613.120	27947
613.186	28476
613.253	29067
613.319	28158
613.386	28255
613.453	29778
613.519	30696
613.586	33905
613.652	44276
613.719	40097
613.785	38023
613.852	30267
613.918	28507
613.985	30669
614.051	37016
614.118	58335
614.184	80107
614.250	37467
614.317	29954
614.383	28746
614.449	27329
614.516	28526
614.582	30057
614.648	29970
614.715	28661
614.781	29774
614.847	30319
614.914	33658
614.980	33572
615.046	34371
615.112	36012
615.179	40436
615.245	50928
615.311	74442
615.377	137204
615.443	227337
615.509	174557
615.575	97919
615.642	67156
615.708	56984
615.774	57079
615.840	65196
615.906	87960
615.972	142607
616.038	283393
616.104	465782
616.170	440245
616.236	404602
616.302	153885
616.368	81910
616.434	63198
616.500	54077
616.565	49176
616.631	47571
616.697	44969
616.763	42507
616.829	44962
616.895	56278
616.961	67453
617.026	52456
617.092	37741
617.158	35980
617.224	34214
617.289	33353
617.355	32890
617.421	33695
617.487	34131
617.552	32567
617.618	30252
617.684	30620
617.749	32637
617.815	29484
617.880	29122
617.946	29289
618.012	30786
618.077	30698
618.143	29820
618.208	30676
618.274	31027
618.339	31256
618.405	30536
618.470	30455
618.536	30627
618.601	34522
618.667	34440
618.732	31965
618.798	30894
618.863	30778
618.928	30524
618.994	32136
619.059	33743
619.124	39558
619.190	38304
619.255	30391
619.320	31338
619.386	30753
619.451	29078
619.516	29937
619.581	30115
619.647	30341
619.712	29037
619.777	30907
619.842	30994
619.907	31979
619.972	30337
620.038	31807
620.103	30067
620.168	28883
620.233	29774
620.298	29087
620.363	28223
620.428	28975
620.493	29711
620.558	29319
620.623	28950
620.688	29189
620.753	27940
620.818	28140
620.883	28555
620.948	28068
621.013	29306
621.078	30272
621.143	29114
621.207	33013
621.272	30793
621.337	33505
621.402	34032
621.467	39778
621.532	45456
621.596	40163
621.661	35463
621.726	33261
621.791	32902
621.855	34036
621.920	35770
621.985	35749
622.049	38647
622.114	39427
622.179	36813
622.243	38401
622.308	38140
622.373	36637
622.437	37452
622.502	35290
622.566	35966
622.631	34916
622.695	36115
622.760	34990
622.824	35833
622.889	35600
622.953	38099
623.018	44036
623.082	51817
623.147	37342
623.211	34783
623.276	35470
623.340	35195
623.404	33738
623.469	33003
623.533	33042
623.597	32264
623.662	33033
623.726	31605
623.790	32619
623.854	32579
623.919	34305
623.983	32133
624.047	33605
624.111	31161
624.176	32155
624.240	34405
624.304	39402
624.368	33957
624.432	32420
624.496	31571
624.560	33714
624.625	35401
624.689	33762
624.753	31751
624.817	31590
624.881	32165
624.945	31620
625.009	30718
625.073	30873
625.137	32457
625.201	36296
625.265	40088
625.329	32527
625.393	32158
625.456	32371
625.520	31926
625.584	35057
625.648	39520
625.712	54240
625.776	108124
625.839	150998
625.903	88625
625.967	37544
626.031	48295
626.095	85942
626.158	48213
626.222	30134
626.286	27987
626.349	27040
626.413	27522
626.477	28859
626.540	27443
626.604	27117
626.668	27691
626.731	26537
626.795	27068
626.858	29154
626.922	27099
626.986	26612
627.049	26479
627.113	26013
627.176	25477
627.240	25871
627.303	25237
627.366	26729
627.430	27037
627.493	26048
627.557	26015
627.620	27870
627.684	25421
627.747	25774
627.810	24610
627.874	25359
627.937	25447
628.000	27202
628.064	26336
628.127	24111
628.190	25341
628.253	25226
628.317	23952
628.380	24879
628.443	23871
628.506	26475
628.569	23873
628.632	23821
628.696	23674
628.759	23155
628.822	22334
628.885	22906
628.948	23056
629.011	22646
629.074	22277
629.137	23074
629.200	23892
629.263	25145
629.326	21671
629.389	22565
629.452	22063
629.515	24047
629.578	22823
629.641	24457
629.704	23437
629.767	24497
629.830	22121
629.892	22722
629.955	21320
630.018	23603
630.081	23215
630.144	25839
630.207	24023
630.269	24061
630.332	24979
630.395	24275
630.458	20799
630.520	21637
630.583	22158
630.646	20019
630.708	19125
630.771	19978
630.834	20466
630.896	20257
630.959	19666
631.021	19915
631.084	20252
631.146	21535
631.209	24514
631.272	20852
631.334	19883
631.397	19211
631.459	19307
631.522	19802
631.584	19436
631.646	19943
631.709	19690
631.771	23371
631.834	22554
631.896	19547
631.958	18191
632.021	19925
632.083	18506
632.145	19999
632.208	19511
632.270	20029
632.332	18468
632.395	17902
632.457	20235
632.519	19340
632.581	18719
632.643	17511
632.706	18690
632.768	18360
632.830	17723
632.892	16632
632.954	17565
633.016	19047
633.078	17044
633.141	17482
633.203	17851
633.265	17786
633.327	18004
633.389	17608
633.451	18627
633.513	21475
633.575	22112
633.637	20602
633.698	19871
633.760	17206
633.822	17540
633.884	17451
633.946	17101
634.008	18185
634.070	17872
634.132	21066
634.193	20346
634.255	17437
634.317	16447
634.379	17295
634.441	16388
634.502	18000
634.564	16772
634.626	16209
634.687	17150
634.749	17958
634.811	17041
634.873	15880
634.934	15736
634.996	15978
635.057	16040
635.119	16103
635.181	15882
635.242	15741
635.304	14263
635.365	16774
635.427	16185
635.488	15838
635.550	15135
635.611	15072
635.673	15197
635.734	17508
635.796	15925
635.857	16576
635.918	15443
635.980	16854
636.041	16076
636.102	16521
636.164	16500
636.225	16107
636.286	15170
636.348	17046
636.409	15550
636.470	14610
636.531	15638
636.593	16922
636.654	18034
636.715	14323
636.776	15010
636.838	14594
636.899	14951
636.960	14618
637.021	13771
637.082	14076
637.143	14607
637.204	14692
637.265	13887
637.326	13826
637.387	13886
637.448	13547
637.509	14188
637.570	14282
637.631	14285
637.692	13135
637.753	13209
637.814	13411
637.875	13776
637.936	13853
637.997	13582
638.058	14266
638.119	14668
638.179	13017
638.240	12792
638.301	14035
638.362	12515
638.423	13676
638.483	13901
638.544	13046
638.605	12947
638.666	13526
638.726	13864
638.787	14255
638.848	13126
638.908	12687
638.969	13288
639.030	12752
639.090	12369
639.151	12489
639.211	13677
639.272	14849
639.332	21319
639.393	18849
639.453	13277
639.514	12350
639.574	13056
639.635	12526
639.695	13124
639.756	12169
639.816	13516
639.877	13010
639.937	17039
639.997	22788
640.058	16304
640.118	11917
640.178	12694
640.239	11084
640.299	11189
640.359	12029
640.420	12618
640.480	11882
640.540	11787
640.600	11267
640.661	12124
640.721	11119
640.781	15198
640.841	13658
640.901	13257
640.961	11630
641.021	12004
641.082	12738
641.142	15096
641.202	15851
641.262	10794
641.322	12429
641.382	11656
641.442	10981
641.502	11110
641.562	11677
641.622	11282
641.682	11366
641.742	11064
641.802	12736
641.861	11966
641.921	12418
641.981	12366
642.041	12521
642.101	14541
642.161	13297
642.221	11372
642.280	10481
642.340	10216
642.400	10966
642.460	11530
642.519	10998
642.579	11596
642.639	11742
642.698	10129
642.758	12234
642.818	9761
642.877	11534
642.937	11435
642.997	11865
643.056	15727
643.116	14073
643.175	12016
643.235	11517
643.294	10738
643.354	11158
643.414	10577
643.473	11910
643.532	12023
643.592	13923
643.651	14839
643.711	21027
643.770	32229
643.830	60933
643.889	168938
643.948	91907
644.008	17727
644.067	12231
644.126	10995
644.186	11396
644.245	10815
644.304	9551
644.363	10949
644.423	9709
644.482	9989
644.541	9997
644.600	8553
644.659	11645
644.719	9786
644.778	11285
644.837	12733
644.896	17029
644.955	32487
645.014	26213
645.073	15566
645.132	12287
645.191	10835
645.250	9725
645.309	11478
645.368	10536
645.427	11292
645.486	10150
645.545	14400
645.604	12129
645.663	9173
645.722	10369
645.781	10772
645.840	9755
645.898	9722
645.957	11939
646.016	11931
646.075	17501
646.134	27292
646.192	54396
646.251	125974
646.310	41525
646.369	12729
646.427	10733
646.486	9182
646.545	9402
646.603	9821
646.662	9830
646.721	9343
646.779	8755
646.838	8898
646.896	9576
646.955	9707
647.014	10758
647.072	12043
647.131	19839
647.189	19399
647.248	9328
647.306	9384
647.365	8896
647.423	8181
647.481	10448
647.540	7817
647.598	8856
647.657	7777
647.715	9202
647.773	8475
647.832	8552
647.890	8026
647.948	8577
648.007	8865
648.065	8861
648.123	9040
648.181	10606
648.240	11508
648.298	13821
648.356	8825
648.414	9349
648.472	8871
648.531	8444
648.589	9653
648.647	8888
648.705	8491
648.763	8351
648.821	8937
648.879	9012
648.937	8705
648.995	8978
649.053	8991
649.111	10588
649.169	11656
649.227	15753
649.285	21457
649.343	49542
649.401	55007
649.459	24458
649.516	25127
649.574	14460
649.632	22285
649.690	35710
649.748	20560
649.806	18126
649.863	32656
649.921	22584
649.979	18475
650.037	9551
650.094	7543
650.152	8258
650.210	7806
650.268	8650
650.325	8931
650.383	8402
650.440	7874
650.498	8025
650.556	8615
650.613	8215
650.671	7784
650.728	8190
650.786	8715
650.843	8068
650.901	6991
650.958	8012
651.016	7476
651.073	7584
651.131	7424
651.188	6401
651.246	7795
651.303	7196
651.360	7713
651.418	7662
651.475	7601
651.532	6390
651.590	7317
651.647	6653
651.704	7338
651.762	7823
651.819	7243
651.876	7044
651.933	6923
651.990	7554
652.048	6330
652.105	7055
652.162	7419
652.219	6974
652.276	7338
652.333	7846
652.390	6690
652.448	7402
652.505	7579
652.562	8061
652.619	8942
652.676	11832
652.733	17677
652.790	8720
652.847	5871
652.904	7915
652.961	6952
653.017	6419
653.074	7404
653.131	7893
653.188	5790
653.245	6300
653.302	6780
653.359	5689
653.415	7551
653.472	6317
653.529	6527
653.586	6110
653.642	6266
653.699	6603
653.756	5761
653.813	6732
653.869	6444
653.926	5976
653.983	5642
654.039	6833
654.096	6679
654.152	7363
654.209	6158
654.266	7393
654.322	6417
654.379	7064
654.435	7179
654.492	7719
654.548	9317
654.605	13918
654.661	11477
654.717	7656
654.774	7152
654.830	7084
654.887	7073
654.943	7507
655.000	7801
655.056	7129
655.112	7463
655.168	7002
655.225	7550
655.281	8854
655.337	8189
655.394	13984
655.450	13001
655.506	9947
655.562	12786
655.618	15813
655.675	6876
655.731	6773
655.787	6297
655.843	7376
655.899	6520
655.955	7028
656.011	6816
656.067	5514
656.123	6429
656.179	8434
656.235	7465
656.291	5101
656.347	8188
656.403	7124
656.459	7581
656.515	7038
656.571	7011
656.627	7733
656.683	6519
656.739	7353
656.795	7308
656.850	6921
656.906	6883
656.962	7292
657.018	5918
657.074	6471
657.129	7249
657.185	7862
657.241	8052
657.297	5707
657.352	7075
657.408	5733
657.464	7479
657.519	6715
657.575	5336
657.630	5514
657.686	6792
657.742	5105
657.797	6589
657.853	6471
657.908	7685
657.964	5499
658.019	5219
658.075	6415
658.130	6322
658.186	5249
658.241	6647
658.297	5605
658.352	5593
658.407	7185
658.463	5791
658.518	6987
658.573	5675
658.629	4454
658.684	6220
658.739	6153
658.795	5519
658.850	5536
658.905	5393
658.960	6294
659.016	4959
659.071	7046
659.126	5898
659.181	6799
659.236	8852
659.291	10901
659.346	8507
659.401	8055
659.457	9348
659.512	11806
659.567	10186
659.622	6311
659.677	6814
659.732	5349
659.787	5700
659.842	6540
659.897	8885
659.952	6967
660.007	6971
660.061	5661
660.116	5486
660.171	5190
660.226	6139
660.281	6034
660.336	5380
660.391	6053
660.445	5402
660.500	6404
660.555	5698
660.610	5280
660.664	6123
660.719	5602
660.774	6307
660.828	6014
660.883	5782
660.938	5882
660.992	5245
661.047	5851
661.101	5106
661.156	6302
661.211	5859
661.265	5679
661.320	5915
661.374	5526
661.429	5998
661.483	6045
661.538	5834
661.592	5671
661.647	5826
661.701	5479
661.755	5735
661.810	6055
661.864	5619
661.919	5045
661.973	6165
662.027	5602
662.081	5486
662.136	5124
662.190	5661
662.244	6640
662.299	6264
662.353	6096
662.407	5746
662.461	5582
662.515	6441
662.569	5726
662.624	7391
662.678	6057
662.732	5848
662.786	6022
662.840	5505
662.894	6084
662.948	5228
663.002	5820
663.056	5618
663.110	4585
663.164	5548
663.218	5466
663.272	5793
663.326	6110
663.380	5661
663.434	6145
663.488	5218
663.542	6486
663.595	6146
663.649	5603
663.703	6153
663.757	6207
663.811	5599
663.864	5199
663.918	6224
663.972	5468
664.026	5066
664.079	5611
664.133	6296
664.187	6004
664.240	5304
664.294	5432
664.348	6252
664.401	4969
664.455	5568
664.508	4689
664.562	5731
664.615	5891
664.669	5570
664.722	5624
664.776	5493
664.829	5642
664.883	6257
664.936	5686
664.990	5948
665.043	6397
665.097	6051
665.150	6916
665.203	6367
665.257	5890
665.310	6116
665.363	5217
665.417	6323
665.470	6475
665.523	5962
665.576	6074
665.630	6062
665.683	6068
665.736	6060
665.789	5768
665.842	5129
665.895	5842
665.949	5912
666.002	6269
666.055	6015
666.108	6156
666.161	5402
666.214	6515
666.267	5913
666.320	7573
666.373	7282
666.426	5736
666.479	5798
666.532	5895
666.585	6043
666.638	7204
666.691	6811
666.744	7346
666.796	6993
666.849	6183
666.902	6752
666.955	6033
667.008	5829
667.060	4999
667.113	4482
667.166	5835
667.219	5961
667.271	4777
667.324	5927
667.377	5333
667.430	6285
667.482	7026
667.535	7675
667.587	7106
667.640	6721
667.693	6524
667.745	6817
667.798	10899
667.850	7306
667.903	5172
667.955	5543
668.008	5707
668.060	7194
668.113	6259
668.165	7176
668.218	6690
668.270	6563
668.322	6605
668.375	6906
668.427	7546
668.479	5748
668.532	6155
668.584	6548
668.636	6372
668.689	6638
668.741	6308
668.793	6071
668.845	6048
668.898	6809
668.950	6801
669.002	6448
669.054	5894
669.106	6630
669.158	6808
669.211	7746
669.263	6821
669.315	8305
669.367	9577
669.419	7544
669.471	7824
669.523	7806
669.575	9240
669.627	9837
669.679	7726
669.731	7436
669.783	7671
669.835	8541
669.886	7057
669.938	7401
669.990	8131
670.042	7343
670.094	7397
670.146	8508
670.197	9196
670.249	10655
670.301	11999
670.353	16360
670.404	21486
670.456	30011
670.508	44492
670.560	70969
670.611	119162
670.663	205821
670.715	398267
670.766	741943
670.818	484157
670.869	111482
670.921	43277
670.972	27453
671.024	21372
671.075	15326
671.127	13415
671.178	10340
671.230	10427
671.281	9711
671.333	8552
671.384	8378
671.436	8666
671.487	9046
671.538	8460
671.590	9084
671.641	9173
671.692	9235
671.744	10928
671.795	11429
671.846	9671
671.897	8027
671.949	7653
672.000	6897
672.051	6243
672.102	6410
672.153	6585
672.204	6207
672.256	6231
672.307	5730
672.358	6940
672.409	6120
672.460	5913
672.511	5883
672.562	6026
672.613	5514
672.664	5495
672.715	5812
672.766	6304
672.817	5615
672.868	5237
672.919	5120
672.970	5611
673.021	6225
673.071	5457
673.122	6142
673.173	5305
673.224	5473
673.275	6207
673.326	5322
673.376	6142
673.427	4499
673.478	5332
673.528	6151
673.579	4238
673.630	5275
673.680	5593
673.731	5535
673.782	4707
673.832	5144
673.883	5913
673.934	4596
673.984	5814
674.035	5014
674.085	5547
674.136	5752
674.186	6220
674.237	5861
674.287	8995
674.338	7270
674.388	5006
674.438	5251
674.489	4778
674.539	4798
674.589	5307
674.640	6047
674.690	5230
674.740	4975
674.791	5869
674.841	5749
674.891	5307
674.942	5241
674.992	4237
675.042	3937
675.092	3805
675.142	4067
675.193	4614
675.243	4526
675.293	5063
675.343	4988
675.393	5040
675.443	5682
675.493	5032
675.543	3898
675.593	5455
675.643	5132
675.693	4059
675.743	3833
675.793	4545
675.843	3930
675.893	4563
675.943	4883
675.993	4541
676.043	4820
676.093	5203
676.142	3758
676.192	4881
676.242	4272
676.292	4068
676.341	4823
676.391	4493
676.441	3890
676.491	4147
676.540	3885
676.590	4315
676.640	4104
676.689	4432
676.739	4414
676.789	4052
676.838	3808
676.888	3798
676.937	3553
676.987	4515
677.037	3658
677.086	4020
677.136	3945
677.185	4765
677.235	3679
677.284	3060
677.333	3163
677.383	3267
677.432	3716
677.482	4210
677.531	3364
677.580	3995
677.630	4252
677.679	2952
677.728	4037
677.778	4910
677.827	3917
677.876	4207
677.925	3394
677.975	3009
678.024	4125
678.073	4138
678.122	3622
678.171	4202
678.220	4118
678.269	4184
678.319	4037
678.368	3610
678.417	3626
678.466	4535
678.515	4802
678.564	4526
678.613	3741
678.662	3958
678.711	5008
678.760	4459
678.809	4246
678.857	4509
678.906	3789
678.955	4545
679.004	4854
679.053	3819
679.102	3538
679.151	4739
679.199	4485
679.248	3250
679.297	3530
679.346	4621
679.394	3765
679.443	3431
679.492	3764
679.540	4339
679.589	3250
679.638	4095
679.686	3986
679.735	3437
679.784	4014
679.832	3383
679.881	3798
679.929	3550
679.978	3652
680.026	3154
680.075	4151
680.123	3509
680.172	3603
680.220	3424
680.268	2948
680.317	3317
680.365	3699
680.414	4123
680.462	3639
680.510	3586
680.559	3403
680.607	3181
680.655	3431
680.703	3226
680.752	2605
680.800	3648
680.848	2641
680.896	3640
680.945	3519
680.993	3103
681.041	3031
681.089	3559
681.137	3113
681.185	3578
681.233	3335
681.258	3550
681.281	3732
681.329	3027
681.377	3051
681.380	3066
681.425	2963
681.473	4151
681.502	3573
681.521	3131
681.569	4326
681.617	3106
681.624	3211
681.665	3743
681.713	3120
681.745	3642
681.761	3862
681.809	3661
681.857	4086
681.867	4108
681.904	4091
681.952	3535
681.989	3307
682.000	3219
682.048	4500
682.096	4338
682.111	4200
682.143	3820
682.191	3765
682.233	4670
682.239	4787
682.286	3694
682.334	3706
682.354	3580
682.382	3362
682.430	3855
682.476	4377
682.477	4370
682.525	4850
682.572	4218
682.598	3992
682.620	3767
682.667	3587
682.715	4010
682.720	4075
682.763	4502
682.810	4265
682.841	4074
682.857	3952
682.905	4359
682.952	3507
682.963	3905
683.000	5211
683.047	3934
683.085	4882
683.095	5122
683.142	4751
683.190	4925
683.206	4872
683.237	4672
683.284	4612
683.328	4430
683.332	4409
683.379	4888
683.426	4485
683.449	4732
683.473	4942
683.521	4758
683.568	5039
683.571	4994
683.615	4138
683.662	5530
683.693	4672
683.709	4198
683.757	4736
683.804	5089
683.814	5098
683.851	5033
683.898	5366
683.936	4700
683.945	4510
683.992	5279
684.039	5445
684.057	5139
684.086	4673
684.133	5195
684.179	5109
684.180	5093
684.227	5584
684.274	5478
684.300	5614
684.321	5613
684.368	5296
684.415	5483
684.422	5499
684.462	5697
684.509	4416
684.543	5046
684.556	5242
684.603	5532
684.649	5900
684.665	5728
684.696	5265
684.743	5539
684.786	5519
684.790	5518
684.837	6077
684.883	5673
684.908	6018
684.930	6356
684.977	7047
685.023	6073
685.029	6152
685.070	6451
685.117	6438
685.150	6371
685.164	6398
685.210	6460
685.257	7411
685.272	7193
685.303	6509
685.350	6297
685.393	6299
685.396	6304
685.443	6475
685.490	7060
685.514	7105
685.536	7181
685.583	6956
685.629	7063
685.636	7111
685.675	7115
685.722	6891
685.757	6771
685.768	6765
685.815	6961
685.861	6825
685.878	6998
685.908	7318
685.954	7189
686.000	7555
686.000	7554
686.047	7405
686.093	7933
686.121	8008
686.139	8020
686.185	7964
686.232	7600
686.242	7500
686.278	7072
686.324	7365
686.363	6970
686.370	6902
686.416	7562
686.463	7252
686.484	7141
686.509	7082
686.555	7404
686.601	7334
686.606	7356
686.647	7446
686.693	7522
686.727	7034
686.739	6888
686.785	7123
686.831	7350
686.848	7502
686.877	7623
686.923	7088
686.969	7392
686.969	7393
687.015	7420
687.061	7416
687.090	7525
687.107	7492
687.153	7582
687.199	7829
687.211	7581
687.245	7086
687.291	7220
687.332	8135
687.336	8217
687.382	8658
687.428	7950
687.453	8120
687.474	8224
687.520	7605
687.565	7831
687.574	7782
687.611	7503
687.657	7421
687.695	7403
687.702	7475
687.748	7909
687.794	8464
687.816	8439
687.839	8231
687.885	7989
687.931	8538
687.937	8484
687.976	8081
688.022	7701
688.058	7735
688.067	7789
688.113	8120
688.158	7921
688.179	7712
688.204	7516
688.249	8048
688.295	8564
688.300	8552
688.340	8575
688.386	9282
688.421	9125
688.431	9030
688.477	8076
688.522	8389
688.542	8466
688.567	8614
688.613	8812
688.658	8597
688.663	8593
688.703	8797
688.749	8976
688.784	8946
688.794	8880
688.839	9197
688.884	9239
688.905	9013
688.930	8677
688.975	8431
689.020	8065
689.026	8111
689.065	8892
689.110	8632
689.146	8699
689.155	8663
689.201	8574
689.246	8727
689.267	8676
689.291	8671
689.336	8271
689.381	8835
689.388	8840
689.426	9229
689.471	9514
689.509	9345
689.516	9243
689.561	9297
689.606	8743
689.630	8896
689.651	9176
689.696	9047
689.741	9529
689.750	9523
689.785	9401
689.830	9158
689.871	9255
689.875	9283
689.920	8824
689.965	8883
689.992	8943
690.010	8986
690.054	9102
690.099	9070
690.112	9075
690.144	9290
690.189	9484
690.233	9228
690.233	9237
690.278	9447
690.323	9286
690.354	9174
690.367	9288
690.412	9534
690.457	10264
690.474	10480
690.501	10587
690.546	10496
690.590	10481
690.595	10433
690.635	10681
690.680	11376
690.716	11946
690.724	12148
690.769	13387
690.813	14724
690.836	15237
690.857	16441
690.902	19332
690.946	21999
690.957	22763
690.991	29248
691.035	38538
691.077	48976
691.080	49469
691.124	54677
691.168	56701
691.198	58938
691.213	55455
691.257	44994
691.301	35029
691.318	31108
691.346	28033
691.390	22859
691.434	18374
691.439	17824
691.478	16321
691.522	15157
691.559	13420
691.567	13299
691.611	13297
691.655	12873
691.680	12641
691.699	12432
691.743	12259
691.787	11544
691.800	11370
691.831	11378
691.875	11432
691.919	11528
691.921	11518
691.964	11933
692.008	11882
692.041	12147
692.052	12247
692.096	11793
692.139	12284
692.162	12158
692.183	11873
692.227	11610
692.271	11231
692.282	11151
692.315	11364
692.359	11813
692.402	11789
692.403	11809
692.447	11721
692.490	11918
692.523	11780
692.534	11828
692.578	12238
692.622	12047
692.643	12245
692.666	12191
692.709	11664
692.753	11356
692.763	11187
692.797	11208
692.840	11761
692.884	11975
692.884	11997
692.928	12069
692.971	12085
693.004	11837
693.015	11895
693.059	12473
693.102	13116
693.124	13232
693.146	13229
693.189	13274
693.233	13451
693.245	13488
693.276	14150
693.320	14896
693.363	15659
693.365	15659
693.407	16451
693.450	16992
693.485	17781
693.493	18302
693.537	20781
693.580	23295
693.605	24737
693.624	27347
693.667	33703
693.710	39961
693.725	42363
693.753	55338
693.797	76214
693.840	98741
693.845	101018
693.883	110521
693.926	117957
693.966	125399
693.970	123301
694.013	98820
694.056	75248
694.086	59050
694.099	55690
694.142	44967
694.185	34393
694.206	29235
694.229	27633
694.272	24596
694.315	21731
694.326	20944
694.358	19959
694.401	18548
694.444	17147
694.446	17035
694.487	16648
694.530	16065
694.566	15962
694.573	15902
694.616	15102
694.659	14223
694.686	13686
694.702	13693
694.745	13463
694.787	13704
694.806	13633
694.830	13551
694.873	13184
694.916	13143
694.926	13041
694.959	13058
695.002	13373
695.044	13394
695.046	13369
695.087	13129
695.130	12666
695.166	12485
695.172	12568
695.215	12778
695.258	13043
695.286	13130
695.301	13183
695.343	13405
695.386	13529
695.406	13545
695.428	13403
695.471	13039
695.514	12920
695.526	12720
695.556	12537
695.599	12628
695.641	12563
695.646	12541
695.684	12710
695.726	12719
695.766	12747
695.769	12761
695.811	12583
695.854	12392
695.886	12168
695.896	12216
695.938	12212
695.981	12206
696.005	12319
696.023	12454
696.065	12379
696.108	12638
696.125	12613
696.150	12717
696.192	12969
696.235	13185
696.245	13197
696.277	13219
696.319	13144
696.361	13241
696.365	13201
696.404	13379
696.446	13741
696.485	13949
696.488	13983
696.530	13918
696.572	13934
696.604	13878
696.614	13825
696.656	13396
696.698	13003
696.724	12814
696.740	12871
696.783	12672
696.825	12695
696.844	12654
696.867	12701
696.909	12708
696.951	12639
696.964	12601
696.992	12527
697.034	12456
697.076	12257
697.083	12195
697.118	12366
697.160	12638
697.202	12733
697.203	12705
697.244	12727
697.286	12665
697.323	12591
697.327	12624
697.369	12614
697.411	12574
697.442	12578
697.453	12609
697.494	12426
697.536	12430
697.562	12343
697.578	12528
697.620	13018
697.661	13394
697.682	13540
697.703	13439
697.744	13223
697.786	13079
697.801	12956
697.828	13218
697.869	13631
697.911	13944
697.921	14012
697.952	13716
697.994	13223
698.035	12727
698.040	12631
698.077	12757
698.118	12910
698.160	13040
698.160	13006
698.201	13111
698.243	13159
698.279	13185
698.284	13236
698.325	13357
698.367	13546
698.399	13612
698.408	13599
698.449	13397
698.491	13167
698.518	12992
698.532	13081
698.573	13260
698.614	13401
698.638	13465
698.656	13481
698.697	13414
698.738	13357
698.757	13291
698.779	13467
698.820	13731
698.862	14011
698.877	14072
698.903	14031
698.944	13916
698.985	13804
698.996	13737
699.026	13670
699.067	13525
699.116	13319
699.235	13002
699.354	13781
699.474	13381
699.593	14637
699.713	14067
699.832	13984
699.951	14255
700.070	12725
700.190	12951
700.309	12559
700.428	13147
700.547	13310
700.667	12524
700.786	13641
700.905	13158
701.024	12034
701.143	13293
701.262	12353
701.381	12076
701.500	12693
701.619	12980
701.738	12074
701.857	11866
701.976	12664
702.095	11639
702.214	12429
702.333	12385
702.452	12277
702.571	11957
702.690	11938
702.809	12450
702.928	11986
703.047	12481
703.165	12707
703.284	11794
703.403	11894
703.522	12577
703.640	12238
703.759	12545
703.878	14587
703.997	13093
704.115	11298
704.234	12594
704.353	11880
704.471	11444
704.590	11656
704.708	11614
704.827	11749
704.946	11608
705.064	12370
705.183	12047
705.301	12093
705.420	16916
705.538	17009
705.656	14666
705.775	14977
705.893	20019
706.012	31345
706.130	15629
706.249	14584
706.367	14554
706.485	14478
706.604	14076
706.722	14513
706.840	14438
706.958	15793
707.077	14151
707.195	14110
707.313	14163
707.431	13459
707.549	13037
707.668	13506
707.786	12891
707.904	13497
708.022	13111
708.140	12954
708.258	12508
708.376	12225
708.494	13189
708.612	14239
708.730	16909
708.848	18135
708.966	16156
709.084	15725
709.202	15237
709.320	15531
709.438	15481
709.556	14631
709.674	14767
709.791	15364
709.909	14619
710.027	15462
710.145	14750
710.263	14879
710.380	14887
710.498	15434
710.616	14316
710.733	14317
710.851	13844
710.969	15222
711.086	14072
711.204	14663
711.322	13321
711.439	14448
711.557	14244
711.674	14258
711.792	13715
711.909	14583
712.027	15109
712.144	13520
712.262	13521
712.379	14841
712.497	17743
712.614	20431
712.732	17993
712.849	17222
712.966	16442
713.084	17858
713.201	16600
713.318	15808
713.436	16061
713.553	17054
713.670	17366
713.787	17093
713.905	17784
714.022	15924
714.139	15478
714.256	16483
714.373	15382
714.490	16719
714.608	18298
714.725	32865
714.842	48713
714.959	18514
715.076	14808
715.193	14548
715.310	14641
715.427	14681
715.544	13630
715.661	15719
715.778	14021
715.895	16330
716.011	15576
716.128	15324
716.245	14053
716.362	14470
716.479	15385
716.596	14358
716.713	14648
716.829	13937
716.946	14311
717.063	13959
717.180	13730
717.296	13417
717.413	13469
717.530	12964
717.646	13350
717.763	13091
717.880	12140
717.996	13029
718.113	13659
718.229	13342
718.346	12229
718.462	12338
718.579	12922
718.695	15281
718.812	15116
718.928	15156
719.045	13756
719.161	12485
719.277	12167
719.394	11850
719.510	12418
719.626	12613
719.743	13510
719.859	13518
719.975	12555
720.092	15626
720.208	24304
720.324	15752
720.440	12377
720.557	12449
720.673	13937
720.789	17894
720.905	28467
721.021	21059
721.137	12385
721.253	12740
721.369	11881
721.486	13032
721.602	14112
721.718	12663
721.834	10994
721.950	12304
722.066	10896
722.181	11114
722.297	10357
722.413	11690
722.529	10689
722.645	10852
722.761	9921
722.877	11049
722.993	10342
723.108	11093
723.224	10278
723.340	10981
723.456	10667
723.571	11022
723.687	9520
723.803	10637
723.918	10617
724.034	9827
724.150	10489
724.265	10242
724.381	13929
724.497	20810
724.612	10960
724.728	9772
724.843	9810
724.959	10004
725.074	12774
725.190	18359
725.305	10742
725.421	9784
725.536	10033
725.651	10166
725.767	9958
725.882	9577
725.997	8681
726.113	9618
726.228	8108
726.343	9352
726.459	8306
726.574	9973
726.689	8513
726.804	9029
726.920	9337
727.035	9429
727.150	9117
727.265	8801
727.380	8827
727.495	9534
727.610	8335
727.725	8961
727.841	10437
727.956	13964
728.071	15865
728.186	9816
728.301	8785
728.416	9458
728.531	8458
728.645	9426
728.760	8688
728.875	9129
728.990	8995
729.105	8523
729.220	8606
729.335	8895
729.449	8269
729.564	8748
729.679	7803
729.794	8140
729.908	9027
730.023	8529
730.138	7647
730.253	8226
730.367	7822
730.482	7607
730.596	7737
730.711	8173
730.826	8030
730.940	7615
731.055	7447
731.169	8143
731.284	7527
731.398	7757
731.513	8542
731.627	8551
731.742	7666
731.856	8544
731.970	7597
732.085	7984
732.199	8419
732.313	8235
732.428	8620
732.542	12008
732.656	11730
732.771	8145
732.885	7818
732.999	7808
733.113	7822
733.227	7873
733.342	6956
733.456	7600
733.570	6853
733.684	7185
733.798	7297
733.912	7968
734.026	7220
734.140	6774
734.254	8034
734.368	8916
734.482	12555
734.596	7880
734.710	6658
734.824	7824
734.938	6375
735.052	6831
735.166	7490
735.280	8003
735.393	7267
735.507	6986
735.621	7830
735.735	10497
735.849	8513
735.962	7060
736.076	6857
736.190	7629
736.303	8700
736.417	11333
736.531	8106
736.644	7345
736.758	6839
736.872	7080
736.985	6732
737.099	7238
737.212	6205
737.326	7111
737.439	7042
737.553	7273
737.666	6927
737.780	6398
737.893	6249
738.007	6544
738.120	6700
738.233	7192
738.347	7124
738.460	6632
738.573	6375
738.687	6988
738.800	6305
738.913	6678
739.026	7088
739.140	6717
739.253	6565
739.366	7760
739.479	5888
739.592	6247
739.705	6904
739.818	7211
739.932	5423
740.045	7486
740.158	6133
740.271	7200
740.384	6985
740.497	6445
740.610	6135
740.723	6351
740.836	6775
740.949	7110
741.062	7430
741.174	7922
741.287	6702
741.400	6737
741.513	6593
741.626	7042
741.739	6722
741.851	6698
741.964	6110
742.077	6880
742.189	6093
742.302	6991
742.415	7225
742.527	6624
742.640	6853
742.753	6827
742.865	6668
742.978	5906
743.090	6812
743.203	6800
743.316	6049
743.428	6517
743.541	6616
743.653	7549
743.766	5995
743.878	6091
743.990	6572
744.103	8226
744.215	7202
744.327	7099
744.440	7435
744.552	7866
744.664	6702
744.777	5941
744.889	5962
745.001	6511
745.113	5513
745.226	6718
745.338	6763
745.450	6403
745.562	5072
745.674	6068
745.786	6062
745.898	6275
746.010	6027
746.122	6550
746.234	5887
746.347	6957
746.459	6394
746.570	6749
746.682	6714
746.794	7529
746.906	6880
747.018	6668
747.130	6248
747.242	6348
747.354	5395
747.466	6231
747.577	6435
747.689	6750
747.801	6635
747.913	6526
748.024	6135
748.136	5873
748.248	5552
748.359	6619
748.471	5870
748.583	7198
748.694	5989
748.806	7488
748.918	6789
749.029	7794
749.141	6308
749.252	7783
749.364	6106
749.475	7616
749.587	7734
749.698	6944
749.809	6400
749.921	6641
750.032	6230
750.144	6913
750.255	6197
750.366	5787
750.478	5614
750.589	6708
750.700	6403
750.811	7278
750.923	7186
751.034	7106
751.145	9125
751.256	7254
751.367	6376
751.479	6675
751.590	6013
751.701	6428
751.812	5497
751.923	6694
752.034	6718
752.145	6466
752.256	5935
752.367	6015
752.478	5689
752.589	6887
752.700	5817
752.811	6791
752.922	6038
753.032	6545
753.143	6055
753.254	6662
753.365	5987
753.476	6059
753.586	6950
753.697	6602
753.808	6427
753.919	6988
754.029	6306
754.140	5786
754.251	6769
754.361	6045
754.472	7191
754.582	6869
754.693	5950
754.804	6787
754.914	5970
755.025	6550
755.135	6275
755.246	6894
755.356	6066
755.466	7238
755.577	6445
755.687	6668
755.798	6279
755.908	6530
756.018	6957
756.129	6937
756.239	6847
756.349	7554
756.460	6711
756.570	7043
756.680	7330
756.790	7241
756.900	7256
757.011	7132
757.121	7116
757.231	7898
757.341	6796
757.451	7922
757.561	6753
757.671	7456
757.781	7511
757.891	8789
758.001	7614
758.111	8752
758.221	7266
758.331	8153
758.441	8230
758.551	8772
758.661	8472
758.771	9129
758.880	8211
758.990	8664
759.100	8921
759.210	9584
759.320	9746
759.429	9186
759.539	8604
759.649	9614
759.758	8753
759.868	10132
759.978	9582
760.087	9434
760.197	10230
760.307	10222
760.416	10621
760.526	10961
760.635	10516
760.745	11405
760.854	10897
760.964	11748
761.073	11654
761.182	11935
761.292	12106
761.401	13592
761.511	12393
761.620	13251
761.729	11683
761.839	13495
761.948	13927
762.057	14242
762.166	14508
762.276	14928
762.385	16239
762.494	15535
762.603	16195
762.712	16904
762.822	17682
762.931	19223
763.040	18269
763.149	19284
763.258	19743
763.367	22346
763.476	23090
763.585	23078
763.694	24261
763.803	25836
763.912	27281
764.021	28953
764.130	30212
764.238	31498
764.347	34587
764.456	35799
764.565	39634
764.674	43119
764.783	47126
764.891	51343
765.000	57814
765.109	64343
765.217	74298
765.326	87528
765.435	103638
765.543	124520
765.652	154381
765.761	198137
765.869	263587
765.978	364725
766.086	530554
766.195	783618
766.303	1076758
766.412	998894
766.520	890165
766.629	1090815
766.737	831663
766.846	563751
766.954	394981
767.062	287016
767.171	218438
767.279	167633
767.387	136826
767.496	112949
767.604	96952
767.712	85000
767.820	75618
767.928	68924
768.037	62642
768.145	60021
768.253	56228
768.361	54866
768.469	54904
768.577	56171
768.685	56368
768.793	59920
768.901	65694
769.009	75901
769.117	89160
769.225	113704
769.333	152161
769.441	224177
769.549	356114
769.657	609526
769.765	945697
769.873	890561
769.981	937610
770.088	689944
770.196	408408
770.304	264788
770.412	186717
770.519	140425
770.627	111409
770.735	89700
770.842	74952
770.950	64359
771.058	56373
771.165	49930
771.273	44926
771.380	41179
771.488	36343
771.595	33398
771.703	31959
771.810	29357
771.918	26871
772.025	26511
772.133	23447
772.240	22449
772.348	22357
772.455	19935
772.562	20084
772.670	19218
772.777	18648
772.884	17827
772.991	17166
773.099	16865
773.206	15358
773.313	16056
773.420	14962
773.528	14458
773.635	14084
773.742	13740
773.849	13102
773.956	12998
774.063	12199
774.170	12202
774.277	11806
774.384	11464
774.491	12181
774.598	11402
774.705	10775
774.812	10902
774.919	10784
775.026	11541
775.133	10072
775.239	10347
775.346	10137
775.453	9125
775.560	9030
775.667	9908
775.773	8556
775.880	8920
775.987	10327
776.093	9836
776.200	7925
776.307	8434
776.413	8942
776.520	8686
776.627	8463
776.733	8791
776.840	7070
776.946	8410
777.053	8572
777.159	9441
777.266	8783
777.372	9822
777.478	9063
777.585	8675
777.691	7211
777.798	7293
777.904	7374
778.010	8465
778.117	7734
778.223	7172
778.329	6776
778.435	7002
778.542	7020
778.648	7241
778.754	5845
778.860	6523
778.966	6082
779.072	6805
779.178	6327
779.284	6591
779.391	6650
779.497	7597
779.603	10452
779.708	14430
779.815	29661
779.920	96554
780.026	233450
780.132	64482
780.238	11488
780.344	8354
780.450	8110
780.556	6762
780.661	5894
780.767	6502
780.873	5565
780.979	5585
781.085	5046
781.190	5539
781.296	4890
781.402	4990
781.507	5049
781.613	4831
781.719	5082
781.824	4524
781.930	5166
782.035	4660
782.141	4347
782.246	4472
782.352	4181
782.457	4853
782.563	4901
782.668	4202
782.773	4685
782.879	4548
782.984	4213
783.090	4850
783.195	4578
783.300	5659
783.405	3981
783.511	4928
783.616	4502
783.721	4478
783.826	4289
783.932	4819
784.037	3419
784.142	4749
784.247	3792
784.352	4302
784.457	4174
784.562	3576
784.667	4038
784.772	3532
784.877	4038
784.982	4399
785.087	3805
785.192	3923
785.297	3822
785.402	3749
785.507	4167
785.611	3596
785.716	3730
785.821	3718
785.926	2690
786.031	4165
786.135	2720
786.240	4021
786.345	2784
786.450	3954
786.554	3182
786.659	3677
786.763	2866
786.868	4320
786.973	3359
787.077	3244
787.182	3731
787.286	3501
787.391	3626
787.495	3829
787.600	2740
787.704	3476
787.809	2789
787.913	3094
788.017	3018
788.122	4239
788.226	3051
788.330	2495
788.435	3071
788.539	3447
788.643	2072
788.747	3586
788.852	3348
788.956	2639
789.060	3365
789.164	3402
789.268	2313
789.372	3514
789.476	2814
789.580	2588
789.684	2763
789.788	3112
789.892	2580
789.996	3904
790.100	3539
790.204	3374
790.308	2631
790.412	3168
790.516	3228
790.620	3243
790.724	3569
790.828	3508
790.931	2936
791.035	3633
791.139	2936
791.242	3863
791.346	3258
791.450	2816
791.554	3375
791.657	2335
791.761	3087
791.864	3729
791.968	3504
792.072	3646
792.175	2725
792.279	3397
792.382	2150
792.486	3312
792.589	2656
792.693	3267
792.796	2127
792.899	3890
793.003	3090
793.106	3120
793.209	3094
793.313	4030
793.416	2391
793.519	3661
793.623	2988
793.726	3326
793.829	2859
793.932	3191
794.035	2164
794.138	3962
794.242	3260
794.345	5583
794.448	8521
794.551	16565
794.654	52205
794.757	133243
794.860	40414
794.963	6625
795.066	2972
795.169	4128
795.272	3194
795.375	3493
795.477	2801
795.580	2242
795.683	1576
795.786	2871
795.889	2615
795.991	3899
796.094	2459
796.197	2757
796.300	2609
796.402	2655
796.505	2198
796.608	2605
796.710	2860
796.813	2987
796.915	2583
797.018	2690
797.120	1816
797.223	1896
797.326	2488
797.428	2556
797.530	2020
797.633	2537
797.735	3378
797.838	3062
797.940	3406
798.042	2522
798.145	1538
798.247	3563
798.349	1551
798.452	2430
798.554	1505
798.656	1960
798.758	1976
798.860	2002
798.962	1914
799.065	2583
799.167	1847
799.269	2888
799.371	1474
799.473	2281
799.575	1749
799.677	2842
799.779	2471
799.881	2423
799.983	2795
800.085	2010
800.187	1002
800.289	1728
800.390	1987
800.492	2219
800.594	2670
800.696	2214
800.798	1589
800.899	1185
801.001	1727
801.103	1871
801.205	1789
801.306	1703
801.408	1384
801.509	2388
801.611	1286
801.713	1846
801.814	1644
801.916	1910
802.017	1781
802.119	1342
802.220	1884
802.322	607
802.423	2674
802.525	2779
802.626	1362
802.727	1597
802.829	1203
802.930	1105
803.031	2917
803.133	1443
803.234	1512
803.335	2382
803.436	969
803.538	2104
803.639	934
803.740	2489
803.841	994
803.942	1418
804.043	2271
804.144	1520
804.245	2134
804.346	1986
804.447	1157
804.548	2266
804.649	1983
804.750	2135
804.851	800
804.952	1423
805.053	1781
805.154	1487
805.255	2103
805.355	1540
805.456	1328
805.557	1333
805.658	935
805.758	2178
805.859	2195
805.960	1464
806.061	973
806.161	1684
806.262	1419
806.362	1470
806.463	1009
806.564	1559
806.664	1598
806.765	1802
806.865	2120
806.966	1852
807.066	1491
807.166	2168
807.267	1395
807.367	1277
807.468	1815
807.568	693
807.668	1430
807.769	1338
807.869	1370
807.969	1200
808.069	1117
808.170	1659
808.270	826
808.370	2103
808.470	1380
808.570	1523
808.670	1598
808.770	1538
808.870	1037
808.970	1841
809.070	934
809.170	764
809.271	1838
809.370	580
809.470	1406
809.570	1748
809.670	1790
809.770	1430
809.870	1812
809.970	2191
810.070	1618
810.169	1928
810.269	158
810.369	2259
810.469	901
810.568	1530
810.668	1662
810.768	1093
810.867	1638
810.967	1540
811.066	1171
811.166	2015
811.265	1295
811.365	1029
811.464	990
811.564	2428
811.663	1965
811.763	1072
811.862	813
811.962	1764
812.061	1439
812.160	1723
812.260	1899
812.359	2060
812.458	2452
812.557	4463
812.657	6158
812.756	4066
812.855	1804
812.954	1574
813.053	2749
813.153	1400
813.252	1573
813.351	1757
813.450	1598
813.549	1626
813.648	1032
813.747	2299
813.846	1495
813.945	1584
814.044	1882
814.143	3065
814.242	2642
814.341	2026
814.439	1596
814.538	3079
814.637	2552
814.736	1968
814.835	3197
814.933	3684
815.032	2332
815.131	3000
815.229	2538
815.328	2988
815.427	1360
815.525	3826
815.624	3489
815.722	3147
815.821	3218
815.919	3395
816.018	3446
816.116	4654
816.215	3718
816.313	4270
816.412	4885
816.510	5184
816.609	6672
816.707	6871
816.805	5935
816.904	6410
817.002	7211
817.100	8792
817.198	10481
817.296	11545
817.395	13635
817.493	15768
817.591	18447
817.689	25140
817.787	32776
817.885	47883
817.983	75957
818.081	134428
818.179	252224
818.277	473862
818.375	507548
818.473	324790
818.571	171840
818.669	105772
818.767	80465
818.865	74960
818.963	79866
819.061	100556
819.158	143903
819.256	237571
819.354	397928
819.452	598970
819.549	539540
819.647	380561
819.745	228795
819.842	138189
819.940	93229
820.038	67692
820.135	49832
820.233	39346
820.330	30760
820.428	25937
820.525	22267
820.623	19044
820.720	16571
820.818	14740
820.915	13230
821.012	12288
821.110	9541
821.207	10129
821.304	8270
821.402	8191
821.499	7383
821.596	7955
821.693	7366
821.791	6641
821.888	6056
821.985	6167
822.082	4901
822.179	5577
822.276	4336
822.373	4737
822.470	4127
822.567	4499
822.664	3226
822.761	3640
822.858	2857
822.955	3093
823.052	4087
823.149	2615
823.246	2598
823.343	2631
823.440	2957
823.536	2768
823.633	2447
823.730	1827
823.827	2524
823.923	1738
824.020	2848
824.117	1717
824.213	1391
824.310	2597
824.407	1618
824.503	2010
824.600	2121
824.696	2207
824.793	2110
824.889	1641
824.986	1331
825.082	2177
825.179	1894
825.275	1584
825.371	1280
825.468	2820
825.564	715
825.660	2464
825.757	1151
825.853	2038
825.949	1281
826.045	1419
826.142	160
826.238	1161
826.334	1534
826.430	359
826.526	1810
826.622	711
826.718	293
826.814	1113
826.910	1891
827.006	908
827.102	1033
827.198	1705
827.294	636
827.390	1103
827.486	446
827.582	756
827.678	994
827.774	1506
827.869	990
827.965	1273
828.061	654
828.157	788
828.252	2071
828.348	462
828.444	1198
828.539	413
828.635	646
828.731	1613
828.826	349
828.922	1343
829.017	135
829.113	1261
829.208	567
829.304	562
829.399	2041
829.495	502
829.590	1106
829.685	776
829.781	868
829.876	720
829.971	665
830.066	1171
830.162	1005
830.257	638
830.352	187
830.447	1826
830.543	623
830.638	608
830.733	1013
830.828	-79
830.923	1289
831.018	1165
831.113	-201
831.208	224
831.303	-469
831.398	331
831.493	-285
831.588	1009
831.683	-621
831.778	271
831.873	659
831.967	1178
832.062	4
832.157	-125
832.252	1260
832.346	781
832.441	811
832.536	1355
832.631	2194
832.725	1853
832.820	434
832.914	76
833.009	192
833.104	1002
833.198	1129
833.293	543
833.387	-21
833.482	602
833.576	62
833.670	756
833.765	-321
833.859	286
833.954	449
834.048	613
834.142	84
834.237	516
834.331	331
834.425	-213
834.519	255
834.613	871
834.708	-184
834.802	372
834.896	-466
834.990	1058
835.084	476
835.178	944
835.272	556
835.366	1123
835.460	368
835.554	523
835.648	1122
835.742	447
835.836	34
835.930	-28
836.024	706
836.117	410
836.211	709
836.305	393
836.399	1405
836.493	295
836.586	816
836.680	392
836.774	96
836.867	795
836.961	-580
837.055	-444
837.148	85
837.242	-34
837.335	387
837.429	815
837.522	-219
837.616	851
837.709	1162
837.803	1151
837.896	600
837.989	28
838.083	834
838.176	870
838.269	1076
838.363	367
838.456	-228
838.549	900
838.642	-112
838.735	2657
838.829	1556
838.922	549
839.015	-229
839.108	20
839.201	483
839.294	456
839.387	504
839.480	498
839.573	564
839.666	1492
839.759	420
839.852	580
839.945	-90
840.038	96
840.131	-210
840.223	578
840.316	931
840.409	1183
840.502	-643
840.594	1274
840.687	-498
840.780	639
840.873	-341
840.965	909
841.058	641
841.150	1184
841.243	1465
841.336	1371
841.428	-611
841.521	-167
841.613	-437
841.706	814
841.798	997
841.890	542
841.983	-349
842.075	648
842.167	43
842.260	-238
842.352	632
842.444	1131
842.537	574
842.629	3491
842.721	756
842.813	466
842.905	-824
842.997	721
843.090	-233
843.182	237
843.274	755
843.366	2942
843.458	6926
843.550	7112
843.642	1115
843.734	433
843.826	85
843.918	773
844.009	202
844.101	119
844.193	-480
844.285	659
844.377	393
844.469	998
844.560	363
844.652	157
844.744	524
844.835	362
844.927	-236
845.019	471
845.110	-90
845.202	295
845.293	-605
845.385	661
845.476	-162
845.568	229
845.659	-292
845.751	83
845.842	-56
845.934	176
846.025	-324
846.116	256
846.208	238
846.299	-47
846.390	-811
846.482	216
846.573	161
846.664	1434
846.755	599
846.846	1629
846.937	-6
847.029	379
847.120	-5
847.211	251
847.302	249
847.393	-145
847.484	362
847.575	-648
847.666	-1022
847.757	19
847.847	416
847.938	756
848.029	-126
848.120	158
848.211	123
848.302	-75
848.392	-66
848.483	286
848.574	-553
848.664	-359
848.755	-196
848.846	1058
848.936	141
849.027	272
849.118	-325
849.208	505
849.299	495
849.389	-58
849.480	40
849.570	533
849.661	-2
849.751	1155
849.841	-89
849.932	100
850.022	-204
850.112	750
850.203	-12
850.293	129
850.383	735
850.474	501
850.564	-281
850.654	123
850.744	127
850.834	367
850.924	-541
851.014	358
851.104	70
851.194	244
851.284	-364
851.374	751
851.464	-224
851.554	762
851.644	-487
851.734	1395
851.824	1291
851.914	2072
852.004	2470
852.094	4861
852.183	1107
852.273	205
852.363	-654
852.452	-207
852.542	-843
852.632	128
852.721	-609
852.811	-374
852.901	71
852.990	109
853.080	-428
853.169	-13
853.259	-1403
853.348	-55
853.438	-657
853.527	692
853.617	-603
853.706	177
853.795	-68
853.885	1513
853.974	1974
854.063	3916
854.152	5758
854.242	3561
854.331	-190
854.420	-80
854.509	-371
854.598	-410
854.687	-301
854.777	33
854.866	22
854.955	56
855.044	-393
855.133	-558
855.222	-571
855.311	-447
855.400	-63
855.488	-559
855.577	-143
855.666	138
855.755	-173
855.844	700
855.933	408
856.021	-242
856.110	-126
856.199	-629
856.288	-1105
856.376	-92
856.465	-933
856.554	306
856.642	-1142
856.731	376
856.819	-397
856.908	-433
856.996	-39
857.085	352
857.173	-528
857.262	-810
857.350	-762
857.438	322
857.527	-609
857.615	853
857.703	-655
857.792	-271
857.880	-1281
857.968	-341
858.056	29
858.145	-439
858.233	-338
858.321	-326
858.409	105
858.497	-1271
858.585	-847
858.673	-683
858.761	-488
858.849	425
858.937	-36
859.025	-253
859.113	-548
859.201	-707
859.289	-125
859.377	-90
859.465	-710
859.552	-683
859.640	-142
859.728	-10
859.816	-1165
859.903	156
859.991	-5
860.079	550
860.166	-536
860.254	241
860.342	-213
860.429	-371
860.517	-582
860.604	-466
860.692	-246
860.779	-450
860.867	-388
860.954	-381
861.042	-880
861.129	557
861.216	-417
861.304	-204
861.391	-714
861.478	-56
861.565	39
861.653	-88
861.740	-845
861.827	-424
861.914	-330
862.001	-959
862.089	-843
862.176	-712
862.263	-644
862.350	-67
862.437	-688
862.524	-799
862.611	-236
862.698	-80
862.785	-733
862.871	337
862.958	309
863.045	-631
863.132	-621
863.219	-114
863.306	-844
863.392	-217
863.479	-916
863.566	-218
863.652	-492
863.739	-625
863.826	297
863.912	-348
863.999	-830
864.086	-380
864.172	-910
864.259	-978
864.345	-313
864.432	-187
864.518	-668
864.604	-768
864.691	-1153
864.777	-139
864.863	12
864.950	506
865.036	-1207
865.122	-395
865.209	-82
865.295	26
865.381	-821
865.467	-324
865.553	-58
865.639	-1419
865.726	-140
865.812	324
865.898	874
865.984	1717
866.070	1929
866.156	3416
866.242	-276
866.328	-483
866.414	-881
866.499	281
866.585	-571
866.671	-755
866.757	-213
866.843	-299
866.928	-521
867.014	-677
867.100	195
867.186	-123
867.271	147
867.357	370
867.442	-637
867.528	-366
867.614	-483
867.699	240
867.785	-88
867.870	55
867.956	388
868.041	626
868.127	-352
868.212	610
868.297	4
868.383	-387
868.468	185
868.553	956
868.639	521
868.724	950
868.809	1747
868.894	506
868.979	-293
869.065	-600
869.150	-763
869.235	-501
869.320	-693
869.405	-263
869.490	-1586
869.575	-689
869.660	-1157
869.745	-430
869.830	-765
869.915	-748
870.000	-984
870.085	38
870.169	-149
870.254	295
870.339	-1162
870.424	-702
870.509	-183
870.593	-297
870.678	-784
870.763	-537
870.847	-280
870.932	-821
871.016	-126
871.101	-388
871.186	-860
871.270	-782
871.355	-498
871.439	366
871.523	-1169
871.608	-644
871.692	-403
871.777	-881
871.861	-351
871.945	-337
872.030	68
872.114	-581
872.198	-1225
872.282	-447
872.367	-285
872.451	-869
872.535	-1337
872.619	-62
872.703	-550
872.787	-677
872.871	-356
872.955	-276
873.039	-1544
873.123	-496
873.207	-889
873.291	-786
873.375	-224
873.459	-266
873.543	-1116
873.627	-830
873.711	-1156
873.794	-72
873.878	-1110
873.962	-1328
874.045	-449
874.129	-543
874.137	-518
874.213	-274
874.245	-368
874.296	-516
874.352	-834
874.380	-991
874.460	-301
874.464	-274
874.547	-594
874.568	-563
874.631	-478
874.676	-600
874.714	-690
874.784	38
874.798	177
874.881	554
874.892	394
874.965	-683
874.999	-714
875.048	-785
875.107	-991
875.131	-1062
875.215	-92
875.215	-92
875.298	-624
875.323	-784
875.381	-1091
875.430	-728
875.465	-495
875.538	-930
875.548	-981
875.631	-374
875.646	-425
875.714	-768
875.753	-534
875.798	-177
875.861	-214
875.881	-264
875.964	-767
875.968	-754
876.047	-399
876.076	-364
876.130	-421
876.183	-760
876.213	-881
876.291	190
876.296	261
876.379	-401
876.398	-230
876.462	259
876.506	-28
876.545	-246
876.613	254
876.628	357
876.711	-737
876.721	-708
876.794	-494
876.828	-477
876.877	-451
876.935	-444
876.960	-437
877.043	20
877.043	19
877.125	-37
877.150	-48
877.208	-80
877.258	-41
877.291	29
877.365	-161
877.374	-208
877.456	-118
877.472	-59
877.539	342
877.579	-49
877.622	-522
877.687	-307
877.704	-220
877.787	-32
877.794	-96
877.869	-850
877.901	-540
877.952	-33
878.008	-244
878.034	-288
878.115	-224
878.117	-227
878.199	-841
878.222	-740
878.282	-347
878.329	-131
878.364	83
878.437	177
878.447	168
878.529	-644
878.544	-474
878.611	179
878.651	134
878.694	288
878.758	123
878.776	13
878.858	-661
878.865	-636
878.941	-359
878.972	-378
879.023	-313
879.078	-269
879.105	-191
879.185	-45
879.187	-46
879.269	-200
879.292	-253
879.351	-353
879.399	-202
879.433	-115
879.506	-86
879.516	-76
879.598	-551
879.613	-506
879.680	-66
879.720	172
879.762	120
879.827	-269
879.844	-297
879.926	-325
879.933	-321
880.007	-458
880.040	-755
880.089	-954
880.147	-412
880.171	-245
880.253	355
880.254	352
880.335	-279
880.360	-201
880.417	154
880.467	144
880.499	258
880.574	1640
880.580	1675
880.662	597
880.680	334
880.744	152
880.787	115
880.825	-280
880.893	-515
880.907	-433
880.989	-343
881.000	-264
881.070	-275
881.106	-629
881.152	-797
881.213	-292
881.233	-190
881.315	161
881.319	125
881.396	-284
881.426	-260
881.478	-385
881.532	-125
881.559	103
881.639	-326
881.641	-346
881.722	-658
881.745	-663
881.803	-139
881.852	-185
881.885	-513
881.958	-699
881.966	-653
882.047	339
882.064	259
882.129	-329
882.171	-175
882.210	97
882.277	355
882.291	371
882.372	390
882.383	330
882.454	-228
882.489	-257
882.535	-29
882.596	-14
882.616	-77
882.697	128
882.702	119
882.778	493
882.808	511
882.859	-19
882.914	-397
882.940	-362
883.020	27
883.021	30
883.102	-381
883.127	-376
883.183	-157
883.233	-60
883.264	57
883.339	175
883.345	155
883.426	-178
883.445	-257
883.507	-293
883.551	-379
883.587	-370
883.657	-142
883.668	-93
883.749	70
883.763	94
883.830	-128
883.869	-185
883.910	-173
883.975	39
883.991	132
884.072	-22
884.081	28
884.152	571
884.187	430
884.233	-107
884.292	-114
884.314	130
884.394	839
884.398	858
884.475	180
884.504	-121
884.555	-213
884.610	-196
884.636	-299
884.716	-472
884.716	-465
884.797	217
884.821	428
884.877	377
884.927	295
884.958	182
885.033	-234
885.038	-233
885.118	208
885.139	228
885.199	293
885.244	279
885.279	146
885.350	-166
885.359	-132
885.439	360
885.456	387
885.520	-3
885.561	62
885.600	268
885.667	215
885.680	198
885.760	196
885.773	188
885.840	453
885.878	605
885.920	520
885.984	238
886.000	333
886.080	1312
886.089	1330
886.160	309
886.195	7
886.240	61
886.300	92
886.320	62
886.400	-110
886.406	-128
886.480	171
886.511	364
886.560	221
886.616	-133
886.640	-163
886.720	21
886.722	18
886.800	543
886.827	798
886.879	622
886.932	329
886.959	419
887.038	696
887.039	697
887.119	450
887.143	397
887.198	499
887.248	550
887.278	656
887.354	925
887.358	900
887.437	257
887.459	119
887.517	473
887.564	578
887.596	631
887.669	925
887.676	903
887.755	510
887.774	435
887.835	-211
887.880	-775
887.914	-483
887.985	219
887.994	272
888.073	623
888.090	711
888.153	878
888.195	908
888.232	529
888.300	-121
888.311	-71
888.391	278
888.405	335
888.470	157
888.510	49
888.549	157
888.615	380
888.628	324
888.708	-153
888.720	-221
888.787	1
888.825	136
888.866	267
888.930	453
888.945	495
889.024	684
889.035	711
889.103	301
889.140	44
889.182	156
889.245	383
889.261	429
889.340	575
889.349	598
889.419	950
889.454	1096
889.498	642
889.559	37
889.577	216
889.656	997
889.664	1074
889.735	499
889.768	226
889.814	154
889.873	62
889.978	-234
890.083	110
890.187	957
890.292	657
890.397	54
890.501	760
890.606	20
890.710	1220
890.815	42
890.919	646
891.024	431
891.128	1181
891.233	349
891.337	597
891.442	654
891.546	1001
891.650	-111
891.755	154
891.859	475
891.963	1286
892.068	-470
892.172	126
892.276	368
892.380	837
892.484	629
892.589	540
892.693	298
892.797	466
892.901	351
893.005	281
893.109	1368
893.213	1147
893.317	411
893.421	1406
893.525	333
893.629	257
893.733	-59
893.837	821
893.941	348
894.045	1081
894.148	90
894.252	792
894.356	882
894.460	594
894.564	506
894.667	430
894.771	343
894.875	1215
894.978	241
895.082	788
895.186	531
895.289	1268
895.393	188
895.496	31
895.600	-26
895.703	897
895.807	-146
895.910	133
896.014	523
896.117	-387
896.221	249
896.324	923
896.427	557
896.531	1385
896.634	563
896.737	197
896.840	910
896.944	-183
897.047	355
897.150	980
897.253	-43
897.356	734
897.460	-576
897.563	1408
897.666	600
897.769	29
897.872	202
897.975	-102
898.078	311
898.181	438
898.284	-286
898.387	706
898.490	998
898.593	273
898.695	-154
898.798	549
898.901	774
899.004	807
899.107	-179
899.209	471
899.312	136
899.415	745
899.518	500
899.620	748
899.723	630
899.826	608
899.928	1164
900.031	732
900.133	88
900.236	1519
900.338	-254
900.441	703
900.543	52
900.646	882
900.748	-34
900.851	480
900.953	748
901.055	382
901.158	317
901.260	376
901.362	250
901.465	36
901.567	313
901.669	291
901.771	-459
901.873	1355
901.976	325
902.078	985
902.180	-100
902.282	387
902.384	-54
902.486	478
902.588	360
902.690	704
902.792	71
902.894	781
902.996	375
903.098	537
903.200	550
903.302	77
903.404	255
903.505	727
903.607	46
903.709	794
903.811	-91
903.913	996
904.014	515
904.116	277
904.218	644
904.319	673
904.421	-207
904.523	55
904.624	225
904.726	273
904.827	1101
904.929	915
905.030	149
905.132	680
905.233	1043
905.335	423
905.436	131
905.537	405
905.639	-66
905.740	182
905.841	49
905.943	474
906.044	966
906.145	603
906.247	435
906.348	381
906.449	-66
906.550	355
906.651	64
906.752	368
906.854	446
906.955	555
907.056	892
907.157	1007
907.258	-130
907.359	890
907.460	-16
907.561	517
907.662	639
907.762	243
907.863	-705
907.964	-84
908.065	-228
908.166	-179
908.267	550
908.367	131
908.468	375
908.569	-438
908.670	-33
908.770	715
908.871	-279
908.971	913
909.072	155
909.173	712
909.273	-240
909.374	392
909.474	-59
909.575	49
909.675	45
909.776	428
909.876	345
909.977	398
910.077	166
910.177	478
910.278	631
910.378	-283
910.478	-452
910.579	616
910.679	232
910.779	69
910.879	-284
910.980	-199
911.080	463
911.180	639
911.280	-86
911.380	488
911.480	195
911.580	444
911.680	-317
911.780	6
911.880	-31
911.980	-700
912.080	-234
912.180	-78
912.280	234
912.380	92
912.480	-149
912.580	190
912.679	168
912.779	-36
912.879	-295
912.979	988
913.078	-602
913.178	554
913.278	348
913.377	248
913.477	-105
913.577	-512
913.676	526
913.776	533
913.875	-57
913.975	-8
914.074	-851
914.174	266
914.273	-1054
914.373	-98
914.472	-374
914.572	-451
914.671	-333
914.770	-771
914.870	-434
914.969	14
915.068	-341
915.167	193
915.267	-416
915.366	-328
915.465	-644
915.564	585
915.663	33
915.763	-859
915.862	-576
915.961	-129
916.060	381
916.159	99
916.258	-46
916.357	-100
916.456	98
916.555	1072
916.654	-708
916.752	-56
916.851	-191
916.950	-80
917.049	173
917.148	-214
917.247	-200
917.345	148
917.444	-410
917.543	496
917.642	203
917.740	-42
917.839	-173
917.937	904
918.036	-249
918.135	-275
918.233	-130
918.332	-252
918.430	-41
918.529	-298
918.627	-269
918.726	115
918.824	-134
918.923	-183
919.021	-99
919.119	-393
919.218	-189
919.316	68
919.414	-320
919.512	362
919.611	-320
919.709	341
919.807	-429
919.905	-111
920.003	-243
920.102	-624
920.200	-667
920.298	177
920.396	92
920.494	-378
920.592	-902
920.690	95
920.788	-275
920.886	527
920.984	-358
921.082	181
921.180	222
921.277	550
921.375	158
921.473	-250
921.571	-1141
921.669	364
921.766	-6
921.864	50
921.962	-195
922.060	428
922.157	320
922.255	350
922.352	38
922.450	215
922.548	-592
922.645	42
922.743	477
922.840	-80
922.938	-627
923.035	96
923.133	175
923.230	9
923.327	-763
923.425	-235
923.522	-15
923.619	643
923.717	-1019
923.814	263
923.911	42
924.008	222
924.106	159
924.203	-63
924.300	154
924.397	-422
924.494	22
924.591	64
924.688	-666
924.786	-177
924.883	98
924.979	31
925.077	-159
925.173	298
925.270	-307
925.367	343
925.464	-1033
925.561	145
925.658	-140
925.755	679
925.852	-202
925.948	25
926.045	-105
926.142	48
926.239	-212
926.335	214
926.432	790
926.529	410
926.625	201
926.722	-21
926.818	82
926.915	-34
927.011	-136
927.108	22
927.204	128
927.301	105
927.397	-542
927.494	-121
927.590	-525
927.687	733
927.783	861
927.879	-589
927.976	-221
928.072	172
928.168	186
928.264	439
928.361	-489
928.457	212
928.553	-484
928.649	-551
928.745	-119
928.841	10
928.937	-430
929.033	-378
929.129	253
929.225	715
929.321	90
929.417	-724
929.513	-520
929.609	-484
929.705	-800
929.801	478
929.897	-572
929.993	223
930.089	-468
930.184	484
930.280	-67
930.376	-289
930.471	-593
930.567	-263
930.663	-283
930.758	-143
930.854	-549
930.950	435
931.045	-683
931.141	210
931.236	-111
931.332	-210
931.427	-692
931.523	186
931.618	577
931.714	-193
931.809	-56
931.905	53
932.000	-758
932.095	-206
932.191	-384
932.286	-5
932.381	-408
932.476	170
932.572	133
932.667	-193
932.762	76
932.857	-295
932.952	-212
933.047	-395
933.142	658
933.237	-158
933.332	50
933.427	-156
933.522	-580
933.617	304
933.712	-145
933.807	-142
933.902	-600
933.997	129
934.092	-177
934.187	299
934.282	-591
934.376	6
934.471	-1084
934.566	193
934.661	104
934.755	-658
934.850	-376
934.945	277
935.039	-209
935.134	528
935.228	-265
935.323	167
935.417	-313
935.512	57
935.606	-370
935.701	-449
935.795	-545
935.890	681
935.984	120
936.079	-129
936.173	-243
936.267	596
936.362	-362
936.456	-176
936.550	-11
936.644	871
936.738	-158
936.833	111
936.927	-425
937.021	638
937.115	-449
937.209	-523
937.303	-308
937.397	5
937.491	-721
937.585	-37
937.679	-543
937.773	165
937.867	-218
937.961	-32
938.055	-41
938.149	-85
938.243	-596
938.337	493
938.430	-99
938.524	-234
938.618	117
938.712	404
938.805	-390
938.899	-935
938.993	-20
939.086	633
939.180	96
939.274	-117
939.367	-126
939.461	365
939.554	-370
939.648	90
939.741	-344
939.835	-233
939.928	-551
940.022	-444
940.115	-590
940.208	-262
940.302	-24
940.395	193
940.488	-436
940.582	-439
940.675	-196
940.768	16
940.861	-558
940.954	47
941.048	-258
941.141	-410
941.234	75
941.327	216
941.420	-167
941.513	174
941.606	-383
941.699	123
941.792	-373
941.885	-898
941.978	-9
942.071	-339
942.164	-245
942.257	66
942.349	-222
942.442	332
942.535	-558
942.628	-44
942.721	127
942.813	-383
942.906	-857
942.999	-512
943.091	178
943.184	-529
943.277	-556
943.369	153
943.462	261
943.554	584
943.647	-431
943.739	749
943.832	-573
943.924	-502
944.017	-400
944.109	-479
944.201	593
944.294	-428
944.386	33
944.478	-626
944.571	-458
944.663	307
944.755	-183
944.847	-28
944.940	-627
945.032	-830
945.124	-609
945.216	233
945.308	124
945.400	420
945.492	0
945.584	-941
945.676	-738
945.768	149
945.860	-277
945.952	570
946.044	-187
946.136	-645
946.228	-793
946.320	-211
946.412	-626
946.503	1142
946.595	-856
946.687	711
946.779	-347
946.870	-85
946.962	-1110
947.054	240
947.145	-399
947.237	-71
947.329	-608
947.420	-284
947.512	-415
947.603	268
947.695	-648
947.786	-994
947.878	-216
947.969	-387
948.061	-406
948.152	-477
948.243	-735
948.335	-271
948.426	-71
948.517	-1030
948.609	-967
948.700	-1048
948.791	-833
948.882	-172
948.973	-663
949.065	-374
949.156	-38
949.247	50
949.338	-774
949.429	-522
949.520	114
949.611	-431
949.702	-528
949.793	-616
949.884	-666
949.975	-156
950.066	-892
950.157	-32
950.247	-318
950.338	-970
950.429	-296
950.520	106
950.611	-512
950.701	-114
950.792	-895
950.883	-664
950.973	-151
951.064	-684
951.155	-1036
951.245	-138
951.336	-358
951.427	-413
951.517	-758
951.608	-220
951.698	-740
951.788	-1245
951.879	-659
951.969	-425
952.060	-588
952.150	-317
952.240	-8
952.331	-1291
952.421	404
952.511	-877
952.602	-350
952.692	-627
952.782	-415
952.872	-333
952.962	-497
953.052	-406
953.143	-886
953.233	-274
953.323	250
953.413	-1238
953.503	-432
953.593	-327
953.683	-1213
953.773	-1016
953.863	-687
953.953	-622
954.042	125
954.132	-1243
954.222	-159
954.312	254
954.402	-1077
954.492	-336
954.581	-929
954.671	-860
954.761	-1012
954.850	148
954.940	-486
955.030	-608
955.119	-1207
955.209	-66
955.298	-952
955.388	-685
955.477	-330
955.567	-1852
955.656	-31
955.746	-211
955.835	-1140
955.925	-652
956.014	-413
956.103	-535
956.193	-557
956.282	-78
956.371	-626
956.461	-390
956.550	-1603
956.639	-68
956.728	-20
956.817	-464
956.906	-658
956.995	-393
957.085	-897
957.174	65
957.263	-666
957.352	-359
957.441	-988
957.530	-815
957.619	-734
957.708	-264
957.796	-732
957.885	-292
957.974	-528
958.063	-406
958.152	-925
958.241	-350
958.329	-1121
958.418	62
958.507	-1433
958.596	245
958.684	-862
958.773	-916
958.861	-504
958.950	-348
959.039	-453
959.127	-590
959.216	-843
959.304	-719
959.393	-441
959.481	-254
959.570	-1043
959.658	-747
959.746	-401
959.835	-229
959.923	-54
960.011	-417
960.100	-77
960.188	71
960.276	-977
960.365	222
960.453	-121
960.541	-375
960.629	-574
960.717	-202
960.805	-757
960.893	-839
960.981	-923
961.069	339
961.158	-1241
961.245	-1067
961.333	-1377
961.421	-1222
961.509	-668
961.597	-483
961.685	-399
961.773	-1635
961.861	-1323
961.949	-583
962.036	-1618
962.124	-300
962.212	-610
962.299	-1018
962.387	-1122
962.475	-435
962.562	-1190
962.650	-116
962.738	-1154
962.825	-880
962.913	-1057
963.000	-723
963.088	-804
963.175	-679
963.263	-1282
963.350	-1638
963.438	-1319
963.525	67
963.612	-345
963.700	-542
963.787	610
963.874	205
963.962	-237
964.049	-982
964.136	-961
964.223	-927
964.310	-524
964.398	-338
964.485	-1164
964.572	-935
964.659	-793
964.746	-165
964.833	-667
964.920	-98
965.007	-776
965.094	-863
965.181	-1143
965.268	383
965.355	-878
965.441	-376
965.528	-1799
965.615	-416
965.702	-1235
965.789	-451
965.875	-869
965.962	-649
966.049	-1562
966.136	-273
966.222	-1398
966.309	-54
966.395	-1237
966.482	-488
966.569	-253
966.655	-260
966.742	-1098
966.828	-458
966.915	-477
967.001	-423
967.087	-1487
967.174	-656
967.260	-337
967.347	-394
967.433	-914
967.519	299
967.605	-135
967.692	-861
967.778	-1091
967.864	367
967.950	-1021
968.036	-989
968.123	-879
968.209	-1103
968.295	-2020
968.381	295
968.467	-1431
968.553	-1402
968.639	-1498
968.725	-1302
968.811	-525
968.897	136
968.983	-745
969.069	-1274
969.154	-1192
969.240	-506
969.326	-1696
969.412	-1123
969.497	-1005
969.583	-1346
969.669	-698
969.755	-1053
969.840	-1034
969.926	-317
970.012	-582
970.097	-769
970.183	-1721
970.268	-391
970.354	-658
970.439	-1315
970.525	23
970.610	-1012
970.696	-749
970.781	419
970.866	-769
970.952	-196
971.037	-1248
971.122	-1066
971.208	-1128
971.293	-1094
971.378	-625
971.463	-1121
971.549	-887
971.634	-779
971.719	-1204
971.804	-822
971.889	-297
971.974	-1430
972.059	-1046
972.144	-174
972.229	-1513
972.314	-755
972.399	-986
972.484	-685
972.569	-798
972.654	-813
972.739	-315
972.824	370
972.908	-147
972.993	-594
973.078	-1198
973.163	-599
973.247	-109
973.332	-1290
973.417	-75
973.501	-603
973.586	-515
973.671	-554
973.755	-1600
973.840	-623
973.924	-1336
974.009	8
974.093	-983
974.178	-228
974.262	-434
974.346	277
974.431	-1255
974.515	-338
974.600	-1094
974.684	-953
974.768	-892
974.852	-86
974.937	-840
975.021	41
975.105	-449
975.189	-199
975.273	-980
975.358	-947
975.442	-1005
975.526	-242
975.610	-505
975.694	-853
975.778	54
975.862	-735
975.946	-1854
976.030	-257
976.114	-740
976.198	-653
976.281	-1147
976.365	-341
976.449	-1501
976.533	-567
976.617	-298
976.700	-969
976.784	-1631
976.868	-50
976.951	-535
977.035	-1156
977.119	-477
977.202	-187
977.286	-1036
977.369	-559
977.453	-1352
977.536	-985
977.620	-1474
977.703	-495
977.787	-1405
977.870	-310
977.953	-21
978.037	-764
978.120	-322
978.203	-422
978.287	-218
978.370	-647
978.453	-687
978.536	-893
978.620	-470
978.703	-393
978.786	-480
978.869	-692
978.952	-1673
979.035	-845
979.118	-712
979.201	-731
979.284	-687
979.367	-936
979.450	-189
979.533	-874
979.616	-1674
979.699	-685
979.782	-1288
979.865	-176
979.948	-774
980.030	-792
980.113	-1392
980.196	-1830
980.279	-699
980.361	-568
980.444	-1599
980.526	-563
980.609	-889
980.692	-963
980.774	-934
980.857	-1384
980.939	-708
981.022	-475
981.104	-838
981.187	-725
981.269	-504
981.352	-230
981.434	-1938
981.516	-1333
981.599	-262
981.681	523
981.763	-967
981.846	-1201
981.928	-700
982.010	-1121
982.092	-861
982.174	35
982.256	-1185
982.339	-1021
982.421	-1569
982.503	-471
982.585	-1287
982.667	-686
982.749	-651
982.831	-868
982.913	-1118
982.995	-930
983.077	-887
983.158	-591
983.240	-1781
983.322	-546
983.404	-374
983.486	-836
983.568	-754
983.649	-1380
983.731	-1225
983.813	-1043
983.894	-484
983.976	-1770
984.058	-1108
984.139	-249
984.221	-1310
984.302	-615
984.384	-1238
984.465	-1130
984.547	-1418
984.628	-590
984.710	-2006
984.791	-750
984.872	-1739
984.954	-852
985.035	-975
985.116	-1190
985.198	-1339
985.279	-740
985.360	-1064
985.441	-655
985.522	-803
985.604	-1166
985.685	-2146
985.766	380
985.847	-1367
985.928	-1338
986.009	-974
986.090	-1118
986.171	-947
986.252	-493
986.333	-997
986.414	-1229
986.495	-310
986.576	-1339
986.656	-757
986.737	-1441
986.818	-1331
986.899	-1258
986.980	-1711
987.060	-774
987.141	-998
987.222	-381
987.302	-1235
987.383	-391
987.464	-1085
987.544	-632
987.625	-1171
987.705	-1105
987.786	-1200
987.866	-1712
987.947	-1109
988.027	-1406
988.108	-1775
988.188	-1827
988.268	-1395
988.349	-691
988.429	-1596
988.509	-552
988.589	-786
988.670	-1584
988.750	-586
988.830	-748
988.910	-1600
988.990	-795
989.070	-1113
989.151	-686
989.231	-1628
989.311	-720
989.391	-546
989.471	-257
989.551	-1208
989.631	-710
989.711	-1738
989.791	-1169
989.870	-1987
989.950	-1253
990.030	-1349
990.110	-847
990.190	-965
990.269	-1032
990.349	-1405
990.429	-711
990.509	-1520
990.588	-1147
990.668	-1328
990.747	-970
990.827	-1703
990.907	-795
990.986	-1585
991.066	-1222
991.145	-1336
991.225	-268
991.304	-1280
991.383	-1039
991.463	-1677
991.542	-120
991.622	-1303
991.701	-798
991.780	-830
991.859	-1295
991.939	-1350
992.018	-1494
992.097	-1426
992.176	281
992.256	-1316
992.335	-1683
992.414	-1063
992.493	-931
992.572	-1670
992.651	-1412
992.730	-1229
992.809	-1136
992.888	-1513
992.967	-744
993.046	-1018
993.125	-1796
993.203	-1709
993.282	-1439
993.361	-732
993.440	-166
993.519	-1268
993.597	-1805
993.676	-1786
993.755	-701
993.834	-1707
993.912	-2356
993.991	-1020
994.069	-1434
994.148	-2452
994.226	-528
994.305	-1121
994.384	-928
994.462	-762
994.540	-1211
994.619	-1241
994.697	-960
994.776	-1856
994.854	-470
994.932	-1351
995.011	-422
995.089	-1330
995.167	-1104
995.245	-1493
995.324	-1152
995.402	-906
995.480	-1558
995.558	-1764
995.636	-2029
995.714	-2273
995.792	202
995.870	-1900
995.948	-1187
996.026	-1621
996.104	-1895
996.182	-1822
996.260	-1427
996.338	-1369
996.416	-901
996.494	-2559
996.572	286
996.649	-891
996.727	-2631
996.805	-1374
996.883	-1200
996.960	-1743
997.038	-1053
997.116	-1228
997.193	-2016
997.271	-1536
997.348	-1428
997.426	-1631
997.504	-1907
997.581	-1659
997.658	-1659
997.736	-2379
997.813	-2038
997.891	-1565
997.968	-1815
998.046	-1116
998.123	-1646
998.200	-1162
998.277	-2098
998.355	-596
998.432	-1929
998.509	-1864
998.586	-1878
998.663	-446
998.741	-1408
998.818	-1852
998.895	-1090
998.972	-1245
999.049	-1201
999.126	-2703
999.203	-1548
999.280	-1679
999.357	-1715
999.434	-1372
999.511	-1414
999.587	-996
999.664	-1517
999.741	-948
999.818	-720
999.895	-1747
999.971	-1459
1000.048	-2308
1000.125	-334
1000.202	-1352
1000.278	-927
1000.355	-1729
1000.431	-1431
1000.508	-1576
1000.584	-941
1000.661	-1087
1000.738	-1542
1000.814	-1941
1000.890	-932
1000.967	-1430
1001.043	-1847
1001.120	-1588
1001.196	-1816
1001.272	-2035
1001.349	-870
1001.425	-1314
1001.501	-791
1001.577	-1770
1001.654	-832
1001.730	-1314
1001.806	-1484
1001.882	-2023
1001.958	-1442
1002.034	-1523
1002.110	-766
1002.186	-1787
1002.262	-1043
1002.338	-1920
1002.414	-1149
1002.490	-1226
1002.566	-1182
1002.642	-2366
1002.718	-995
1002.794	-1868
1002.870	-1527
1002.945	-2224
1003.021	-1739
1003.097	-1872
1003.173	-1199
1003.248	-1448
1003.324	-1283
1003.400	-1859
1003.475	-1771
1003.551	-2017
1003.626	-1547
1003.702	-1771
1003.777	-1142
1003.853	-1573
1003.928	-1579
1004.004	-2358
1004.079	-1385
1004.155	-1343
1004.230	-1755
1004.305	-1911
1004.381	-1194
1004.456	-2052
1004.531	-1354
1004.607	-1609
1004.682	-1888
1004.757	-1669
1004.832	-1520
1004.907	-1177
1004.982	-108
1005.057	-2020
1005.133	-1466
1005.208	-1350
1005.283	-1295
1005.358	-1346
1005.433	-1448
1005.508	-1290
1005.583	-2153
1005.657	-1860
1005.732	-1497
1005.807	-1270
1005.882	-1542
1005.957	-1890
1006.032	-1216
1006.106	-1465
1006.181	-1782
1006.256	-1995
1006.331	-1947
1006.405	-2367
1006.480	-1072
1006.554	-2233
1006.629	-1160
1006.704	-1780
1006.778	-830
1006.853	-278
1006.927	-1484
1007.002	-1592
1007.076	-1701
1007.150	-1169
1007.225	-1464
1007.299	-1640
1007.373	-2280
1007.448	-1495
1007.522	-1817
1007.596	-2015
1007.671	-2327
1007.745	-1773
1007.819	-1677
1007.893	-1967
1007.967	-1599
1008.041	-1651
1008.115	-1002
1008.190	-1404
1008.264	-1644
1008.338	-2490
1008.412	-1004
1008.486	-1012
1008.560	-2103
1008.633	-1744
1008.707	-1336
1008.781	-1743
1008.855	-1873
1008.929	-1365
1009.003	-1892
1009.076	-1673
1009.150	-1888
1009.224	-2167
1009.298	-1021
1009.371	-1782
1009.445	-1465
1009.519	-1088
1009.592	-2691
1009.666	-1396
1009.739	-1956
1009.813	-1251
1009.886	-1312
1009.960	-2454
1010.033	-657
1010.107	-2102
1010.180	-2202
1010.253	-812
1010.327	-1765
1010.400	-2032
1010.473	-1608
1010.547	-1495
1010.620	-1886
1010.693	-1178
1010.766	-858
1010.840	-1513
1010.913	-1187
1010.986	-1586
1011.059	-1297
1011.132	-2035
1011.205	-1136
1011.278	-1057
1011.351	-1505
1011.424	-1130
1011.497	-1699
1011.570	-2422
1011.643	-683
1011.716	-3132
1011.789	-2261
1011.862	-2043
1011.934	-1378
1012.007	-2206
1012.080	-1287
1012.153	-1660
1012.225	-1201
1012.298	-1364
1012.371	-2096
1012.443	-1491
1012.516	-2482
1012.588	-1408
1012.661	-895
1012.733	-1818
1012.806	-869
1012.879	-2108
1012.951	-1541
1013.023	-2000
1013.096	-1313
1013.168	-1237
1013.241	-818
1013.313	-1993
1013.385	-1536
1013.458	-2516
1013.530	-895
1013.602	-1639
1013.674	-1153
1013.746	-1276
1013.819	-1676
1013.891	-1473
1013.963	-2763
1014.035	-2218
1014.107	-1177
1014.179	-1194
1014.251	-1601
1014.323	-1390
1014.395	-1822
1014.467	-1853
1014.539	-1212
1014.611	-2557
1014.683	-1312
1014.754	-2038
1014.826	-2043
1014.898	-2310
1014.970	-1862
1015.042	-1822
1015.113	-1315
1015.185	-1121
1015.257	-1432
1015.328	-1651
1015.400	-1848
1015.471	-1934
1015.543	-1358
1015.615	-2542
1015.686	-1721
1015.757	-1315
1015.829	-2316
1015.901	-2281
1015.972	-1213
1016.043	-1564
1016.115	-1671
1016.186	-1053
1016.257	-2478
1016.328	-1406
1016.400	-1349
1016.471	-1464
1016.542	-1863
1016.613	-1571
1016.685	-2216
1016.756	-1157
1016.827	-1631
1016.898	-2978
1016.969	-248
1017.040	-1182
1017.111	-1394
1017.182	-1792
1017.253	-1446
1017.324	-2001
1017.395	-1357
1017.466	-650
1017.537	-1479
1017.608	-1308
1017.678	-1173
1017.749	-1934
1017.820	-1845
1017.891	-1695
1017.961	-1961
1018.032	-1738
1018.103	-1306
1018.173	-1792
1018.244	-1491
1018.315	-1790
1018.385	-1365
1018.456	-1152
1018.526	-1770
1018.597	-1741
1018.667	-1315
1018.738	-1968
1018.808	-1595
1018.878	-2049
1018.949	-612
1019.019	-1726
1019.089	-1249
1019.160	-1791
1019.230	-1260
1019.300	-1493
1019.371	-2066
1019.441	-1458
1019.511	-1820
1019.581	-1473
1019.651	-1294
1019.721	-1387
1019.791	-1104
1019.861	-918
1019.931	-1124
1020.001	-2415
1020.071	-1495
1020.141	-1918
1020.211	-1340
1020.281	-1460
1020.351	-1665
1020.421	-1856
1020.491	-1137
1020.560	-2319
1020.630	-1919
1020.700	-2131
1020.770	-1419
1020.839	-1966
1020.909	-1258
1020.979	-2106
1021.048	-1832
1021.118	-1883
1021.187	-1287
1021.257	-2099
1021.326	-1052
1021.396	-2150
1021.465	-1200
1021.535	-479
1021.604	-1536
1021.674	-2158
1021.743	-446
1021.812	-1773
1021.882	-1880
1021.951	-2216
1022.020	-1916
1022.089	-1832
1022.159	-1952
1022.228	-1874
1022.297	-1213
1022.366	-1965
1022.435	-1864
1022.504	-1629
1022.573	-1231
1022.642	-2079
1022.711	-2194
1022.781	-1445
1022.849	-1282
1022.918	-1695
1022.987	-1320
1023.056	-2503
1023.125	-1633
1023.194	-1630
1023.263	-984
1023.331	-2063
1023.400	-1849
1023.469	-1692
1023.538	-572
1023.606	-2060
1023.675	-1363
1023.744	-1578
1023.812	-2008
1023.881	-2127
1023.949	-2057
1024.018	-2092
1024.086	-1093
1024.155	-1663
1024.223	-1472
1024.292	-2612
1024.360	-982
1024.429	-1511
1024.497	-1534
1024.565	-1347
1024.634	-2163
1024.702	-1574
1024.770	-1372
1024.838	-2496
1024.907	-1182
1024.975	-2152
1025.043	-1520
1025.111	-1853
1025.179	-1176
1025.247	-1582
1025.315	-1895
1025.383	-1674
1025.451	-1772
1025.519	-2292
1025.587	-1419
1025.655	-2088
1025.723	-2285
1025.791	-2347
1025.859	-1566
1025.927	-1301
1025.995	-2617
1026.062	-1883
1026.130	-1429
1026.198	-2002
1026.266	-1918
1026.333	-993
1026.401	-2341
1026.469	-2088
1026.536	-1575
1026.604	-2499
1026.671	-2007
1026.739	-2352
1026.806	-1483
1026.874	-2050
1026.941	-1767
1027.009	-1945
1027.076	-2356
1027.144	-1516
1027.211	-1624
1027.278	-2510
1027.345	-1119
1027.413	-1774
1027.480	-2319
1027.547	-1985
1027.614	-2207
1027.682	-1289
1027.749	-1386
1027.816	-1714
1027.883	-1358
1027.950	-2234
1028.017	-1939
1028.084	-1902
1028.151	-1698
1028.218	-2553
1028.285	-1353
1028.352	-1825
1028.419	-1918
1028.486	-2356
1028.553	-1661
1028.619	-1717
1028.686	-2140
1028.753	-2516
1028.820	-2236
1028.886	-2422
1028.953	-1388
1029.020	-1292
1029.086	-1568
1029.153	-2112
1029.220	-1834
1029.286	-2531
1029.353	-1314
1029.419	-2438
1029.486	-2638
1029.552	-1468
1029.619	-1663
1029.685	-2598
1029.751	-2124
1029.818	-1869
1029.884	-2586
1029.951	-1849
1030.017	-2603
1030.083	-2261
1030.149	-1117
1030.216	-1573
1030.282	-1578
1030.348	-2540
1030.414	-1753
1030.480	-2438
1030.546	-1715
1030.612	-1552
1030.678	-1223
1030.744	-2275
1030.810	-2091
1030.876	-2306
1030.942	-1556
1031.008	-2488
1031.074	-1418
1031.140	-872
1031.206	-1425
1031.272	-2500
1031.337	-1549
1031.403	-1627
1031.469	-1413
1031.534	-2213
1031.600	-1487
1031.666	-2292
1031.731	-1836
1031.797	-2247
1031.863	-1581
1031.928	-2260
1031.994	-2370
1032.059	-2521
1032.125	-1570
1032.190	-1868
1032.256	-2784
1032.321	-2179
1032.386	-1164
1032.452	-1475
1032.517	-2273
1032.582	-2820
1032.647	-1590
1032.713	-1984
1032.778	-1462
1032.843	-2046
1032.908	-2090
1032.974	-2428
1033.039	-1761
1033.104	-1331
1033.169	-1970
1033.234	-2642
1033.299	-1528
1033.364	-1816
1033.429	-2630
1033.494	-1980
1033.559	-2289
1033.624	-2058
1033.688	-1244
1033.753	-2463
1033.818	-1749
1033.883	-2433
1033.948	-1675
1034.013	-1796
1034.077	-2596
1034.142	-1799
1034.207	-2559
1034.271	-1812
1034.336	-1835
1034.400	-1510
1034.465	-3292
1034.530	-2183
1034.594	-2575
1034.658	-1751
1034.723	-2404
1034.787	-2104
1034.852	-1581
1034.916	-2488
1034.981	-1902
1035.045	-2536
1035.109	-1181
1035.173	-1498
1035.238	-2018
1035.302	-2215
1035.366	-1017
1035.430	-1763
1035.495	-2480
1035.559	-1506
1035.623	-1760
1035.687	-3318
1035.751	-2567
1035.815	-2557
1035.879	-1807
1035.943	-2178
1036.007	-2598
1036.071	-2243
1036.135	-3004
1036.198	-1715
1036.262	-2225
1036.326	-2756
1036.390	-1515
1036.454	-2037
1036.517	-2034
1036.581	-2410
1036.645	-2107
1036.709	-1218
1036.772	-2342
1036.836	-2667
1036.900	-1728
1036.963	-2687
1037.026	-2010
1037.090	-2890
1037.154	-1774
1037.217	-2027
1037.280	-1860
1037.344	-2433
1037.407	-1926
1037.471	-2650
1037.534	-2383
1037.597	-2027
1037.661	-2789
1037.724	-2768
1037.787	-1719
1037.850	-2324
1037.913	-2417
1037.977	-2433
1038.040	-1595
1038.103	-2700
1038.166	-2525
1038.229	-2152
1038.292	-2465
1038.355	-2417
1038.418	-1940
1038.481	-2316
1038.544	-1796
1038.607	-2133
1038.670	-2125
1038.732	-2123
1038.795	-2236
1038.858	-2990
1038.921	-1863
1038.984	-2525
1039.046	-2324
1039.109	-1975
1039.172	-2203
1039.234	-2495
1039.297	-1930
1039.360	-2066
1039.422	-1986
1039.485	-2311
1039.547	-1945
1039.610	-2409
1039.672	-2186
1039.734	-2532
1039.797	-2341
1039.859	-2163
1039.922	-1838
1039.984	-2693
1040.046	-1568
1040.109	-2441
1040.171	-1622
1040.233	-2353
1040.295	-1733
1040.358	-2033
1040.420	-1747
1040.482	-2566
1040.544	-1955
1040.606	-2717
1040.668	-1646
1040.730	-2081
1040.792	-1852
1040.854	-2779
1040.916	-2550
1040.978	-2417
1041.040	-2090
1041.102	-1855
1041.164	-2309
1041.225	-1771
1041.287	-1517
1041.349	-2114
1041.411	-1360
1041.472	-2025
1041.534	-1924
1041.596	-2737
1041.657	-1731
1041.719	-2515
1041.781	-1569
1041.842	-3197
1041.904	-1483
1041.965	-2706
1042.027	-2337
1042.088	-1820
1042.150	-1058
1042.211	-1907
1042.272	-1278
1042.334	-2807
1042.395	-1886
1042.456	-3119
1042.518	-2325
1042.579	-2361
1042.640	-1613
1042.701	-2465
1042.763	-1660
1042.824	-2376
1042.885	-2091
1042.946	-1977
1043.007	-1773
1043.068	-2375
1043.129	-1623
1043.190	-2264
1043.251	-1629
1043.312	-2155
1043.373	-1781
1043.434	-1657
1043.495	-1949
1043.556	-2138
1043.616	-1353
1043.677	-2143
1043.738	-2332
1043.799	-2201
1043.859	-1759
1043.920	-2329
1043.981	-2135
1044.041	-1274
1044.102	-1406
1044.162	-1999
1044.223	-2357
1044.284	-2183
1044.344	-1844
1044.405	-1472
1044.465	-1535
1044.525	-2651
1044.586	-1529
1044.646	-1996
1044.707	-1090
1044.767	-1748
1044.827	-2349
1044.887	-2417
1044.948	-1567
1045.008	-1420
1045.068	-1819
1045.128	-1920
1045.188	-1663
1045.249	-1501
1045.309	-1613
1045.369	-2161
1045.429	-1674
1045.489	-2692
1045.549	-1728
1045.609	-1845
1045.669	-1858
1045.729	-2379
1045.789	-723
1045.848	-1863
1045.908	-1022
1045.968	-1853
1046.028	-898
1046.088	-2487
1046.147	-1296
1046.207	-1241
1046.267	-1330
1046.326	-1647
1046.386	-1271
1046.446	-819
1046.505	-1498
1046.565	-1382
1046.624	-1152
1046.684	-848
1046.743	-346
1046.803	-725
1046.862	26
1046.922	0
