'Start Wavelength	183.907
'End Wavelength	1046.922
'Gate Delay	5.000
'Gate Width (ms)	1.050
'Laser Output Level	0.000
'X Position	0.000
'Y Position	0.000
'Z Position	0.000
'Grid Point Number	1.000
'Shot Number	100.000
183.907	622.000
183.977	-59.000
184.047	-32
184.116	736
184.186	486
184.256	262
184.325	1023
184.395	-65
184.465	557
184.534	877
184.604	28
184.674	343
184.743	584
184.813	401
184.883	222
184.952	204
185.022	74
185.092	1420
185.161	709
185.231	228
185.301	730
185.370	413
185.440	374
185.509	656
185.579	434
185.649	-204
185.718	170
185.788	1068
185.857	196
185.927	895
185.996	32
186.066	770
186.136	430
186.205	154
186.275	258
186.344	311
186.414	1070
186.483	284
186.553	958
186.622	590
186.692	492
186.761	624
186.831	191
186.900	230
186.970	-259
187.039	806
187.109	148
187.178	582
187.248	333
187.317	556
187.387	-31
187.456	493
187.526	711
187.595	240
187.664	820
187.734	954
187.803	453
187.873	317
187.942	725
188.012	188
188.081	-200
188.150	590
188.220	1213
188.289	970
188.358	846
188.428	578
188.497	234
188.567	349
188.636	47
188.705	-59
188.775	564
188.844	-788
188.913	924
188.983	1108
189.052	-234
189.121	543
189.191	372
189.260	1027
189.329	814
189.399	35
189.468	624
189.537	433
189.606	648
189.676	623
189.745	486
189.814	780
189.883	391
189.953	25
190.022	561
190.091	1075
190.161	412
190.230	825
190.299	420
190.368	683
190.437	474
190.507	740
190.576	665
190.645	-577
190.714	455
190.783	111
190.853	702
190.922	913
190.991	1418
191.060	643
191.129	-366
191.198	397
191.268	-108
191.337	484
191.406	925
191.475	-133
191.544	360
191.613	888
191.682	562
191.752	-228
191.821	554
191.890	669
191.959	754
192.028	236
192.097	429
192.166	637
192.235	118
192.304	1002
192.373	108
192.442	-248
192.511	-290
192.580	1279
192.650	530
192.719	1085
192.788	-42
192.857	1054
192.926	377
192.995	689
193.064	1331
193.133	595
193.202	668
193.271	994
193.340	523
193.409	967
193.478	819
193.547	910
193.615	977
193.684	793
193.753	1143
193.822	1301
193.891	592
193.960	778
194.029	95
194.098	481
194.167	439
194.236	907
194.305	116
194.374	670
194.443	-77
194.512	683
194.580	602
194.649	360
194.718	316
194.787	1359
194.856	-295
194.925	743
194.994	332
195.062	515
195.131	387
195.200	-122
195.269	172
195.338	628
195.407	692
195.475	237
195.544	603
195.613	709
195.682	818
195.751	518
195.819	1178
195.888	-235
195.957	371
196.026	329
196.094	511
196.163	235
196.232	520
196.301	559
196.369	482
196.438	979
196.507	872
196.576	2
196.644	371
196.713	112
196.782	524
196.850	877
196.919	-395
196.988	511
197.056	-106
197.125	347
197.194	244
197.262	1431
197.331	880
197.400	-51
197.468	-20
197.537	205
197.606	543
197.674	1368
197.743	1158
197.812	-108
197.880	1200
197.949	761
198.017	1040
198.086	766
198.155	757
198.223	774
198.292	1031
198.360	1140
198.429	328
198.497	581
198.566	194
198.635	1800
198.703	778
198.772	769
198.840	886
198.909	1343
198.977	1252
199.046	1395
199.114	735
199.183	714
199.251	638
199.320	1129
199.388	1139
199.457	785
199.525	171
199.594	688
199.662	139
199.731	594
199.799	752
199.867	1453
199.936	827
200.004	1122
200.073	847
200.141	846
200.210	344
200.278	335
200.346	437
200.415	1729
200.483	912
200.552	1093
200.620	667
200.688	344
200.757	780
200.825	-100
200.893	528
200.962	687
201.030	539
201.098	887
201.167	251
201.235	791
201.303	803
201.372	666
201.440	1102
201.508	740
201.577	111
201.645	1405
201.713	1091
201.781	1122
201.850	1462
201.918	865
201.986	290
202.055	972
202.123	289
202.191	1352
202.259	582
202.327	337
202.396	731
202.464	863
202.532	894
202.600	2059
202.669	2327
202.737	582
202.805	751
202.873	1091
202.941	1152
203.009	299
203.078	60
203.146	1079
203.214	476
203.282	315
203.350	414
203.418	1360
203.487	495
203.555	114
203.623	329
203.691	104
203.759	677
203.827	726
203.895	702
203.963	1049
204.031	662
204.099	794
204.168	525
204.236	1224
204.304	1437
204.372	1188
204.440	67
204.508	578
204.576	398
204.644	275
204.712	330
204.780	501
204.848	1122
204.916	530
204.984	887
205.052	358
205.120	424
205.188	697
205.256	704
205.324	987
205.392	603
205.460	1104
205.528	353
205.596	1560
205.664	901
205.732	1088
205.799	1374
205.867	2565
205.935	46
206.003	1015
206.071	873
206.139	4
206.207	717
206.275	803
206.343	860
206.411	134
206.478	1277
206.546	584
206.614	-435
206.682	524
206.750	643
206.818	1809
206.885	1475
206.953	1240
207.021	1545
207.089	1963
207.157	428
207.225	1525
207.292	561
207.360	1042
207.428	475
207.496	1201
207.563	1277
207.631	1006
207.699	821
207.767	2044
207.834	423
207.902	1379
207.970	599
208.038	678
208.105	972
208.173	711
208.241	686
208.309	1432
208.376	1938
208.444	1493
208.512	1351
208.579	792
208.647	1479
208.715	2492
208.782	457
208.850	1116
208.918	753
208.985	1460
209.053	1506
209.120	1079
209.188	-9
209.256	815
209.323	96
209.391	246
209.459	2078
209.526	999
209.594	918
209.661	1040
209.729	763
209.796	1966
209.864	1136
209.932	293
209.999	2106
210.067	640
210.134	1139
210.202	601
210.269	1586
210.337	2783
210.404	1366
210.472	2145
210.539	1013
210.607	710
210.674	1400
210.742	481
210.809	1130
210.877	1009
210.944	1194
211.012	501
211.079	2421
211.146	1458
211.214	1711
211.281	2140
211.349	2223
211.416	1928
211.484	1619
211.551	956
211.618	1411
211.686	1453
211.753	633
211.821	1346
211.888	1552
211.955	1519
212.023	1545
212.090	1610
212.157	1162
212.225	1802
212.292	2339
212.359	3153
212.427	7638
212.494	3937
212.561	1653
212.629	1180
212.696	1685
212.763	1721
212.831	1112
212.898	2153
212.965	1066
213.032	1019
213.100	1280
213.167	1744
213.234	2114
213.301	879
213.369	1174
213.436	978
213.503	618
213.570	1318
213.638	914
213.705	859
213.772	778
213.839	1101
213.906	1823
213.973	680
214.041	1355
214.108	1258
214.175	1121
214.242	682
214.309	967
214.376	1264
214.444	1304
214.511	1319
214.578	1188
214.645	1406
214.712	2108
214.779	1645
214.846	1431
214.913	2096
214.980	2056
215.048	1286
215.115	2527
215.182	2329
215.249	1947
215.316	1455
215.383	1697
215.450	1076
215.517	1619
215.584	1927
215.651	1210
215.718	1161
215.785	1670
215.852	995
215.919	1181
215.986	822
216.053	1933
216.120	582
216.187	1252
216.254	1453
216.321	1162
216.388	1478
216.455	1378
216.522	957
216.589	1590
216.656	2379
216.722	1864
216.789	1822
216.856	2295
216.923	2349
216.990	1701
217.057	2306
217.124	2415
217.191	1702
217.258	2858
217.324	2581
217.391	2601
217.458	2276
217.525	1277
217.592	1959
217.659	375
217.725	1686
217.792	1579
217.859	2946
217.926	392
217.993	1201
218.059	1645
218.126	533
218.193	1460
218.260	956
218.327	561
218.393	845
218.460	1604
218.527	597
218.594	1337
218.660	1503
218.727	1627
218.794	778
218.860	1962
218.927	400
218.994	515
219.061	1364
219.127	972
219.194	1917
219.261	871
219.327	323
219.394	2129
219.461	1096
219.527	1384
219.594	1903
219.661	888
219.727	971
219.794	2981
219.860	1661
219.927	2465
219.994	3274
220.060	5375
220.127	5703
220.193	4287
220.260	2039
220.326	3156
220.393	3539
220.460	4906
220.526	3310
220.593	1535
220.659	3940
220.726	2346
220.792	5051
220.859	4963
220.925	6619
220.992	7414
221.058	7306
221.125	7395
221.191	4627
221.258	2695
221.324	2831
221.391	1669
221.457	1367
221.524	2103
221.590	2124
221.657	5418
221.723	3828
221.789	2964
221.856	3984
221.922	1810
221.989	1896
222.055	1519
222.121	1800
222.188	4057
222.254	1710
222.321	1992
222.387	1553
222.453	1100
222.520	1235
222.586	737
222.652	1807
222.719	670
222.785	878
222.851	1497
222.918	1126
222.984	1457
223.050	1723
223.116	54
223.183	1479
223.249	1183
223.315	1036
223.382	681
223.448	1356
223.514	420
223.580	1140
223.647	806
223.713	681
223.779	1145
223.845	756
223.911	987
223.978	567
224.044	1153
224.110	693
224.176	1712
224.242	1099
224.309	345
224.375	1264
224.441	702
224.507	1050
224.573	-81
224.639	1474
224.705	-75
224.772	1014
224.838	143
224.904	1513
224.970	507
225.036	467
225.102	485
225.168	1377
225.234	1524
225.300	1816
225.366	627
225.432	1262
225.499	1720
225.565	934
225.631	424
225.697	1334
225.763	1573
225.829	2890
225.895	1758
225.961	2861
226.027	2346
226.093	1710
226.159	3558
226.225	5455
226.291	8742
226.357	13350
226.423	6350
226.489	5078
226.554	3059
226.620	2858
226.686	3644
226.752	4611
226.818	7577
226.884	18094
226.950	15733
227.016	6935
227.082	4591
227.148	3982
227.214	3142
227.279	3058
227.345	2965
227.411	3944
227.477	5801
227.543	9750
227.609	10574
227.674	7035
227.740	3915
227.806	3096
227.872	2582
227.938	2416
228.003	2194
228.069	1376
228.135	967
228.201	2208
228.267	1784
228.332	1094
228.398	-285
228.464	1366
228.530	1778
228.595	2775
228.661	1382
228.727	1111
228.792	2034
228.858	1410
228.924	-742
228.990	2613
229.055	579
229.121	1546
229.187	1350
229.252	1068
229.318	318
229.384	1747
229.449	1455
229.515	-348
229.581	412
229.646	2544
229.712	1347
229.777	2079
229.843	1974
229.909	1850
229.974	2109
230.040	2124
230.105	1603
230.171	1679
230.236	2338
230.302	2590
230.368	2182
230.433	1057
230.499	1870
230.564	1964
230.630	970
230.695	1625
230.761	2243
230.826	855
230.892	3186
230.957	1406
231.023	662
231.088	1783
231.154	698
231.219	1691
231.284	1169
231.350	2925
231.415	513
231.481	1580
231.546	1062
231.612	1476
231.677	1067
231.742	567
231.808	2174
231.873	873
231.939	-213
232.004	1882
232.069	1860
232.135	1273
232.200	1220
232.265	2185
232.331	350
232.396	1319
232.461	952
232.527	1071
232.592	325
232.657	919
232.723	1269
232.788	1709
232.853	2393
232.918	1007
232.984	958
233.049	635
233.114	1326
233.179	1859
233.245	2281
233.310	2164
233.375	879
233.440	1726
233.506	638
233.571	592
233.636	1357
233.701	1633
233.766	1596
233.832	2079
233.897	1226
233.962	33
234.027	2355
234.092	1627
234.157	741
234.222	1652
234.288	2245
234.353	4130
234.418	3934
234.483	2868
234.548	1822
234.613	1877
234.678	2203
234.743	982
234.808	4869
234.873	1457
234.938	2797
235.004	1089
235.069	1502
235.134	935
235.199	1643
235.264	2124
235.329	478
235.394	2859
235.459	2641
235.524	1319
235.589	1711
235.654	1853
235.719	1355
235.784	2435
235.849	1371
235.913	2377
235.978	2091
236.043	3347
236.108	2142
236.173	1314
236.238	2019
236.303	1824
236.368	1924
236.433	3850
236.498	3312
236.563	4358
236.627	7573
236.692	25038
236.757	21048
236.822	7852
236.887	4732
236.952	5167
237.017	2839
237.081	5224
237.146	5135
237.211	12760
237.276	24105
237.341	35150
237.405	16459
237.470	7950
237.535	4012
237.600	3847
237.664	3055
237.729	2508
237.794	3329
237.859	7661
237.923	4607
237.988	2900
238.053	2568
238.118	2890
238.182	6119
238.247	6855
238.312	2113
238.376	2761
238.441	-12
238.506	3114
238.570	1109
238.635	2155
238.700	2228
238.764	1351
238.829	2446
238.893	2623
238.958	2593
239.023	2518
239.087	1698
239.152	2744
239.216	1729
239.281	1828
239.346	1592
239.410	2831
239.475	1870
239.539	7223
239.604	4392
239.668	4057
239.733	4408
239.797	11098
239.862	21260
239.926	16889
239.991	7745
240.055	4239
240.120	1967
240.184	3276
240.249	1494
240.313	1025
240.378	1561
240.442	3450
240.507	5130
240.571	2655
240.635	2134
240.700	2724
240.764	1971
240.829	1842
240.893	447
240.957	2309
241.022	3686
241.086	6031
241.151	852
241.215	962
241.279	2300
241.344	2477
241.408	2382
241.472	1613
241.537	2625
241.601	2809
241.665	572
241.730	1800
241.794	2398
241.858	1796
241.922	2556
241.987	2786
242.051	1159
242.115	872
242.179	2831
242.244	1540
242.308	2244
242.372	2340
242.436	1941
242.501	2720
242.565	1280
242.629	1274
242.693	2342
242.757	1599
242.822	1559
242.886	2449
242.950	2689
243.014	461
243.078	1984
243.142	1799
243.206	1322
243.271	3196
243.335	2349
243.399	4316
243.463	10196
243.527	28912
243.591	8280
243.655	4051
243.719	1963
243.783	3167
243.847	3994
243.911	5010
243.975	4027
244.040	2407
244.104	3945
244.168	2119
244.232	1740
244.296	3329
244.360	4057
244.424	2046
244.488	2170
244.552	2760
244.615	-44
244.679	2580
244.743	1181
244.807	1600
244.871	1451
244.935	1917
244.999	845
245.063	1545
245.127	1996
245.191	3375
245.255	2894
245.319	2359
245.383	1589
245.446	3465
245.510	746
245.574	2166
245.638	2772
245.702	968
245.766	4031
245.829	3904
245.893	1248
245.957	2317
246.021	3269
246.085	2142
246.149	2400
246.212	6008
246.276	6358
246.340	3114
246.404	3024
246.467	2988
246.531	2180
246.595	3538
246.659	3510
246.722	1479
246.786	1993
246.850	2547
246.913	3206
246.977	1375
247.041	2208
247.104	1626
247.168	1266
247.232	4378
247.295	10351
247.359	4952
247.423	2806
247.486	4186
247.550	3452
247.614	2313
247.677	2065
247.741	1624
247.804	2119
247.868	4660
247.932	4001
247.995	9964
248.059	2613
248.122	1613
248.186	3520
248.249	5011
248.313	15970
248.376	16036
248.440	8918
248.503	2582
248.567	4168
248.630	3812
248.694	5652
248.757	8474
248.821	18127
248.884	10493
248.948	7635
249.011	12467
249.075	19218
249.138	15626
249.202	6521
249.265	3951
249.328	5500
249.392	3117
249.455	3572
249.519	3666
249.582	3531
249.645	6100
249.709	4624
249.772	3646
249.835	3484
249.899	4128
249.962	3991
250.025	3582
250.089	7197
250.152	8252
250.215	4414
250.279	3895
250.342	3676
250.405	3876
250.468	2944
250.532	4951
250.595	7721
250.658	26619
250.721	44565
250.785	13444
250.848	8996
250.911	4142
250.974	4043
251.038	5744
251.101	11469
251.164	6027
251.227	6429
251.290	5908
251.354	9836
251.417	40124
251.480	37230
251.543	26093
251.606	68601
251.669	50394
251.732	18231
251.795	16578
251.859	18648
251.922	43621
251.985	23652
252.048	9767
252.111	6609
252.174	6041
252.237	10206
252.300	22617
252.363	24478
252.426	54198
252.489	19396
252.552	9828
252.615	6268
252.678	8101
252.741	16214
252.804	24611
252.867	55837
252.930	28307
252.993	13944
253.056	8662
253.119	5725
253.182	4733
253.245	9499
253.308	6894
253.371	4617
253.434	4779
253.497	4959
253.559	10063
253.622	5786
253.685	6398
253.748	5256
253.811	4080
253.874	4614
253.937	3692
254.000	3477
254.062	6035
254.125	9355
254.188	9549
254.251	6657
254.314	3423
254.376	5486
254.439	5815
254.502	4713
254.565	6071
254.628	10838
254.690	4783
254.753	2995
254.816	2184
254.878	2522
254.941	7404
255.004	6948
255.067	3295
255.129	2452
255.192	2584
255.255	1527
255.317	2024
255.380	2002
255.443	2385
255.505	2072
255.568	1366
255.631	2133
255.693	3140
255.756	2432
255.819	3804
255.881	1755
255.944	2783
256.006	1208
256.069	1564
256.132	1651
256.194	1260
256.257	4856
256.319	3545
256.382	4387
256.444	5383
256.507	3965
256.569	3270
256.632	2727
256.694	5214
256.757	15181
256.819	41792
256.882	16053
256.944	6514
257.007	5651
257.069	4436
257.132	3207
257.194	4731
257.257	3532
257.319	3389
257.381	5139
257.444	12291
257.506	46709
257.569	47356
257.631	15091
257.693	9166
257.756	3976
257.818	3857
257.880	3801
257.943	3527
258.005	2259
258.067	3085
258.130	2506
258.192	3537
258.254	3516
258.317	3137
258.379	2510
258.441	5639
258.503	5748
258.566	5464
258.628	7631
258.690	2618
258.753	2263
258.815	3933
258.877	2725
258.939	2639
259.001	2773
259.064	2745
259.126	1337
259.188	2750
259.250	3408
259.312	3605
259.375	3739
259.437	2686
259.499	2636
259.561	1986
259.623	2432
259.685	2021
259.747	3180
259.809	6105
259.872	9686
259.934	16882
259.996	13319
260.058	4054
260.120	2578
260.182	2660
260.244	2892
260.306	2348
260.368	2545
260.430	1248
260.492	5091
260.554	6061
260.616	2788
260.678	8120
260.740	9048
260.802	2550
260.864	3830
260.926	1851
260.988	3691
261.050	2555
261.112	4617
261.174	11771
261.236	7690
261.298	3836
261.359	3917
261.421	6262
261.483	2703
261.545	3713
261.607	1193
261.669	3212
261.731	3686
261.793	7262
261.854	2894
261.916	3226
261.978	2403
262.040	2195
262.102	3138
262.164	2480
262.225	2141
262.287	2889
262.349	4706
262.411	3269
262.472	2601
262.534	3164
262.596	5606
262.658	3703
262.719	2449
262.781	2962
262.843	4878
262.904	4278
262.966	3360
263.028	4635
263.090	15596
263.151	33655
263.213	10355
263.275	5060
263.336	3244
263.398	3215
263.459	2051
263.521	3173
263.583	5403
263.644	3883
263.706	1661
263.767	1816
263.829	2079
263.891	2084
263.952	2286
264.014	2166
264.075	2696
264.137	5680
264.198	2486
264.260	1635
264.321	1849
264.383	3733
264.444	8567
264.506	3613
264.567	2599
264.629	4970
264.690	5500
264.752	2712
264.813	2070
264.875	2301
264.936	2871
264.998	2442
265.059	3241
265.120	4947
265.182	5365
265.243	22503
265.305	20795
265.366	5769
265.427	3145
265.489	4296
265.550	1809
265.611	3339
265.673	2584
265.734	3131
265.795	3019
265.857	3282
265.918	3829
265.979	7147
266.040	35668
266.102	26195
266.163	7167
266.224	5125
266.286	3580
266.347	2558
266.408	2989
266.469	3882
266.530	2900
266.592	2404
266.653	3285
266.714	3898
266.775	2595
266.836	1801
266.898	1813
266.959	3250
267.020	2141
267.081	3806
267.142	2465
267.203	2854
267.264	2283
267.326	3620
267.387	2259
267.448	2272
267.509	3185
267.570	2981
267.631	1882
267.692	1677
267.753	3465
267.814	1124
267.875	3257
267.936	6229
267.997	3062
268.058	2388
268.119	2236
268.180	2544
268.241	1752
268.302	2225
268.363	1521
268.424	2059
268.485	2346
268.546	1987
268.607	1710
268.668	1255
268.729	1158
268.790	1591
268.851	1942
268.912	4522
268.972	3081
269.033	2430
269.094	1665
269.155	1614
269.216	1223
269.277	2288
269.338	1977
269.398	1961
269.459	836
269.520	2610
269.581	2169
269.642	3013
269.702	1966
269.763	2727
269.824	1448
269.885	2128
269.945	3094
270.006	2331
270.067	1390
270.128	2177
270.188	1308
270.249	1838
270.310	1509
270.370	2270
270.431	1586
270.492	1625
270.553	1824
270.613	2747
270.674	5162
270.734	1898
270.795	2525
270.856	2603
270.916	1191
270.977	1971
271.038	1729
271.098	2158
271.159	2720
271.219	3210
271.280	3218
271.340	1339
271.401	2051
271.462	2991
271.522	3130
271.583	3488
271.643	2435
271.704	2084
271.764	2591
271.825	5098
271.885	13571
271.946	17893
272.006	6126
272.066	9380
272.127	15541
272.187	12231
272.248	6358
272.308	3284
272.369	11963
272.429	7089
272.489	4932
272.550	4553
272.610	4631
272.671	3301
272.731	3236
272.791	4897
272.852	2866
272.912	3517
272.972	3433
273.033	3466
273.093	3338
273.153	4879
273.214	3506
273.274	4796
273.334	9269
273.394	15255
273.455	6483
273.515	7565
273.575	12117
273.635	6591
273.696	8611
273.756	14253
273.816	7043
273.876	5626
273.936	7147
273.997	9383
274.057	4308
274.117	3452
274.177	5564
274.237	17835
274.297	12063
274.358	7524
274.418	11470
274.478	8254
274.538	3579
274.598	3342
274.658	8005
274.718	8329
274.778	4318
274.838	3630
274.898	4987
274.958	9838
275.018	14177
275.078	8090
275.138	4435
275.198	3149
275.258	2783
275.318	2888
275.378	4433
275.438	4307
275.498	3860
275.558	6693
275.618	12752
275.678	8392
275.738	6248
275.798	4725
275.858	2298
275.918	2366
275.978	2898
276.038	3762
276.098	2591
276.157	4369
276.217	8961
276.277	4304
276.337	3332
276.397	2079
276.457	3460
276.517	2806
276.576	3106
276.636	2505
276.696	3041
276.756	5992
276.815	3903
276.875	3386
276.935	3526
276.995	3740
277.055	3798
277.114	3759
277.174	3933
277.234	7252
277.293	3948
277.353	2926
277.413	2444
277.472	4129
277.532	3028
277.592	5391
277.651	17168
277.711	26944
277.771	12089
277.830	32004
277.890	23582
277.950	19833
278.009	49720
278.069	20700
278.128	23805
278.188	27769
278.248	14545
278.307	35009
278.367	18097
278.426	7431
278.486	5588
278.545	4606
278.605	4246
278.664	4507
278.724	4301
278.783	8499
278.843	15455
278.902	7573
278.962	5114
279.021	5844
279.081	10735
279.140	10288
279.199	7083
279.259	8074
279.318	9161
279.378	12586
279.437	17451
279.496	45065
279.556	141296
279.615	109150
279.675	33465
279.734	20870
279.793	22514
279.853	25647
279.912	12718
279.971	10189
280.031	9756
280.090	13357
280.149	18155
280.208	25166
280.268	99404
280.327	94461
280.386	26851
280.445	16080
280.505	11558
280.564	8273
280.623	6912
280.682	7895
280.742	10182
280.801	5332
280.860	4909
280.919	5285
280.978	3849
281.037	5200
281.097	3721
281.156	4756
281.215	4153
281.274	4533
281.333	11168
281.392	7687
281.451	3411
281.510	3848
281.569	2592
281.628	3252
281.688	3222
281.747	3894
281.806	2736
281.865	3172
281.924	1493
281.983	3017
282.042	2784
282.101	2952
282.160	3029
282.219	3303
282.278	2978
282.337	6157
282.396	3481
282.454	3117
282.513	3498
282.572	7332
282.631	4437
282.690	3800
282.749	2007
282.808	3244
282.867	3298
282.926	2429
282.985	4019
283.043	2962
283.102	2391
283.161	3828
283.220	5204
283.279	9079
283.338	4883
283.396	3567
283.455	4117
283.514	3521
283.573	4427
283.631	4206
283.690	3927
283.749	4101
283.808	5614
283.866	6215
283.925	3657
283.984	4236
284.043	4604
284.101	5207
284.160	4831
284.219	6250
284.277	5808
284.336	7304
284.395	12915
284.453	11357
284.512	8339
284.570	9456
284.629	9930
284.688	11353
284.746	13445
284.805	17108
284.863	20811
284.922	26227
284.981	33295
285.039	45722
285.098	70937
285.156	112438
285.215	119431
285.273	131444
285.332	116978
285.390	76036
285.449	50726
285.507	36052
285.566	27420
285.624	21355
285.683	17874
285.741	14877
285.799	12286
285.858	11379
285.916	9538
285.975	8710
286.033	7032
286.091	6534
286.150	5257
286.208	6060
286.267	6088
286.325	6319
286.383	6167
286.442	5937
286.500	4958
286.558	5343
286.616	4007
286.675	5007
286.733	4845
286.791	3908
286.850	4319
286.908	4955
286.966	4863
287.024	3697
287.083	3530
287.141	3901
287.199	4428
287.257	4604
287.315	4544
287.374	3392
287.432	5764
287.490	4410
287.548	3391
287.606	3206
287.664	3450
287.723	4089
287.781	4570
287.839	4320
287.897	4961
287.955	6215
288.013	7675
288.071	15069
288.129	49565
288.187	118550
288.245	51468
288.303	18110
288.361	10494
288.419	7970
288.477	5516
288.535	5300
288.593	4282
288.651	4198
288.709	3003
288.767	2640
288.825	2994
288.883	3152
288.941	2777
288.999	2044
289.057	2759
289.115	2322
289.173	2845
289.231	2879
289.289	2746
289.346	2024
289.404	3189
289.462	4101
289.520	3406
289.578	3025
289.636	1951
289.694	2206
289.751	2325
289.809	2438
289.867	2825
289.925	3382
289.983	2528
290.040	2118
290.098	2113
290.156	2465
290.214	2602
290.271	1752
290.329	3236
290.387	3233
290.444	1902
290.502	2150
290.560	1945
290.617	2263
290.675	2337
290.733	2285
290.790	2639
290.848	3232
290.906	2141
290.963	2470
291.021	2907
291.078	2949
291.136	2356
291.194	5109
291.251	7123
291.309	3675
291.366	2286
291.424	2607
291.481	2279
291.539	2939
291.596	3710
291.654	2489
291.711	2393
291.769	2514
291.826	3209
291.884	2833
291.941	1578
291.999	2142
292.056	2177
292.114	2337
292.171	3167
292.228	2827
292.286	2868
292.343	3410
292.401	3089
292.458	2596
292.515	2337
292.573	3271
292.630	3052
292.687	4206
292.745	1829
292.802	3125
292.859	6306
292.917	9760
292.974	5039
293.031	3092
293.089	2253
293.146	2434
293.203	2581
293.260	2317
293.318	2197
293.375	3433
293.432	2256
293.489	3502
293.546	2650
293.604	3591
293.661	8361
293.718	16848
293.775	8282
293.832	6202
293.889	6637
293.947	5695
294.004	3417
294.061	3609
294.118	5131
294.175	9743
294.232	10723
294.289	5040
294.346	5170
294.403	3805
294.460	3504
294.517	3398
294.574	3194
294.631	3252
294.688	3186
294.745	5747
294.802	16498
294.859	14117
294.916	5260
294.973	4020
295.030	3572
295.087	2977
295.144	2774
295.201	3349
295.258	3004
295.315	3480
295.372	6891
295.429	12042
295.486	5153
295.542	3825
295.599	7176
295.656	9810
295.713	7793
295.770	10538
295.827	5512
295.883	3894
295.940	3253
295.997	3403
296.054	3647
296.111	2797
296.167	2964
296.224	2562
296.281	1448
296.338	3181
296.394	1913
296.451	2295
296.508	6192
296.564	9612
296.621	6249
296.678	14070
296.734	17832
296.791	7104
296.848	4143
296.904	4523
296.961	7081
297.018	12212
297.074	8281
297.131	4985
297.187	3636
297.244	5085
297.301	14818
297.357	21986
297.414	8798
297.470	3717
297.527	3866
297.583	2437
297.640	3056
297.696	2863
297.753	2480
297.809	2349
297.866	1569
297.922	2742
297.979	2663
298.035	2439
298.092	3330
298.148	7681
298.204	7152
298.261	3735
298.317	6851
298.374	15660
298.430	8833
298.486	4982
298.543	3332
298.599	3306
298.656	3712
298.712	6093
298.768	12507
298.824	9287
298.881	3936
298.937	3265
298.993	3192
299.050	3315
299.106	3285
299.162	2946
299.218	3291
299.275	2896
299.331	4019
299.387	5598
299.443	17358
299.500	28367
299.556	18833
299.612	8942
299.668	8171
299.724	19671
299.780	21137
299.837	9341
299.893	9317
299.949	22067
300.005	27036
300.061	21785
300.117	33858
300.173	15164
300.229	6432
300.285	6161
300.341	6491
300.397	5174
300.453	4495
300.510	4511
300.566	5528
300.622	10405
300.678	32061
300.734	38042
300.790	20512
300.845	19506
300.901	21119
300.957	28366
301.013	14558
301.069	6220
301.125	4719
301.181	4068
301.237	3446
301.293	2584
301.349	3106
301.405	2926
301.461	3496
301.516	3827
301.572	3290
301.628	4194
301.684	3109
301.740	6816
301.796	8027
301.851	6164
301.907	7113
301.963	8218
302.019	14376
302.074	37323
302.130	34860
302.186	15636
302.242	7755
302.297	6151
302.353	4986
302.409	7412
302.464	6611
302.520	6145
302.576	12849
302.631	14248
302.687	7871
302.743	4411
302.798	3061
302.854	3070
302.910	2897
302.965	3912
303.021	4946
303.076	4647
303.132	4874
303.187	5039
303.243	3739
303.299	3004
303.354	1831
303.410	2412
303.465	2855
303.521	2841
303.576	2705
303.632	3049
303.687	4651
303.743	13005
303.798	11116
303.853	5195
303.909	3283
303.964	2640
304.020	3284
304.075	4523
304.130	3987
304.186	6141
304.241	7143
304.297	5400
304.352	3311
304.358	3335
304.407	3522
304.449	2853
304.463	2634
304.518	3483
304.539	3167
304.573	2635
304.629	2265
304.630	2309
304.684	4384
304.720	8524
304.739	10559
304.794	13530
304.811	11854
304.850	7869
304.902	4749
304.905	4551
304.960	4068
304.992	3848
305.015	3686
305.071	4297
305.083	4036
305.126	3055
305.173	2289
305.181	2181
305.236	2383
305.264	2619
305.292	2800
305.347	2987
305.354	2990
305.402	3144
305.445	3758
305.457	3874
305.512	4014
305.535	3759
305.567	3620
305.622	4108
305.626	4189
305.678	6300
305.716	12043
305.733	13945
305.788	13883
305.807	12054
305.843	9360
305.897	13181
305.898	13218
305.953	12620
305.988	8483
306.008	6353
306.063	4302
306.078	4102
306.118	3702
306.168	3038
306.173	2980
306.228	2400
306.259	2577
306.283	2784
306.338	2868
306.349	2921
306.393	2997
306.440	3426
306.448	3547
306.503	3893
306.530	3816
306.558	3971
306.613	6254
306.620	6511
306.668	8520
306.711	12141
306.723	12562
306.778	8662
306.801	6777
306.833	4980
306.888	3380
306.892	3347
306.943	3260
306.982	3247
306.997	3279
307.052	3668
307.072	3499
307.107	3337
307.162	3381
307.163	3387
307.217	4345
307.253	4892
307.272	5047
307.327	5359
307.343	5142
307.381	4756
307.434	4301
307.436	4379
307.491	7226
307.524	9687
307.546	10099
307.600	10036
307.614	9317
307.655	6976
307.704	5382
307.710	5438
307.765	5638
307.795	6714
307.819	7242
307.874	8491
307.885	8614
307.929	9202
307.975	9985
307.984	10589
308.038	15572
308.065	18762
308.093	31411
308.148	63296
308.156	70405
308.202	94871
308.246	104026
308.257	100892
308.312	54537
308.336	37284
308.366	27617
308.421	17060
308.426	16295
308.475	12203
308.517	10077
308.530	9442
308.585	8473
308.607	7961
308.639	7954
308.694	8225
308.697	8284
308.748	10904
308.787	13409
308.803	13307
308.857	11016
308.877	10228
308.912	10677
308.967	12981
308.967	13014
309.021	19354
309.058	24692
309.076	30293
309.130	49707
309.148	56730
309.185	91882
309.238	152934
309.239	153168
309.293	153546
309.328	135233
309.348	118232
309.402	63248
309.418	49240
309.457	36668
309.508	26499
309.511	26410
309.566	28131
309.598	30241
309.620	35541
309.674	51887
309.688	56065
309.729	51163
309.778	39848
309.783	38884
309.837	26544
309.868	20169
309.892	20069
309.946	21232
309.959	21899
310.001	22661
310.049	22763
310.055	22061
310.109	14772
310.139	10621
310.163	9254
310.218	7154
310.229	6787
310.272	6169
310.319	5627
310.326	5560
310.381	5189
310.409	4956
310.435	4870
310.489	4715
310.499	4693
310.543	4748
310.589	4791
310.598	4789
310.652	5000
310.679	4909
310.706	4721
310.760	4497
310.769	4448
310.814	4553
310.859	4751
310.868	4769
310.923	4511
310.948	4559
310.977	4692
311.031	4750
311.038	4768
311.085	4768
311.128	4602
311.139	4614
311.193	4664
311.218	4771
311.247	5073
311.301	5379
311.308	5407
311.356	4960
311.398	4619
311.410	4725
311.464	5177
311.488	5312
311.518	5047
311.572	4642
311.578	4591
311.626	5009
311.668	5299
311.680	5328
311.734	5364
311.758	5421
311.788	5162
311.842	4643
311.847	4580
311.896	5849
311.937	6949
311.950	6794
312.004	6051
312.027	5716
312.058	5325
312.112	4601
312.117	4521
312.165	4394
312.207	4275
312.297	5841
312.386	5240
312.476	5308
312.566	6907
312.656	5558
312.745	4362
312.835	5284
312.925	5587
313.015	5457
313.104	6074
313.194	5898
313.284	5237
313.374	6936
313.463	6683
313.553	6803
313.643	7416
313.732	7593
313.822	6768
313.912	7832
314.001	7715
314.091	9078
314.180	8964
314.270	9592
314.360	8962
314.449	8071
314.539	6920
314.628	8134
314.718	9196
314.808	9833
314.897	8925
314.987	10649
315.076	10022
315.166	10591
315.255	9328
315.345	9972
315.434	9189
315.524	9722
315.613	11186
315.703	15322
315.792	42221
315.881	110932
315.971	29526
316.060	13964
316.150	12468
316.239	11823
316.328	8728
316.418	9273
316.507	9542
316.597	10914
316.686	11037
316.775	11815
316.865	11535
316.954	8903
317.043	7629
317.133	7994
317.222	7749
317.311	7420
317.400	5756
317.490	8618
317.579	9470
317.668	9997
317.757	19563
317.847	69978
317.936	162092
318.025	44203
318.114	43160
318.203	18231
318.293	12950
318.382	19061
318.471	17971
318.560	19908
318.649	26398
318.738	9803
318.828	7895
318.917	6440
319.006	8084
319.095	12691
319.184	29758
319.273	15351
319.362	9086
319.451	6799
319.540	6600
319.629	9667
319.718	10705
319.807	7854
319.896	14677
319.985	35266
320.074	12170
320.163	8097
320.252	7727
320.341	8577
320.430	9006
320.519	9680
320.608	8895
320.697	10372
320.786	10451
320.875	12942
320.964	13769
321.053	15326
321.142	17870
321.230	19091
321.319	20559
321.408	27001
321.497	19999
321.586	18297
321.675	17022
321.764	16848
321.852	15762
321.941	17903
322.030	15022
322.119	17702
322.207	25675
322.296	24189
322.385	24207
322.474	27897
322.562	35416
322.651	22598
322.740	18839
322.829	17041
322.917	16065
323.006	13811
323.095	13240
323.183	11882
323.272	14821
323.361	17515
323.449	27372
323.538	13436
323.626	20621
323.715	13529
323.804	10333
323.892	18539
323.981	10838
324.069	9096
324.158	13530
324.246	11657
324.335	8895
324.424	9564
324.512	7315
324.601	8125
324.689	8694
324.778	11473
324.866	9515
324.954	6464
325.043	7255
325.131	7567
325.220	11426
325.308	10447
325.397	9990
325.485	7937
325.574	6778
325.662	6931
325.750	5959
325.839	6922
325.927	6081
326.015	7213
326.104	8043
326.192	7929
326.280	6669
326.369	6752
326.457	6708
326.545	8458
326.634	6170
326.722	6304
326.810	7342
326.898	8646
326.987	9082
327.075	9334
327.163	9358
327.251	7154
327.340	8897
327.428	11579
327.516	11435
327.604	9011
327.692	7658
327.781	8384
327.869	7228
327.957	7172
328.045	5711
328.133	7024
328.221	6296
328.309	6435
328.397	6623
328.485	8053
328.574	13130
328.662	19400
328.750	12672
328.838	8392
328.926	7642
329.014	6344
329.102	7290
329.190	10492
329.278	7487
329.366	6883
329.454	6331
329.542	6662
329.630	5473
329.718	6969
329.806	6855
329.893	6858
329.981	6029
330.069	6564
330.157	7284
330.245	9412
330.333	7259
330.421	7153
330.509	8163
330.597	13971
330.684	9693
330.772	8112
330.860	8302
330.948	9228
331.036	6978
331.123	7462
331.211	7101
331.299	7721
331.387	9623
331.475	11715
331.562	8124
331.650	7272
331.738	7345
331.825	7763
331.913	6350
332.001	7219
332.089	7210
332.176	8651
332.264	11601
332.352	9787
332.439	7543
332.527	7094
332.614	6788
332.702	8439
332.790	7325
332.877	10175
332.965	15452
333.052	9940
333.140	13721
333.228	22687
333.315	9881
333.403	9134
333.490	11609
333.578	15525
333.665	31876
333.753	15473
333.840	8746
333.928	11534
334.015	13987
334.103	22519
334.190	41256
334.278	24929
334.365	28644
334.452	28147
334.540	19675
334.627	19690
334.715	25409
334.802	38781
334.889	76617
334.977	80269
335.064	41604
335.151	23595
335.239	17245
335.326	16327
335.413	31386
335.501	31136
335.588	16302
335.675	19096
335.762	21913
335.850	30100
335.937	40782
336.024	70245
336.111	114822
336.199	83790
336.286	38361
336.373	23151
336.460	16272
336.547	13798
336.635	12326
336.722	10994
336.809	9983
336.896	10668
336.983	17055
337.070	31604
337.157	38930
337.245	25087
337.332	16271
337.419	10465
337.506	9087
337.593	10056
337.680	15405
337.767	25672
337.854	11326
337.941	11574
338.028	11840
338.115	8594
338.202	10074
338.289	12833
338.376	20050
338.463	10865
338.550	18635
338.637	16926
338.724	9627
338.811	11544
338.898	7549
338.984	7815
339.071	7364
339.158	7310
339.245	11129
339.332	8617
339.419	9960
339.506	9631
339.593	6122
339.679	7291
339.766	7610
339.853	8473
339.940	9672
340.027	7292
340.113	7414
340.200	7587
340.287	6974
340.374	7725
340.460	8094
340.547	5986
340.634	9166
340.720	15329
340.807	8957
340.894	7784
340.980	7584
341.067	7689
341.154	7812
341.240	9153
341.327	9960
341.414	8486
341.500	8183
341.587	8153
341.674	7481
341.760	9501
341.847	9723
341.933	6396
342.020	5991
342.106	6785
342.193	7472
342.279	8705
342.366	7537
342.452	8474
342.539	7313
342.625	11009
342.712	14389
342.798	9380
342.885	6429
342.971	6838
343.058	6860
343.144	7061
343.230	6289
343.317	7110
343.403	6192
343.490	6827
343.576	5935
343.662	7094
343.749	6854
343.835	7679
343.921	10812
344.008	39888
344.094	59966
344.180	14284
344.267	9882
344.353	22160
344.439	17690
344.525	9852
344.612	11875
344.698	12697
344.784	8270
344.870	7251
344.957	6898
345.043	7818
345.129	6179
345.215	8608
345.301	6961
345.387	6192
345.474	5321
345.560	6608
345.646	6617
345.732	7108
345.818	6314
345.904	7366
345.990	6735
346.076	7150
346.162	7300
346.249	7224
346.335	6254
346.421	6670
346.507	14519
346.593	27177
346.679	8810
346.765	9514
346.851	12661
346.937	8922
347.023	7972
347.108	7948
347.194	7119
347.280	8433
347.366	10815
347.452	28209
347.538	46391
347.624	28167
347.710	18892
347.796	8887
347.882	7951
347.967	8084
348.053	7854
348.139	8295
348.225	5954
348.311	6688
348.397	7331
348.482	8531
348.568	9314
348.654	11327
348.740	30160
348.825	27796
348.911	14884
348.997	22803
349.083	29213
349.168	9389
349.254	7443
349.340	8060
349.425	6868
349.511	8206
349.597	7195
349.682	10782
349.768	21416
349.854	11738
349.939	7507
350.025	7568
350.110	7566
350.196	6766
350.282	6834
350.367	7735
350.453	8254
350.538	8198
350.624	7097
350.709	8600
350.795	6227
350.880	6219
350.966	7687
351.051	8023
351.137	7046
351.222	7609
351.308	10535
351.393	15977
351.479	7931
351.564	7002
351.649	7170
351.735	7011
351.820	6457
351.906	7338
351.991	7576
352.076	15027
352.162	14934
352.247	7689
352.332	6924
352.418	9100
352.503	10446
352.588	22516
352.673	15197
352.759	8816
352.844	6111
352.929	8066
353.014	6789
353.100	7442
353.185	7992
353.270	8701
353.355	8496
353.441	7133
353.526	6957
353.611	8790
353.696	8163
353.781	9302
353.866	6145
353.952	8468
354.037	8300
354.122	12481
354.207	11071
354.292	7640
354.377	6927
354.462	7562
354.547	6611
354.632	7290
354.717	7411
354.802	7427
354.887	6773
354.972	7229
355.057	6878
355.142	7650
355.227	7844
355.312	8469
355.397	9624
355.482	15970
355.567	9892
355.652	10715
355.737	11375
355.822	24235
355.907	16148
355.991	9630
356.076	7359
356.161	8282
356.246	7696
356.331	9347
356.416	12629
356.501	41763
356.585	31677
356.670	9942
356.755	11177
356.840	11268
356.924	32243
357.009	72721
357.094	25683
357.179	11689
357.263	9564
357.348	11056
357.433	9839
357.517	10255
357.602	8811
357.687	10093
357.771	12579
357.856	22079
357.941	16418
358.025	31374
358.110	77454
358.195	32680
358.279	11551
358.364	11921
358.448	20848
358.533	37191
358.617	26134
358.702	26321
358.787	13605
358.871	11902
358.956	9841
359.040	8918
359.125	8261
359.209	9765
359.294	15756
359.378	21521
359.462	12429
359.547	8864
359.631	7572
359.716	7232
359.800	7627
359.885	8905
359.969	7169
360.053	8198
360.138	6741
360.222	8579
360.306	8738
360.391	9326
360.475	14877
360.559	19855
360.644	16536
360.728	13242
360.812	28466
360.896	50139
360.981	20579
361.065	12398
361.149	9244
361.233	9306
361.318	7780
361.402	9294
361.486	10671
361.570	8659
361.654	10083
361.739	15239
361.823	42139
361.907	50227
361.991	16256
362.075	16692
362.159	22436
362.243	37757
362.327	80122
362.411	101843
362.495	41800
362.580	23067
362.664	20905
362.748	25271
362.832	37633
362.916	78154
363.000	199029
363.084	252513
363.168	123640
363.252	39554
363.336	22433
363.420	22623
363.503	39063
363.587	36110
363.671	16354
363.755	16078
363.839	18131
363.923	18499
364.007	23677
364.091	31773
364.175	54870
364.258	126207
364.342	236327
364.426	341373
364.510	174222
364.594	60593
364.677	39748
364.761	58975
364.845	36392
364.929	18404
365.013	14554
365.096	14563
365.180	12478
365.264	22213
365.347	46689
365.431	21103
365.515	10519
365.598	9069
365.682	10663
365.766	11111
365.849	11441
365.933	10278
366.017	11795
366.100	10440
366.184	8496
366.267	10883
366.351	8863
366.435	8442
366.518	7619
366.602	9603
366.685	9491
366.769	9882
366.852	11037
366.936	12983
367.019	10846
367.103	8679
367.186	12718
367.270	10263
367.353	9806
367.436	11042
367.520	9772
367.603	11140
367.687	11456
367.770	12633
367.853	12144
367.937	22193
368.020	24984
368.104	11684
368.187	11235
368.270	12402
368.353	10456
368.437	12948
368.520	16397
368.603	13199
368.687	20356
368.770	27684
368.853	11746
368.936	12210
369.020	11191
369.103	8013
369.186	8353
369.269	8956
369.352	10447
369.436	10740
369.519	9588
369.602	7967
369.685	10134
369.768	7815
369.851	8857
369.934	8142
370.018	7722
370.101	9460
370.184	11062
370.267	10979
370.350	11513
370.433	16021
370.516	44054
370.599	72235
370.682	27573
370.765	20878
370.848	24795
370.931	34321
371.014	16457
371.097	8387
371.180	9330
371.263	9445
371.346	8368
371.429	10022
371.511	8360
371.594	10627
371.677	11974
371.760	14612
371.843	14967
371.926	43151
372.009	65342
372.091	28483
372.174	23339
372.257	38737
372.340	19855
372.423	16808
372.505	16556
372.588	12826
372.671	19022
372.754	33614
372.836	20357
372.919	21462
373.002	26839
373.085	13544
373.167	13643
373.250	21750
373.332	37519
373.415	56869
373.498	84964
373.580	50860
373.663	113564
373.746	96251
373.828	22410
373.911	15630
373.993	14938
374.076	28959
374.159	24114
374.241	17947
374.324	29937
374.406	24851
374.489	39026
374.571	73848
374.654	30863
374.736	25018
374.819	52027
374.901	72251
374.983	60469
375.066	17961
375.148	14765
375.231	29272
375.313	39144
375.395	20087
375.478	12825
375.560	14111
375.643	14274
375.725	27104
375.807	60855
375.890	41009
375.972	16790
376.054	15063
376.136	16168
376.219	13123
376.301	27259
376.383	48345
376.465	21340
376.548	14784
376.630	20827
376.712	41910
376.794	20175
376.877	8708
376.959	7674
377.041	8639
377.123	10267
377.205	11442
377.287	8219
377.369	8999
377.452	8889
377.534	8953
377.616	8816
377.698	8293
377.780	8172
377.862	9188
377.944	8815
378.026	8427
378.108	8650
378.190	8657
378.272	8743
378.354	8809
378.436	7574
378.518	9146
378.600	13317
378.682	14315
378.764	22316
378.846	18464
378.928	10065
379.010	11126
379.091	9716
379.173	9102
379.255	7247
379.337	9950
379.419	15913
379.501	29338
379.583	14563
379.664	9788
379.746	12256
379.828	23837
379.910	27572
379.991	23410
380.073	9586
380.155	9125
380.237	7953
380.318	9005
380.400	8596
380.482	10823
380.564	11274
380.645	11571
380.727	10496
380.809	10854
380.890	8854
380.972	8463
381.053	8239
381.135	10382
381.217	13447
381.298	23415
381.380	14457
381.461	17257
381.543	46922
381.624	45072
381.706	14408
381.787	12220
381.869	13855
381.951	31657
382.032	69825
382.113	41185
382.195	14083
382.276	16098
382.358	23231
382.439	44563
382.521	54137
382.602	68354
382.684	41701
382.765	72475
382.846	130109
382.928	214718
383.009	115554
383.090	121512
383.172	330861
383.253	361296
383.334	122429
383.416	80351
383.497	51547
383.578	49262
383.659	102867
383.741	314327
383.822	523435
383.903	243140
383.984	82798
384.066	80305
384.147	48080
384.228	24908
384.309	21107
384.390	20383
384.471	18814
384.553	17334
384.634	16845
384.715	17351
384.796	15139
384.877	17797
384.958	28303
385.039	27074
385.120	17323
385.201	14522
385.282	14599
385.363	18193
385.444	18254
385.525	23830
385.606	40613
385.687	33097
385.768	17985
385.849	21306
385.930	46666
386.011	59970
386.092	23580
386.173	17525
386.254	15224
386.335	14913
386.416	15276
386.496	21993
386.577	26581
386.658	16986
386.739	14796
386.820	16059
386.901	15534
386.981	17591
387.062	19371
387.143	23344
387.224	33738
387.304	32185
387.385	24470
387.466	21251
387.547	24785
387.627	23585
387.708	29949
387.789	51079
387.869	50706
387.950	26383
388.031	18208
388.111	16429
388.192	21097
388.273	23555
388.353	18970
388.434	14734
388.514	19751
388.595	44040
388.676	44670
388.756	25237
388.837	23032
388.917	16324
388.998	9613
389.078	12586
389.159	11580
389.239	11351
389.320	13452
389.400	10757
389.480	17676
389.561	27250
389.641	17623
389.722	12172
389.802	12229
389.883	19545
389.963	31114
390.043	20627
390.124	11533
390.204	15963
390.284	25736
390.365	19042
390.445	27198
390.525	52520
390.605	39788
390.686	18252
390.766	12834
390.846	12990
390.927	11252
391.007	10772
391.087	12346
391.167	11751
391.247	10575
391.328	14660
391.408	14744
391.488	14266
391.568	12247
391.648	14058
391.728	15796
391.808	16644
391.888	17112
391.969	25685
392.049	29015
392.129	23183
392.209	27089
392.289	40290
392.369	30104
392.449	28786
392.529	27766
392.609	29860
392.689	37024
392.769	54980
392.849	57528
392.929	67953
393.009	101631
393.089	134252
393.169	241895
393.248	546133
393.328	936901
393.408	849438
393.488	426764
393.568	187975
393.648	104908
393.728	67595
393.807	48547
393.887	40157
393.967	34324
394.047	30571
394.127	28543
394.206	35487
394.286	91566
394.366	252586
394.446	217438
394.525	57906
394.605	26110
394.685	22851
394.764	30265
394.844	50806
394.924	48294
395.003	23776
395.083	16859
395.163	16747
395.242	15775
395.322	15276
395.402	14330
395.481	19987
395.561	29270
395.640	71757
395.720	101459
395.799	68440
395.879	40634
395.958	41113
396.038	121769
396.117	322571
396.197	288847
396.276	94676
396.356	49230
396.435	49267
396.515	58307
396.594	90246
396.673	193235
396.753	502681
396.832	828733
396.912	579841
396.991	213197
397.070	94575
397.150	56697
397.229	52942
397.308	89930
397.388	137553
397.467	65962
397.546	27246
397.625	18917
397.705	21258
397.784	17473
397.863	16235
397.942	14110
398.022	15597
398.101	20307
398.180	31764
398.259	19379
398.338	14664
398.417	11836
398.497	11174
398.576	11555
398.655	9746
398.734	10570
398.813	10660
398.892	17794
398.971	31577
399.050	17707
399.129	9504
399.208	9000
399.287	10116
399.366	8194
399.445	9148
399.524	9031
399.603	7158
399.682	10510
399.761	17406
399.840	35280
399.919	25700
399.998	8696
400.077	7073
400.156	6816
400.235	10467
400.313	7785
400.392	8030
400.471	14530
400.550	17307
400.629	7724
400.708	8267
400.786	7325
400.865	10278
400.944	9539
401.023	9663
401.102	5816
401.180	7056
401.259	7167
401.338	6892
401.416	7752
401.495	6825
401.574	7848
401.652	6724
401.731	7102
401.810	5619
401.888	6288
401.967	5639
402.046	6406
402.124	7206
402.203	5903
402.281	8228
402.360	6504
402.438	11349
402.517	8352
402.596	7888
402.674	5890
402.753	6646
402.831	6210
402.910	7799
402.988	9116
403.066	15872
403.145	12046
403.223	10966
403.302	15170
403.380	13842
403.459	12623
403.537	8781
403.615	7802
403.694	6257
403.772	7251
403.850	7218
403.929	6768
404.007	6760
404.085	8890
404.164	7540
404.242	8838
404.320	22126
404.398	50361
404.477	48680
404.555	61364
404.633	48787
404.711	37574
404.789	24486
404.868	8907
404.946	6814
405.024	6302
405.102	6484
405.180	5163
405.258	5165
405.336	5594
405.415	5714
405.493	6954
405.571	7270
405.649	4417
405.727	6185
405.805	8334
405.883	8434
405.961	7812
406.039	7448
406.117	5197
406.195	7928
406.273	17320
406.351	40398
406.429	22554
406.507	7240
406.585	5954
406.663	6222
406.740	5584
406.818	5593
406.896	4283
406.974	6967
407.052	8210
407.130	27779
407.208	30353
407.285	10884
407.363	5407
407.441	6475
407.519	6826
407.596	7757
407.674	19385
407.752	50934
407.830	34445
407.907	10092
407.985	5018
408.063	5395
408.141	5484
408.218	7192
408.296	5020
408.373	6552
408.451	7632
408.529	6917
408.606	6633
408.684	7619
408.762	7631
408.839	7816
408.917	7472
408.994	9372
409.072	8918
409.149	13220
409.227	19020
409.304	27722
409.382	29182
409.459	33568
409.537	41254
409.614	36921
409.692	29708
409.769	31432
409.846	42590
409.924	50186
410.001	35229
410.079	27106
410.156	20168
410.233	16039
410.311	13459
410.388	12129
410.465	11064
410.543	10777
410.620	10737
410.697	10933
410.775	10890
410.852	10134
410.929	11464
411.006	12736
411.083	9964
411.161	11582
411.238	11502
411.315	9921
411.392	9316
411.469	9418
411.547	8491
411.624	6972
411.701	6917
411.778	8226
411.855	8604
411.932	7464
412.009	6063
412.086	7259
412.163	6799
412.240	6364
412.317	7490
412.394	7205
412.471	6507
412.548	5511
412.625	6321
412.702	6918
412.779	6948
412.856	6504
412.933	5834
413.010	6459
413.087	6972
413.164	12420
413.241	13894
413.318	6754
413.395	7561
413.471	7285
413.548	6164
413.625	6331
413.702	5583
413.779	5273
413.855	5399
413.932	4429
414.009	5043
414.086	5402
414.162	5541
414.239	6387
414.316	12800
414.393	18795
414.469	8117
414.546	5043
414.623	4370
414.699	4979
414.776	5022
414.853	4654
414.929	5233
415.006	4606
415.082	4807
415.159	5361
415.236	5204
415.312	5952
415.389	5272
415.465	5063
415.542	5154
415.618	4306
415.695	5834
415.771	4573
415.848	4608
415.924	5196
416.000	4992
416.077	5826
416.153	3650
416.230	4605
416.306	5005
416.383	4890
416.459	5031
416.535	4524
416.612	4192
416.688	4846
416.764	5161
416.841	3776
416.917	4868
416.993	5053
417.069	5585
417.146	6797
417.222	6544
417.298	5324
417.374	4005
417.451	5835
417.527	4840
417.603	5350
417.679	4675
417.755	5036
417.831	4202
417.908	5089
417.984	4713
418.060	4368
418.136	6402
418.212	6009
418.288	3958
418.364	6157
418.440	5105
418.516	6504
418.592	5686
418.668	7926
418.744	7093
418.820	7331
418.896	5155
418.972	4749
419.048	5594
419.124	7563
419.200	5026
419.276	5237
419.352	4694
419.428	5932
419.504	5810
419.579	6112
419.655	6859
419.731	6986
419.807	8885
419.883	10374
419.959	8432
420.034	8113
420.110	10466
420.186	16476
420.262	13577
420.337	8705
420.413	8651
420.489	9683
420.565	10161
420.640	9722
420.716	10551
420.792	9720
420.867	12815
420.943	11715
421.019	12995
421.094	13526
421.170	14169
421.245	14062
421.321	15729
421.397	17786
421.472	27989
421.548	44121
421.623	33918
421.699	27116
421.774	28112
421.850	32180
421.925	38912
422.001	44963
422.076	53629
422.152	67950
422.227	88256
422.302	122097
422.378	174580
422.453	266827
422.529	376451
422.604	388484
422.679	322701
422.755	373083
422.830	351512
422.905	253457
422.981	174735
423.056	125175
423.131	95779
423.207	73322
423.282	58918
423.357	51481
423.432	41105
423.508	37178
423.583	33046
423.658	29707
423.733	25845
423.808	23826
423.883	24061
423.959	24442
424.034	26588
424.109	24361
424.184	18202
424.259	15530
424.334	14092
424.409	13116
424.484	12004
424.559	11908
424.634	10570
424.709	10731
424.784	10756
424.859	10327
424.934	10379
425.009	15296
425.084	17373
425.159	11390
425.234	9567
425.309	8978
425.384	11945
425.459	12620
425.534	8838
425.609	6821
425.683	6538
425.758	7310
425.833	7520
425.908	8236
425.983	10505
426.058	15748
426.132	9046
426.207	7352
426.282	8900
426.357	6063
426.431	6240
426.506	6577
426.581	5714
426.655	5500
426.730	6278
426.805	5215
426.879	6017
426.954	6211
427.029	8061
427.103	19307
427.178	33720
427.253	16396
427.327	5928
427.402	7418
427.476	10669
427.551	7626
427.625	6123
427.700	6172
427.774	5162
427.849	5871
427.923	5744
427.998	7599
428.072	8266
428.147	18741
428.221	75493
428.296	166370
428.370	82793
428.444	16419
428.519	9213
428.593	10891
428.667	10274
428.742	13742
428.816	32601
428.890	118677
428.965	143461
429.039	39952
429.113	13093
429.188	8298
429.262	5805
429.336	7649
429.410	9738
429.485	8116
429.559	8234
429.633	9009
429.707	11021
429.781	30239
429.855	112866
429.930	131752
430.004	43986
430.078	44206
430.152	93923
430.226	228170
430.300	190141
430.374	48513
430.448	18110
430.522	18777
430.596	30795
430.670	52381
430.744	145590
430.818	133715
430.892	28317
430.966	8146
431.040	6036
431.114	4627
431.188	3469
431.262	4637
431.336	3741
431.410	7123
431.484	8457
431.557	8133
431.631	6609
431.705	14406
431.779	60177
431.853	159400
431.927	92727
432.000	16386
432.074	6788
432.148	4742
432.222	3888
432.295	3571
432.369	3417
432.443	4846
432.516	17510
432.590	32166
432.664	10895
432.737	3892
432.811	2359
432.885	2961
432.958	2698
433.032	2148
433.106	1652
433.179	2280
433.253	2304
433.326	2747
433.400	2308
433.473	2469
433.547	2757
433.620	2783
433.694	3394
433.767	3673
433.841	2738
433.914	3069
433.988	2231
434.061	3962
434.134	2609
434.208	3571
434.281	1353
434.355	2584
434.428	3119
434.501	3150
434.575	2318
434.648	2405
434.721	2581
434.795	2752
434.868	2564
434.941	3091
435.014	2596
435.088	3947
435.161	4944
435.234	7427
435.307	7441
435.381	9358
435.454	13037
435.527	19787
435.600	21614
435.673	17976
435.746	12834
435.819	10856
435.892	8605
435.966	6449
436.039	5168
436.112	4949
436.185	3878
436.258	3146
436.331	3301
436.404	3212
436.477	3171
436.550	3154
436.623	2786
436.696	3347
436.769	2979
436.842	3229
436.915	2442
436.987	2606
437.060	2802
437.133	3108
437.206	2000
437.279	3187
437.352	2539
437.425	2630
437.498	2335
437.570	3709
437.643	2960
437.716	2942
437.789	2091
437.861	3614
437.934	5086
438.007	2564
438.080	1491
438.152	3025
438.225	4240
438.298	23908
438.370	47577
438.443	17049
438.516	3841
438.588	3383
438.661	2059
438.734	2952
438.806	2966
438.879	3615
438.951	3149
439.024	4282
439.096	2622
439.169	3182
439.241	2386
439.314	1797
439.386	2710
439.459	3582
439.531	3012
439.604	2121
439.676	2503
439.749	2283
439.821	1852
439.893	2285
439.966	1810
440.038	2337
440.110	2627
440.183	3180
440.255	1240
440.327	4295
440.400	10695
440.472	28186
440.544	14775
440.617	3882
440.689	3813
440.761	5179
440.833	5256
440.905	3683
440.978	1728
441.050	2680
441.122	3267
441.194	2593
441.266	3353
441.338	3073
441.411	4115
441.483	10598
441.555	11035
441.627	4923
441.699	3478
441.771	3268
441.843	3723
441.915	3462
441.987	3353
442.059	4494
442.131	4662
442.203	7053
442.275	9149
442.347	14840
442.419	38594
442.491	149350
442.563	237065
442.635	90764
442.706	24304
442.778	13039
442.850	7987
442.922	8256
442.994	6980
443.066	8291
443.137	10252
443.209	14644
443.281	23082
443.353	52555
443.425	170694
443.496	379324
443.568	350431
443.640	142009
443.711	36484
443.783	17322
443.855	11681
443.926	8768
443.998	7157
444.070	6891
444.141	5961
444.213	6084
444.285	5572
444.356	5174
444.428	5017
444.499	5236
444.571	4723
444.642	6246
444.714	5158
444.785	6136
444.857	7659
444.928	9795
445.000	9032
445.071	12702
445.143	15408
445.214	22753
445.285	39516
445.357	102337
445.428	284864
445.500	411468
445.571	339655
445.642	213336
445.714	74637
445.785	29041
445.856	14219
445.928	9981
445.999	8857
446.070	5762
446.141	5707
446.213	5931
446.284	4070
446.355	4273
446.426	3533
446.497	3105
446.569	3026
446.640	3971
446.711	3387
446.782	3239
446.853	3250
446.924	3003
446.995	1921
447.066	2392
447.138	2476
447.209	2162
447.280	1739
447.351	2228
447.422	955
447.493	2354
447.564	1702
447.635	1821
447.706	1080
447.777	1144
447.847	1488
447.918	1136
447.989	2524
448.060	2509
448.131	3515
448.202	2696
448.273	1588
448.344	1829
448.414	1549
448.485	1862
448.556	1798
448.627	1580
448.698	2537
448.768	1785
448.839	237
448.910	1646
448.981	2431
449.051	877
449.122	186
449.193	1432
449.263	1582
449.334	958
449.405	2355
449.475	3234
449.546	2838
449.616	3359
449.687	1731
449.758	2148
449.828	1227
449.899	1406
449.969	1015
450.040	1708
450.110	879
450.181	2061
450.251	499
450.322	1563
450.392	1171
450.463	1413
450.533	1302
450.604	2078
450.674	1864
450.744	3687
450.815	2237
450.885	2680
450.955	2697
451.026	2540
451.096	2042
451.166	2436
451.237	3985
451.307	5730
451.377	2290
451.447	1891
451.518	1727
451.588	1905
451.658	1873
451.728	2484
451.799	4755
451.869	4472
451.939	1548
452.009	1596
452.079	1663
452.149	1869
452.219	2567
452.289	5227
452.360	2853
452.430	2494
452.500	3992
452.570	7335
452.640	17570
452.710	40055
452.780	40373
452.850	20070
452.920	10364
452.990	4964
453.060	4187
453.129	3011
453.199	3026
453.269	8797
453.339	11503
453.409	14239
453.479	16892
453.549	22243
453.619	19359
453.688	6167
453.758	2103
453.828	2152
453.898	1506
453.968	1437
454.037	1659
454.087	1796
454.107	1845
454.168	1195
454.177	1092
454.247	2365
454.249	2308
454.316	614
454.330	640
454.386	648
454.411	1118
454.456	1827
454.492	2769
454.525	3630
454.574	2111
454.595	1424
454.655	1369
454.665	1358
454.734	1917
454.736	1949
454.804	2433
454.817	2893
454.873	4704
454.898	4497
454.943	4110
454.979	2825
455.013	1673
455.060	1713
455.082	1712
455.141	2082
455.152	2169
455.221	3976
455.222	4034
455.291	6198
455.303	6648
455.360	8192
455.384	10137
455.430	13026
455.465	9513
455.499	6391
455.546	4841
455.569	4086
455.627	3355
455.638	3247
455.707	1471
455.708	1484
455.777	1227
455.789	1249
455.846	1203
455.869	1371
455.916	1602
455.950	1722
455.985	1860
456.031	1732
456.054	1660
456.112	1958
456.124	2046
456.193	2231
456.193	2217
456.262	1179
456.274	1448
456.332	2636
456.355	2456
456.401	2149
456.436	2017
456.470	1820
456.516	1766
456.540	1725
456.597	2225
456.609	2366
456.678	2901
456.678	2886
456.747	2670
456.759	2523
456.817	2141
456.840	2328
456.886	2374
456.920	2083
456.955	2050
457.001	2477
457.024	2576
457.082	2797
457.093	2840
457.162	4130
457.163	4144
457.232	3008
457.243	2907
457.301	2876
457.324	2932
457.370	2926
457.405	3475
457.439	4050
457.485	3811
457.508	3799
457.566	5290
457.577	5861
457.646	9051
457.647	9120
457.715	19286
457.727	21967
457.784	34840
457.808	47569
457.853	64577
457.889	70640
457.922	71652
457.969	48251
457.991	44737
458.050	53706
458.060	55233
458.129	101849
458.130	102841
458.198	101786
458.211	89542
458.267	46028
458.292	33202
458.336	22017
458.372	22365
458.405	31171
458.453	47322
458.474	55715
458.533	97095
458.543	100066
458.611	156813
458.614	156522
458.680	93372
458.694	74473
458.749	31742
458.775	23263
458.818	13784
458.855	11008
458.887	9084
458.936	7217
458.955	6597
459.016	5694
459.024	5642
459.093	5662
459.097	5649
459.162	4647
459.177	4526
459.230	4597
459.257	4553
459.299	4463
459.338	4680
459.368	4666
459.418	4328
459.437	4185
459.499	4130
459.505	4166
459.574	4376
459.579	4413
459.643	4457
459.659	4359
459.711	4240
459.740	4223
459.780	4115
459.820	4132
459.849	3988
459.900	4133
459.917	4356
459.981	4604
459.986	4543
460.054	4502
460.061	4425
460.123	4593
460.141	4795
460.191	5194
460.222	5495
460.260	5721
460.302	6058
460.328	6171
460.382	5638
460.397	5510
460.462	5963
460.465	6190
460.534	10750
460.543	11430
460.602	23564
460.623	28806
460.671	41261
460.703	55585
460.739	52516
460.783	35515
460.808	29666
460.864	9545
460.876	7118
460.944	4895
460.945	4867
461.013	4306
461.024	4053
461.081	3774
461.104	4298
461.150	4641
461.184	4302
461.218	4361
461.264	4589
461.286	4474
461.345	4038
461.355	3945
461.423	4083
461.425	4071
461.491	4260
461.505	4291
461.559	4487
461.585	4674
461.628	5576
461.665	6810
461.696	7217
461.745	7553
461.764	7082
461.825	4625
461.832	4579
461.901	4040
461.905	4083
461.969	3801
461.985	3643
462.037	4540
462.065	5150
462.105	5196
462.145	4981
462.173	5103
462.225	5545
462.241	5689
462.305	6071
462.310	5985
462.378	5277
462.385	5038
462.446	4355
462.465	4463
462.514	4288
462.545	4038
462.582	4252
462.625	4383
462.650	4157
462.705	3819
462.718	3923
462.785	5022
462.786	5032
462.854	4453
462.865	4455
462.922	5096
462.945	5445
462.990	5307
463.025	4863
463.058	4723
463.104	4562
463.126	4503
463.184	4611
463.194	4620
463.262	4425
463.264	4421
463.330	4738
463.344	4792
463.398	4771
463.424	4721
463.466	5058
463.504	5422
463.533	5269
463.583	5077
463.601	4950
463.663	4105
463.669	4116
463.737	4745
463.743	4763
463.805	6298
463.823	6773
463.873	7454
463.903	7979
463.940	8155
463.982	8329
464.008	7405
464.062	4775
464.076	4850
464.142	5797
464.144	5784
464.211	4890
464.221	4786
464.279	4709
464.301	4591
464.347	4591
464.381	4816
464.414	5442
464.461	6019
464.482	5937
464.540	5865
464.550	5827
464.617	5192
464.620	5176
464.685	6216
464.699	6360
464.753	6529
464.779	6753
464.820	7065
464.859	7215
464.888	6939
464.938	6541
464.956	6718
465.018	6983
465.023	6973
465.091	6995
465.098	6984
465.158	7166
465.177	7248
465.226	6684
465.257	6142
465.293	5995
465.336	5959
465.361	6252
465.416	6718
465.428	6902
465.495	8156
465.496	8174
465.563	8838
465.575	8994
465.631	10013
465.654	10441
465.698	8523
465.734	6739
465.765	6820
465.813	6982
465.833	6877
465.893	6538
465.900	6533
465.968	6464
465.972	6441
466.035	6276
466.052	6234
466.102	6372
466.131	6486
466.170	6118
466.210	5597
466.237	5852
466.290	6438
466.304	6456
466.369	6375
466.372	6392
466.439	6633
466.449	6641
466.506	6791
466.528	6858
466.573	7878
466.607	8597
466.641	9664
466.687	11138
466.708	11774
466.766	13547
466.775	12985
466.842	8470
466.845	8243
466.909	7650
466.925	7500
466.977	7371
467.004	7300
467.044	7580
467.083	7841
467.111	8631
467.163	10073
467.178	10152
467.242	10392
467.245	10390
467.312	9999
467.321	9931
467.379	9909
467.400	9874
467.446	9347
467.480	8936
467.559	8338
467.638	9541
467.717	8865
467.796	9820
467.875	10507
467.955	10303
468.034	13186
468.113	17276
468.192	22807
468.271	16863
468.350	22483
468.429	28198
468.508	30134
468.588	18277
468.667	12849
468.746	11602
468.825	9489
468.904	9590
468.983	9750
469.062	10695
469.141	11306
469.220	8586
469.299	8277
469.378	8306
469.456	11584
469.535	9298
469.614	9141
469.693	8534
469.772	10443
469.851	11437
469.930	9773
470.009	9283
470.088	11054
470.166	13037
470.245	17776
470.324	20122
470.403	13678
470.482	10380
470.560	10067
470.639	9427
470.718	10807
470.797	8184
470.875	8947
470.954	8628
471.033	10423
471.111	7948
471.190	7745
471.269	7781
471.347	7800
471.426	8548
471.505	9094
471.583	9326
471.662	8568
471.740	7880
471.819	8908
471.898	8916
471.976	8632
472.055	7910
472.133	9580
472.212	10004
472.290	8934
472.369	7915
472.447	8744
472.526	8243
472.604	9303
472.683	8625
472.761	8962
472.839	8287
472.918	8358
472.996	8282
473.075	9413
473.153	9603
473.231	8964
473.310	9392
473.388	9073
473.466	8576
473.545	10531
473.623	10872
473.701	10633
473.780	10064
473.858	7295
473.936	10142
474.014	8571
474.093	9507
474.171	10659
474.249	10565
474.327	9671
474.405	7867
474.484	8354
474.562	8010
474.640	8124
474.718	8040
474.796	8499
474.874	8457
474.952	7619
475.030	8041
475.108	7777
475.187	7308
475.265	8026
475.343	8357
475.421	9640
475.499	7719
475.577	8386
475.655	9359
475.733	11108
475.811	13656
475.889	12624
475.966	10998
476.044	7869
476.122	8118
476.200	8346
476.278	7693
476.356	8078
476.434	8514
476.512	8058
476.590	8951
476.667	8840
476.745	8148
476.823	8777
476.901	7961
476.979	7908
477.056	8372
477.134	7987
477.212	8751
477.290	8638
477.367	8215
477.445	7100
477.523	7480
477.601	9316
477.678	8088
477.756	8042
477.834	7934
477.911	7211
477.989	7442
478.066	7645
478.144	7838
478.222	9078
478.299	8069
478.377	8863
478.454	8050
478.532	7957
478.609	7711
478.687	8801
478.764	8041
478.842	7743
478.919	7983
478.997	7819
479.074	6262
479.152	8738
479.229	8276
479.307	7228
479.384	7640
479.461	7987
479.539	7588
479.616	8644
479.694	7580
479.771	8408
479.848	7835
479.926	7339
480.003	9662
480.080	8020
480.157	8188
480.235	7657
480.312	7530
480.389	8542
480.467	9150
480.544	10573
480.621	9432
480.698	9261
480.775	9789
480.853	8698
480.930	9017
481.007	8423
481.084	10202
481.161	12260
481.238	10414
481.315	8059
481.392	8273
481.470	8731
481.547	8929
481.624	8328
481.701	8832
481.778	8756
481.855	9497
481.932	11288
482.009	12642
482.086	11945
482.163	12181
482.240	13388
482.317	13694
482.393	12078
482.470	11114
482.547	11335
482.624	9846
482.701	10631
482.778	9308
482.855	9514
482.932	9917
483.009	10126
483.085	12213
483.162	14534
483.239	15588
483.316	13406
483.393	14089
483.469	11858
483.546	11047
483.623	10793
483.699	9152
483.776	9205
483.853	8241
483.930	10795
484.006	14133
484.083	21590
484.160	20434
484.236	28720
484.313	22558
484.389	18500
484.466	19901
484.543	21453
484.619	24940
484.696	26039
484.772	20327
484.849	18122
484.925	17218
485.002	16864
485.078	15687
485.155	15069
485.231	14165
485.308	14001
485.384	14332
485.461	16135
485.537	18078
485.614	19384
485.690	14474
485.766	14688
485.843	14805
485.919	14908
485.995	15956
486.072	13565
486.148	12931
486.224	13456
486.301	14082
486.377	15715
486.453	14742
486.530	15415
486.606	19041
486.682	19516
486.758	19147
486.835	20356
486.911	18341
486.987	23725
487.063	24717
487.139	27381
487.215	25803
487.292	23545
487.368	23229
487.444	27429
487.520	34599
487.596	53001
487.672	136008
487.748	360163
487.824	490103
487.900	161849
487.976	53149
488.052	32545
488.128	26226
488.204	20372
488.280	17994
488.356	19219
488.432	21280
488.508	25720
488.584	15529
488.660	14257
488.736	14729
488.812	13853
488.888	15858
488.964	17695
489.039	21922
489.115	28363
489.191	20606
489.267	14349
489.343	12963
489.418	13453
489.494	13502
489.570	11880
489.646	13580
489.722	12051
489.797	12529
489.873	15708
489.949	18997
490.024	18498
490.100	12368
490.176	12203
490.251	13456
490.327	14010
490.403	11143
490.478	12419
490.554	11023
490.629	11827
490.705	11085
490.781	12048
490.856	11219
490.932	12238
491.007	11916
491.083	11234
491.158	11401
491.234	12968
491.309	15883
491.385	15880
491.460	10667
491.536	11585
491.611	10910
491.686	11468
491.762	12100
491.837	16215
491.913	20804
491.988	25979
492.063	28876
492.139	15276
492.214	12207
492.289	10653
492.365	9432
492.440	10810
492.515	9748
492.590	11130
492.666	10060
492.741	11746
492.816	11795
492.891	10045
492.967	11075
493.042	9720
493.117	10525
493.192	10663
493.267	16654
493.342	33520
493.418	37051
493.493	12150
493.568	10636
493.643	10096
493.718	10859
493.793	11483
493.868	10914
493.943	10176
494.018	9746
494.093	9782
494.168	9535
494.243	9311
494.318	9672
494.393	9093
494.468	9459
494.543	9602
494.618	9197
494.693	9108
494.768	10052
494.842	9737
494.917	10302
494.992	9884
495.067	9032
495.142	10107
495.217	9596
495.292	9252
495.366	10179
495.441	9456
495.516	11320
495.591	13688
495.665	27141
495.740	45981
495.815	21729
495.890	10350
495.964	8412
496.039	12143
496.114	11110
496.188	13539
496.263	12938
496.338	10682
496.412	9992
496.487	11385
496.561	10116
496.636	11735
496.710	10327
496.785	10916
496.860	11660
496.934	10033
497.009	9310
497.083	11447
497.158	12258
497.232	12532
497.307	12445
497.381	11056
497.455	11911
497.530	12496
497.604	10413
497.679	10379
497.753	12420
497.827	12654
497.902	10601
497.976	14709
498.050	34155
498.125	92620
498.199	86852
498.273	15172
498.348	10990
498.422	12453
498.496	12355
498.570	13243
498.645	10342
498.719	9358
498.793	10617
498.867	12607
498.941	17018
499.016	45719
499.090	93503
499.164	34558
499.238	10639
499.312	11431
499.386	11458
499.460	11234
499.534	12048
499.609	14110
499.683	13117
499.757	12658
499.831	25493
499.905	63424
499.979	55938
500.053	13458
500.127	14169
500.201	11202
500.275	10205
500.349	10722
500.422	11806
500.496	13932
500.570	21372
500.644	44605
500.718	63980
500.792	18781
500.866	9758
500.940	10639
501.013	9808
501.087	9352
501.161	12315
501.235	13895
501.309	26423
501.382	53695
501.456	47105
501.530	15080
501.603	20164
501.677	11136
501.751	8361
501.825	12025
501.898	13931
501.972	24154
502.046	16216
502.119	9246
502.193	14784
502.266	24242
502.340	14940
502.413	15376
502.487	22569
502.561	14258
502.634	9847
502.708	9389
502.781	8136
502.855	9326
502.928	7813
503.002	8185
503.075	8288
503.149	9178
503.222	9021
503.295	9214
503.369	10723
503.442	12700
503.516	24173
503.589	42898
503.662	31357
503.736	20206
503.809	31688
503.882	33505
503.956	52020
504.029	94035
504.102	218259
504.175	287477
504.249	112019
504.322	44083
504.395	26108
504.468	17814
504.542	15078
504.615	11640
504.688	10664
504.761	8456
504.834	11628
504.907	10119
504.980	10941
505.053	8976
505.127	7195
505.200	11764
505.273	8959
505.346	7672
505.419	6668
505.492	8603
505.565	7266
505.638	7724
505.711	6758
505.784	6850
505.857	6456
505.930	8447
506.003	5385
506.076	9368
506.149	7221
506.221	7103
506.294	8724
506.367	13723
506.440	30188
506.513	17700
506.586	8725
506.659	7247
506.731	6612
506.804	7310
506.877	7059
506.950	7526
507.022	7836
507.095	6963
507.168	7760
507.241	7323
507.313	5745
507.386	5663
507.459	8368
507.531	6430
507.604	6627
507.677	7851
507.749	5572
507.822	9303
507.894	11412
507.967	15239
508.040	9453
508.112	10353
508.185	9188
508.257	6992
508.330	10970
508.402	8128
508.475	9386
508.547	9581
508.620	8620
508.692	9821
508.765	9814
508.837	7718
508.909	8272
508.982	7844
509.054	8527
509.127	7890
509.199	7406
509.271	7470
509.344	7716
509.416	7639
509.488	7557
509.560	9366
509.633	8166
509.705	7596
509.777	8251
509.849	9774
509.922	7943
509.994	8951
510.066	9892
510.138	7804
510.210	15572
510.283	12700
510.355	11709
510.427	10605
510.499	9679
510.571	9615
510.643	9647
510.715	12289
510.787	9404
510.859	11898
510.931	9384
511.003	11602
511.076	10663
511.148	8691
511.219	9567
511.291	12360
511.363	11535
511.435	10429
511.507	8291
511.579	8921
511.651	10302
511.723	8722
511.795	8343
511.867	9425
511.939	9273
512.010	11180
512.082	11293
512.154	8287
512.226	9968
512.298	12829
512.369	14395
512.441	13266
512.513	11749
512.585	9841
512.656	10849
512.728	10534
512.800	9731
512.871	11216
512.943	10356
513.015	8823
513.086	8675
513.158	10141
513.230	8517
513.301	10698
513.373	10934
513.444	10042
513.516	9337
513.588	9116
513.659	9182
513.731	10145
513.802	8370
513.874	13593
513.945	15344
514.016	9659
514.088	9158
514.159	9617
514.231	10289
514.302	12282
514.374	12166
514.445	10074
514.516	14994
514.588	11965
514.659	11043
514.730	11606
514.802	11512
514.873	9016
514.944	12285
515.016	10002
515.087	10473
515.158	11773
515.229	13210
515.301	10261
515.372	11442
515.443	10020
515.514	9967
515.585	9700
515.656	10863
515.728	11552
515.799	10436
515.870	11885
515.941	12547
516.012	12224
516.083	15608
516.154	14578
516.225	16673
516.296	18043
516.367	16047
516.438	17880
516.509	22177
516.580	37715
516.651	131819
516.722	338915
516.793	124794
516.864	30015
516.935	28297
517.006	30197
517.077	42380
517.148	119675
517.219	475793
517.289	567610
517.360	100398
517.431	34083
517.502	20979
517.573	21089
517.643	18349
517.714	20306
517.785	21457
517.856	22446
517.926	29657
517.997	32366
518.068	36426
518.138	46987
518.209	89581
518.280	360289
518.350	919433
518.421	312141
518.492	61408
518.562	48630
518.633	54491
518.703	79605
518.774	182382
518.845	418205
518.915	345129
518.986	105261
519.056	49691
519.127	39258
519.197	37520
519.268	47514
519.338	35734
519.408	20444
519.479	19243
519.549	15950
519.620	15954
519.690	13373
519.760	12137
519.831	13082
519.901	12204
519.971	14255
520.042	13991
520.112	12666
520.182	14762
520.253	13810
520.323	11844
520.393	13401
520.463	17302
520.534	11766
520.604	20842
520.674	14222
520.744	14273
520.814	20360
520.885	18816
520.955	21507
521.025	43661
521.095	21597
521.165	12418
521.235	11415
521.305	11037
521.375	12111
521.445	12489
521.515	12773
521.585	14143
521.655	11561
521.725	12889
521.795	12412
521.865	9818
521.935	13964
522.005	11232
522.075	11269
522.145	11897
522.215	11345
522.285	14161
522.355	14861
522.424	18452
522.494	16155
522.564	14263
522.634	17530
522.704	30767
522.774	16621
522.843	12618
522.913	11806
522.983	13036
523.053	11527
523.122	12794
523.192	12357
523.262	20524
523.331	18336
523.401	11767
523.471	10924
523.540	11066
523.610	11224
523.680	11859
523.749	13224
523.819	14052
523.888	12325
523.958	12161
524.027	12891
524.097	11876
524.166	10925
524.236	9538
524.305	13269
524.375	10348
524.444	11832
524.514	14837
524.583	13018
524.653	12110
524.722	13962
524.791	10785
524.861	12225
524.930	11160
524.999	12503
525.069	14006
525.138	13812
525.207	14025
525.277	14933
525.346	16190
525.415	16751
525.484	17937
525.554	19446
525.623	22437
525.692	27233
525.761	29881
525.830	35188
525.900	43499
525.969	70693
526.038	136836
526.107	320675
526.176	773388
526.245	537300
526.314	180513
526.383	410218
526.452	514650
526.522	755999
526.591	568929
526.660	110775
526.729	65658
526.797	70172
526.867	120942
526.935	406103
527.004	1080406
527.073	555895
527.142	91292
527.211	41001
527.280	29451
527.349	23788
527.418	18830
527.487	17841
527.555	14062
527.624	14481
527.693	13275
527.762	15015
527.831	12576
527.899	13859
527.968	13110
528.037	11115
528.106	12835
528.174	14128
528.243	13597
528.312	15222
528.380	15553
528.449	11930
528.518	13632
528.586	11368
528.655	13301
528.723	13190
528.792	12090
528.861	12345
528.929	12521
528.998	15671
529.066	24680
529.135	42992
529.203	40442
529.272	55688
529.340	69047
529.409	60603
529.477	55483
529.545	53488
529.614	60172
529.682	71829
529.751	76852
529.819	81816
529.887	95441
529.956	87068
530.024	80868
530.092	74268
530.161	73465
530.229	79001
530.297	86438
530.365	83999
530.434	89641
530.502	93080
530.570	81619
530.638	71874
530.707	67641
530.775	64631
530.843	65795
530.911	76934
530.979	75543
531.047	87972
531.115	82411
531.183	75183
531.252	69806
531.320	66817
531.388	67558
531.456	79715
531.524	83050
531.592	88000
531.660	98515
531.728	87252
531.796	84074
531.864	81755
531.932	82072
532.000	83293
532.067	92000
532.135	95994
532.203	100761
532.271	106099
532.339	101339
532.407	102692
532.475	94988
532.542	90536
532.610	91463
532.678	99111
532.746	121384
532.814	143251
532.881	111791
532.949	99622
533.017	93819
533.084	90409
533.152	85434
533.220	85107
533.287	89716
533.355	93521
533.423	93352
533.490	97304
533.558	91251
533.625	86097
533.693	82890
533.761	80558
533.828	78763
533.896	79658
533.963	90551
534.031	90460
534.098	98633
534.166	89414
534.233	83412
534.300	82423
534.368	80248
534.435	77029
534.503	77278
534.570	83329
534.637	85964
534.705	91661
534.772	97281
534.840	145752
534.907	428533
534.974	411665
535.041	95254
535.109	71142
535.176	66772
535.243	68602
535.310	68232
535.378	68109
535.445	63085
535.512	61244
535.579	57947
535.646	55094
535.714	55654
535.781	56533
535.848	59276
535.915	61666
535.982	61791
536.049	59822
536.116	55897
536.183	52570
536.250	49324
536.317	47623
536.384	48510
536.451	48427
536.518	51612
536.585	49498
536.652	54609
536.719	51127
536.786	45124
536.853	44280
536.920	47189
536.987	46777
537.053	45832
537.120	66842
537.187	60382
537.254	46511
537.321	45774
537.388	45959
537.454	40782
537.521	40171
537.588	40197
537.654	40362
537.721	41784
537.788	41185
537.855	39802
537.921	41576
537.988	40523
538.055	39357
538.121	35376
538.188	34892
538.254	34886
538.321	37656
538.388	35426
538.454	36898
538.521	37654
538.587	38178
538.654	37369
538.720	36188
538.787	36150
538.853	34684
538.920	34393
538.986	31952
539.053	31014
539.119	32239
539.185	31465
539.252	34903
539.318	35822
539.385	38813
539.451	34328
539.517	33648
539.583	34040
539.650	37566
539.716	45817
539.782	31481
539.849	28986
539.915	30763
539.981	30294
540.047	30499
540.114	31479
540.180	32135
540.246	29862
540.312	32348
540.378	34469
540.444	33315
540.510	36494
540.576	47103
540.643	31727
540.709	28756
540.775	29213
540.841	28399
540.907	29975
540.973	31413
541.039	29479
541.105	29723
541.171	29589
541.237	28982
541.303	30000
541.369	31891
541.435	31031
541.500	31528
541.566	27776
541.632	26760
541.698	26873
541.764	29098
541.830	27388
541.896	26432
541.961	26016
542.027	26433
542.093	29372
542.159	29777
542.224	27590
542.290	30527
542.356	29589
542.421	30623
542.487	26416
542.553	24833
542.618	25876
542.684	26616
542.750	26233
542.815	28065
542.881	29477
542.947	44425
543.012	35863
543.078	26060
543.143	24147
543.209	25847
543.274	24192
543.340	26008
543.405	31038
543.471	33926
543.536	26562
543.602	26468
543.667	25229
543.732	27466
543.798	26916
543.863	26656
543.928	25375
543.994	26297
544.059	27031
544.124	27917
544.190	27494
544.255	26288
544.320	27711
544.386	27387
544.451	29160
544.516	28262
544.581	29784
544.646	39013
544.712	43824
544.777	30200
544.842	28601
544.907	28755
544.972	29282
545.037	29171
545.102	31361
545.168	30687
545.233	31614
545.298	32320
545.363	31243
545.428	33672
545.493	37877
545.558	43155
545.623	34359
545.688	32726
545.753	34364
545.818	33662
545.883	37506
545.947	37222
546.012	38929
546.077	38514
546.142	41350
546.207	41563
546.272	45252
546.337	45252
546.401	47000
546.466	48541
546.531	49196
546.596	53702
546.661	54667
546.725	57912
546.790	60200
546.855	65165
546.919	69957
546.984	76261
547.049	84149
547.113	94690
547.178	104237
547.243	117866
547.307	136832
547.372	147271
547.436	147667
547.501	157327
547.565	166198
547.630	152075
547.695	147158
547.759	150713
547.823	149373
547.888	152072
547.952	155538
548.017	161605
548.081	167646
548.146	164251
548.210	169686
548.274	182805
548.339	176707
548.403	161792
548.468	152822
548.532	151982
548.596	154230
548.660	155142
548.725	173042
548.789	185483
548.853	178547
548.917	172886
548.982	164135
549.046	151227
549.110	135875
549.174	142538
549.238	165686
549.303	180791
549.367	186205
549.431	175451
549.495	163910
549.559	166650
549.623	192587
549.687	204092
549.751	207826
549.815	243025
549.879	242941
549.943	232966
550.007	245894
550.071	240599
550.135	217274
550.199	208250
550.263	204473
550.327	195165
550.391	201738
550.455	222523
550.519	233007
550.582	246520
550.646	279779
550.710	281721
550.774	275257
550.838	279058
550.901	288409
550.965	304126
551.029	317006
551.093	341783
551.156	373690
551.220	420847
551.284	437777
551.347	345189
551.411	309093
551.475	299763
551.538	300088
551.602	280019
551.666	266442
551.729	252210
551.793	246138
551.856	240765
551.920	238568
551.983	239841
552.047	235420
552.110	237553
552.174	241539
552.237	245696
552.301	229060
552.364	217308
552.428	213438
552.491	223497
552.554	224964
552.618	224014
552.681	229432
552.745	222062
552.808	244116
552.871	259655
552.934	238173
552.998	226825
553.061	221663
553.124	212735
553.187	210555
553.251	218970
553.314	218702
553.377	221530
553.440	240779
553.503	263910
553.567	270544
553.630	238769
553.693	234589
553.756	237092
553.819	231326
553.882	223446
553.945	227228
554.008	226893
554.071	229737
554.134	229421
554.197	215160
554.260	213696
554.323	213969
554.386	219796
554.449	229308
554.512	227509
554.575	219912
554.638	217130
554.701	216623
554.764	213478
554.827	206625
554.889	198917
554.952	188776
555.015	186343
555.078	188553
555.141	192043
555.203	187645
555.266	187528
555.329	185710
555.391	179894
555.454	179381
555.517	170872
555.580	166521
555.642	161762
555.705	157826
555.768	156319
555.830	154072
555.893	146799
555.955	142316
556.018	138311
556.080	141774
556.143	144045
556.206	142639
556.268	137731
556.330	137204
556.393	132879
556.455	128602
556.518	130256
556.580	125016
556.643	119226
556.705	117251
556.767	116974
556.830	115099
556.892	112225
556.955	112023
557.017	108356
557.079	106150
557.142	104999
557.204	104476
557.266	106108
557.328	97877
557.391	91432
557.453	89691
557.515	89376
557.577	90968
557.639	93574
557.701	90791
557.764	88577
557.826	90313
557.888	93283
557.950	95765
558.012	104199
558.074	139135
558.136	316315
558.198	574653
558.260	195321
558.322	101519
558.384	98622
558.446	100995
558.508	106657
558.570	117292
558.632	133753
558.694	172690
558.756	305245
558.818	864987
558.880	1318246
558.942	579238
559.003	625446
559.065	264043
559.127	124452
559.189	116039
559.251	130493
559.312	194876
559.374	494331
559.436	1093262
559.498	459823
559.559	140424
559.621	114695
559.683	132760
559.744	235414
559.806	704774
559.868	747559
559.929	180980
559.991	135147
560.052	243289
560.114	584498
560.176	321194
560.237	383817
560.299	473049
560.360	106784
560.422	57463
560.483	51451
560.545	47205
560.606	47153
560.667	43856
560.729	43337
560.790	40691
560.852	39626
560.913	38397
560.974	38086
561.036	36663
561.097	37091
561.158	35749
561.220	37266
561.281	34178
561.342	35092
561.403	36134
561.465	35335
561.526	40253
561.587	39895
561.648	32413
561.709	33033
561.771	32956
561.832	31617
561.893	30931
561.954	31327
562.015	30945
562.076	30687
562.137	29952
562.198	29039
562.259	30598
562.320	30244
562.381	30547
562.442	30747
562.503	30071
562.564	27650
562.625	28855
562.686	28188
562.747	28072
562.808	27604
562.869	27565
562.930	28300
562.991	26842
563.051	26939
563.112	26091
563.173	26229
563.234	25950
563.294	26152
563.355	25546
563.416	26953
563.477	24789
563.537	24435
563.598	25707
563.659	25199
563.720	23278
563.780	24846
563.841	24647
563.901	25694
563.962	24528
564.023	24120
564.083	24578
564.144	24182
564.204	23305
564.265	24391
564.325	24416
564.386	27299
564.446	24973
564.507	23026
564.567	22733
564.628	23252
564.688	22385
564.749	23682
564.809	24331
564.869	25292
564.930	23080
564.990	23497
565.050	22689
565.111	22648
565.171	21706
565.231	23723
565.292	23318
565.352	22262
565.412	22274
565.472	23059
565.532	22625
565.593	21974
565.653	22042
565.713	22641
565.773	22766
565.833	24299
565.893	24870
565.953	21354
566.013	21565
566.074	21210
566.134	21497
566.194	22730
566.254	22872
566.314	21517
566.374	21477
566.434	21421
566.494	21301
566.554	20979
566.614	23008
566.673	21737
566.733	23425
566.793	22232
566.853	22713
566.913	22221
566.973	22821
567.033	21887
567.092	22328
567.152	22962
567.212	22587
567.272	22181
567.331	23122
567.391	22725
567.451	24123
567.511	24626
567.570	23972
567.630	23203
567.690	21941
567.749	22314
567.809	22736
567.868	22039
567.928	22185
567.988	23121
568.047	22644
568.107	21969
568.166	22156
568.226	21523
568.285	23025
568.345	23161
568.404	22969
568.464	23376
568.523	22364
568.582	23282
568.642	23450
568.701	22109
568.761	22190
568.820	22725
568.879	21549
568.939	22953
568.998	22779
569.057	21269
569.116	22351
569.176	21939
569.235	21679
569.294	21492
569.353	21597
569.413	21851
569.472	20467
569.531	20056
569.590	20834
569.649	21070
569.708	20746
569.767	21752
569.827	22155
569.886	21510
569.945	20466
570.004	21794
570.063	21292
570.122	22524
570.181	22482
570.240	22604
570.299	23072
570.358	22055
570.417	22332
570.475	21563
570.534	21904
570.593	22816
570.652	21812
570.711	21821
570.770	21519
570.829	22530
570.887	22345
570.946	22964
571.005	22192
571.064	23573
571.122	24143
571.181	22585
571.240	22012
571.299	20966
571.357	21076
571.416	21967
571.475	20992
571.533	22185
571.592	22864
571.650	22324
571.709	22684
571.768	25764
571.826	25877
571.885	23173
571.943	22345
572.002	21340
572.060	21275
572.119	20871
572.177	20514
572.236	21348
572.294	21238
572.352	22935
572.411	22343
572.469	21572
572.528	21291
572.586	20936
572.644	20637
572.703	21786
572.761	20322
572.819	19796
572.877	18919
572.936	19269
572.994	18969
573.052	19491
573.110	19259
573.169	21244
573.227	21089
573.285	20378
573.343	20078
573.401	20099
573.459	20758
573.517	20008
573.576	21557
573.634	19954
573.692	20315
573.750	20635
573.808	19554
573.866	18756
573.924	19049
573.982	19776
574.040	19566
574.098	19082
574.155	18179
574.213	19554
574.271	19593
574.329	20655
574.387	18812
574.445	18724
574.503	17514
574.560	17754
574.618	18048
574.676	18515
574.734	18634
574.792	17351
574.849	17222
574.907	16499
574.965	15075
575.022	16137
575.080	15808
575.138	15490
575.195	16042
575.253	16023
575.311	15184
575.368	16374
575.426	15007
575.483	17229
575.541	16091
575.598	15245
575.656	15788
575.713	16150
575.771	16771
575.828	16259
575.886	14792
575.943	15368
576.001	14804
576.058	14450
576.115	15661
576.173	14964
576.230	15664
576.287	16366
576.345	15285
576.402	15764
576.459	15185
576.517	15214
576.574	14960
576.631	14595
576.688	13508
576.746	13466
576.803	14863
576.860	13769
576.917	14401
576.974	14778
577.031	14170
577.089	14918
577.146	13748
577.203	14318
577.260	13977
577.317	14139
577.374	14711
577.431	13873
577.488	14674
577.545	13998
577.602	14039
577.659	13775
577.716	14919
577.773	15550
577.830	13984
577.886	15105
577.943	14260
578.000	14183
578.057	14128
578.114	15242
578.171	17993
578.227	19972
578.284	19101
578.341	17220
578.398	16774
578.454	17053
578.511	15263
578.568	15408
578.625	15489
578.681	14415
578.738	14947
578.794	14838
578.851	14428
578.908	15296
578.964	15633
579.021	15776
579.077	14957
579.134	15849
579.190	14948
579.247	15154
579.303	14723
579.360	14473
579.416	15678
579.473	15979
579.529	15273
579.586	15838
579.642	17204
579.698	16781
579.755	17087
579.811	16727
579.867	17698
579.924	17933
579.980	18221
580.036	19522
580.093	23255
580.149	29230
580.205	30245
580.261	25623
580.317	23299
580.374	21517
580.430	21284
580.486	21240
580.542	20092
580.598	21408
580.619	21220
580.654	20911
580.692	21324
580.710	21553
580.765	22385
580.767	22428
580.823	22697
580.838	22406
580.879	21670
580.911	22156
580.935	22546
580.984	23228
580.991	23340
581.047	23263
581.057	23542
581.103	24855
581.130	24888
581.159	24936
581.203	25291
581.215	25402
581.270	24853
581.276	24741
581.326	23762
581.349	24210
581.382	24938
581.422	24739
581.438	24635
581.494	25339
581.494	25325
581.550	24997
581.567	25324
581.606	25924
581.640	25967
581.661	26034
581.713	26876
581.717	26957
581.773	26818
581.786	26849
581.829	26979
581.859	27083
581.885	27107
581.932	28394
581.940	28650
581.996	28430
582.004	28562
582.052	29299
582.077	29214
582.107	29134
582.150	29903
582.163	30146
582.219	30311
582.223	30327
582.274	30571
582.296	30939
582.330	31587
582.368	32372
582.386	32734
582.441	32723
582.441	32723
582.497	33857
582.514	33924
582.552	34214
582.587	34841
582.608	35163
582.659	36204
582.663	36293
582.719	37426
582.732	37650
582.774	38436
582.805	38667
582.830	39033
582.877	42778
582.885	43453
582.941	47503
582.950	48688
582.996	55177
583.023	59299
583.052	63477
583.095	62719
583.107	62257
583.162	59789
583.168	59489
583.218	55907
583.240	53489
583.273	50131
583.313	47582
583.328	46682
583.384	44470
583.385	44369
583.439	41417
583.458	41301
583.494	41402
583.531	40171
583.549	39587
583.603	40019
583.605	40025
583.660	37741
583.676	38096
583.715	39321
583.748	39184
583.770	39099
583.820	38927
583.825	38894
583.881	38670
583.893	38497
583.936	37919
583.965	38136
583.991	38660
584.038	40092
584.046	40276
584.101	39630
584.110	40003
584.156	42253
584.183	42412
584.211	42208
584.255	42040
584.266	42269
584.321	44998
584.328	45181
584.376	46004
584.400	45690
584.431	45149
584.472	45822
584.486	46265
584.541	48944
584.545	49018
584.596	50418
584.617	50376
584.651	49933
584.689	51122
584.706	51926
584.761	53265
584.762	53253
584.816	53546
584.834	53664
584.871	54111
584.906	55013
584.926	55462
584.978	55901
584.980	55967
585.035	58098
585.051	58119
585.090	58288
585.123	59467
585.145	60551
585.195	63062
585.200	63410
585.254	66285
585.267	67490
585.309	72595
585.340	76607
585.364	80583
585.412	89142
585.419	90909
585.473	108480
585.484	113524
585.528	143820
585.556	174046
585.583	233135
585.628	366623
585.637	416799
585.692	829680
585.700	879666
585.747	1002691
585.772	894802
585.801	592251
585.845	261724
585.856	224841
585.910	126059
585.917	115681
585.965	97499
585.989	89608
586.019	84489
586.061	78559
586.074	77287
586.128	72408
586.133	71893
586.183	67605
586.205	65886
586.237	64001
586.277	61730
586.292	61200
586.346	58451
586.349	58302
586.401	56791
586.421	55953
586.455	54904
586.493	53878
586.509	53891
586.564	53565
586.565	53541
586.618	58147
586.637	59228
586.672	61080
586.709	64212
586.727	65996
586.781	68771
586.781	68834
586.835	57559
586.853	54601
586.889	50896
586.925	47928
586.944	47307
586.996	46018
586.998	46072
587.052	45418
587.068	45270
587.106	45291
587.140	45213
587.161	45365
587.212	45077
587.215	45106
587.269	45163
587.284	44875
587.323	45374
587.356	46065
587.377	46232
587.427	46474
587.431	46610
587.485	47115
587.499	47200
587.539	47485
587.571	47844
587.593	48853
587.643	51060
587.648	51177
587.702	50360
587.715	50199
587.755	51175
587.786	51970
587.810	52175
587.858	51898
587.864	51986
587.917	51951
587.930	51853
587.971	52278
588.001	52668
588.025	53004
588.073	52778
588.079	52854
588.133	53023
588.145	53000
588.187	53877
588.217	54371
588.241	55106
588.288	56503
588.295	56919
588.348	59219
588.360	59536
588.402	60567
588.431	61131
588.456	61917
588.503	63913
588.510	64554
588.564	68066
588.575	68853
588.617	73309
588.646	75980
588.671	78736
588.718	84723
588.725	86827
588.778	104282
588.789	109044
588.832	162593
588.861	204205
588.886	297366
588.932	497262
588.939	516764
588.993	622005
589.004	624566
589.047	343152
589.075	179623
589.100	142973
589.147	87595
589.154	86688
589.207	79145
589.218	77673
589.261	79470
589.290	80855
589.314	83454
589.361	89214
589.368	92471
589.421	120513
589.433	127595
589.475	217828
589.504	288848
589.528	385565
589.576	569556
589.582	549616
589.635	289008
589.647	238362
589.689	139446
589.718	75879
589.742	72089
589.790	64674
589.795	64683
589.849	63362
589.861	63020
589.902	62820
589.932	61935
589.955	60444
590.004	57286
590.009	57433
590.062	58057
590.075	57922
590.115	57281
590.146	56607
590.168	56863
590.218	56923
590.222	57117
590.275	58286
590.289	58317
590.328	59637
590.360	60506
590.381	60682
590.431	60497
590.435	60706
590.488	61570
590.503	61743
590.541	62294
590.574	62236
590.594	62870
590.645	64153
590.647	64378
590.700	65671
590.716	65897
590.753	68266
590.787	70313
590.806	70919
590.859	71662
590.859	71879
590.912	73132
590.930	73480
590.965	73830
591.001	73527
591.018	73665
591.071	73486
591.072	73278
591.124	72548
591.143	72007
591.177	73090
591.214	73941
591.230	74503
591.283	75580
591.285	75407
591.336	75280
591.356	74984
591.389	74881
591.427	74199
591.442	74422
591.495	74446
591.498	74241
591.547	75558
591.569	75862
591.600	76962
591.640	77920
591.653	78244
591.706	78506
591.711	78311
591.759	80950
591.782	82039
591.811	83604
591.853	85156
591.864	85443
591.917	85513
591.924	85275
591.969	85276
591.995	84944
592.022	86509
592.066	88376
592.075	88901
592.127	90525
592.137	90560
592.180	93496
592.208	94916
592.233	95016
592.279	94449
592.285	95028
592.338	97471
592.350	97740
592.390	97508
592.421	96788
592.443	98000
592.491	99771
592.495	100152
592.548	101256
592.562	101251
592.600	101492
592.633	101140
592.653	101713
592.704	101827
592.705	102443
592.775	103880
592.846	106916
592.916	109735
592.987	109504
593.058	111129
593.128	111307
593.199	111600
593.270	112996
593.341	113573
593.411	118026
593.482	122599
593.553	123758
593.623	126948
593.694	132531
593.764	132747
593.835	133343
593.906	132623
593.976	137007
594.047	140061
594.117	147833
594.188	152044
594.258	149741
594.329	150386
594.399	153637
594.470	158526
594.540	162668
594.611	167781
594.681	165486
594.751	166160
594.822	174023
594.892	179802
594.963	185410
595.033	189435
595.103	193271
595.174	195444
595.244	203762
595.314	212967
595.384	212369
595.455	217232
595.525	225262
595.595	232296
595.665	233398
595.736	228971
595.806	233370
595.876	238435
595.946	240999
596.016	248079
596.087	256886
596.157	259114
596.227	261372
596.297	274294
596.367	288978
596.437	305436
596.507	304414
596.577	308686
596.647	316047
596.717	325604
596.787	335199
596.857	335646
596.927	336429
596.997	340522
597.067	345817
597.137	353323
597.207	353056
597.277	358635
597.347	344386
597.417	339911
597.487	339812
597.557	348523
597.626	358309
597.696	363763
597.766	365003
597.836	349934
597.906	334168
597.975	333774
598.045	340404
598.115	356846
598.185	378283
598.254	414694
598.324	440761
598.394	450763
598.464	440679
598.533	437305
598.603	421065
598.672	408964
598.742	418818
598.812	425604
598.881	436637
598.951	437871
599.020	443699
599.090	460293
599.159	468796
599.229	459195
599.299	455854
599.368	464369
599.437	465965
599.507	441843
599.576	438092
599.646	437872
599.715	438797
599.785	441456
599.854	435083
599.924	438512
599.993	443363
600.062	451440
600.132	463608
600.201	487383
600.270	536611
600.340	559103
600.409	556207
600.478	557047
600.547	570055
600.617	545062
600.686	489829
600.755	476238
600.824	469153
600.894	473077
600.963	480956
601.032	484271
601.101	484803
601.170	482543
601.239	483454
601.308	493966
601.378	501591
601.447	511613
601.516	522455
601.585	535427
601.654	545244
601.723	557576
601.792	573443
601.861	588935
601.930	616220
601.999	635104
602.068	629618
602.137	633681
602.206	636100
602.275	647657
602.343	651191
602.412	656886
602.481	660848
602.550	662588
602.619	674686
602.688	673149
602.756	687977
602.825	680595
602.894	698756
602.963	692671
603.032	704817
603.100	705178
603.169	689205
603.238	714393
603.307	682722
603.375	692337
603.444	720616
603.513	675031
603.581	696909
603.650	727643
603.719	626456
603.787	609105
603.856	621622
603.924	626936
603.993	647383
604.061	663003
604.130	682722
604.198	692179
604.267	705045
604.335	717819
604.404	714329
604.472	739572
604.541	738674
604.609	763718
604.678	778362
604.746	785462
604.815	817816
604.883	790796
604.951	773699
605.020	792787
605.088	744556
605.156	723895
605.225	723879
605.293	716890
605.361	726295
605.429	719624
605.498	738418
605.566	727195
605.634	759736
605.702	758352
605.771	771352
605.839	787627
605.907	739644
605.975	759273
606.043	726137
606.111	704847
606.180	757312
606.248	692662
606.316	679016
606.384	725082
606.452	603223
606.520	536337
606.588	550248
606.656	554046
606.724	544622
606.792	513054
606.860	471874
606.928	434239
606.996	422220
607.064	416240
607.132	427202
607.200	448394
607.267	464195
607.335	471173
607.403	478990
607.471	465759
607.539	452894
607.607	451585
607.674	406615
607.742	406913
607.810	400097
607.878	403522
607.946	410439
608.013	424951
608.081	432624
608.149	433957
608.216	445413
608.284	456876
608.352	452572
608.419	452141
608.487	438860
608.555	430778
608.622	442817
608.690	465476
608.757	502063
608.825	510051
608.893	496480
608.960	469624
609.028	450677
609.095	453335
609.163	446260
609.230	404585
609.298	373236
609.365	393373
609.432	424652
609.500	460576
609.567	519158
609.635	586512
609.702	610606
609.769	580056
609.837	463515
609.904	413538
609.971	430132
610.039	475726
610.106	586414
610.173	952996
610.241	1698360
610.308	1286803
610.375	641738
610.442	467573
610.509	425908
610.577	421623
610.644	425768
610.711	439302
610.778	446649
610.845	465979
610.912	492591
610.980	511540
611.047	511585
611.114	503070
611.181	485062
611.248	485188
611.315	509171
611.382	522644
611.449	539948
611.516	546709
611.583	539528
611.650	544496
611.717	552619
611.784	564990
611.851	589092
611.918	623830
611.984	706720
612.051	896689
612.118	1389257
612.185	2126839
612.252	1743377
612.319	873461
612.386	717125
612.452	655579
612.519	619332
612.586	604555
612.653	612220
612.719	627769
612.786	609753
612.853	567846
612.919	559128
612.986	562668
613.053	532532
613.120	504936
613.186	487908
613.253	489992
613.319	489874
613.386	493671
613.453	502722
613.519	503485
613.586	494507
613.652	503020
613.719	495749
613.785	502882
613.852	508785
613.918	505079
613.985	511003
614.051	534020
614.118	536893
614.184	517119
614.250	505556
614.317	514628
614.383	509033
614.449	517281
614.516	513790
614.582	516024
614.648	507062
614.715	504246
614.781	494092
614.847	494411
614.914	488868
614.980	478267
615.046	480010
615.112	493294
615.179	496126
615.245	503749
615.311	495873
615.377	501230
615.443	507291
615.509	516973
615.575	532158
615.642	529454
615.708	540816
615.774	567685
615.840	602806
615.906	640287
615.972	737998
616.038	988481
616.104	1581101
616.170	2245938
616.236	2058889
616.302	1174736
616.368	924956
616.434	709793
616.500	641783
616.565	699376
616.631	859509
616.697	740165
616.763	743355
616.829	1022218
616.895	1578384
616.961	1526429
617.026	812662
617.092	585013
617.158	543221
617.224	521233
617.289	483946
617.355	465383
617.421	457741
617.487	457603
617.552	433960
617.618	430956
617.684	430691
617.749	434826
617.815	417010
617.880	406579
617.946	407402
618.012	416736
618.077	425550
618.143	409838
618.208	411395
618.274	437483
618.339	439139
618.405	372743
618.470	369720
618.536	369509
618.601	364903
618.667	344677
618.732	327497
618.798	325468
618.863	322938
618.928	324781
618.994	329001
619.059	323849
619.124	329810
619.190	327128
619.255	321902
619.320	324796
619.386	327676
619.451	323940
619.516	314189
619.581	318520
619.647	325921
619.712	325873
619.777	314425
619.842	316260
619.907	321323
619.972	326176
620.038	324250
620.103	317585
620.168	318768
620.233	323387
620.298	324195
620.363	327726
620.428	336913
620.493	344361
620.558	349149
620.623	352327
620.688	350829
620.753	349254
620.818	357088
620.883	358126
620.948	357079
621.013	353948
621.078	349939
621.143	353870
621.207	356965
621.272	352485
621.337	343300
621.402	342333
621.467	338056
621.532	339434
621.596	341612
621.661	330065
621.726	330372
621.791	333076
621.855	334718
621.920	329780
621.985	335751
622.049	341364
622.114	341628
622.179	348475
622.243	351739
622.308	363285
622.373	373981
622.437	366772
622.502	351143
622.566	348729
622.631	345315
622.695	350958
622.760	353400
622.824	349722
622.889	353611
622.953	352250
623.018	372115
623.082	374611
623.147	367636
623.211	362046
623.276	359747
623.340	347158
623.404	339271
623.469	340550
623.533	343412
623.597	335334
623.662	332657
623.726	313467
623.790	298096
623.854	292341
623.919	298436
623.983	298850
624.047	302131
624.111	305247
624.176	312681
624.240	314181
624.304	320103
624.368	309662
624.432	308401
624.496	316286
624.560	328638
624.625	332603
624.689	328108
624.753	341796
624.817	321345
624.881	316691
624.945	288862
625.009	285183
625.073	287143
625.137	294557
625.201	307808
625.265	305140
625.329	294235
625.393	295522
625.456	297250
625.520	302733
625.584	307561
625.648	317222
625.712	325592
625.776	328563
625.839	314980
625.903	265239
625.967	247110
626.031	265458
626.095	304852
626.158	279972
626.222	228314
626.286	214125
626.349	207012
626.413	195812
626.477	190246
626.540	195495
626.604	191845
626.668	189315
626.731	188170
626.795	189168
626.858	184850
626.922	182746
626.986	180399
627.049	178344
627.113	187827
627.176	185548
627.240	176014
627.303	175425
627.366	171787
627.430	175708
627.493	172217
627.557	172100
627.620	175782
627.684	178575
627.747	177770
627.810	165464
627.874	150245
627.937	145395
628.000	151937
628.064	146807
628.127	130367
628.190	128201
628.253	126455
628.317	121158
628.380	117059
628.443	114038
628.506	112611
628.569	108385
628.632	102344
628.696	102276
628.759	102363
628.822	96432
628.885	95030
628.948	94495
629.011	92152
629.074	90622
629.137	87572
629.200	86374
629.263	85626
629.326	82743
629.389	84967
629.452	83388
629.515	81340
629.578	80990
629.641	83400
629.704	81353
629.767	81036
629.830	79231
629.892	77725
629.955	76118
630.018	79204
630.081	78263
630.144	77474
630.207	75666
630.269	76364
630.332	73706
630.395	73038
630.458	71938
630.520	68563
630.583	72076
630.646	71946
630.708	72363
630.771	72295
630.834	77608
630.896	74857
630.959	74395
631.021	72678
631.084	72545
631.146	74146
631.209	75551
631.272	74478
631.334	75296
631.397	77655
631.459	77574
631.522	80856
631.584	84078
631.646	86301
631.709	91056
631.771	91254
631.834	88878
631.896	84509
631.958	78806
632.021	76300
632.083	72968
632.145	73453
632.208	70840
632.270	71080
632.332	68752
632.395	69194
632.457	70520
632.519	68187
632.581	68715
632.643	67013
632.706	68408
632.768	66284
632.830	68006
632.892	69662
632.954	71079
633.016	70655
633.078	70494
633.141	71368
633.203	69991
633.265	70143
633.327	68440
633.389	69002
633.451	70623
633.513	70273
633.575	73526
633.637	71396
633.698	72995
633.760	76258
633.822	78812
633.884	80229
633.946	83303
634.008	85673
634.070	87905
634.132	92881
634.193	101425
634.255	106406
634.317	111575
634.379	108217
634.441	96746
634.502	87881
634.564	81560
634.626	76171
634.687	72912
634.749	68659
634.811	70878
634.873	68493
634.934	68290
634.996	69829
635.057	69194
635.119	69676
635.181	71834
635.242	72214
635.304	70549
635.365	73341
635.427	71770
635.488	71772
635.550	71758
635.611	73063
635.673	71760
635.734	78476
635.796	83380
635.857	88962
635.918	95225
635.980	105233
636.041	110527
636.102	118091
636.164	119293
636.225	113001
636.286	97785
636.348	88021
636.409	80451
636.470	76426
636.531	73157
636.593	69994
636.654	68271
636.715	65975
636.776	67150
636.838	63011
636.899	63661
636.960	60989
637.021	61214
637.082	60182
637.143	60047
637.204	57342
637.265	57145
637.326	59167
637.387	60351
637.448	58970
637.509	61160
637.570	58370
637.631	58962
637.692	56388
637.753	56396
637.814	55949
637.875	54962
637.936	58113
637.997	55533
638.058	55134
638.119	55448
638.179	55874
638.240	55124
638.301	55457
638.362	54531
638.423	52143
638.483	53986
638.544	50884
638.605	52553
638.666	52302
638.726	51949
638.787	52673
638.848	52181
638.908	51249
638.969	50664
639.030	47918
639.090	49258
639.151	49985
639.211	52202
639.272	51733
639.332	54260
639.393	52946
639.453	55501
639.514	58529
639.574	51050
639.635	47609
639.695	47971
639.756	45985
639.816	47191
639.877	47865
639.937	50332
639.997	51054
640.058	46297
640.118	46342
640.178	49159
640.239	46928
640.299	48019
640.359	48189
640.420	51231
640.480	57455
640.540	63294
640.600	65295
640.661	58539
640.721	55882
640.781	58404
640.841	51039
640.901	49440
640.961	50046
641.021	50978
641.082	53629
641.142	50670
641.202	47380
641.262	44029
641.322	45683
641.382	44940
641.442	46382
641.502	45527
641.562	46111
641.622	46573
641.682	49534
641.742	55673
641.802	54266
641.861	47433
641.921	45070
641.981	43396
642.041	42512
642.101	43669
642.161	41212
642.221	42496
642.280	43824
642.340	42321
642.400	43457
642.460	44106
642.519	45106
642.579	44542
642.639	44579
642.698	43520
642.758	46827
642.818	44120
642.877	44863
642.937	45809
642.997	44819
643.056	46748
643.116	44631
643.175	48727
643.235	47813
643.294	49714
643.354	53481
643.414	56017
643.473	63704
643.532	78248
643.592	102609
643.651	143023
643.711	221293
643.770	387706
643.830	824045
643.889	1410944
643.948	527751
644.008	141418
644.067	86275
644.126	67505
644.186	58353
644.245	53720
644.304	46801
644.363	49847
644.423	45268
644.482	48132
644.541	51123
644.600	54581
644.659	65202
644.719	81680
644.778	111014
644.837	173667
644.896	329440
644.955	708397
645.014	275547
645.073	76309
645.132	58778
645.191	54634
645.250	52205
645.309	55477
645.368	58574
645.427	75640
645.486	122343
645.545	206963
645.604	74458
645.663	48752
645.722	47344
645.781	52087
645.840	58150
645.898	70581
645.957	93802
646.016	132649
646.075	209233
646.134	369957
646.192	859090
646.251	1166811
646.310	293354
646.369	101721
646.427	81569
646.486	63091
646.545	50396
646.603	46243
646.662	43972
646.721	42937
646.779	43314
646.838	47783
646.896	57610
646.955	73301
647.014	107981
647.072	195963
647.131	500816
647.189	268939
647.248	54007
647.306	41479
647.365	38394
647.423	33977
647.481	34423
647.540	32296
647.598	32729
647.657	33807
647.715	32062
647.773	30707
647.832	31389
647.890	28720
647.948	29205
648.007	29373
648.065	26661
648.123	27515
648.181	29139
648.240	28349
648.298	27466
648.356	26705
648.414	27709
648.472	26178
648.531	26530
648.589	26291
648.647	25693
648.705	26996
648.763	26774
648.821	28902
648.879	29464
648.937	33594
648.995	40872
649.053	50706
649.111	71232
649.169	107452
649.227	174466
649.285	342770
649.343	859749
649.401	477954
649.459	88724
649.516	52700
649.574	43923
649.632	48024
649.690	54072
649.748	59244
649.806	82337
649.863	142676
649.921	365911
649.979	269216
650.037	46343
650.094	27641
650.152	27056
650.210	24068
650.268	24526
650.325	23232
650.383	23792
650.440	20604
650.498	19924
650.556	20460
650.613	19497
650.671	20110
650.728	20334
650.786	21293
650.843	28783
650.901	23002
650.958	18112
651.016	18301
651.073	17663
651.131	17330
651.188	16681
651.246	16973
651.303	15893
651.360	16910
651.418	15458
651.475	16025
651.532	15133
651.590	16862
651.647	15016
651.704	16294
651.762	15960
651.819	16550
651.876	14287
651.933	15560
651.990	15812
652.048	13620
652.105	14579
652.162	14610
652.219	14317
652.276	15006
652.333	15071
652.390	13266
652.448	13772
652.505	15088
652.562	14181
652.619	14561
652.676	15551
652.733	17228
652.790	14241
652.847	13484
652.904	13337
652.961	13063
653.017	12526
653.074	13964
653.131	13147
653.188	12636
653.245	13694
653.302	13179
653.359	12815
653.415	14490
653.472	12775
653.529	13581
653.586	13139
653.642	13225
653.699	14212
653.756	13247
653.813	13219
653.869	13935
653.926	13529
653.983	13049
654.039	12858
654.096	13477
654.152	13383
654.209	11444
654.266	12694
654.322	12061
654.379	12972
654.435	13942
654.492	12326
654.548	13046
654.605	13925
654.661	14856
654.717	12640
654.774	12568
654.830	12701
654.887	12880
654.943	13295
655.000	13860
655.056	13080
655.112	12669
655.168	12302
655.225	12958
655.281	13435
655.337	13010
655.394	12992
655.450	12556
655.506	12501
655.562	13812
655.618	13542
655.675	12154
655.731	12709
655.787	12292
655.843	13363
655.899	11462
655.955	12442
656.011	12967
656.067	12545
656.123	13692
656.179	13081
656.235	14577
656.291	12314
656.347	14186
656.403	12842
656.459	12200
656.515	12440
656.571	12788
656.627	11892
656.683	12701
656.739	12459
656.795	12156
656.850	12832
656.906	12999
656.962	14323
657.018	14494
657.074	17223
657.129	21329
657.185	30876
657.241	64586
657.297	42565
657.352	14652
657.408	11516
657.464	12926
657.519	11098
657.575	11037
657.630	11403
657.686	11052
657.742	10350
657.797	11320
657.853	10940
657.908	12153
657.964	10175
658.019	11500
658.075	11183
658.130	11924
658.186	9745
658.241	11538
658.297	10272
658.352	10486
658.407	10790
658.463	10245
658.518	10184
658.573	11014
658.629	10918
658.684	10005
658.739	12032
658.795	9523
658.850	10609
658.905	10274
658.960	10699
659.016	10313
659.071	9260
659.126	9899
659.181	9129
659.236	11848
659.291	11630
659.346	9715
659.401	11019
659.457	11057
659.512	10480
659.567	11587
659.622	10250
659.677	10379
659.732	9042
659.787	9666
659.842	10737
659.897	10131
659.952	10544
660.007	10647
660.061	9562
660.116	9470
660.171	9524
660.226	9600
660.281	10314
660.336	9292
660.391	9440
660.445	9642
660.500	9707
660.555	9390
660.610	9201
660.664	9573
660.719	8469
660.774	8922
660.828	8977
660.883	9359
660.938	10221
660.992	8062
661.047	9938
661.101	9031
661.156	8876
661.211	9210
661.265	9319
661.320	9528
661.374	10149
661.429	8170
661.483	10470
661.538	8634
661.592	9276
661.647	10314
661.701	11303
661.755	10452
661.810	9621
661.864	9066
661.919	7685
661.973	9625
662.027	8970
662.081	8672
662.136	9547
662.190	9693
662.244	9029
662.299	9630
662.353	9484
662.407	8730
662.461	8614
662.515	9072
662.569	8453
662.624	9877
662.678	9008
662.732	8921
662.786	9224
662.840	9528
662.894	8907
662.948	8334
663.002	9303
663.056	9621
663.110	8569
663.164	9230
663.218	9354
663.272	9523
663.326	9072
663.380	8993
663.434	8259
663.488	8807
663.542	8525
663.595	9849
663.649	9256
663.703	8726
663.757	9895
663.811	8191
663.864	8592
663.918	10078
663.972	7985
664.026	9100
664.079	9126
664.133	10188
664.187	9511
664.240	9546
664.294	9225
664.348	9513
664.401	9377
664.455	9566
664.508	8496
664.562	9239
664.615	8508
664.669	8657
664.722	8046
664.776	8708
664.829	8189
664.883	8219
664.936	8644
664.990	8969
665.043	9354
665.097	9119
665.150	10050
665.203	9786
665.257	9636
665.310	9093
665.363	8507
665.417	9590
665.470	9459
665.523	9480
665.576	8987
665.630	9289
665.683	9945
665.736	9882
665.789	9706
665.842	9845
665.895	9407
665.949	10248
666.002	9290
666.055	9507
666.108	10492
666.161	10230
666.214	9441
666.267	10339
666.320	9757
666.373	10368
666.426	10237
666.479	9493
666.532	10769
666.585	10308
666.638	10392
666.691	10363
666.744	10099
666.796	10384
666.849	9747
666.902	10093
666.955	9389
667.008	10274
667.060	9189
667.113	9220
667.166	10045
667.219	11370
667.271	11200
667.324	9922
667.377	10034
667.430	9601
667.482	9825
667.535	9667
667.587	9094
667.640	9968
667.693	9505
667.745	10807
667.798	11119
667.850	9716
667.903	10435
667.955	10090
668.008	9468
668.060	10236
668.113	9625
668.165	10073
668.218	9484
668.270	10031
668.322	8893
668.375	10209
668.427	9898
668.479	9945
668.532	10646
668.584	10573
668.636	8865
668.689	9655
668.741	8823
668.793	9871
668.845	9460
668.898	10869
668.950	9825
669.002	9959
669.054	9682
669.106	9785
669.158	9546
669.211	9527
669.263	9511
669.315	11159
669.367	10422
669.419	10084
669.471	10940
669.523	10177
669.575	11429
669.627	10258
669.679	10711
669.731	10813
669.783	10244
669.835	10367
669.886	10392
669.938	10924
669.990	11515
670.042	11836
670.094	11914
670.146	12987
670.197	14929
670.249	17654
670.301	22117
670.353	28675
670.404	37328
670.456	50351
670.508	70973
670.560	103489
670.611	156277
670.663	254923
670.715	508985
670.766	700706
670.818	354650
670.869	101422
670.921	48836
670.972	34312
671.024	25071
671.075	20986
671.127	17996
671.178	18182
671.230	17180
671.281	17936
671.333	18547
671.384	20054
671.436	26494
671.487	33364
671.538	44950
671.590	62792
671.641	95314
671.692	160427
671.744	291088
671.795	239102
671.846	95138
671.897	45069
671.949	28605
672.000	22391
672.051	17404
672.102	15276
672.153	12069
672.204	12158
672.256	11926
672.307	11485
672.358	10252
672.409	9454
672.460	9077
672.511	8370
672.562	8506
672.613	8965
672.664	7352
672.715	9512
672.766	8438
672.817	7631
672.868	7604
672.919	8236
672.970	8047
673.021	7195
673.071	7207
673.122	7395
673.173	7433
673.224	7609
673.275	7838
673.326	7234
673.376	6812
673.427	7086
673.478	6288
673.528	8244
673.579	6996
673.630	7148
673.680	8772
673.731	7078
673.782	6684
673.832	7698
673.883	8211
673.934	8143
673.984	7326
674.035	7730
674.085	7250
674.136	7459
674.186	7063
674.237	8198
674.287	8398
674.338	8410
674.388	6995
674.438	8033
674.489	9471
674.539	8542
674.589	8388
674.640	8306
674.690	8064
674.740	8058
674.791	8302
674.841	7774
674.891	7434
674.942	6700
674.992	7037
675.042	6585
675.092	6348
675.142	5617
675.193	6081
675.243	6787
675.293	6695
675.343	7218
675.393	6561
675.443	7381
675.493	6795
675.543	7003
675.593	6875
675.643	7343
675.693	6673
675.743	6969
675.793	6578
675.843	5470
675.893	5114
675.943	6370
675.993	5602
676.043	5806
676.093	5431
676.142	5757
676.192	5426
676.242	6076
676.292	5728
676.341	5843
676.391	5366
676.441	5235
676.491	5618
676.540	5032
676.590	5201
676.640	4654
676.689	5024
676.739	4022
676.789	5560
676.838	4664
676.888	4661
676.937	4941
676.987	5013
677.037	4862
677.086	5280
677.136	5658
677.185	4799
677.235	4145
677.284	5222
677.333	5587
677.383	4697
677.432	5093
677.482	4578
677.531	4919
677.580	3773
677.630	4708
677.679	5000
677.728	5258
677.778	5734
677.827	4841
677.876	4848
677.925	5072
677.975	5811
678.024	5417
678.073	6111
678.122	5841
678.171	5355
678.220	7029
678.269	6999
678.319	7767
678.368	8002
678.417	7154
678.466	5906
678.515	5897
678.564	5053
678.613	4644
678.662	4880
678.711	4864
678.760	4833
678.809	4747
678.857	4718
678.906	6455
678.955	4154
679.004	5416
679.053	3476
679.102	5337
679.151	5047
679.199	5810
679.248	4190
679.297	4462
679.346	4196
679.394	3834
679.443	4471
679.492	4697
679.540	5469
679.589	4923
679.638	4767
679.686	5800
679.735	5345
679.784	6505
679.832	7181
679.881	5825
679.929	5000
679.978	4592
680.026	4493
680.075	5150
680.123	4435
680.172	4365
680.220	3905
680.268	5176
680.317	3705
680.365	3961
680.414	4220
680.462	4638
680.510	4337
680.559	4217
680.607	4365
680.655	5042
680.703	4954
680.752	4219
680.800	3652
680.848	4122
680.896	3743
680.945	4206
680.993	4349
681.041	4175
681.089	4528
681.137	4020
681.185	3687
681.233	3534
681.258	3603
681.281	3658
681.329	3912
681.377	3024
681.380	3107
681.425	4415
681.473	4569
681.502	4797
681.521	4929
681.569	5170
681.617	4926
681.624	4695
681.665	3103
681.713	3805
681.745	4928
681.761	5451
681.809	4146
681.857	4513
681.867	4591
681.904	4805
681.952	3869
681.989	4348
682.000	4480
682.048	4659
682.096	4676
682.111	4559
682.143	4255
682.191	4306
682.233	4906
682.239	4981
682.286	4358
682.334	4475
682.354	4094
682.382	3534
682.430	5053
682.476	5100
682.477	5092
682.525	4695
682.572	4426
682.598	4443
682.620	4414
682.667	5137
682.715	4883
682.720	4903
682.763	4967
682.810	5221
682.841	5001
682.857	4875
682.905	4899
682.952	5187
682.963	5109
683.000	4795
683.047	3846
683.085	4861
683.095	5119
683.142	4752
683.190	5262
683.206	5001
683.237	4520
683.284	4807
683.328	4472
683.332	4427
683.379	4486
683.426	4659
683.449	4840
683.473	5079
683.521	4403
683.568	4523
683.571	4566
683.615	4835
683.662	5246
683.693	5209
683.709	5198
683.757	4328
683.804	4966
683.814	4872
683.851	4511
683.898	4672
683.936	5031
683.945	5110
683.992	5234
684.039	4337
684.057	4487
684.086	4734
684.133	4887
684.179	5119
684.180	5114
684.227	5398
684.274	5112
684.300	5143
684.321	5188
684.368	4865
684.415	4945
684.422	4964
684.462	5024
684.509	4574
684.543	5119
684.556	5306
684.603	5844
684.649	5578
684.665	5595
684.696	5623
684.743	5694
684.786	5917
684.790	5921
684.837	5287
684.883	4907
684.908	5360
684.930	5852
684.977	5792
685.023	5613
685.029	5738
685.070	6402
685.117	5780
685.150	5515
685.164	5459
685.210	5668
685.257	5578
685.272	5652
685.303	5761
685.350	6598
685.393	5506
685.396	5404
685.443	5986
685.490	5466
685.514	5422
685.536	5447
685.583	5820
685.629	5451
685.636	5477
685.675	5644
685.722	5942
685.757	6067
685.768	6058
685.815	5166
685.861	5551
685.878	5555
685.908	5604
685.954	6013
686.000	5833
686.000	5829
686.047	6305
686.093	5955
686.121	6220
686.139	6345
686.185	6254
686.232	6480
686.242	6362
686.278	5984
686.324	6044
686.363	5944
686.370	5931
686.416	6203
686.463	6502
686.484	6533
686.509	6469
686.555	5984
686.601	5744
686.606	5751
686.647	5830
686.693	5815
686.727	5474
686.739	5376
686.785	5829
686.831	5823
686.848	5961
686.877	6218
686.923	6019
686.969	6207
686.969	6207
687.015	6272
687.061	7164
687.090	6725
687.107	6450
687.153	6924
687.199	6579
687.211	6566
687.245	6553
687.291	6641
687.332	6880
687.336	6904
687.382	6786
687.428	6671
687.453	6644
687.474	6635
687.520	7772
687.565	6921
687.574	6971
687.611	7322
687.657	7646
687.695	7955
687.702	7988
687.748	8371
687.794	9162
687.816	8833
687.839	8292
687.885	7618
687.931	7154
687.937	7170
687.976	7649
688.022	7170
688.058	7515
688.067	7573
688.113	7255
688.158	7633
688.179	7393
688.204	7098
688.249	7319
688.295	7056
688.300	7074
688.340	7401
688.386	7292
688.421	7485
688.431	7521
688.477	6831
688.522	7867
688.542	7873
688.567	7983
688.613	8354
688.658	8024
688.663	8038
688.703	7771
688.749	7373
688.784	7365
688.794	7440
688.839	7297
688.884	7963
688.905	7739
688.930	7348
688.975	7667
689.020	7247
689.026	7183
689.065	7175
689.110	7369
689.146	7641
689.155	7665
689.201	7627
689.246	7743
689.267	7764
689.291	7811
689.336	7676
689.381	7663
689.388	7663
689.426	7719
689.471	7819
689.509	8147
689.516	8222
689.561	8281
689.606	7709
689.630	7873
689.651	7924
689.696	7884
689.741	7848
689.750	7912
689.785	8468
689.830	8486
689.871	8445
689.875	8417
689.920	8611
689.965	8501
689.992	8133
690.010	7949
690.054	8432
690.099	8104
690.112	8144
690.144	8279
690.189	7972
690.233	8355
690.233	8366
690.278	8100
690.323	8107
690.354	8148
690.367	8191
690.412	9085
690.457	8457
690.474	8484
690.501	8444
690.546	8811
690.590	8795
690.595	8734
690.635	8593
690.680	8691
690.716	9445
690.724	9691
690.769	10349
690.813	10917
690.836	11328
690.857	12128
690.902	13959
690.946	15695
690.957	16179
690.991	20062
691.035	26365
691.077	32828
691.080	32840
691.124	28526
691.168	22959
691.198	20397
691.213	19084
691.257	15380
691.301	12179
691.318	10935
691.346	10611
691.390	9820
691.434	9327
691.439	9288
691.478	9486
691.522	9421
691.559	9529
691.567	9531
691.611	9315
691.655	9274
691.680	8841
691.699	8617
691.743	9046
691.787	9034
691.800	9031
691.831	9102
691.875	9015
691.919	8936
691.921	8917
691.964	8683
692.008	9118
692.041	8687
692.052	8589
692.096	8995
692.139	9137
692.162	9160
692.183	9134
692.227	8859
692.271	8759
692.282	8722
692.315	8821
692.359	8802
692.402	9041
692.403	9058
692.447	9061
692.490	9166
692.523	9441
692.534	9487
692.578	9214
692.622	8936
692.643	8877
692.666	8983
692.709	9153
692.753	8721
692.763	8836
692.797	9267
692.840	9252
692.884	9136
692.884	9151
692.928	9428
692.971	9195
693.004	9025
693.015	9011
693.059	9260
693.102	8833
693.124	8956
693.146	9244
693.189	9314
693.233	10019
693.245	10068
693.276	10001
693.320	9962
693.363	9882
693.365	9872
693.407	10686
693.450	11049
693.485	11571
693.493	11853
693.537	13270
693.580	14979
693.605	15824
693.624	17676
693.667	21909
693.710	26428
693.725	28317
693.753	36007
693.797	48260
693.840	61477
693.845	62544
693.883	54742
693.926	43885
693.966	35476
693.970	34720
694.013	27002
694.056	19512
694.086	14587
694.099	14273
694.142	12922
694.185	11970
694.206	11298
694.229	11089
694.272	11063
694.315	11077
694.326	10949
694.358	10748
694.401	10516
694.444	10757
694.446	10735
694.487	10916
694.530	11030
694.566	11222
694.573	11208
694.616	10776
694.659	10376
694.686	10214
694.702	10255
694.745	10244
694.787	10426
694.806	10404
694.830	10346
694.873	10016
694.916	9614
694.926	9647
694.959	10214
695.002	10440
695.044	10874
695.046	10861
695.087	10726
695.130	10869
695.166	10728
695.172	10791
695.215	11067
695.258	11555
695.286	11764
695.301	11800
695.343	11961
695.386	12098
695.406	12015
695.428	12208
695.471	12846
695.514	13291
695.526	13465
695.556	14292
695.599	15344
695.641	16196
695.646	16265
695.684	15466
695.726	14628
695.766	13610
695.769	13625
695.811	13676
695.854	13493
695.886	13420
695.896	13535
695.938	13907
695.981	14211
696.005	14433
696.023	14711
696.065	15217
696.108	15752
696.125	15975
696.150	16200
696.192	16476
696.235	16683
696.245	16671
696.277	16908
696.319	17488
696.361	17951
696.365	17947
696.404	17421
696.446	16742
696.485	16075
696.488	16117
696.530	16280
696.572	16470
696.604	16565
696.614	16549
696.656	16301
696.698	16091
696.724	15943
696.740	16057
696.783	16122
696.825	16497
696.844	16478
696.867	16533
696.909	16794
696.951	16861
696.964	16894
696.992	17000
697.034	17082
697.076	17068
697.083	17045
697.118	17500
697.160	18058
697.202	18452
697.203	18424
697.244	18279
697.286	18150
697.323	17881
697.327	17881
697.369	17639
697.411	17421
697.442	17122
697.453	17227
697.494	17605
697.536	17881
697.562	18079
697.578	18103
697.620	17893
697.661	17857
697.682	17796
697.703	18208
697.744	18916
697.786	19664
697.801	19845
697.828	19628
697.869	19304
697.911	18906
697.921	18785
697.952	18908
697.994	19014
698.035	19035
698.040	19005
698.077	19315
698.118	19546
698.160	19857
698.160	19813
698.201	20416
698.243	20968
698.279	21388
698.284	21457
698.325	21676
698.367	21887
698.399	21983
698.408	22072
698.449	22285
698.491	22467
698.518	22551
698.532	22587
698.573	22543
698.614	22480
698.638	22403
698.656	22499
698.697	22579
698.738	22692
698.757	22676
698.779	22652
698.820	22539
698.862	22410
698.877	22314
698.903	22685
698.944	23187
698.985	23696
698.996	23784
699.026	23493
699.067	23016
699.116	22397
699.235	22586
699.354	22889
699.474	21225
699.593	20238
699.713	22462
699.832	21744
699.951	23355
700.070	22171
700.190	20736
700.309	20109
700.428	19797
700.547	19772
700.667	18786
700.786	19924
700.905	19457
701.024	19289
701.143	18393
701.262	20517
701.381	20315
701.500	20159
701.619	20635
701.738	19242
701.857	20287
701.976	19558
702.095	19745
702.214	19982
702.333	20464
702.452	20697
702.571	19662
702.690	20025
702.809	19923
702.928	18634
703.047	18397
703.165	18526
703.284	18582
703.403	18711
703.522	18780
703.640	17873
703.759	18578
703.878	17838
703.997	18143
704.115	18254
704.234	19121
704.353	18255
704.471	16557
704.590	16533
704.708	16722
704.827	16383
704.946	16407
705.064	17546
705.183	17541
705.301	17113
705.420	17223
705.538	16484
705.656	16409
705.775	15459
705.893	19607
706.012	18940
706.130	16081
706.249	16975
706.367	15644
706.485	15902
706.604	15427
706.722	16182
706.840	17546
706.958	20588
707.077	17692
707.195	14518
707.313	15590
707.431	13934
707.549	14513
707.668	14018
707.786	16889
707.904	14092
708.022	15028
708.140	14287
708.258	14601
708.376	15352
708.494	14480
708.612	15015
708.730	16623
708.848	15296
708.966	15375
709.084	16185
709.202	15535
709.320	13972
709.438	15157
709.556	13729
709.674	13767
709.791	14058
709.909	13151
710.027	13932
710.145	14238
710.263	13862
710.380	14096
710.498	12969
710.616	12561
710.733	12816
710.851	13042
710.969	13324
711.086	12790
711.204	13146
711.322	13730
711.439	13118
711.557	11789
711.674	12228
711.792	12798
711.909	11987
712.027	13009
712.144	12134
712.262	12854
712.379	12601
712.497	13279
712.614	14557
712.732	13823
712.849	12361
712.966	13395
713.084	14077
713.201	12588
713.318	13844
713.436	15172
713.553	13083
713.670	16181
713.787	14600
713.905	13545
714.022	15094
714.139	16110
714.256	20608
714.373	32135
714.490	64592
714.608	188564
714.725	761692
714.842	583318
714.959	54816
715.076	24996
715.193	19597
715.310	17691
715.427	13520
715.544	14385
715.661	14558
715.778	12960
715.895	12807
716.011	14814
716.128	12737
716.245	13950
716.362	11710
716.479	11477
716.596	12339
716.713	12111
716.829	12473
716.946	10702
717.063	11314
717.180	10015
717.296	10959
717.413	11723
717.530	9780
717.646	10637
717.763	10471
717.880	10714
717.996	9240
718.113	10633
718.229	10441
718.346	8639
718.462	8820
718.579	10913
718.695	11443
718.812	10998
718.928	11046
719.045	10119
719.161	9559
719.277	11152
719.394	11322
719.510	11862
719.626	12467
719.743	17525
719.859	30009
719.975	69686
720.092	299795
720.208	509973
720.324	53816
720.440	16059
720.557	13431
720.673	14239
720.789	12979
720.905	16112
721.021	11177
721.137	9817
721.253	9088
721.369	9601
721.486	10211
721.602	10771
721.718	9005
721.834	8219
721.950	9625
722.066	8766
722.181	8237
722.297	8740
722.413	9001
722.529	9576
722.645	8988
722.761	9371
722.877	8646
722.993	11129
723.108	13638
723.224	10944
723.340	8976
723.456	8818
723.571	7826
723.687	8479
723.803	8492
723.918	9273
724.034	7370
724.150	8912
724.265	8094
724.381	10143
724.497	9802
724.612	8770
724.728	6928
724.843	7416
724.959	7549
725.074	9650
725.190	9460
725.305	8063
725.421	7316
725.536	8056
725.651	8295
725.767	7883
725.882	7395
725.997	7987
726.113	8216
726.228	8080
726.343	7414
726.459	8228
726.574	8415
726.689	7805
726.804	7705
726.920	7430
727.035	7350
727.150	8221
727.265	6887
727.380	7553
727.495	8251
727.610	7949
727.725	6994
727.841	8367
727.956	10544
728.071	8695
728.186	6724
728.301	7136
728.416	7119
728.531	7617
728.645	6813
728.760	8144
728.875	6649
728.990	8019
729.105	8153
729.220	7210
729.335	6955
729.449	7096
729.564	7123
729.679	6581
729.794	7391
729.908	8508
730.023	7316
730.138	7973
730.253	8083
730.367	8355
730.482	7663
730.596	7852
730.711	9697
730.826	12313
730.940	11244
731.055	10402
731.169	10825
731.284	10044
731.398	9642
731.513	11181
731.627	12211
731.742	16046
731.856	17286
731.970	18140
732.085	23389
732.199	36009
732.313	66249
732.428	188084
732.542	515549
732.656	229665
732.771	44807
732.885	27072
732.999	24650
733.113	25162
733.227	22884
733.342	21851
733.456	20572
733.570	20210
733.684	19112
733.798	18285
733.912	18454
734.026	18623
734.140	18153
734.254	17451
734.368	18243
734.482	19110
734.596	17697
734.710	17028
734.824	16663
734.938	18164
735.052	17392
735.166	17975
735.280	16723
735.393	16932
735.507	16443
735.621	15814
735.735	16398
735.849	16300
735.962	14884
736.076	16021
736.190	15685
736.303	16668
736.417	15748
736.531	16032
736.644	15360
736.758	15428
736.872	14814
736.985	15040
737.099	14000
737.212	14518
737.326	14351
737.439	14730
737.553	13922
737.666	14649
737.780	13789
737.893	13979
738.007	13796
738.120	14646
738.233	14368
738.347	13884
738.460	13054
738.573	14544
738.687	13141
738.800	13929
738.913	14577
739.026	13980
739.140	13092
739.253	13713
739.366	12374
739.479	12845
739.592	13018
739.705	12059
739.818	13799
739.932	11773
740.045	13018
740.158	12793
740.271	13249
740.384	12624
740.497	11553
740.610	12096
740.723	11241
740.836	12881
740.949	12194
741.062	13127
741.174	11627
741.287	13114
741.400	12663
741.513	12212
741.626	12569
741.739	10875
741.851	11844
741.964	12722
742.077	11673
742.189	11718
742.302	13032
742.415	12766
742.527	11507
742.640	11331
742.753	10050
742.865	12843
742.978	10338
743.090	10196
743.203	10517
743.316	10333
743.428	10794
743.541	10751
743.653	10122
743.766	11259
743.878	10744
743.990	10686
744.103	12053
744.215	13081
744.327	10356
744.440	12180
744.552	10182
744.664	10105
744.777	11786
744.889	10944
745.001	9703
745.113	10676
745.226	9032
745.338	10215
745.450	11251
745.562	9997
745.674	9094
745.786	10968
745.898	10464
746.010	9165
746.122	10549
746.234	10588
746.347	9859
746.459	10175
746.570	8414
746.682	12234
746.794	14586
746.906	9954
747.018	9589
747.130	9584
747.242	9200
747.354	9731
747.466	10216
747.577	8653
747.689	9454
747.801	9709
747.913	8445
748.024	8918
748.136	8737
748.248	8188
748.359	8815
748.471	9962
748.583	8441
748.694	9027
748.806	10158
748.918	7753
749.029	9324
749.141	9438
749.252	8981
749.364	8895
749.475	8815
749.587	7615
749.698	7988
749.809	8195
749.921	8232
750.032	7848
750.144	7721
750.255	7692
750.366	8268
750.478	7485
750.589	7560
750.700	8188
750.811	8657
750.923	8152
751.034	8659
751.145	8665
751.256	8384
751.367	7107
751.479	7895
751.590	8063
751.701	6846
751.812	7950
751.923	7565
752.034	9383
752.145	8213
752.256	7763
752.367	8141
752.478	8095
752.589	8936
752.700	7603
752.811	7334
752.922	7703
753.032	7576
753.143	8205
753.254	7446
753.365	9251
753.476	8609
753.586	8035
753.697	7224
753.808	7751
753.919	6902
754.029	8724
754.140	7535
754.251	7452
754.361	7804
754.472	8188
754.582	7383
754.693	7419
754.804	8204
754.914	7323
755.025	6981
755.135	7483
755.246	7695
755.356	7122
755.466	6639
755.577	7250
755.687	7635
755.798	6950
755.908	7344
756.018	8020
756.129	6937
756.239	8059
756.349	9057
756.460	7933
756.570	9466
756.680	8329
756.790	7734
756.900	8326
757.011	6903
757.121	7684
757.231	7438
757.341	7577
757.451	6262
757.561	7612
757.671	7336
757.781	7864
757.891	7338
758.001	8198
758.111	7341
758.221	9146
758.331	8574
758.441	8722
758.551	8565
758.661	9772
758.771	9589
758.880	9323
758.990	7617
759.100	8959
759.210	8951
759.320	9105
759.429	8546
759.539	10291
759.649	10446
759.758	11805
759.868	11922
759.978	11843
760.087	13299
760.197	13385
760.307	12298
760.416	12101
760.526	11133
760.635	12511
760.745	12936
760.854	14446
760.964	15325
761.073	15291
761.182	14333
761.292	13193
761.401	11209
761.511	10647
761.620	10346
761.729	11229
761.839	9163
761.948	9861
762.057	9221
762.166	10496
762.276	9127
762.385	11164
762.494	10392
762.603	10506
762.712	11373
762.822	10425
762.931	10852
763.040	11084
763.149	11697
763.258	11984
763.367	11968
763.476	12804
763.585	12717
763.694	13263
763.803	13610
763.912	15015
764.021	14817
764.130	15881
764.238	17488
764.347	17922
764.456	19740
764.565	20340
764.674	20146
764.783	22980
764.891	24334
765.000	28378
765.109	31889
765.217	36138
765.326	42406
765.435	50030
765.543	62620
765.652	77005
765.761	102562
765.869	143228
765.978	211469
766.086	331906
766.195	538336
766.303	779923
766.412	681336
766.520	787140
766.629	660679
766.737	388688
766.846	242403
766.954	164197
767.062	119536
767.171	92191
767.279	72030
767.387	58109
767.496	49289
767.604	43247
767.712	38014
767.820	35886
767.928	31992
768.037	29516
768.145	29130
768.253	28337
768.361	26874
768.469	26635
768.577	26742
768.685	29299
768.793	30554
768.901	34389
769.009	39198
769.117	47693
769.225	62061
769.333	88017
769.441	137020
769.549	237265
769.657	441725
769.765	686720
769.873	668518
769.981	590278
770.088	298217
770.196	163696
770.304	107615
770.412	78863
770.519	59502
770.627	47338
770.735	38464
770.842	33000
770.950	30901
771.058	26916
771.165	26331
771.273	24152
771.380	24493
771.488	25644
771.595	25540
771.703	22296
771.810	21041
771.918	21053
772.025	22412
772.133	24461
772.240	22129
772.348	25222
772.455	21497
772.562	21195
772.670	20885
772.777	20315
772.884	20414
772.991	19072
773.099	18915
773.206	18973
773.313	18619
773.420	17949
773.528	18509
773.635	17630
773.742	18239
773.849	16388
773.956	17188
774.063	16442
774.170	16281
774.277	17116
774.384	15176
774.491	16501
774.598	15846
774.705	15421
774.812	15582
774.919	15779
775.026	15137
775.133	15293
775.239	14797
775.346	14410
775.453	15272
775.560	14460
775.667	14953
775.773	13765
775.880	14010
775.987	13478
776.093	15314
776.200	14504
776.307	12490
776.413	12148
776.520	14013
776.627	12655
776.733	12588
776.840	11837
776.946	15828
777.053	14894
777.159	19243
777.266	14732
777.372	17882
777.478	17614
777.585	13920
777.691	11130
777.798	12531
777.904	10902
778.010	11775
778.117	11890
778.223	10942
778.329	10866
778.435	9681
778.542	12751
778.648	10974
778.754	10421
778.860	11011
778.966	11578
779.072	10676
779.178	10193
779.284	9297
779.391	10981
779.497	10666
779.603	14347
779.708	14950
779.815	29722
779.920	94556
780.026	102157
780.132	17897
780.238	9683
780.344	9671
780.450	12512
780.556	8418
780.661	9766
780.767	10023
780.873	7650
780.979	9828
781.085	10011
781.190	7962
781.296	8899
781.402	9095
781.507	8583
781.613	5803
781.719	10032
781.824	9163
781.930	8391
782.035	9009
782.141	10221
782.246	7453
782.352	8294
782.457	8237
782.563	8774
782.668	8212
782.773	7424
782.879	6793
782.984	8032
783.090	8353
783.195	8827
783.300	8524
783.405	6825
783.511	6176
783.616	8084
783.721	7734
783.826	7432
783.932	7258
784.037	7058
784.142	7728
784.247	6797
784.352	6539
784.457	5945
784.562	8012
784.667	7564
784.772	5682
784.877	5790
784.982	7778
785.087	6950
785.192	5721
785.297	6899
785.402	7237
785.507	6843
785.611	6116
785.716	5923
785.821	6615
785.926	7007
786.031	5905
786.135	5913
786.240	6634
786.345	5045
786.450	5290
786.554	6406
786.659	5903
786.763	5512
786.868	6823
786.973	6584
787.077	5403
787.182	5771
787.286	6400
787.391	6831
787.495	4703
787.600	5194
787.704	5139
787.809	6887
787.913	5295
788.017	6067
788.122	5870
788.226	5498
788.330	3974
788.435	4927
788.539	5525
788.643	4853
788.747	3755
788.852	4841
788.956	5204
789.060	5829
789.164	5053
789.268	5090
789.372	5807
789.476	5089
789.580	3578
789.684	4793
789.788	5784
789.892	5489
789.996	4316
790.100	4619
790.204	4949
790.308	6187
790.412	4513
790.516	4388
790.620	4509
790.724	5932
790.828	4709
790.931	2882
791.035	5304
791.139	5543
791.242	4287
791.346	5539
791.450	4392
791.554	3771
791.657	2432
791.761	4991
791.864	5168
791.968	5309
792.072	5053
792.175	3506
792.279	4257
792.382	3352
792.486	3942
792.589	4610
792.693	4280
792.796	3454
792.899	5218
793.003	4594
793.106	3335
793.209	4886
793.313	4818
793.416	2413
793.519	4381
793.623	6086
793.726	3935
793.829	2465
793.932	3197
794.035	3232
794.138	5515
794.242	4938
794.345	5028
794.448	6501
794.551	13542
794.654	47912
794.757	56040
794.860	8562
794.963	4220
795.066	4499
795.169	4960
795.272	3953
795.375	4865
795.477	2967
795.580	2994
795.683	2111
795.786	3395
795.889	2555
795.991	4068
796.094	4457
796.197	2295
796.300	4908
796.402	3684
796.505	2088
796.608	2248
796.710	4081
796.813	4194
796.915	4227
797.018	4207
797.120	3957
797.223	2378
797.326	5124
797.428	2530
797.530	2026
797.633	3480
797.735	4054
797.838	3697
797.940	4927
798.042	2588
798.145	3436
798.247	3669
798.349	1915
798.452	3716
798.554	3775
798.656	3293
798.758	6046
798.860	3306
798.962	3384
799.065	2634
799.167	2758
799.269	4396
799.371	4062
799.473	5105
799.575	4344
799.677	2831
799.779	4433
799.881	2058
799.983	4225
800.085	3013
800.187	2598
800.289	2408
800.390	2886
800.492	3402
800.594	2990
800.696	2244
800.798	3171
800.899	2896
801.001	2471
801.103	3009
801.205	3122
801.306	2966
801.408	2023
801.509	3236
801.611	3181
801.713	2529
801.814	2487
801.916	1829
802.017	1519
802.119	1704
802.220	3061
802.322	1578
802.423	4101
802.525	597
802.626	2658
802.727	3004
802.829	3017
802.930	32
803.031	3502
803.133	1708
803.234	2778
803.335	2414
803.436	883
803.538	2649
803.639	1187
803.740	2226
803.841	2848
803.942	2292
804.043	3072
804.144	1258
804.245	2791
804.346	1989
804.447	1951
804.548	2019
804.649	3370
804.750	1298
804.851	2393
804.952	1825
805.053	2451
805.154	1524
805.255	2939
805.355	2069
805.456	1939
805.557	1498
805.658	1682
805.758	2159
805.859	2116
805.960	2347
806.061	1646
806.161	1717
806.262	1481
806.362	1758
806.463	2212
806.564	2523
806.664	1896
806.765	1446
806.865	1534
806.966	1455
807.066	1281
807.166	1733
807.267	1816
807.367	1177
807.468	2263
807.568	-262
807.668	2506
807.769	2879
807.869	1808
807.969	966
808.069	1425
808.170	1785
808.270	1508
808.370	2503
808.470	2647
808.570	918
808.670	1754
808.770	1948
808.870	1501
808.970	1872
809.070	1904
809.170	1419
809.271	2102
809.370	1565
809.470	1704
809.570	1590
809.670	1445
809.770	1202
809.870	1976
809.970	1972
810.070	1615
810.169	1790
810.269	285
810.369	2137
810.469	1931
810.568	960
810.668	9
810.768	1562
810.867	1716
810.967	1517
811.066	2234
811.166	1082
811.265	2679
811.365	1032
811.464	1781
811.564	2199
811.663	2030
811.763	122
811.862	2839
811.962	2566
812.061	1521
812.160	173
812.260	1838
812.359	2196
812.458	3794
812.557	9200
812.657	8176
812.756	3031
812.855	1525
812.954	879
813.053	1937
813.153	1774
813.252	1371
813.351	1268
813.450	2743
813.549	692
813.648	1642
813.747	1220
813.846	2037
813.945	2243
814.044	1885
814.143	1704
814.242	2008
814.341	1194
814.439	3181
814.538	1373
814.637	2020
814.736	1118
814.835	2627
814.933	2097
815.032	3260
815.131	4479
815.229	8889
815.328	10057
815.427	7783
815.525	7519
815.624	7030
815.722	6393
815.821	7635
815.919	7239
816.018	6982
816.116	7073
816.215	6908
816.313	7775
816.412	10164
816.510	9445
816.609	11314
816.707	10371
816.805	9557
816.904	9631
817.002	10199
817.100	9887
817.198	10883
817.296	8118
817.395	9853
817.493	8813
817.591	8019
817.689	8356
817.787	8600
817.885	7534
817.983	8367
818.081	8493
818.179	11418
818.277	14090
818.375	10752
818.473	9345
818.571	7434
818.669	9049
818.767	9680
818.865	7323
818.963	6653
819.061	8633
819.158	8069
819.256	10582
819.354	11319
819.452	17209
819.549	10345
819.647	9606
819.745	6898
819.842	7953
819.940	7812
820.038	6959
820.135	6346
820.233	8165
820.330	6611
820.428	5799
820.525	8160
820.623	6291
820.720	5667
820.818	5997
820.915	7608
821.012	6869
821.110	5839
821.207	7239
821.304	6291
821.402	6685
821.499	8587
821.596	8360
821.693	7666
821.791	7343
821.888	7012
821.985	7582
822.082	5897
822.179	6363
822.276	7000
822.373	5175
822.470	5995
822.567	6641
822.664	4380
822.761	6790
822.858	4871
822.955	6173
823.052	5050
823.149	5978
823.246	6311
823.343	3993
823.440	5509
823.536	5440
823.633	4569
823.730	4345
823.827	5772
823.923	3840
824.020	6081
824.117	6506
824.213	5353
824.310	4645
824.407	4705
824.503	5670
824.600	5017
824.696	4767
824.793	6790
824.889	5145
824.986	4955
825.082	3093
825.179	4563
825.275	6223
825.371	5695
825.468	3839
825.564	2346
825.660	5959
825.757	5431
825.853	4982
825.949	2993
826.045	3753
826.142	4997
826.238	4742
826.334	5236
826.430	3376
826.526	2500
826.622	2551
826.718	5823
826.814	4716
826.910	4815
827.006	2712
827.102	2447
827.198	5471
827.294	4841
827.390	3920
827.486	4365
827.582	1552
827.678	3336
827.774	4488
827.869	1907
827.965	4056
828.061	1919
828.157	4906
828.252	4288
828.348	2849
828.444	3552
828.539	2773
828.635	4155
828.731	3815
828.826	3164
828.922	4100
829.017	4833
829.113	4009
829.208	4278
829.304	4284
829.399	6096
829.495	3779
829.590	2743
829.685	2661
829.781	5471
829.876	4413
829.971	1906
830.066	1212
830.162	3552
830.257	5013
830.352	3171
830.447	2828
830.543	3173
830.638	3425
830.733	3885
830.828	2965
830.923	4324
831.018	3393
831.113	4695
831.208	1385
831.303	2255
831.398	2109
831.493	2950
831.588	4697
831.683	2134
831.778	2065
831.873	2661
831.967	4228
832.062	3498
832.157	2169
832.252	3242
832.346	2089
832.441	4510
832.536	3302
832.631	3747
832.725	2892
832.820	3200
832.914	2300
833.009	2194
833.104	1342
833.198	2517
833.293	2851
833.387	3747
833.482	4084
833.576	2922
833.670	3004
833.765	2770
833.859	3279
833.954	3873
834.048	1976
834.142	2356
834.237	1702
834.331	2679
834.425	2271
834.519	1330
834.613	2142
834.708	1921
834.802	2268
834.896	2357
834.990	2745
835.084	1987
835.178	1646
835.272	2332
835.366	1663
835.460	3626
835.554	1027
835.648	1734
835.742	1587
835.836	2269
835.930	1743
836.024	2030
836.117	2774
836.211	1618
836.305	1021
836.399	1592
836.493	839
836.586	3357
836.680	2009
836.774	1601
836.867	1954
836.961	998
837.055	850
837.148	3208
837.242	1441
837.335	2702
837.429	1892
837.522	1997
837.616	1447
837.709	2534
837.803	777
837.896	2945
837.989	601
838.083	1304
838.176	1021
838.269	384
838.363	1401
838.456	777
838.549	2639
838.642	1651
838.735	2269
838.829	2447
838.922	905
839.015	1110
839.108	359
839.201	2039
839.294	2345
839.387	1039
839.480	596
839.573	1447
839.666	163
839.759	1961
839.852	852
839.945	1783
840.038	841
840.131	906
840.223	750
840.316	2138
840.409	1777
840.502	2005
840.594	1867
840.687	-147
840.780	826
840.873	737
840.965	432
841.058	2012
841.150	2234
841.243	889
841.336	1449
841.428	721
841.521	569
841.613	1301
841.706	1246
841.798	1018
841.890	1175
841.983	167
842.075	1394
842.167	1299
842.260	1371
842.352	2436
842.444	1289
842.537	1288
842.629	1789
842.721	617
842.813	545
842.905	-365
842.997	1561
843.090	1723
843.182	473
843.274	358
843.366	2907
843.458	3250
843.550	2668
843.642	1105
843.734	1231
843.826	382
843.918	1254
844.009	576
844.101	542
844.193	1447
844.285	1074
844.377	2477
844.469	1650
844.560	1192
844.652	1943
844.744	1705
844.835	769
844.927	2013
845.019	226
845.110	863
845.202	1096
845.293	946
845.385	-154
845.476	1672
845.568	1518
845.659	583
845.751	797
845.842	683
845.934	143
846.025	-350
846.116	1462
846.208	1012
846.299	702
846.390	624
846.482	499
846.573	761
846.664	800
846.755	86
846.846	555
846.937	97
847.029	541
847.120	711
847.211	11
847.302	1265
847.393	231
847.484	1353
847.575	624
847.666	660
847.757	859
847.847	740
847.938	1300
848.029	1174
848.120	737
848.211	562
848.302	378
848.392	-661
848.483	919
848.574	1290
848.664	924
848.755	756
848.846	1288
848.936	196
849.027	1267
849.118	2021
849.208	816
849.299	3367
849.389	7720
849.480	16771
849.570	32173
849.661	62896
849.751	89718
849.841	28839
849.932	4478
850.022	1718
850.112	1887
850.203	2017
850.293	958
850.383	1531
850.474	-61
850.564	199
850.654	-253
850.744	772
850.834	-286
850.924	1283
851.014	1861
851.104	1252
851.194	376
851.284	1331
851.374	1273
851.464	636
851.554	550
851.644	1441
851.734	1273
851.824	2325
851.914	1780
852.004	3517
852.094	1356
852.183	498
852.273	448
852.363	619
852.452	2006
852.542	918
852.632	406
852.721	1014
852.811	59
852.901	1555
852.990	1259
853.080	1799
853.169	1881
853.259	2403
853.348	2395
853.438	4291
853.527	6027
853.617	9555
853.706	18007
853.795	33638
853.885	67363
853.974	120471
854.063	214807
854.152	267519
854.242	103679
854.331	26882
854.420	11752
854.509	7909
854.598	6349
854.687	5091
854.777	3645
854.866	2666
854.955	2469
855.044	1485
855.133	1904
855.222	1447
855.311	672
855.400	735
855.488	420
855.577	1187
855.666	1194
855.755	1916
855.844	354
855.933	933
856.021	1195
856.110	1711
856.199	-8
856.288	188
856.376	819
856.465	-23
856.554	781
856.642	1162
856.731	1004
856.819	1036
856.908	-174
856.996	811
857.085	52
857.173	241
857.262	421
857.350	870
857.438	585
857.527	656
857.615	479
857.703	1833
857.792	-293
857.880	390
857.968	-559
858.056	568
858.145	-175
858.233	230
858.321	-788
858.409	562
858.497	-201
858.585	-400
858.673	389
858.761	-44
858.849	-324
858.937	-180
859.025	672
859.113	1004
859.201	348
859.289	1053
859.377	226
859.465	776
859.552	85
859.640	519
859.728	163
859.816	346
859.903	1096
859.991	-850
860.079	171
860.166	434
860.254	-386
860.342	680
860.429	551
860.517	721
860.604	-335
860.692	564
860.779	-450
860.867	-246
860.954	1080
861.042	857
861.129	914
861.216	1004
861.304	-216
861.391	309
861.478	-618
861.565	470
861.653	673
861.740	-564
861.827	707
861.914	604
862.001	9
862.089	651
862.176	616
862.263	-372
862.350	105
862.437	-28
862.524	417
862.611	804
862.698	421
862.785	698
862.871	868
862.958	1080
863.045	832
863.132	981
863.219	851
863.306	430
863.392	684
863.479	147
863.566	564
863.652	713
863.739	959
863.826	494
863.912	1285
863.999	333
864.086	426
864.172	904
864.259	1490
864.345	1217
864.432	1625
864.518	1128
864.604	1411
864.691	1624
864.777	1174
864.863	3080
864.950	4492
865.036	5872
865.122	9215
865.209	9569
865.295	8853
865.381	8933
865.467	9178
865.553	11218
865.639	14572
865.726	22827
865.812	41544
865.898	69439
865.984	100244
866.070	177844
866.156	159199
866.242	50190
866.328	16883
866.414	11251
866.499	9528
866.585	9010
866.671	7558
866.757	7866
866.843	6690
866.928	6411
867.014	6849
867.100	6528
867.186	6063
867.271	6333
867.357	6559
867.442	6196
867.528	5745
867.614	6376
867.699	5388
867.785	6542
867.870	6187
867.956	6857
868.041	6522
868.127	6057
868.212	6157
868.297	5945
868.383	5306
868.468	5506
868.553	6265
868.639	5081
868.724	5914
868.809	5340
868.894	4955
868.979	4681
869.065	5236
869.150	4025
869.235	4831
869.320	4548
869.405	4472
869.490	5438
869.575	4530
869.660	4156
869.745	4573
869.830	5066
869.915	3352
870.000	3925
870.085	4388
870.169	5882
870.254	5435
870.339	3736
870.424	4142
870.509	4524
870.593	5862
870.678	5114
870.763	3710
870.847	3800
870.932	4426
871.016	4557
871.101	2952
871.186	4669
871.270	4795
871.355	3304
871.439	4084
871.523	4503
871.608	3357
871.692	3875
871.777	4492
871.861	4255
871.945	3308
872.030	4499
872.114	3530
872.198	3055
872.282	3168
872.367	3596
872.451	3300
872.535	3829
872.619	3704
872.703	4015
872.787	4308
872.871	4082
872.955	2402
873.039	3006
873.123	3388
873.207	4263
873.291	2243
873.375	3327
873.459	4393
873.543	3452
873.627	2381
873.711	3519
873.794	4141
873.878	2926
873.962	1823
874.045	3082
874.129	2663
874.137	2680
874.213	2854
874.245	2827
874.296	2785
874.352	2667
874.380	2610
874.460	3113
874.464	3133
874.547	2476
874.568	2798
874.631	3750
874.676	3635
874.714	3542
874.784	3838
874.798	3894
874.881	2938
874.892	2844
874.965	2234
874.999	2516
875.048	2915
875.107	3161
875.131	3235
875.215	2593
875.215	2592
875.298	1559
875.323	2001
875.381	3069
875.430	3292
875.465	3442
875.538	3583
875.548	3606
875.631	1977
875.646	1873
875.714	1352
875.753	1549
875.798	1762
875.861	3190
875.881	3624
875.964	2526
875.968	2524
876.047	2706
876.076	2544
876.130	2127
876.183	3200
876.213	3856
876.291	2918
876.296	2834
876.379	2764
876.398	2413
876.462	1497
876.506	1752
876.545	1852
876.613	2190
876.628	2325
876.711	2531
876.721	2684
876.794	3691
876.828	3454
876.877	3112
876.935	2289
876.960	1933
877.043	2174
877.043	2178
877.125	3174
877.150	3252
877.208	3265
877.258	2514
877.291	2110
877.365	2430
877.374	2453
877.456	2316
877.472	2291
877.539	2348
877.579	2894
877.622	3338
877.687	3335
877.704	3366
877.787	2348
877.794	2407
877.869	3048
877.901	2839
877.952	2376
878.008	1995
878.034	1827
878.115	1552
878.117	1553
878.199	1784
878.222	2072
878.282	2820
878.329	3133
878.364	3258
878.437	2451
878.447	2354
878.529	2006
878.544	2033
878.611	2142
878.651	2316
878.694	2549
878.758	2380
878.776	2321
878.858	2821
878.865	2785
878.941	2024
878.972	1793
879.023	1697
879.078	1988
879.105	2198
879.185	2590
879.187	2595
879.269	2865
879.292	2648
879.351	1918
879.399	1735
879.433	1743
879.506	2396
879.516	2473
879.598	1752
879.613	1825
879.680	2094
879.720	2325
879.762	2625
879.827	2080
879.844	1955
879.926	2058
879.933	2096
880.007	2224
880.040	2078
880.089	1979
880.147	2607
880.171	3046
880.253	4564
880.254	4568
880.335	5294
880.360	5763
880.417	7868
880.467	10422
880.499	11866
880.574	12450
880.580	12100
880.662	6001
880.680	4692
880.744	2357
880.787	2211
880.825	2375
880.893	2348
880.907	2392
880.989	2061
881.000	2115
881.070	2567
881.106	2773
881.152	2536
881.213	1532
881.233	1457
881.315	2614
881.319	2597
881.396	2118
881.426	2252
881.478	2391
881.532	2730
881.559	2932
881.639	2150
881.641	2128
881.722	1872
881.745	1753
881.803	1725
881.852	1972
881.885	2148
881.958	2015
881.966	2013
882.047	2568
882.064	2573
882.129	2010
882.171	1570
882.210	1524
882.277	2049
882.291	2219
882.372	2366
882.383	2480
882.454	2923
882.489	2926
882.535	2901
882.596	2815
882.616	2778
882.697	2588
882.702	2570
882.778	2103
882.808	1851
882.859	1586
882.914	1826
882.940	2041
883.020	2307
883.021	2314
883.102	2735
883.127	2845
883.183	3213
883.233	3239
883.264	2925
883.339	2304
883.345	2244
883.426	1469
883.445	1381
883.507	1788
883.551	1901
883.587	2213
883.657	2822
883.668	2848
883.749	2898
883.763	2852
883.830	1878
883.869	1649
883.910	1961
883.975	1908
883.991	1895
884.072	2426
884.081	2422
884.152	2585
884.187	2794
884.233	3181
884.292	3261
884.314	2892
884.394	1867
884.398	1801
884.475	911
884.504	655
884.555	1320
884.610	2096
884.636	2181
884.716	2635
884.716	2645
884.797	3150
884.821	3250
884.877	2677
884.927	2402
884.958	2246
885.033	1609
885.038	1558
885.118	1006
885.139	729
885.199	977
885.244	1392
885.279	1798
885.350	2889
885.359	3020
885.439	3789
885.456	3852
885.520	2754
885.561	2044
885.600	1823
885.667	2002
885.680	2138
885.760	2550
885.773	2612
885.840	1965
885.878	1580
885.920	1798
885.984	2151
886.000	2255
886.080	2507
886.089	2588
886.160	2885
886.195	2772
886.240	2301
886.300	1975
886.320	2158
886.400	2550
886.406	2581
886.480	2317
886.511	2146
886.560	2230
886.616	2516
886.640	2540
886.720	2243
886.722	2235
886.800	2419
886.827	2489
886.879	2332
886.932	2020
886.959	2375
887.038	3544
887.039	3539
887.119	2468
887.143	2042
887.198	2412
887.248	2897
887.278	2825
887.354	2288
887.358	2282
887.437	2298
887.459	2291
887.517	2613
887.564	2810
887.596	2506
887.669	1724
887.676	1730
887.755	1804
887.774	1808
887.835	2035
887.880	2311
887.914	2524
887.985	2805
887.994	2867
888.073	3401
888.090	3449
888.153	3829
888.195	4229
888.232	3382
888.300	1701
888.311	1822
888.391	2632
888.405	2780
888.470	2423
888.510	2181
888.549	2300
888.615	2571
888.628	2686
888.708	3245
888.720	3317
888.787	2862
888.825	2590
888.866	2440
888.930	2289
888.945	2376
889.024	2826
889.035	2865
889.103	3289
889.140	3533
889.182	3221
889.245	2719
889.261	2768
889.340	3019
889.349	3039
889.419	2712
889.454	2524
889.498	2529
889.559	2554
889.577	2597
889.656	2758
889.664	2771
889.735	3119
889.768	3275
889.814	3264
889.873	3230
889.978	2523
890.083	2156
890.187	2639
890.292	3366
890.397	2448
890.501	2806
890.606	2373
890.710	2912
890.815	3521
890.919	3157
891.024	2790
891.128	2922
891.233	2511
891.337	3350
891.442	2721
891.546	2394
891.650	2653
891.755	1350
891.859	3318
891.963	3126
892.068	2921
892.172	1878
892.276	1604
892.380	2312
892.484	2830
892.589	4329
892.693	3165
892.797	1627
892.901	1302
893.005	2372
893.109	3720
893.213	2852
893.317	2083
893.421	2249
893.525	1739
893.629	2254
893.733	3198
893.837	2283
893.941	1566
894.045	2927
894.148	1335
894.252	2977
894.356	3950
894.460	3970
894.564	2473
894.667	2463
894.771	2017
894.875	1305
894.978	1720
895.082	2285
895.186	3006
895.289	2341
895.393	2322
895.496	2730
895.600	1076
895.703	2047
895.807	2112
895.910	2187
896.014	1808
896.117	1482
896.221	2467
896.324	2563
896.427	1303
896.531	2077
896.634	1896
896.737	2955
896.840	1891
896.944	2317
897.047	2772
897.150	2858
897.253	666
897.356	2276
897.460	1408
897.563	1099
897.666	2642
897.769	2336
897.872	856
897.975	1639
898.078	1565
898.181	1585
898.284	2486
898.387	2232
898.490	2217
898.593	1941
898.695	1584
898.798	1150
898.901	1820
899.004	1948
899.107	1859
899.209	2099
899.312	3018
899.415	1593
899.518	1414
899.620	1084
899.723	1735
899.826	2769
899.928	1943
900.031	1908
900.133	2108
900.236	2001
900.338	1062
900.441	1515
900.543	1354
900.646	2259
900.748	1237
900.851	2295
900.953	939
901.055	1417
901.158	1536
901.260	1088
901.362	976
901.465	1037
901.567	2979
901.669	1980
901.771	1304
901.873	1702
901.976	2043
902.078	2195
902.180	1594
902.282	1335
902.384	1946
902.486	2286
902.588	1787
902.690	2025
902.792	714
902.894	1503
902.996	2063
903.098	1835
903.200	1195
903.302	1564
903.404	1682
903.505	1547
903.607	2376
903.709	2785
903.811	2570
903.913	1546
904.014	1614
904.116	665
904.218	754
904.319	1989
904.421	4219
904.523	3006
904.624	1776
904.726	2178
904.827	1433
904.929	1537
905.030	1225
905.132	3032
905.233	2025
905.335	865
905.436	829
905.537	835
905.639	1882
905.740	1904
905.841	2231
905.943	1949
906.044	2206
906.145	1368
906.247	1184
906.348	1479
906.449	2031
906.550	1777
906.651	1865
906.752	1756
906.854	1438
906.955	2039
907.056	1534
907.157	2617
907.258	2084
907.359	1765
907.460	933
907.561	1452
907.662	670
907.762	1978
907.863	1468
907.964	1247
908.065	2241
908.166	393
908.267	717
908.367	363
908.468	1158
908.569	1875
908.670	1302
908.770	1033
908.871	359
908.971	2321
909.072	1402
909.173	1306
909.273	1895
909.374	2445
909.474	2026
909.575	1351
909.675	1069
909.776	1358
909.876	1450
909.977	1589
910.077	2645
910.177	2837
910.278	1364
910.378	1129
910.478	1763
910.579	2496
910.679	1992
910.779	2292
910.879	1716
910.980	2381
911.080	1801
911.180	1201
911.280	790
911.380	1147
911.480	1221
911.580	1559
911.680	1233
911.780	2456
911.880	2063
911.980	1476
912.080	1682
912.180	2112
912.280	1490
912.380	405
912.480	154
912.580	780
912.679	967
912.779	1676
912.879	1002
912.979	1921
913.078	393
913.178	1143
913.278	1074
913.377	-27
913.477	740
913.577	1514
913.676	1145
913.776	1917
913.875	921
913.975	1441
914.074	2099
914.174	1197
914.273	791
914.373	1663
914.472	1695
914.572	761
914.671	633
914.770	1060
914.870	1039
914.969	1476
915.068	1219
915.167	2058
915.267	536
915.366	839
915.465	1590
915.564	1244
915.663	1360
915.763	2204
915.862	2127
915.961	1315
916.060	1082
916.159	2080
916.258	1333
916.357	1644
916.456	1177
916.555	1430
916.654	2277
916.752	1616
916.851	1393
916.950	1899
917.049	1541
917.148	941
917.247	1270
917.345	1367
917.444	-19
917.543	1812
917.642	1501
917.740	2006
917.839	1966
917.937	2224
918.036	2472
918.135	1085
918.233	1301
918.332	1051
918.430	1273
918.529	1986
918.627	1600
918.726	2339
918.824	1798
918.923	1595
919.021	778
919.119	1438
919.218	1812
919.316	1542
919.414	1798
919.512	2512
919.611	1705
919.709	1614
919.807	1349
919.905	2013
920.003	1721
920.102	2307
920.200	2605
920.298	2333
920.396	2306
920.494	2327
920.592	2505
920.690	2581
920.788	1826
920.886	3324
920.984	2685
921.082	2209
921.180	2808
921.277	3204
921.375	3392
921.473	4160
921.571	3335
921.669	3514
921.766	4186
921.864	3502
921.962	3760
922.060	3448
922.157	4396
922.255	4818
922.352	4097
922.450	4984
922.548	4398
922.645	5870
922.743	6189
922.840	11285
922.938	10514
923.035	9119
923.133	9331
923.230	11793
923.327	13615
923.425	11697
923.522	11724
923.619	11158
923.717	10098
923.814	9870
923.911	9507
924.008	10365
924.106	9403
924.203	9942
924.300	9921
924.397	9726
924.494	8958
924.591	9562
924.688	9035
924.786	9771
924.883	9372
924.979	8923
925.077	9351
925.173	8964
925.270	9577
925.367	9687
925.464	10065
925.561	10540
925.658	9968
925.755	9639
925.852	11096
925.948	10258
926.045	9154
926.142	11311
926.239	9918
926.335	9379
926.432	8971
926.529	10999
926.625	10639
926.722	8035
926.818	9058
926.915	9371
927.011	8309
927.108	9228
927.204	8435
927.301	8438
927.397	10083
927.494	9422
927.590	7134
927.687	8119
927.783	9690
927.879	7880
927.976	7565
928.072	7828
928.168	8854
928.264	8155
928.361	7821
928.457	8601
928.553	6961
928.649	8553
928.745	7241
928.841	7912
928.937	8154
929.033	7972
929.129	8085
929.225	9382
929.321	7563
929.417	6951
929.513	7084
929.609	6151
929.705	7983
929.801	7156
929.897	6285
929.993	7158
930.089	7107
930.184	6736
930.280	7477
930.376	9512
930.471	6882
930.567	5731
930.663	7635
930.758	6112
930.854	6841
930.950	6943
931.045	6274
931.141	6687
931.236	8404
931.332	5748
931.427	6552
931.523	7864
931.618	5869
931.714	5024
931.809	6721
931.905	6650
932.000	4841
932.095	5397
932.191	8606
932.286	8749
932.381	5114
932.476	4911
932.572	6327
932.667	6036
932.762	5456
932.857	5816
932.952	7515
933.047	5438
933.142	5843
933.237	6222
933.332	7084
933.427	6812
933.522	5320
933.617	6104
933.712	5656
933.807	7914
933.902	7842
933.997	6539
934.092	4594
934.187	6060
934.282	5667
934.376	6948
934.471	6716
934.566	4625
934.661	5915
934.755	6856
934.850	7236
934.945	5311
935.039	4504
935.134	4596
935.228	6684
935.323	7483
935.417	4369
935.512	4229
935.606	4471
935.701	6176
935.795	6303
935.890	5182
935.984	5325
936.079	3323
936.173	5095
936.267	4976
936.362	4419
936.456	5830
936.550	5787
936.644	5418
936.738	4594
936.833	4132
936.927	3890
937.021	4776
937.115	6369
937.209	4654
937.303	4976
937.397	3611
937.491	4784
937.585	5985
937.679	4493
937.773	3819
937.867	2805
937.961	4135
938.055	5440
938.149	4828
938.243	3042
938.337	3589
938.430	4825
938.524	6261
938.618	5860
938.712	4709
938.805	4687
938.899	5581
938.993	6011
939.086	3888
939.180	4120
939.274	5354
939.367	6009
939.461	5374
939.554	3973
939.648	3477
939.741	3793
939.835	5709
939.928	5271
940.022	5578
940.115	3868
940.208	5303
940.302	5970
940.395	5447
940.488	3948
940.582	4249
940.675	3048
940.768	4078
940.861	5217
940.954	4471
941.048	2947
941.141	3501
941.234	4164
941.327	4317
941.420	5204
941.513	4898
941.606	2990
941.699	4088
941.792	4732
941.885	3730
941.978	4413
942.071	4281
942.164	2480
942.257	3336
942.349	3955
942.442	3153
942.535	2990
942.628	3225
942.721	4088
942.813	2980
942.906	4547
942.999	4087
943.091	2318
943.184	3374
943.277	2934
943.369	2532
943.462	3348
943.554	4248
943.647	3560
943.739	4282
943.832	3813
943.924	2126
944.017	2690
944.109	2645
944.201	3575
944.294	3287
944.386	3099
944.478	2783
944.571	2163
944.663	2902
944.755	3664
944.847	3636
944.940	3355
945.032	1653
945.124	2015
945.216	3693
945.308	2812
945.400	4502
945.492	2881
945.584	4052
945.676	3929
945.768	3144
945.860	4172
945.952	3958
946.044	3061
946.136	2246
946.228	2458
946.320	2241
946.412	3273
946.503	3818
946.595	3571
946.687	2023
946.779	2076
946.870	2439
946.962	2010
947.054	2941
947.145	2510
947.237	2788
947.329	3322
947.420	3321
947.512	2677
947.603	2424
947.695	2720
947.786	2129
947.878	2087
947.969	3547
948.061	3350
948.152	1824
948.243	1191
948.335	1560
948.426	1890
948.517	2638
948.609	3421
948.700	2478
948.791	2503
948.882	1676
948.973	1404
949.065	2911
949.156	2304
949.247	1826
949.338	2032
949.429	1779
949.520	2252
949.611	1866
949.702	2592
949.793	2000
949.884	2814
949.975	1829
950.066	1604
950.157	1707
950.247	2049
950.338	1188
950.429	2027
950.520	1835
950.611	1202
950.701	2814
950.792	3438
950.883	2445
950.973	2657
951.064	2828
951.155	2365
951.245	2080
951.336	3402
951.427	2889
951.517	3333
951.608	2792
951.698	1950
951.788	1898
951.879	1647
951.969	1571
952.060	1637
952.150	2129
952.240	2873
952.331	1452
952.421	2493
952.511	1692
952.602	1629
952.692	807
952.782	1892
952.872	1671
952.962	1844
953.052	1598
953.143	1637
953.233	1815
953.323	2883
953.413	1832
953.503	1752
953.593	2544
953.683	1576
953.773	1013
953.863	1132
953.953	1273
954.042	1998
954.132	2734
954.222	2725
954.312	1949
954.402	957
954.492	1745
954.581	1608
954.671	2444
954.761	1253
954.850	2876
954.940	1108
955.030	1320
955.119	295
955.209	921
955.298	1326
955.388	2443
955.477	2962
955.567	1055
955.656	1417
955.746	1679
955.835	1157
955.925	1649
956.014	1884
956.103	2098
956.193	2935
956.282	1907
956.371	1638
956.461	2156
956.550	1768
956.639	2191
956.728	1253
956.817	2058
956.906	1129
956.995	2823
957.085	1322
957.174	1717
957.263	891
957.352	1370
957.441	1608
957.530	1453
957.619	929
957.708	957
957.796	1169
957.885	1428
957.974	1722
958.063	1369
958.152	683
958.241	1679
958.329	301
958.418	1691
958.507	1658
958.596	1955
958.684	1432
958.773	2138
958.861	1565
958.950	1076
959.039	867
959.127	1772
959.216	1943
959.304	1876
959.393	2582
959.481	2120
959.570	1938
959.658	625
959.746	1627
959.835	965
959.923	1278
960.011	1524
960.100	1294
960.188	1881
960.276	761
960.365	782
960.453	586
960.541	596
960.629	734
960.717	636
960.805	185
960.893	1262
960.981	924
961.069	2603
961.158	2508
961.245	3677
961.333	1739
961.421	1431
961.509	1881
961.597	567
961.685	1028
961.773	1653
961.861	1140
961.949	1615
962.036	648
962.124	669
962.212	294
962.299	1558
962.387	390
962.475	1273
962.562	367
962.650	2334
962.738	622
962.825	692
962.913	335
963.000	764
963.088	1795
963.175	829
963.263	1283
963.350	1111
963.438	663
963.525	974
963.612	1764
963.700	1310
963.787	2150
963.874	1117
963.962	514
964.049	899
964.136	436
964.223	940
964.310	400
964.398	603
964.485	228
964.572	112
964.659	916
964.746	875
964.833	928
964.920	352
965.007	244
965.094	898
965.181	1424
965.268	770
965.355	849
965.441	557
965.528	1332
965.615	1541
965.702	1071
965.789	635
965.875	563
965.962	191
966.049	734
966.136	1828
966.222	1572
966.309	2369
966.395	1199
966.482	1800
966.569	442
966.655	657
966.742	1267
966.828	808
966.915	200
967.001	6
967.087	-395
967.174	970
967.260	848
967.347	1485
967.433	807
967.519	2364
967.605	569
967.692	779
967.778	473
967.864	1128
967.950	1254
968.036	349
968.123	236
968.209	1011
968.295	-408
968.381	1804
968.467	918
968.553	134
968.639	1424
968.725	1076
968.811	2592
968.897	1399
968.983	580
969.069	-52
969.154	601
969.240	1518
969.326	24
969.412	-276
969.497	-277
969.583	242
969.669	1282
969.755	1135
969.840	966
969.926	2210
970.012	2967
970.097	4719
970.183	2270
970.268	1652
970.354	650
970.439	-298
970.525	1315
970.610	134
970.696	1149
970.781	133
970.866	-673
970.952	784
971.037	-133
971.122	708
971.208	895
971.293	529
971.378	-304
971.463	240
971.549	493
971.634	388
971.719	-31
971.804	1024
971.889	603
971.974	767
972.059	-107
972.144	753
972.229	202
972.314	-432
972.399	640
972.484	-210
972.569	970
972.654	-202
972.739	1306
972.824	-397
972.908	563
972.993	557
973.078	428
973.163	142
973.247	259
973.332	-949
973.417	1497
973.501	-34
973.586	82
973.671	437
973.755	-126
973.840	1222
973.924	1638
974.009	2094
974.093	230
974.178	1443
974.262	1248
974.346	686
974.431	23
974.515	876
974.600	437
974.684	869
974.768	308
974.852	1519
974.937	-580
975.021	1315
975.105	623
975.189	169
975.273	712
975.358	-409
975.442	100
975.526	1288
975.610	-155
975.694	-26
975.778	656
975.862	852
975.946	-1203
976.030	949
976.114	-761
976.198	646
976.281	-103
976.365	272
976.449	-744
976.533	-232
976.617	-1395
976.700	-6
976.784	946
976.868	-117
976.951	929
977.035	-425
977.119	698
977.202	432
977.286	176
977.369	1656
977.453	2029
977.536	1490
977.620	813
977.703	1165
977.787	-360
977.870	1763
977.953	766
978.037	-21
978.120	-173
978.203	-127
978.287	579
978.370	645
978.453	-82
978.536	190
978.620	213
978.703	1124
978.786	714
978.869	-389
978.952	-452
979.035	1959
979.118	1004
979.201	118
979.284	436
979.367	230
979.450	228
979.533	-312
979.616	745
979.699	50
979.782	638
979.865	1223
979.948	249
980.030	229
980.113	259
980.196	76
980.279	1144
980.361	713
980.444	1153
980.526	626
980.609	1393
980.692	546
980.774	2163
980.857	77
980.939	1778
981.022	246
981.104	1128
981.187	568
981.269	833
981.352	1306
981.434	-90
981.516	-732
981.599	1655
981.681	456
981.763	558
981.846	549
981.928	333
982.010	305
982.092	-416
982.174	1396
982.256	456
982.339	1068
982.421	961
982.503	915
982.585	-334
982.667	672
982.749	1073
982.831	183
982.913	194
982.995	1582
983.077	300
983.158	1058
983.240	-91
983.322	1451
983.404	2484
983.486	2122
983.568	1283
983.649	1240
983.731	1056
983.813	669
983.894	476
983.976	629
984.058	842
984.139	1910
984.221	-158
984.302	1685
984.384	1335
984.465	911
984.547	1023
984.628	875
984.710	1501
984.791	913
984.872	130
984.954	970
985.035	856
985.116	533
985.198	-95
985.279	1431
985.360	-203
985.441	498
985.522	1259
985.604	470
985.685	389
985.766	1979
985.847	1530
985.928	236
986.009	524
986.090	595
986.171	1338
986.252	-121
986.333	669
986.414	538
986.495	219
986.576	1096
986.656	496
986.737	2351
986.818	1048
986.899	707
986.980	496
987.060	1761
987.141	1365
987.222	1709
987.302	2205
987.383	1273
987.464	1278
987.544	1556
987.625	1999
987.705	2057
987.786	2252
987.866	1577
987.947	1421
988.027	1583
988.108	2001
988.188	1408
988.268	2155
988.349	1269
988.429	1023
988.509	2036
988.589	1437
988.670	-363
988.750	2384
988.830	1047
988.910	1497
988.990	1449
989.070	443
989.151	1848
989.231	1122
989.311	747
989.391	971
989.471	999
989.551	1201
989.631	652
989.711	2135
989.791	567
989.870	1137
989.950	1353
990.030	237
990.110	774
990.190	-224
990.269	53
990.349	897
990.429	1082
990.509	161
990.588	-300
990.668	727
990.747	1199
990.827	491
990.907	953
990.986	1194
991.066	52
991.145	168
991.225	1615
991.304	-417
991.383	329
991.463	-7
991.542	934
991.622	670
991.701	128
991.780	345
991.859	-331
991.939	982
992.018	558
992.097	1120
992.176	180
992.256	25
992.335	581
992.414	314
992.493	-178
992.572	-164
992.651	650
992.730	-126
992.809	1001
992.888	-350
992.967	233
993.046	988
993.125	-513
993.203	9
993.282	105
993.361	-880
993.440	-103
993.519	288
993.597	541
993.676	-63
993.755	1191
993.834	-518
993.912	-1138
993.991	482
994.069	-931
994.148	-81
994.226	-561
994.305	-336
994.384	-494
994.462	127
994.540	-1003
994.619	-115
994.697	81
994.776	64
994.854	465
994.932	-225
995.011	421
995.089	-1374
995.167	-448
995.245	-510
995.324	-331
995.402	637
995.480	-467
995.558	618
995.636	-1537
995.714	-332
995.792	463
995.870	-478
995.948	167
996.026	246
996.104	-1873
996.182	-205
996.260	-393
996.338	-1050
996.416	-994
996.494	-180
996.572	650
996.649	-595
996.727	-1293
996.805	168
996.883	-195
996.960	-426
997.038	109
997.116	192
997.193	-607
997.271	-614
997.348	-528
997.426	-302
997.504	-899
997.581	552
997.658	129
997.736	-1530
997.813	-1211
997.891	615
997.968	-563
998.046	228
998.123	-253
998.200	-574
998.277	-1348
998.355	-312
998.432	-1325
998.509	-1277
998.586	-92
998.663	-314
998.741	-587
998.818	374
998.895	-531
998.972	118
999.049	-554
999.126	-1022
999.203	-63
999.280	-683
999.357	-593
999.434	-708
999.511	449
999.587	-1
999.664	-1537
999.741	-260
999.818	140
999.895	-1322
999.971	-666
1000.048	-732
1000.125	609
1000.202	-1060
1000.278	-22
1000.355	168
1000.431	-636
1000.508	-1181
1000.584	-1179
1000.661	-806
1000.738	-1166
1000.814	-698
1000.890	-121
1000.967	-1420
1001.043	-713
1001.120	-1892
1001.196	-738
1001.272	-1543
1001.349	-983
1001.425	-786
1001.501	-1355
1001.577	-1282
1001.654	-270
1001.730	-925
1001.806	-697
1001.882	-813
1001.958	-402
1002.034	-984
1002.110	-668
1002.186	-1634
1002.262	-1809
1002.338	-1679
1002.414	-811
1002.490	-770
1002.566	-1603
1002.642	-1345
1002.718	345
1002.794	-1616
1002.870	-1772
1002.945	-1005
1003.021	-505
1003.097	-1643
1003.173	-548
1003.248	-1150
1003.324	-1090
1003.400	-1227
1003.475	-1561
1003.551	-618
1003.626	-1023
1003.702	-1172
1003.777	-805
1003.853	-1565
1003.928	-1573
1004.004	-868
1004.079	-1315
1004.155	-1338
1004.230	-2026
1004.305	-399
1004.381	-1409
1004.456	-1768
1004.531	-1297
1004.607	-1081
1004.682	-1247
1004.757	-942
1004.832	-1585
1004.907	-1510
1004.982	-1381
1005.057	-1444
1005.133	-1051
1005.208	-1047
1005.283	-1114
1005.358	-952
1005.433	-1949
1005.508	-1145
1005.583	-1975
1005.657	-612
1005.732	-946
1005.807	-1968
1005.882	-1362
1005.957	-1529
1006.032	-1065
1006.106	-763
1006.181	-1038
1006.256	-909
1006.331	-1439
1006.405	-1806
1006.480	-1372
1006.554	-1786
1006.629	-1147
1006.704	-1678
1006.778	-727
1006.853	-845
1006.927	-1874
1007.002	-2130
1007.076	-1588
1007.150	-1996
1007.225	-1327
1007.299	-2018
1007.373	-2239
1007.448	-1214
1007.522	-1340
1007.596	-1710
1007.671	-1345
1007.745	-262
1007.819	-1789
1007.893	-2225
1007.967	-1244
1008.041	-1571
1008.115	-623
1008.190	-1942
1008.264	-513
1008.338	-2147
1008.412	-1265
1008.486	-1519
1008.560	-1018
1008.633	-1522
1008.707	-1567
1008.781	-1031
1008.855	-1231
1008.929	-2215
1009.003	-2389
1009.076	-1686
1009.150	-704
1009.224	-1912
1009.298	-883
1009.371	-2071
1009.445	-983
1009.519	-1273
1009.592	-2454
1009.666	-1453
1009.739	-1202
1009.813	-1965
1009.886	-206
1009.960	-2017
1010.033	-351
1010.107	-1611
1010.180	-2633
1010.253	-1156
1010.327	-1712
1010.400	-1506
1010.473	-1987
1010.547	-615
1010.620	-2078
1010.693	-804
1010.766	-1331
1010.840	-2010
1010.913	-1303
1010.986	-1610
1011.059	-1103
1011.132	-1305
1011.205	35
1011.278	-1195
1011.351	-1089
1011.424	-1456
1011.497	-1757
1011.570	-1358
1011.643	-1798
1011.716	-2054
1011.789	-1448
1011.862	-1480
1011.934	-829
1012.007	-2938
1012.080	-1135
1012.153	-2450
1012.225	-1026
1012.298	-2124
1012.371	-1904
1012.443	-985
1012.516	-1983
1012.588	-1244
1012.661	-1521
1012.733	-2859
1012.806	-1149
1012.879	-1815
1012.951	-1734
1013.023	-1586
1013.096	-1336
1013.168	-2160
1013.241	-526
1013.313	-1524
1013.385	-2002
1013.458	-1483
1013.530	-1485
1013.602	-1961
1013.674	-629
1013.746	-2076
1013.819	-1544
1013.891	-1906
1013.963	-2164
1014.035	-1122
1014.107	-987
1014.179	-1337
1014.251	-1508
1014.323	-1257
1014.395	-2019
1014.467	-951
1014.539	-763
1014.611	-2036
1014.683	-1579
1014.754	-1133
1014.826	-1272
1014.898	-1627
1014.970	-2150
1015.042	-854
1015.113	-1723
1015.185	-1986
1015.257	-1836
1015.328	-1460
1015.400	-2073
1015.471	-2106
1015.543	-2414
1015.615	-1385
1015.686	-915
1015.757	-2142
1015.829	-1140
1015.901	-2155
1015.972	-2086
1016.043	-1274
1016.115	-1140
1016.186	-1106
1016.257	-2154
1016.328	-1929
1016.400	-490
1016.471	-2337
1016.542	-1767
1016.613	-1391
1016.685	-1340
1016.756	-1239
1016.827	-2492
1016.898	-2622
1016.969	-839
1017.040	-2275
1017.111	-1928
1017.182	-1967
1017.253	-2469
1017.324	-1809
1017.395	-1673
1017.466	-1821
1017.537	-1596
1017.608	-1887
1017.678	-1695
1017.749	-2157
1017.820	-2072
1017.891	-1552
1017.961	-1980
1018.032	-2450
1018.103	-1302
1018.173	-1386
1018.244	-1781
1018.315	-1681
1018.385	-1339
1018.456	-1571
1018.526	-2062
1018.597	-1342
1018.667	-1680
1018.738	-2141
1018.808	-1332
1018.878	-1554
1018.949	-1652
1019.019	-1151
1019.089	-2315
1019.160	-1533
1019.230	-1234
1019.300	-1796
1019.371	-2385
1019.441	-1232
1019.511	-1397
1019.581	-2031
1019.651	-1232
1019.721	-1983
1019.791	-1105
1019.861	-1856
1019.931	-1441
1020.001	-1715
1020.071	-2013
1020.141	-1990
1020.211	-1841
1020.281	-2634
1020.351	-2516
1020.421	-1825
1020.491	-2165
1020.560	-2494
1020.630	-2081
1020.700	-1886
1020.770	-1803
1020.839	-2534
1020.909	-2330
1020.979	-2171
1021.048	-1533
1021.118	-1687
1021.187	-2064
1021.257	-2399
1021.326	-1244
1021.396	-1527
1021.465	-1372
1021.535	-2071
1021.604	-2707
1021.674	-1894
1021.743	-2072
1021.812	-1932
1021.882	-1544
1021.951	-1901
1022.020	-1747
1022.089	-1305
1022.159	-2754
1022.228	-1890
1022.297	-1563
1022.366	-2038
1022.435	-2038
1022.504	-1439
1022.573	-1523
1022.642	-1554
1022.711	-2187
1022.781	-883
1022.849	-1207
1022.918	-1782
1022.987	-1883
1023.056	-2546
1023.125	-1946
1023.194	-2083
1023.263	-1967
1023.331	-1944
1023.400	-2280
1023.469	-1610
1023.538	-1057
1023.606	-2360
1023.675	-2683
1023.744	-2114
1023.812	-1898
1023.881	-2043
1023.949	-2208
1024.018	-1505
1024.086	-2833
1024.155	-1557
1024.223	-2166
1024.292	-2083
1024.360	-1315
1024.429	-2538
1024.497	-1680
1024.565	-2290
1024.634	-1746
1024.702	-1361
1024.770	-1045
1024.838	-2125
1024.907	-2591
1024.975	-2368
1025.043	-1859
1025.111	-1823
1025.179	-2001
1025.247	-1886
1025.315	-1746
1025.383	-2011
1025.451	-1222
1025.519	-1684
1025.587	-1228
1025.655	-1386
1025.723	-2879
1025.791	-1851
1025.859	-1246
1025.927	-1727
1025.995	-1903
1026.062	-1480
1026.130	-990
1026.198	-2076
1026.266	-2225
1026.333	-1348
1026.401	-1680
1026.469	-2188
1026.536	-1398
1026.604	-1601
1026.671	-2067
1026.739	-2250
1026.806	-1813
1026.874	-2011
1026.941	-1910
1027.009	-2193
1027.076	-1625
1027.144	-1895
1027.211	-2391
1027.278	-2512
1027.345	-2388
1027.413	-1787
1027.480	-2042
1027.547	-1773
1027.614	-1639
1027.682	-1854
1027.749	-2365
1027.816	-2369
1027.883	-1948
1027.950	-1722
1028.017	-2114
1028.084	-2222
1028.151	-2191
1028.218	-2147
1028.285	-2222
1028.352	-1825
1028.419	-1698
1028.486	-2175
1028.553	-2126
1028.619	-952
1028.686	-2378
1028.753	-2116
1028.820	-2367
1028.886	-1879
1028.953	-1606
1029.020	-1796
1029.086	-2226
1029.153	-2561
1029.220	-2538
1029.286	-2403
1029.353	-1192
1029.419	-2144
1029.486	-2085
1029.552	-2321
1029.619	-1933
1029.685	-2140
1029.751	-1624
1029.818	-1409
1029.884	-2881
1029.951	-1706
1030.017	-2235
1030.083	-2163
1030.149	-2263
1030.216	-2087
1030.282	-1991
1030.348	-1492
1030.414	-2332
1030.480	-2362
1030.546	-1913
1030.612	-1874
1030.678	-2206
1030.744	-2054
1030.810	-2101
1030.876	-2953
1030.942	-2046
1031.008	-2030
1031.074	-2169
1031.140	-2392
1031.206	-1753
1031.272	-2625
1031.337	-1763
1031.403	-1133
1031.469	-2244
1031.534	-1921
1031.600	-2087
1031.666	-2335
1031.731	-2698
1031.797	-2332
1031.863	-1911
1031.928	-2560
1031.994	-2933
1032.059	-2251
1032.125	-2368
1032.190	-1744
1032.256	-2167
1032.321	-2684
1032.386	-1886
1032.452	-2200
1032.517	-2740
1032.582	-2375
1032.647	-2435
1032.713	-2577
1032.778	-1775
1032.843	-1925
1032.908	-2173
1032.974	-2753
1033.039	-1946
1033.104	-1572
1033.169	-2701
1033.234	-2242
1033.299	-1992
1033.364	-2551
1033.429	-1667
1033.494	-1771
1033.559	-1770
1033.624	-1682
1033.688	-1880
1033.753	-1703
1033.818	-1516
1033.883	-1346
1033.948	-1960
1034.013	-1276
1034.077	-991
1034.142	-130
1034.207	-416
1034.271	805
1034.336	2454
1034.400	741
1034.465	-545
1034.530	-2168
1034.594	-2352
1034.658	-2445
1034.723	-1560
1034.787	-1587
1034.852	-1485
1034.916	-2428
1034.981	-2701
1035.045	-2256
1035.109	-2077
1035.173	-1948
1035.238	-1778
1035.302	-2171
1035.366	-2319
1035.430	-2975
1035.495	-2481
1035.559	-1739
1035.623	-1990
1035.687	-2185
1035.751	-2018
1035.815	-2544
1035.879	-2494
1035.943	-2049
1036.007	-2379
1036.071	-2685
1036.135	-2384
1036.198	-2476
1036.262	-2708
1036.326	-1813
1036.390	-2116
1036.454	-2176
1036.517	-1425
1036.581	-2002
1036.645	-2256
1036.709	-1431
1036.772	-1731
1036.836	-2432
1036.900	-3042
1036.963	-2161
1037.026	-2449
1037.090	-2631
1037.154	-2183
1037.217	-2273
1037.280	-2143
1037.344	-1644
1037.407	-2505
1037.471	-2052
1037.534	-2621
1037.597	-1950
1037.661	-1663
1037.724	-2154
1037.787	-2150
1037.850	-1995
1037.913	-2304
1037.977	-1867
1038.040	-2236
1038.103	-2149
1038.166	-2389
1038.229	-2695
1038.292	-2717
1038.355	-2629
1038.418	-2791
1038.481	-1826
1038.544	-2392
1038.607	-2709
1038.670	-2060
1038.732	-1928
1038.795	-2124
1038.858	-1690
1038.921	-2303
1038.984	-1838
1039.046	-2401
1039.109	-2332
1039.172	-2262
1039.234	-2805
1039.297	-2314
1039.360	-3034
1039.422	-2689
1039.485	-1782
1039.547	-2684
1039.610	-2726
1039.672	-2076
1039.734	-2841
1039.797	-1598
1039.859	-2414
1039.922	-2651
1039.984	-2863
1040.046	-2260
1040.109	-2133
1040.171	-2213
1040.233	-2435
1040.295	-2601
1040.358	-2445
1040.420	-2493
1040.482	-2198
1040.544	-2218
1040.606	-2001
1040.668	-1706
1040.730	-2351
1040.792	-2342
1040.854	-2113
1040.916	-2498
1040.978	-2878
1041.040	-1564
1041.102	-2096
1041.164	-2166
1041.225	-2701
1041.287	-2728
1041.349	-2620
1041.411	-2360
1041.472	-2347
1041.534	-2876
1041.596	-2412
1041.657	-2050
1041.719	-2139
1041.781	-2628
1041.842	-1974
1041.904	-2667
1041.965	-2189
1042.027	-2128
1042.088	-2238
1042.150	-1953
1042.211	-3174
1042.272	-1117
1042.334	-2269
1042.395	-2317
1042.456	-2163
1042.518	-2678
1042.579	-2030
1042.640	-1982
1042.701	-2345
1042.763	-2413
1042.824	-2308
1042.885	-2910
1042.946	-1991
1043.007	-1783
1043.068	-2466
1043.129	-2102
1043.190	-2185
1043.251	-2070
1043.312	-2128
1043.373	-1914
1043.434	-2778
1043.495	-1576
1043.556	-2253
1043.616	-1757
1043.677	-2635
1043.738	-2461
1043.799	-2083
1043.859	-3069
1043.920	-1676
1043.981	-2023
1044.041	-2816
1044.102	-2497
1044.162	-1791
1044.223	-3621
1044.284	-2023
1044.344	-2723
1044.405	-2495
1044.465	-2271
1044.525	-1889
1044.586	-2062
1044.646	-2763
1044.707	-1383
1044.767	-2045
1044.827	-2410
1044.887	-2100
1044.948	-1949
1045.008	-2090
1045.068	-1852
1045.128	-2155
1045.188	-2350
1045.249	-1208
1045.309	-2554
1045.369	-1986
1045.429	-1829
1045.489	-1681
1045.549	-2319
1045.609	-2131
1045.669	-2356
1045.729	-2259
1045.789	-1712
1045.848	-1463
1045.908	-1267
1045.968	-2297
1046.028	-1828
1046.088	-2150
1046.147	-1583
1046.207	-2276
1046.267	-2218
1046.326	-1623
1046.386	-1976
1046.446	-1655
1046.505	-1584
1046.565	-733
1046.624	-1279
1046.684	-1861
1046.743	-1089
1046.803	-502
1046.862	-861
1046.922	0
