'Start Wavelength	183.907
'End Wavelength	1046.922
'Gate Delay	5.000
'Gate Width (ms)	1.050
'Laser Output Level	0.000
'X Position	0.000
'Y Position	0.000
'Z Position	0.000
'Grid Point Number	1.000
'Shot Number	100.000
183.907	487.000
183.977	245.000
184.047	38
184.116	386
184.186	599
184.256	-131
184.325	233
184.395	-592
184.465	613
184.534	645
184.604	-149
184.674	783
184.743	117
184.813	232
184.883	616
184.952	-458
185.022	395
185.092	135
185.161	720
185.231	639
185.301	1231
185.370	555
185.440	401
185.509	-324
185.579	-5
185.649	996
185.718	186
185.788	100
185.857	505
185.927	-14
185.996	520
186.066	147
186.136	487
186.205	727
186.275	344
186.344	-46
186.414	707
186.483	402
186.553	1233
186.622	1116
186.692	580
186.761	99
186.831	300
186.900	-354
186.970	930
187.039	758
187.109	1046
187.178	632
187.248	1142
187.317	1056
187.387	549
187.456	1177
187.526	1820
187.595	1839
187.664	857
187.734	1058
187.803	1229
187.873	636
187.942	1610
188.012	957
188.081	797
188.150	916
188.220	1278
188.289	1565
188.358	2214
188.428	999
188.497	-449
188.567	1403
188.636	-18
188.705	865
188.775	476
188.844	-75
188.913	851
188.983	738
189.052	1320
189.121	455
189.191	1662
189.260	1411
189.329	2480
189.399	1744
189.468	388
189.537	1013
189.606	983
189.676	1389
189.745	1723
189.814	1905
189.883	1590
189.953	1596
190.022	2282
190.091	5540
190.161	7491
190.230	3281
190.299	1523
190.368	1742
190.437	1024
190.507	1085
190.576	585
190.645	1045
190.714	990
190.783	590
190.853	1637
190.922	681
190.991	1125
191.060	1312
191.129	201
191.198	948
191.268	514
191.337	735
191.406	1379
191.475	1138
191.544	857
191.613	713
191.682	173
191.752	1054
191.821	101
191.890	790
191.959	1155
192.028	585
192.097	1705
192.166	1336
192.235	713
192.304	1074
192.373	576
192.442	416
192.511	997
192.580	704
192.650	676
192.719	800
192.788	1700
192.857	831
192.926	269
192.995	1499
193.064	1800
193.133	1187
193.202	2911
193.271	2760
193.340	2134
193.409	1802
193.478	3483
193.547	3983
193.615	4807
193.684	5654
193.753	2926
193.822	2400
193.891	1436
193.960	2170
194.029	2027
194.098	2245
194.167	1422
194.236	1130
194.305	1498
194.374	828
194.443	1421
194.512	2000
194.580	1607
194.649	3107
194.718	2434
194.787	1395
194.856	361
194.925	2226
194.994	2427
195.062	1936
195.131	2517
195.200	3536
195.269	5073
195.338	2828
195.407	2194
195.475	2135
195.544	4059
195.613	3174
195.682	1932
195.751	3682
195.819	4111
195.888	3195
195.957	3547
196.026	4289
196.094	4473
196.163	3921
196.232	3458
196.301	3293
196.369	3384
196.438	1769
196.507	1648
196.576	1570
196.644	1493
196.713	1768
196.782	1233
196.850	1404
196.919	1400
196.988	1873
197.056	1139
197.125	2343
197.194	2003
197.262	1038
197.331	779
197.400	1312
197.468	1683
197.537	1385
197.606	1572
197.674	3845
197.743	7837
197.812	3923
197.880	7079
197.949	6188
198.017	6519
198.086	5263
198.155	3654
198.223	3087
198.292	8871
198.360	4452
198.429	1908
198.497	2097
198.566	5175
198.635	9222
198.703	3826
198.772	3416
198.840	9280
198.909	10328
198.977	2867
199.046	1967
199.114	3078
199.183	2513
199.251	2520
199.320	2600
199.388	1200
199.457	2268
199.525	2802
199.594	1795
199.662	2136
199.731	2115
199.799	2794
199.867	1895
199.936	1359
200.004	2339
200.073	2325
200.141	1697
200.210	1637
200.278	2000
200.346	2064
200.415	2987
200.483	2843
200.552	2116
200.620	1192
200.688	3029
200.757	1903
200.825	2289
200.893	1753
200.962	2013
201.030	2296
201.098	2056
201.167	2078
201.235	2514
201.303	2323
201.372	1930
201.440	1762
201.508	2272
201.577	2640
201.645	3183
201.713	2734
201.781	1642
201.850	2341
201.918	2093
201.986	2385
202.055	2023
202.123	2325
202.191	1423
202.259	2465
202.327	1344
202.396	1738
202.464	2573
202.532	3077
202.600	8266
202.669	4999
202.737	2507
202.805	2465
202.873	2317
202.941	2250
203.009	3240
203.078	1950
203.146	2338
203.214	1956
203.282	2343
203.350	2864
203.418	1512
203.487	3077
203.555	1409
203.623	2560
203.691	1961
203.759	1318
203.827	2454
203.895	2993
203.963	2091
204.031	1913
204.099	2219
204.168	1742
204.236	2897
204.304	2401
204.372	3469
204.440	2667
204.508	1822
204.576	1859
204.644	2791
204.712	2156
204.780	2596
204.848	2532
204.916	1905
204.984	1864
205.052	2288
205.120	2790
205.188	3851
205.256	2001
205.324	2589
205.392	2922
205.460	3264
205.528	3193
205.596	2427
205.664	2827
205.732	3259
205.799	11024
205.867	17708
205.935	5358
206.003	3488
206.071	2998
206.139	3239
206.207	3528
206.275	3058
206.343	2055
206.411	2946
206.478	2822
206.546	2619
206.614	3293
206.682	2268
206.750	2151
206.818	3244
206.885	3971
206.953	1972
207.021	2438
207.089	2706
207.157	2351
207.225	2471
207.292	2349
207.360	2386
207.428	2627
207.496	1707
207.563	2912
207.631	2708
207.699	2058
207.767	2981
207.834	2956
207.902	3817
207.970	2820
208.038	2585
208.105	3191
208.173	3747
208.241	6052
208.309	4954
208.376	5261
208.444	9594
208.512	6510
208.579	2728
208.647	3761
208.715	4444
208.782	3907
208.850	3190
208.918	3548
208.985	3183
209.053	3870
209.120	4524
209.188	2993
209.256	3444
209.323	3384
209.391	6014
209.459	5253
209.526	3212
209.594	2792
209.661	3360
209.729	3435
209.796	3654
209.864	3496
209.932	3501
209.999	4586
210.067	4550
210.134	5505
210.202	3411
210.269	7055
210.337	5992
210.404	4498
210.472	3807
210.539	4424
210.607	5419
210.674	6830
210.742	4223
210.809	4486
210.877	5342
210.944	7121
211.012	4827
211.079	6866
211.146	3558
211.214	3613
211.281	5637
211.349	5866
211.416	5073
211.484	6386
211.551	4569
211.618	4378
211.686	4538
211.753	3909
211.821	4722
211.888	4075
211.955	5055
212.023	4246
212.090	4518
212.157	5489
212.225	5978
212.292	11857
212.359	20505
212.427	46604
212.494	26338
212.561	9932
212.629	7510
212.696	6598
212.763	6114
212.831	4834
212.898	5609
212.965	4109
213.032	5198
213.100	6999
213.167	6077
213.234	7498
213.301	5641
213.369	4051
213.436	5297
213.503	4786
213.570	5694
213.638	5540
213.705	4335
213.772	3415
213.839	5713
213.906	7886
213.973	7830
214.041	5579
214.108	5461
214.175	5288
214.242	5173
214.309	5278
214.376	5168
214.444	5049
214.511	6901
214.578	7080
214.645	5809
214.712	7372
214.779	6673
214.846	6150
214.913	6106
214.980	6295
215.048	8310
215.115	8469
215.182	9140
215.249	7163
215.316	6338
215.383	5651
215.450	5828
215.517	5682
215.584	5040
215.651	5870
215.718	6125
215.785	8131
215.852	9043
215.919	8386
215.986	9530
216.053	6098
216.120	4665
216.187	8239
216.254	7596
216.321	6519
216.388	8811
216.455	8230
216.522	8145
216.589	11457
216.656	16198
216.722	16111
216.789	9808
216.856	9877
216.923	8118
216.990	7618
217.057	7092
217.124	10458
217.191	9326
217.258	10423
217.324	12866
217.391	12139
217.458	10294
217.525	7867
217.592	7612
217.659	6269
217.725	9161
217.792	12368
217.859	12521
217.926	7340
217.993	5729
218.059	5982
218.126	5543
218.193	5226
218.260	5660
218.327	5079
218.393	5660
218.460	5476
218.527	4260
218.594	6318
218.660	14463
218.727	15781
218.794	7239
218.860	5755
218.927	5600
218.994	5413
219.061	4386
219.127	7945
219.194	12211
219.261	6182
219.327	4905
219.394	5237
219.461	3500
219.527	5599
219.594	8252
219.661	7423
219.727	4575
219.794	5634
219.860	4309
219.927	6398
219.994	10152
220.060	17226
220.127	10678
220.193	6025
220.260	6106
220.326	9542
220.393	13062
220.460	17958
220.526	11422
220.593	8021
220.659	9895
220.726	9126
220.792	23379
220.859	19616
220.925	20433
220.992	28062
221.058	31374
221.125	34437
221.191	26035
221.258	11064
221.324	8795
221.391	6947
221.457	6263
221.524	7109
221.590	9881
221.657	30881
221.723	24789
221.789	19548
221.856	18522
221.922	12942
221.989	8757
222.055	7079
222.121	5674
222.188	7838
222.254	6387
222.321	5803
222.387	4332
222.453	5677
222.520	4701
222.586	4722
222.652	4784
222.719	5042
222.785	6061
222.851	5702
222.918	4608
222.984	5814
223.050	5773
223.116	4252
223.183	5837
223.249	4369
223.315	3152
223.382	4489
223.448	3660
223.514	4321
223.580	3905
223.647	3959
223.713	4003
223.779	5003
223.845	4869
223.911	4644
223.978	3581
224.044	5494
224.110	4632
224.176	5121
224.242	4644
224.309	4222
224.375	4321
224.441	4359
224.507	3800
224.573	4378
224.639	5012
224.705	3182
224.772	4189
224.838	3880
224.904	6446
224.970	5759
225.036	4997
225.102	6489
225.168	6303
225.234	4776
225.300	5439
225.366	4989
225.432	4303
225.499	4407
225.565	5901
225.631	6104
225.697	6061
225.763	7348
225.829	8005
225.895	8841
225.961	15221
226.027	12757
226.093	9934
226.159	11002
226.225	13810
226.291	26720
226.357	46313
226.423	26670
226.489	17796
226.554	11617
226.620	10775
226.686	15263
226.752	22725
226.818	26822
226.884	58538
226.950	54556
227.016	22645
227.082	14407
227.148	12629
227.214	15657
227.279	11664
227.345	8382
227.411	9136
227.477	8838
227.543	12336
227.609	16995
227.674	11574
227.740	9490
227.806	9566
227.872	7988
227.938	7489
228.003	13348
228.069	7088
228.135	5523
228.201	6179
228.267	6487
228.332	9672
228.398	13371
228.464	9178
228.530	5017
228.595	4994
228.661	4926
228.727	14930
228.792	11993
228.858	6772
228.924	7584
228.990	11977
229.055	10463
229.121	13229
229.187	7852
229.252	9748
229.318	6794
229.384	7750
229.449	11266
229.515	5463
229.581	4056
229.646	6958
229.712	9859
229.777	19814
229.843	22700
229.909	16330
229.974	15519
230.040	15346
230.105	10994
230.171	13210
230.236	14729
230.302	23631
230.368	21854
230.433	12709
230.499	10825
230.564	10670
230.630	8231
230.695	7426
230.761	7517
230.826	5675
230.892	14402
230.957	10008
231.023	6544
231.088	9187
231.154	8178
231.219	8755
231.284	13266
231.350	14750
231.415	8437
231.481	7191
231.546	6256
231.612	6816
231.677	4993
231.742	5420
231.808	8112
231.873	6037
231.939	5056
232.004	15667
232.069	15968
232.135	7736
232.200	7507
232.265	6033
232.331	4728
232.396	5254
232.461	5089
232.527	5274
232.592	6596
232.657	6516
232.723	12333
232.788	10327
232.853	7184
232.918	6128
232.984	5672
233.049	6380
233.114	11546
233.179	11323
233.245	13766
233.310	19927
233.375	7454
233.440	7388
233.506	8283
233.571	7049
233.636	6028
233.701	5968
233.766	13604
233.832	17944
233.897	10044
233.962	10517
234.027	11570
234.092	9934
234.157	9447
234.222	7548
234.288	12942
234.353	33918
234.418	34599
234.483	21553
234.548	17864
234.613	13878
234.678	12706
234.743	15158
234.808	37219
234.873	26721
234.938	13920
235.004	11454
235.069	10362
235.134	9218
235.199	8589
235.264	8549
235.329	6788
235.394	7848
235.459	11706
235.524	11857
235.589	9418
235.654	6991
235.719	6308
235.784	7828
235.849	9625
235.913	20866
235.978	22456
236.043	27432
236.108	12227
236.173	10695
236.238	12851
236.303	8614
236.368	8318
236.433	12808
236.498	24039
236.563	15985
236.627	23823
236.692	76858
236.757	67542
236.822	28604
236.887	25691
236.952	19156
237.017	15300
237.081	16648
237.146	21791
237.211	33275
237.276	73204
237.341	136809
237.405	71658
237.470	31194
237.535	24433
237.600	14696
237.664	13247
237.729	11388
237.794	13545
237.859	22628
237.923	21301
237.988	13586
238.053	18327
238.118	20608
238.182	44551
238.247	43528
238.312	24711
238.376	18041
238.441	14726
238.506	13372
238.570	8327
238.635	9360
238.700	8304
238.764	8863
238.829	20895
238.893	28577
238.958	15732
239.023	16737
239.087	9709
239.152	11478
239.216	8373
239.281	8050
239.346	9059
239.410	8056
239.475	10203
239.539	41626
239.604	36989
239.668	11914
239.733	8955
239.797	10329
239.862	18060
239.926	34624
239.991	16874
240.055	10419
240.120	8916
240.184	9489
240.249	8741
240.313	8636
240.378	9281
240.442	26271
240.507	42794
240.571	15553
240.635	20966
240.700	30012
240.764	13415
240.829	10154
240.893	7219
240.957	8940
241.022	23831
241.086	46014
241.151	26233
241.215	10371
241.279	15106
241.344	26136
241.408	15217
241.472	12256
241.537	13392
241.601	11864
241.665	10316
241.730	10273
241.794	11252
241.858	10021
241.922	11380
241.987	11227
242.051	9919
242.115	9009
242.179	9534
242.244	9277
242.308	10749
242.372	10838
242.436	13033
242.501	12714
242.565	9893
242.629	9459
242.693	9936
242.757	8932
242.822	9262
242.886	10879
242.950	11424
243.014	11438
243.078	14868
243.142	16302
243.206	11592
243.271	13372
243.335	12749
243.399	19090
243.463	63264
243.527	161882
243.591	62789
243.655	28095
243.719	16720
243.783	18067
243.847	28432
243.911	36456
243.975	46507
244.040	36343
244.104	16708
244.168	13604
244.232	23453
244.296	33792
244.360	34596
244.424	20835
244.488	14979
244.552	12991
244.615	9900
244.679	10493
244.743	16941
244.807	19115
244.871	12210
244.935	11074
244.999	9107
245.063	11206
245.127	13840
245.191	23739
245.255	25381
245.319	18935
245.383	20038
245.446	14122
245.510	11328
245.574	14650
245.638	14460
245.702	13631
245.766	35146
245.829	20825
245.893	15469
245.957	13230
246.021	14705
246.085	15447
246.149	19318
246.212	45072
246.276	72633
246.340	33466
246.404	23696
246.467	21543
246.531	37530
246.595	20625
246.659	19595
246.722	19684
246.786	28095
246.850	25628
246.913	34833
246.977	15817
247.041	15672
247.104	18692
247.168	16350
247.232	44060
247.295	92846
247.359	49909
247.423	22594
247.486	41407
247.550	26488
247.614	20882
247.677	30140
247.741	18865
247.804	14534
247.868	19723
247.932	39450
247.995	88756
248.059	35592
248.122	18211
248.186	22120
248.249	38730
248.313	137811
248.376	152879
248.440	97286
248.503	38426
248.567	30291
248.630	44801
248.694	63252
248.757	74084
248.821	151214
248.884	96916
248.948	79821
249.011	115473
249.075	171939
249.138	154862
249.202	62778
249.265	40046
249.328	42359
249.392	34747
249.455	28285
249.519	22130
249.582	29412
249.645	47303
249.709	36068
249.772	21658
249.835	21458
249.899	24006
249.962	19942
250.025	21388
250.089	53992
250.152	81398
250.215	41109
250.279	29811
250.342	28067
250.405	26418
250.468	23735
250.532	33522
250.595	50379
250.658	148340
250.721	251001
250.785	109254
250.848	56237
250.911	34742
250.974	30035
251.038	40419
251.101	90638
251.164	48551
251.227	49225
251.290	46009
251.354	60920
251.417	202293
251.480	222710
251.543	157587
251.606	350467
251.669	303510
251.732	133631
251.795	129132
251.859	126306
251.922	234704
251.985	159905
252.048	62482
252.111	48981
252.174	47098
252.237	82069
252.300	181014
252.363	179477
252.426	308197
252.489	156498
252.552	79163
252.615	53398
252.678	54334
252.741	127947
252.804	161193
252.867	309975
252.930	221134
252.993	123042
253.056	73117
253.119	55258
253.182	42566
253.245	74384
253.308	57790
253.371	55111
253.434	49785
253.497	44937
253.559	82956
253.622	63475
253.685	79574
253.748	91671
253.811	41951
253.874	46788
253.937	45741
254.000	35491
254.062	57927
254.125	92740
254.188	73136
254.251	71667
254.314	35734
254.376	65145
254.439	75659
254.502	66684
254.565	62387
254.628	111397
254.690	74767
254.753	42861
254.816	35176
254.878	36131
254.941	61648
255.004	69150
255.067	30714
255.129	36013
255.192	20015
255.255	18504
255.317	23147
255.380	16256
255.443	12996
255.505	13315
255.568	14150
255.631	13660
255.693	16023
255.756	12867
255.819	12425
255.881	11700
255.944	10645
256.006	11310
256.069	11242
256.132	11182
256.194	17530
256.257	43274
256.319	31868
256.382	31958
256.444	17166
256.507	14869
256.569	12264
256.632	12564
256.694	22667
256.757	41543
256.819	121603
256.882	55950
256.944	27045
257.007	24086
257.069	29111
257.132	18341
257.194	14214
257.257	13153
257.319	13311
257.381	14413
257.444	31171
257.506	131363
257.569	156035
257.631	67240
257.693	53825
257.756	28210
257.818	26015
257.880	16985
257.943	15701
258.005	15074
258.067	13223
258.130	13941
258.192	20104
258.254	47783
258.317	26997
258.379	15779
258.441	41368
258.503	45814
258.566	46683
258.628	66880
258.690	19295
258.753	20237
258.815	44525
258.877	25532
258.939	14565
259.001	12743
259.064	12809
259.126	18577
259.188	26204
259.250	15998
259.312	15956
259.375	26069
259.437	25231
259.499	13034
259.561	12107
259.623	13304
259.685	13475
259.747	14695
259.809	42328
259.872	86737
259.934	118271
259.996	116216
260.058	34826
260.120	17586
260.182	14018
260.244	12159
260.306	11219
260.368	12326
260.430	11570
260.492	22178
260.554	29960
260.616	24137
260.678	67880
260.740	98275
260.802	29054
260.864	23892
260.926	20297
260.988	19075
261.050	17230
261.112	30552
261.174	76867
261.236	71552
261.298	26415
261.359	40500
261.421	61522
261.483	20651
261.545	17717
261.607	13131
261.669	13586
261.731	27514
261.793	71324
261.854	38527
261.916	21501
261.978	15063
262.040	17909
262.102	14881
262.164	27994
262.225	24984
262.287	14789
262.349	45155
262.411	35603
262.472	15385
262.534	25727
262.596	62086
262.658	20912
262.719	14271
262.781	19139
262.843	58250
262.904	28636
262.966	20189
263.028	24422
263.090	96303
263.151	260074
263.213	91677
263.275	51796
263.336	24743
263.398	17113
263.459	13746
263.521	14808
263.583	42447
263.644	31105
263.706	13509
263.767	10270
263.829	8904
263.891	8155
263.952	6715
264.014	7492
264.075	12014
264.137	27834
264.198	21218
264.260	8716
264.321	9812
264.383	26445
264.444	54367
264.506	15996
264.567	12639
264.629	17434
264.690	33295
264.752	19263
264.813	15062
264.875	10426
264.936	10550
264.998	7884
265.059	6903
265.120	8958
265.182	15913
265.243	54211
265.305	57603
265.366	17153
265.427	13057
265.489	10152
265.550	8822
265.611	13623
265.673	13786
265.734	8848
265.795	8319
265.857	7303
265.918	8998
265.979	18216
266.040	91943
266.102	82289
266.163	27514
266.224	26306
266.286	16401
266.347	11567
266.408	12945
266.469	13089
266.530	11213
266.592	9105
266.653	25445
266.714	50775
266.775	16016
266.836	10754
266.898	9921
266.959	16313
267.020	11280
267.081	9837
267.142	7784
267.203	8276
267.264	7032
267.326	11194
267.387	8602
267.448	7194
267.509	8552
267.570	9440
267.631	7990
267.692	7052
267.753	9027
267.814	9197
267.875	22138
267.936	57975
267.997	23688
268.058	20735
268.119	14791
268.180	14742
268.241	12818
268.302	10588
268.363	10340
268.424	13503
268.485	12443
268.546	9159
268.607	6835
268.668	7839
268.729	8808
268.790	9699
268.851	11710
268.912	33397
268.972	49044
269.033	25997
269.094	11599
269.155	8866
269.216	9124
269.277	11545
269.338	9387
269.398	9830
269.459	14648
269.520	20553
269.581	29805
269.642	36630
269.702	23450
269.763	15228
269.824	12743
269.885	17944
269.945	31040
270.006	13481
270.067	9097
270.128	8459
270.188	8635
270.249	9730
270.310	8267
270.370	9502
270.431	9730
270.492	7939
270.553	11033
270.613	29061
270.674	58905
270.734	27103
270.795	13903
270.856	21985
270.916	20091
270.977	11477
271.038	15725
271.098	17368
271.159	27561
271.219	29613
271.280	11620
271.340	9997
271.401	14793
271.462	36458
271.522	23050
271.583	14132
271.643	13596
271.704	13298
271.764	17756
271.825	40937
271.885	128481
271.946	181438
272.006	60544
272.066	74985
272.127	135548
272.187	42237
272.248	24350
272.308	25341
272.369	85932
272.429	54394
272.489	41248
272.550	42393
272.610	42010
272.671	36523
272.731	26882
272.791	48565
272.852	31031
272.912	25378
272.972	13768
273.033	12363
273.093	23714
273.153	22828
273.214	13767
273.274	15815
273.334	52785
273.394	128243
273.455	57774
273.515	47790
273.575	115803
273.635	47992
273.696	57271
273.756	123899
273.816	51209
273.876	26920
273.936	51244
273.997	93528
274.057	27763
274.117	22310
274.177	35416
274.237	149557
274.297	136789
274.358	91921
274.418	106278
274.478	85465
274.538	35002
274.598	27444
274.658	77497
274.718	107707
274.778	45225
274.838	25116
274.898	46022
274.958	143055
275.018	128237
275.078	86983
275.138	39437
275.198	21700
275.258	16243
275.318	21988
275.378	43055
275.438	48587
275.498	31448
275.558	60263
275.618	134037
275.678	98986
275.738	58467
275.798	43819
275.858	21571
275.918	12563
275.978	19418
276.038	19298
276.098	13781
276.157	31542
276.217	100133
276.277	47949
276.337	34807
276.397	19480
276.457	23300
276.517	15966
276.576	10868
276.636	12424
276.696	25589
276.756	56269
276.815	44378
276.875	19767
276.935	24334
276.995	22183
277.055	12642
277.114	11673
277.174	21055
277.234	77813
277.293	36579
277.353	20096
277.413	12640
277.472	15485
277.532	15579
277.592	14465
277.651	29327
277.711	53712
277.771	23481
277.830	85126
277.890	70912
277.950	41257
278.009	112133
278.069	45704
278.128	37790
278.188	56425
278.248	29267
278.307	52036
278.367	37295
278.426	17016
278.486	12172
278.545	9792
278.605	9264
278.664	8842
278.724	13181
278.783	39735
278.843	118261
278.902	34984
278.962	20514
279.021	20882
279.081	15380
279.140	16098
279.199	19180
279.259	15303
279.318	13915
279.378	15941
279.437	25001
279.496	81845
279.556	247821
279.615	217973
279.675	54564
279.734	34886
279.793	54910
279.853	61156
279.912	25450
279.971	16089
280.031	13845
280.090	21370
280.149	35073
280.208	35366
280.268	167779
280.327	194868
280.386	48902
280.445	51439
280.505	57494
280.564	22660
280.623	19513
280.682	34868
280.742	64112
280.801	19999
280.860	14640
280.919	11433
280.978	10103
281.037	9878
281.097	8733
281.156	9853
281.215	10334
281.274	15864
281.333	73157
281.392	60771
281.451	14706
281.510	10806
281.569	9785
281.628	7976
281.688	8042
281.747	11111
281.806	10972
281.865	7937
281.924	8464
281.983	10405
282.042	6922
282.101	7029
282.160	7064
282.219	7048
282.278	10280
282.337	45921
282.396	33530
282.454	12237
282.513	17022
282.572	71912
282.631	45658
282.690	12994
282.749	10686
282.808	14620
282.867	13444
282.926	15737
282.985	7110
283.043	6631
283.102	8008
283.161	11288
283.220	28837
283.279	77538
283.338	23797
283.396	13028
283.455	12151
283.514	13803
283.573	26729
283.631	18176
283.690	10794
283.749	10826
283.808	28519
283.866	38295
283.925	12621
283.984	10549
284.043	16844
284.101	18645
284.160	10372
284.219	12658
284.277	11802
284.336	23520
284.395	93389
284.453	77731
284.512	21700
284.570	31953
284.629	24993
284.688	14936
284.746	14467
284.805	14939
284.863	19903
284.922	23030
284.981	22643
285.039	30210
285.098	54887
285.156	155086
285.215	469761
285.273	447721
285.332	174435
285.390	87051
285.449	54183
285.507	36281
285.566	27187
285.624	21077
285.683	16283
285.741	13604
285.799	13566
285.858	14031
285.916	14820
285.975	10633
286.033	8234
286.091	8127
286.150	7183
286.208	8052
286.267	11364
286.325	14126
286.383	27145
286.442	21750
286.500	8739
286.558	7975
286.616	8119
286.675	14977
286.733	13582
286.791	13431
286.850	15192
286.908	20775
286.966	40940
287.024	15930
287.083	10167
287.141	8547
287.199	9860
287.257	19570
287.315	14119
287.374	15072
287.432	41050
287.490	28273
287.548	17005
287.606	12218
287.664	10943
287.723	17461
287.781	24283
287.839	15891
287.897	18105
287.955	22429
288.013	35247
288.071	83527
288.129	274499
288.187	673246
288.245	362949
288.303	124057
288.361	70030
288.419	50714
288.477	34496
288.535	25566
288.593	19420
288.651	15143
288.709	12112
288.767	12181
288.825	11687
288.883	9449
288.941	9390
288.999	9371
289.057	8383
289.115	8169
289.173	9176
289.231	10459
289.289	11210
289.346	9487
289.404	12452
289.462	24722
289.520	26038
289.578	12701
289.636	7300
289.694	5868
289.751	6809
289.809	6015
289.867	8176
289.925	11514
289.983	15466
290.040	7254
290.098	5766
290.156	11426
290.214	15075
290.271	7977
290.329	6038
290.387	5206
290.444	6041
290.502	4519
290.560	5445
290.617	6118
290.675	8007
290.733	6967
290.790	9485
290.848	5710
290.906	10098
290.963	8499
291.021	8424
291.078	7578
291.136	9862
291.194	28870
291.251	70901
291.309	21265
291.366	8686
291.424	7763
291.481	8157
291.539	7056
291.596	6326
291.654	4950
291.711	5006
291.769	9492
291.826	28043
291.884	17110
291.941	8828
291.999	8695
292.056	11513
292.114	13384
292.171	7437
292.228	8243
292.286	13356
292.343	28111
292.401	34293
292.458	19701
292.515	12937
292.573	15928
292.630	15738
292.687	14727
292.745	11300
292.802	13933
292.859	30879
292.917	79896
292.974	52088
293.031	16639
293.089	11219
293.146	9181
293.203	8292
293.260	6613
293.318	6185
293.375	8951
293.432	6266
293.489	6027
293.546	7612
293.604	14277
293.661	41044
293.718	117880
293.775	57502
293.832	28180
293.889	17825
293.947	13777
294.004	11536
294.061	15082
294.118	33082
294.175	63971
294.232	49979
294.289	21023
294.346	13259
294.403	13424
294.460	13087
294.517	11251
294.574	10456
294.631	9078
294.688	13125
294.745	32903
294.802	118625
294.859	111506
294.916	40837
294.973	23177
295.030	26383
295.087	24259
295.144	14813
295.201	12498
295.258	11156
295.315	16138
295.372	50121
295.429	105476
295.486	42441
295.542	21504
295.599	33894
295.656	59496
295.713	53044
295.770	93203
295.827	35074
295.883	17734
295.940	17838
295.997	31980
296.054	32445
296.111	15450
296.167	10476
296.224	7971
296.281	7733
296.338	7593
296.394	9026
296.451	13240
296.508	40631
296.564	80936
296.621	51529
296.678	100481
296.734	156067
296.791	53852
296.848	29196
296.904	33138
296.961	75610
297.018	112426
297.074	82780
297.131	30787
297.187	23109
297.244	35819
297.301	100557
297.357	191827
297.414	65622
297.470	26317
297.527	18699
297.583	15454
297.640	16599
297.696	12704
297.753	9262
297.809	7649
297.866	7507
297.922	7741
297.979	8439
298.035	11938
298.092	22037
298.148	64352
298.204	65342
298.261	30565
298.317	43804
298.374	123874
298.430	79879
298.486	36004
298.543	28058
298.599	23327
298.656	28329
298.712	47059
298.768	116746
298.824	85635
298.881	28620
298.937	16732
298.993	14644
299.050	20491
299.106	17239
299.162	13014
299.218	15872
299.275	11872
299.331	15288
299.387	29542
299.443	106744
299.500	114389
299.556	38406
299.612	19887
299.668	19850
299.724	17499
299.780	16622
299.837	15131
299.893	27553
299.949	90706
300.005	111691
300.061	84943
300.117	144191
300.173	74191
300.229	35285
300.285	46802
300.341	55005
300.397	27609
300.453	15971
300.510	12938
300.566	15070
300.622	15633
300.678	32870
300.734	83102
300.790	88884
300.845	113392
300.901	64691
300.957	90144
301.013	79571
301.069	29418
301.125	22084
301.181	25731
301.237	19380
301.293	12787
301.349	10767
301.405	11175
301.461	11346
301.516	15220
301.572	16558
301.628	33337
301.684	31067
301.740	41576
301.796	74327
301.851	47779
301.907	80252
301.963	82525
302.019	116247
302.074	310239
302.130	313291
302.186	138763
302.242	57107
302.297	38466
302.353	38004
302.409	70531
302.464	65072
302.520	48630
302.576	116406
302.631	137144
302.687	78771
302.743	31708
302.798	17781
302.854	15970
302.910	15263
302.965	20177
303.021	38838
303.076	38947
303.132	48800
303.187	61941
303.243	29832
303.299	14574
303.354	11478
303.410	10247
303.465	9484
303.521	9104
303.576	11673
303.632	15469
303.687	29986
303.743	94829
303.798	85147
303.853	31733
303.909	17519
303.964	16493
304.020	27175
304.075	45514
304.130	39205
304.186	73441
304.241	74534
304.297	56257
304.352	27663
304.358	26466
304.407	16750
304.449	14443
304.463	13683
304.518	14879
304.539	14467
304.573	13778
304.629	15033
304.630	15240
304.684	26098
304.720	54517
304.739	68550
304.794	114604
304.811	97083
304.850	54195
304.902	24219
304.905	22369
304.960	15546
304.992	14864
305.015	14506
305.071	15801
305.083	15412
305.126	13690
305.173	9708
305.181	9111
305.236	7585
305.264	8969
305.292	10497
305.347	14779
305.354	14758
305.402	14218
305.445	14302
305.457	14504
305.512	19999
305.535	21891
305.567	23915
305.622	22109
305.626	22751
305.678	43420
305.716	86249
305.733	100223
305.788	124166
305.807	106596
305.843	77698
305.897	98793
305.898	98924
305.953	102973
305.988	66549
306.008	47482
306.063	28005
306.078	25170
306.118	19834
306.168	13365
306.173	12846
306.228	10544
306.259	9230
306.283	8337
306.338	8666
306.349	8758
306.393	9482
306.440	10860
306.448	11038
306.503	11180
306.530	12123
306.558	17128
306.613	37013
306.620	40649
306.668	71976
306.711	109508
306.723	112365
306.778	90348
306.801	67753
306.833	42679
306.888	20623
306.892	19630
306.943	14123
306.982	11561
306.997	10929
307.052	9090
307.072	9091
307.107	10447
307.162	13935
307.163	13983
307.217	21089
307.253	25416
307.272	25793
307.327	27774
307.343	26204
307.381	23100
307.434	22159
307.436	23236
307.491	52890
307.524	80877
307.546	87555
307.600	96787
307.614	87712
307.655	51184
307.704	21682
307.710	20846
307.765	24176
307.795	29136
307.819	34640
307.874	52841
307.885	53185
307.929	39888
307.975	25756
307.984	25720
308.038	34467
308.065	42162
308.093	77262
308.148	165062
308.156	185049
308.202	295756
308.246	376556
308.257	368029
308.312	201067
308.336	146070
308.366	118183
308.421	85759
308.426	81605
308.475	47159
308.517	27599
308.530	25128
308.585	20498
308.607	19170
308.639	19548
308.694	21493
308.697	21756
308.748	44297
308.787	66564
308.803	64993
308.857	47652
308.877	39043
308.912	31774
308.967	27036
308.967	26982
309.021	37799
309.058	47316
309.076	63526
309.130	122794
309.148	146525
309.185	270088
309.238	466706
309.239	468031
309.293	511555
309.328	465385
309.348	393456
309.402	171514
309.418	117918
309.457	80444
309.508	47731
309.511	46989
309.566	40996
309.598	38632
309.620	43271
309.674	57420
309.688	61588
309.729	59398
309.778	51461
309.783	50844
309.837	44160
309.868	41843
309.892	67152
309.946	132209
309.959	150521
310.001	203732
310.049	252065
310.055	242904
310.109	136205
310.139	77179
310.163	59910
310.218	32345
310.229	27469
310.272	21143
310.319	15680
310.326	15271
310.381	12452
310.409	11270
310.435	10810
310.489	9887
310.499	9826
310.543	10200
310.589	10624
310.598	10648
310.652	10750
310.679	10574
310.706	9244
310.760	6938
310.769	6548
310.814	6281
310.859	6199
310.868	6353
310.923	7239
310.948	7718
310.977	9931
311.031	14234
311.038	14818
311.085	13655
311.128	11945
311.139	11845
311.193	11647
311.218	11469
311.247	10184
311.301	7616
311.308	7315
311.356	7785
311.398	8201
311.410	8052
311.464	7312
311.488	6862
311.518	7604
311.572	9273
311.578	9461
311.626	18220
311.668	25944
311.680	24615
311.734	17778
311.758	14775
311.788	14478
311.842	14032
311.847	13962
311.896	19110
311.937	23597
311.950	23537
312.004	22995
312.027	22662
312.058	19294
312.112	13234
312.117	12607
312.165	11009
312.207	9616
312.297	12672
312.386	10543
312.476	16062
312.566	47009
312.656	20143
312.745	7081
312.835	8284
312.925	11997
313.015	10640
313.104	10294
313.194	14535
313.284	24583
313.374	22167
313.463	18521
313.553	9523
313.643	8116
313.732	7174
313.822	5465
313.912	8269
314.001	14197
314.091	11569
314.180	15942
314.270	20376
314.360	24199
314.449	22046
314.539	9581
314.628	6622
314.718	9975
314.808	14123
314.897	7308
314.987	10171
315.076	18650
315.166	26198
315.255	18223
315.345	21129
315.434	19394
315.524	16108
315.613	22385
315.703	34889
315.792	36620
315.881	50605
315.971	26131
316.060	45818
316.150	52469
316.239	52775
316.328	18000
316.418	10046
316.507	12973
316.597	20903
316.686	18453
316.775	23272
316.865	51728
316.954	14142
317.043	17887
317.133	13402
317.222	10188
317.311	9459
317.400	11214
317.490	21847
317.579	29116
317.668	14535
317.757	25276
317.847	40076
317.936	93518
318.025	84136
318.114	36430
318.203	28178
318.293	33492
318.382	60393
318.471	51702
318.560	55431
318.649	87339
318.738	24023
318.828	27193
318.917	31419
319.006	26637
319.095	64274
319.184	134372
319.273	115562
319.362	87328
319.451	31919
319.540	24301
319.629	66319
319.718	117059
319.807	35834
319.896	56605
319.985	177946
320.074	90126
320.163	20046
320.252	33758
320.341	21743
320.430	20552
320.519	52439
320.608	27410
320.697	16735
320.786	18660
320.875	35190
320.964	48850
321.053	81973
321.142	120443
321.230	122099
321.319	72388
321.408	192501
321.497	66319
321.586	73665
321.675	63302
321.764	65637
321.852	40922
321.941	113171
322.030	73244
322.119	65891
322.207	204964
322.296	89213
322.385	43126
322.474	63705
322.562	247239
322.651	108861
322.740	79663
322.829	96046
322.917	82197
323.006	62145
323.095	53867
323.183	30061
323.272	52893
323.361	87008
323.449	218804
323.538	70635
323.626	147529
323.715	85008
323.804	37353
323.892	146883
323.981	99677
324.069	24435
324.158	65645
324.246	65097
324.335	35809
324.424	73083
324.512	24614
324.601	41025
324.689	103156
324.778	209141
324.866	69794
324.954	18512
325.043	20993
325.131	40030
325.220	54718
325.308	63739
325.397	55429
325.485	35250
325.574	9323
325.662	10816
325.750	18678
325.839	9090
325.927	9345
326.015	16820
326.104	22730
326.192	34354
326.280	11518
326.369	12682
326.457	26499
326.545	57682
326.634	21067
326.722	7451
326.810	11665
326.898	11298
326.987	13088
327.075	50422
327.163	45724
327.251	22968
327.340	65409
327.428	109332
327.516	14834
327.604	12613
327.692	12316
327.781	12817
327.869	24467
327.957	17938
328.045	24920
328.133	9781
328.221	13646
328.309	14476
328.397	11685
328.485	20748
328.574	32287
328.662	129324
328.750	58997
328.838	16347
328.926	10619
329.014	9399
329.102	21402
329.190	46706
329.278	37629
329.366	8552
329.454	5940
329.542	6170
329.630	5730
329.718	7657
329.806	16480
329.893	9282
329.981	7593
330.069	9800
330.157	27568
330.245	77572
330.333	39010
330.421	15762
330.509	35457
330.597	162567
330.684	96425
330.772	22962
330.860	20385
330.948	23026
331.036	14079
331.123	5469
331.211	6568
331.299	9360
331.387	20914
331.475	46515
331.562	15434
331.650	8205
331.738	11304
331.825	13908
331.913	7928
332.001	7720
332.089	11538
332.176	25157
332.264	65756
332.352	55278
332.439	19013
332.527	12275
332.614	9203
332.702	13261
332.790	11272
332.877	34689
332.965	59783
333.052	14330
333.140	14658
333.228	29657
333.315	9521
333.403	11719
333.490	35724
333.578	32193
333.665	28167
333.753	18780
333.840	10657
333.928	14016
334.015	41870
334.103	54389
334.190	166028
334.278	39478
334.365	15638
334.452	11221
334.540	7985
334.627	12656
334.715	21241
334.802	44036
334.889	222552
334.977	214710
335.064	23473
335.151	12720
335.239	11463
335.326	15899
335.413	67637
335.501	98936
335.588	17812
335.675	10780
335.762	10664
335.850	18579
335.937	16538
336.024	45046
336.111	214642
336.199	76688
336.286	13345
336.373	8419
336.460	5827
336.547	7590
336.635	13484
336.722	14299
336.809	10248
336.896	22993
336.983	60971
337.070	121616
337.157	160841
337.245	144418
337.332	103585
337.419	14571
337.506	7561
337.593	10783
337.680	29418
337.767	85631
337.854	36908
337.941	40352
338.028	64933
338.115	21456
338.202	19121
338.289	42145
338.376	163495
338.463	49969
338.550	51719
338.637	55032
338.724	29424
338.811	47049
338.898	10670
338.984	8190
339.071	10574
339.158	19949
339.245	69941
339.332	40670
339.419	36427
339.506	34428
339.593	7457
339.679	11672
339.766	11035
339.853	18100
339.940	55510
340.027	14752
340.113	15315
340.200	26678
340.287	16607
340.374	25414
340.460	50136
340.547	20905
340.634	39765
340.720	150638
340.807	83654
340.894	13632
340.980	14103
341.067	13135
341.154	16543
341.240	31974
341.327	78324
341.414	24267
341.500	31101
341.587	14925
341.674	13713
341.760	49295
341.847	62724
341.933	16631
342.020	5987
342.106	6634
342.193	18095
342.279	41005
342.366	29588
342.452	54504
342.539	28691
342.625	67430
342.712	169071
342.798	67351
342.885	25923
342.971	7029
343.058	6031
343.144	9399
343.230	11023
343.317	13354
343.403	11373
343.490	6143
343.576	7870
343.662	11820
343.749	17349
343.835	20480
343.921	43010
344.008	235998
344.094	543962
344.180	116724
344.267	51058
344.353	160077
344.439	159508
344.525	76922
344.612	31563
344.698	27176
344.784	17509
344.870	11212
344.957	13862
345.043	27962
345.129	20764
345.215	47813
345.301	26724
345.387	16238
345.474	6458
345.560	8541
345.646	10386
345.732	10928
345.818	20150
345.904	16687
345.990	18234
346.076	14712
346.162	31436
346.249	14183
346.335	9720
346.421	14892
346.507	63080
346.593	229308
346.679	51249
346.765	11401
346.851	13660
346.937	14771
347.023	10046
347.108	16747
347.194	14294
347.280	13522
347.366	19519
347.452	61297
347.538	271564
347.624	194162
347.710	154349
347.796	22341
347.882	10496
347.967	7620
348.053	9707
348.139	9093
348.225	9708
348.311	10250
348.397	9165
348.482	17168
348.568	20371
348.654	7729
348.740	7558
348.825	9154
348.911	29327
348.997	122821
349.083	238765
349.168	36156
349.254	18012
349.340	17035
349.425	9440
349.511	19563
349.597	20194
349.682	53131
349.768	169114
349.854	73137
349.939	10820
350.025	8449
350.110	9168
350.196	9217
350.282	8126
350.367	6012
350.453	16719
350.538	18798
350.624	20110
350.709	16429
350.795	9648
350.880	12889
350.966	14663
351.051	22081
351.137	14025
351.222	15702
351.308	53332
351.393	150501
351.479	41035
351.564	15093
351.649	12583
351.735	7937
351.820	7975
351.906	10715
351.991	18401
352.076	94433
352.162	140647
352.247	28824
352.332	21048
352.418	49780
352.503	58568
352.588	223614
352.673	188712
352.759	43025
352.844	20916
352.929	23273
353.014	35212
353.100	15107
353.185	15605
353.270	56294
353.355	61643
353.441	14465
353.526	16490
353.611	54920
353.696	68076
353.781	35398
353.866	15792
353.952	16952
354.037	55904
354.122	135717
354.207	119897
354.292	40123
354.377	14430
354.462	11702
354.547	24314
354.632	16587
354.717	12282
354.802	10717
354.887	7443
354.972	7737
355.057	6882
355.142	7680
355.227	16190
355.312	34506
355.397	86214
355.482	213171
355.567	96541
355.652	65160
355.737	69954
355.822	188802
355.907	148874
355.991	22913
356.076	13453
356.161	9675
356.246	9349
356.331	13985
356.416	41955
356.501	280009
356.585	289184
356.670	45599
356.755	26772
356.840	41327
356.924	182765
357.009	702599
357.094	264471
357.179	67624
357.263	38136
357.348	38157
357.433	40075
357.517	37544
357.602	27109
357.687	18643
357.771	23908
357.856	81573
357.941	56617
358.025	145055
358.110	626858
358.195	290508
358.279	51720
358.364	40136
358.448	149893
358.533	380918
358.617	270727
358.702	257871
358.787	95270
358.871	58637
358.956	47012
359.040	13385
359.125	9617
359.209	12370
359.294	37531
359.378	64996
359.462	45962
359.547	22914
359.631	13068
359.716	10466
359.800	10858
359.885	18249
359.969	17579
360.053	9763
360.138	10501
360.222	28502
360.306	60829
360.391	41384
360.475	66499
360.559	151710
360.644	153910
360.728	104136
360.812	149641
360.896	418099
360.981	179804
361.065	95360
361.149	25208
361.233	27243
361.318	19026
361.402	20659
361.486	20624
361.570	16260
361.654	26734
361.739	74843
361.823	288827
361.907	412967
361.991	75486
362.075	47641
362.159	121352
362.243	72417
362.327	44249
362.411	33209
362.495	28110
362.580	16185
362.664	8749
362.748	8309
362.832	10638
362.916	13877
363.000	50129
363.084	245511
363.168	464626
363.252	112033
363.336	38411
363.420	50652
363.503	111549
363.587	118807
363.671	33797
363.755	30897
363.839	49177
363.923	19848
364.007	55097
364.091	54765
364.175	38500
364.258	149385
364.342	88553
364.426	56564
364.510	39080
364.594	42187
364.677	69071
364.761	364298
364.845	244258
364.929	99651
365.013	83891
365.096	65468
365.180	78972
365.264	46536
365.347	157554
365.431	64528
365.515	25313
365.598	20438
365.682	14060
365.766	17523
365.849	19560
365.933	21480
366.017	19398
366.100	10518
366.184	5822
366.267	10738
366.351	10733
366.435	10754
366.518	7851
366.602	8298
366.685	12491
366.769	16878
366.852	22871
366.936	53712
367.019	36665
367.103	14847
367.186	20000
367.270	9274
367.353	7821
367.436	10590
367.520	8900
367.603	19010
367.687	36250
367.770	73056
367.853	35537
367.937	112928
368.020	188394
368.104	47910
368.187	51819
368.270	71680
368.353	56433
368.437	66101
368.520	114385
368.603	90189
368.687	138703
368.770	252345
368.853	59453
368.936	56982
369.020	42090
369.103	20585
369.186	11168
369.269	14130
369.352	45840
369.436	64301
369.519	36588
369.602	15204
369.685	16913
369.768	23574
369.851	14798
369.934	10257
370.018	19263
370.101	62788
370.184	38525
370.267	20176
370.350	40865
370.433	68092
370.516	186820
370.599	210622
370.682	68820
370.765	144053
370.848	164015
370.931	299304
371.014	91156
371.097	20834
371.180	16121
371.263	7531
371.346	4704
371.429	6740
371.511	9208
371.594	32162
371.677	42696
371.760	29386
371.843	39331
371.926	209408
372.009	489392
372.091	142979
372.174	110157
372.257	264601
372.340	92354
372.423	56711
372.505	48616
372.588	25477
372.671	93385
372.754	309534
372.836	135131
372.919	49085
373.002	87903
373.085	42817
373.167	45912
373.250	135085
373.332	278253
373.415	333386
373.498	692706
373.580	238644
373.663	288963
373.746	401278
373.828	100198
373.911	40696
373.993	38393
374.076	89819
374.159	81317
374.241	72192
374.324	263189
374.406	163533
374.489	199902
374.571	581180
374.654	231564
374.736	109898
374.819	352541
374.901	490136
374.983	492451
375.066	81654
375.148	23872
375.231	70334
375.313	138495
375.395	60911
375.478	17195
375.560	13334
375.643	25444
375.725	101037
375.807	438355
375.890	301171
375.972	113265
376.054	68675
376.136	87638
376.219	43122
376.301	124156
376.383	389319
376.465	139811
376.548	115624
376.630	118193
376.712	335284
376.794	143705
376.877	17939
376.959	11240
377.041	14507
377.123	17343
377.205	18613
377.287	6229
377.369	7745
377.452	10355
377.534	9818
377.616	11327
377.698	12099
377.780	9604
377.862	13756
377.944	13039
378.026	6933
378.108	8397
378.190	8491
378.272	7581
378.354	5948
378.436	5292
378.518	16817
378.600	60367
378.682	64888
378.764	183046
378.846	132358
378.928	34290
379.010	55281
379.091	26814
379.173	12464
379.255	13200
379.337	23451
379.419	87236
379.501	251166
379.583	89234
379.664	24329
379.746	78434
379.828	199937
379.910	248287
379.991	199702
380.073	31930
380.155	21517
380.237	15871
380.318	9308
380.400	12437
380.482	43018
380.564	69685
380.645	53401
380.727	49062
380.809	28347
380.890	18606
380.972	11578
381.053	12149
381.135	16745
381.217	59616
381.298	185198
381.380	84193
381.461	66177
381.543	329602
381.624	391191
381.706	65046
381.787	27960
381.869	31783
381.951	128412
382.032	523821
382.113	320470
382.195	67042
382.276	32065
382.358	85669
382.439	297434
382.521	305366
382.602	473312
382.684	194815
382.765	388468
382.846	288844
382.928	212337
383.009	109834
383.090	81367
383.172	300020
383.253	452543
383.334	215522
383.416	394714
383.497	180269
383.578	51632
383.659	82956
383.741	268010
383.822	706221
383.903	364957
383.984	243418
384.066	535042
384.147	323517
384.228	53038
384.309	46373
384.390	28905
384.471	16553
384.553	24384
384.634	41938
384.715	45384
384.796	16578
384.877	25837
384.958	153791
385.039	191297
385.120	62953
385.201	22500
385.282	26854
385.363	19984
385.444	19290
385.525	47407
385.606	219425
385.687	183245
385.768	33650
385.849	46863
385.930	235064
386.011	398218
386.092	97605
386.173	21228
386.254	12813
386.335	18701
386.416	35627
386.496	104559
386.577	168778
386.658	48455
386.739	30631
386.820	19533
386.901	14452
386.981	16153
387.062	12063
387.143	37291
387.224	172942
387.304	145939
387.385	45539
387.466	21569
387.547	20709
387.627	17710
387.708	54301
387.789	296378
387.869	360888
387.950	83956
388.031	13311
388.111	9184
388.192	22931
388.273	35158
388.353	27831
388.434	21550
388.514	53216
388.595	262277
388.676	346419
388.756	163260
388.837	171772
388.917	100853
388.998	15819
389.078	14102
389.159	16420
389.239	16053
389.320	30658
389.400	28773
389.480	56060
389.561	176499
389.641	78310
389.722	28957
389.802	54489
389.883	70408
389.963	205879
390.043	113905
390.124	27681
390.204	55905
390.284	208208
390.365	123610
390.445	96093
390.525	362668
390.605	345995
390.686	102476
390.766	27879
390.846	14362
390.927	10979
391.007	12700
391.087	11984
391.167	9009
391.247	6521
391.328	18343
391.408	23595
391.488	13909
391.568	7106
391.648	21834
391.728	33942
391.808	31634
391.888	39265
391.969	91126
392.049	152647
392.129	46659
392.209	62702
392.289	192958
392.369	83317
392.449	35567
392.529	29141
392.609	32885
392.689	44631
392.769	187345
392.849	146130
392.929	70486
393.009	218545
393.089	151485
393.169	62390
393.248	195160
393.328	849879
393.408	873683
393.488	193805
393.568	57228
393.648	30259
393.728	20426
393.807	14281
393.887	13128
393.967	12192
394.047	18433
394.127	25230
394.206	36529
394.286	120941
394.366	590092
394.446	615578
394.525	122014
394.605	29167
394.685	26223
394.764	54566
394.844	92739
394.924	63630
395.003	30493
395.083	23622
395.163	20561
395.242	18921
395.322	19683
395.402	10086
395.481	14507
395.561	40843
395.640	123493
395.720	90724
395.799	100680
395.879	75962
395.958	42907
396.038	166418
396.117	766404
396.197	810359
396.276	196633
396.356	60329
396.435	41345
396.515	31230
396.594	48936
396.673	79227
396.753	240463
396.832	809305
396.912	668019
396.991	190848
397.070	44255
397.150	26181
397.229	14896
397.308	13008
397.388	18239
397.467	11505
397.546	7823
397.625	10115
397.705	19969
397.784	25790
397.863	10410
397.942	5044
398.022	5985
398.101	27343
398.180	84564
398.259	39493
398.338	15607
398.417	16312
398.497	9069
398.576	10567
398.655	7010
398.734	4489
398.813	4862
398.892	26036
398.971	92316
399.050	44409
399.129	5962
399.208	3495
399.287	4919
399.366	3862
399.445	4338
399.524	6125
399.603	8051
399.682	24269
399.761	58937
399.840	115689
399.919	76636
399.998	10624
400.077	5250
400.156	5566
400.235	7910
400.313	5294
400.392	13106
400.471	93624
400.550	155045
400.629	37314
400.708	14511
400.786	8661
400.865	18308
400.944	26397
401.023	17420
401.102	4260
401.180	3855
401.259	3822
401.338	7773
401.416	16619
401.495	14538
401.574	7040
401.652	7725
401.731	12449
401.810	6457
401.888	3514
401.967	1568
402.046	3406
402.124	10840
402.203	21018
402.281	7453
402.360	5630
402.438	23603
402.517	18442
402.596	6468
402.674	5144
402.753	3851
402.831	3142
402.910	5442
402.988	15048
403.066	33315
403.145	17476
403.223	14440
403.302	20433
403.380	12844
403.459	11197
403.537	5459
403.615	4005
403.694	867
403.772	3199
403.850	2746
403.929	2760
404.007	4713
404.085	7960
404.164	5117
404.242	3813
404.320	10536
404.398	30749
404.477	84633
404.555	397450
404.633	327780
404.711	48277
404.789	11557
404.868	5004
404.946	3536
405.024	3216
405.102	3366
405.180	3747
405.258	3970
405.336	5103
405.415	5036
405.493	11780
405.571	7651
405.649	2751
405.727	3914
405.805	8712
405.883	7639
405.961	7278
406.039	9004
406.117	5224
406.195	18674
406.273	96406
406.351	353241
406.429	185318
406.507	22451
406.585	8316
406.663	13761
406.740	21629
406.818	17958
406.896	8061
406.974	9040
407.052	29743
407.130	210551
407.208	285912
407.285	49702
407.363	10091
407.441	10304
407.519	7707
407.596	12112
407.674	25934
407.752	42940
407.830	40311
407.907	14306
407.985	8648
408.063	5679
408.141	2320
408.218	6679
408.296	4183
408.373	5739
408.451	13718
408.529	15160
408.606	5556
408.684	2309
408.762	1741
408.839	1844
408.917	1860
408.994	2031
409.072	2244
409.149	2024
409.227	5591
409.304	5849
409.382	3182
409.459	3627
409.537	6469
409.614	8618
409.692	4418
409.769	5370
409.846	8446
409.924	8567
410.001	6530
410.079	6445
410.156	5913
410.233	4611
410.311	5775
410.388	4011
410.465	5629
410.543	5198
410.620	3501
410.697	9164
410.775	13974
410.852	3210
410.929	9408
411.006	13825
411.083	5018
411.161	13880
411.238	13536
411.315	6760
411.392	3943
411.469	9337
411.547	9154
411.624	2877
411.701	3982
411.778	11775
411.855	37102
411.932	17259
412.009	6078
412.086	5628
412.163	7132
412.240	8167
412.317	8788
412.394	6869
412.471	1700
412.548	4079
412.625	6384
412.702	8121
412.779	16356
412.856	7396
412.933	2381
413.010	3956
413.087	13537
413.164	88271
413.241	123916
413.318	29636
413.395	15493
413.471	28077
413.548	10861
413.625	5417
413.702	10687
413.779	5804
413.855	1773
413.932	1335
414.009	1020
414.086	2907
414.162	4235
414.239	12239
414.316	84943
414.393	196523
414.469	63231
414.546	6560
414.623	2928
414.699	4642
414.776	9309
414.853	3950
414.929	5940
415.006	5391
415.082	4972
415.159	4731
415.236	4733
415.312	7500
415.389	24382
415.465	35225
415.542	14138
415.618	9882
415.695	20752
415.771	13182
415.848	10324
415.924	7891
416.000	4044
416.077	3608
416.153	902
416.230	761
416.306	817
416.383	2293
416.459	1331
416.535	1480
416.612	736
416.688	934
416.764	1880
416.841	1773
416.917	2596
416.993	2698
417.069	7801
417.146	10656
417.222	14194
417.298	9702
417.374	4653
417.451	6130
417.527	13850
417.603	15831
417.679	10038
417.755	6524
417.831	2693
417.908	2427
417.984	2555
418.060	3707
418.136	26868
418.212	38669
418.288	10673
418.364	4281
418.440	6728
418.516	14055
418.592	11916
418.668	38816
418.744	70014
418.820	47972
418.896	9882
418.972	2715
419.048	6263
419.124	29508
419.200	22828
419.276	3180
419.352	1060
419.428	2218
419.504	7910
419.579	13455
419.655	8683
419.731	9210
419.807	45481
419.883	85114
419.959	54002
420.034	11753
420.110	26101
420.186	121562
420.262	85995
420.337	13978
420.413	11779
420.489	4184
420.565	2750
420.640	2861
420.716	5689
420.792	2248
420.867	4117
420.943	4143
421.019	17220
421.094	12860
421.170	2210
421.245	747
421.321	3031
421.397	3506
421.472	7194
421.548	20471
421.623	18438
421.699	7578
421.774	9597
421.850	6850
421.925	21222
422.001	14583
422.076	4931
422.152	6395
422.227	19256
422.302	13028
422.378	13531
422.453	25104
422.529	53526
422.604	201186
422.679	401684
422.755	222825
422.830	55605
422.905	15867
422.981	8377
423.056	4908
423.131	4339
423.207	4494
423.282	12380
423.357	37592
423.432	20286
423.508	16508
423.583	63148
423.658	43694
423.733	8369
423.808	12243
423.883	17809
423.959	12967
424.034	6568
424.109	3040
424.184	934
424.259	673
424.334	1714
424.409	601
424.484	4143
424.559	5783
424.634	4000
424.709	10895
424.784	15966
424.859	7273
424.934	17406
425.009	90309
425.084	140880
425.159	43772
425.234	4968
425.309	1374
425.384	14889
425.459	25739
425.534	6917
425.609	2200
425.683	1733
425.758	1487
425.833	3087
425.908	8631
425.983	55664
426.058	157841
426.132	55962
426.207	6843
426.282	6823
426.357	5928
426.431	3065
426.506	2515
426.581	2389
426.655	2835
426.730	4083
426.805	3824
426.879	5131
426.954	5852
427.029	21093
427.103	131597
427.178	302135
427.253	112501
427.327	10718
427.402	10322
427.476	27773
427.551	11914
427.625	4331
427.700	3770
427.774	1817
427.849	3071
427.923	872
427.998	1184
428.072	1790
428.147	9060
428.221	45327
428.296	74808
428.370	26610
428.444	4829
428.519	7720
428.593	16069
428.667	11635
428.742	15790
428.816	13825
428.890	42626
428.965	63607
429.039	26457
429.113	18742
429.188	7220
429.262	3333
429.336	16911
429.410	62453
429.485	32318
429.559	13950
429.633	8461
429.707	3711
429.781	11550
429.855	60079
429.930	104204
430.004	60132
430.078	77114
430.152	59134
430.226	95963
430.300	83500
430.374	12126
430.448	6838
430.522	27021
430.596	77865
430.670	52342
430.744	174536
430.818	281245
430.892	58216
430.966	10615
431.040	3621
431.114	915
431.188	1395
431.262	1562
431.336	1177
431.410	8798
431.484	33808
431.557	25247
431.631	3004
431.705	2175
431.779	9248
431.853	45593
431.927	28912
432.000	2946
432.074	1271
432.148	3199
432.222	2853
432.295	1218
432.369	3237
432.443	12360
432.516	108436
432.590	276631
432.664	86912
432.737	9775
432.811	2668
432.885	1259
432.958	848
433.032	83
433.106	552
433.179	152
433.253	542
433.326	299
433.400	-1119
433.473	95
433.547	-1199
433.620	2796
433.694	13620
433.767	10047
433.841	2591
433.914	847
433.988	260
434.061	815
434.134	678
434.208	-710
434.281	-890
434.355	883
434.428	1209
434.501	599
434.575	-147
434.648	907
434.721	221
434.795	-330
434.868	-109
434.941	-543
435.014	-679
435.088	785
435.161	3484
435.234	9419
435.307	12271
435.381	2600
435.454	231
435.527	941
435.600	987
435.673	580
435.746	-487
435.819	96
435.892	971
435.966	-35
436.039	-511
436.112	679
436.185	-1124
436.258	-744
436.331	-1084
436.404	-741
436.477	-598
436.550	-482
436.623	547
436.696	-210
436.769	2839
436.842	1402
436.915	2228
436.987	7664
437.060	1690
437.133	-492
437.206	-649
437.279	597
437.352	588
437.425	899
437.498	2579
437.570	12828
437.643	11495
437.716	1342
437.789	133
437.861	5785
437.934	19235
438.007	7263
438.080	972
438.152	5392
438.225	18066
438.298	139802
438.370	363035
438.443	122691
438.516	21468
438.588	4461
438.661	1012
438.734	1816
438.806	4373
438.879	4857
438.951	5156
439.024	9682
439.096	2672
439.169	956
439.241	178
439.314	837
439.386	1765
439.459	6360
439.531	11165
439.604	3286
439.676	-357
439.749	-365
439.821	-347
439.893	-260
439.966	1245
440.038	3143
440.110	3940
440.183	2760
440.255	1285
440.327	7310
440.400	53560
440.472	240037
440.544	130988
440.617	12613
440.689	7249
440.761	11296
440.833	18114
440.905	9573
440.978	513
441.050	-452
441.122	378
441.194	189
441.266	125
441.338	1278
441.411	10301
441.483	82079
441.555	110128
441.627	15548
441.699	5002
441.771	3335
441.843	690
441.915	-892
441.987	-160
442.059	118
442.131	2206
442.203	4001
442.275	6978
442.347	3690
442.419	3055
442.491	15352
442.563	35287
442.635	16934
442.706	24095
442.778	20070
442.850	2413
442.922	320
442.994	1810
443.066	6416
443.137	3358
443.209	1193
443.281	3143
443.353	7977
443.425	23460
443.496	79226
443.568	62217
443.640	18492
443.711	4168
443.783	1347
443.855	306
443.926	-250
443.998	708
444.070	2758
444.141	2645
444.213	11007
444.285	15001
444.356	9593
444.428	5287
444.499	967
444.571	-496
444.642	-255
444.714	3104
444.785	11201
444.857	5713
444.928	11809
445.000	5561
445.071	7731
445.143	7154
445.214	3020
445.285	6272
445.357	22534
445.428	63226
445.500	137074
445.571	69703
445.642	27990
445.714	15679
445.785	18825
445.856	6163
445.928	14828
445.999	8092
446.070	4360
446.141	7099
446.213	8634
446.284	1555
446.355	2049
446.426	904
446.497	591
446.569	4370
446.640	14566
446.711	12847
446.782	1397
446.853	4649
446.924	6436
446.995	3998
447.066	796
447.138	3111
447.209	858
447.280	-1063
447.351	-1384
447.422	-695
447.493	631
447.564	6803
447.635	15355
447.706	3107
447.777	-96
447.847	-621
447.918	158
447.989	1830
448.060	3286
448.131	9025
448.202	11904
448.273	10922
448.344	1899
448.414	2177
448.485	1559
448.556	741
448.627	-591
448.698	569
448.768	-822
448.839	-27
448.910	2691
448.981	3607
449.051	1732
449.122	-377
449.193	-706
449.263	-68
449.334	-329
449.405	4618
449.475	18517
449.546	6362
449.616	4093
449.687	2197
449.758	202
449.828	-40
449.899	-824
449.969	-1023
450.040	-85
450.110	1278
450.181	1772
450.251	-876
450.322	-453
450.392	70
450.463	-278
450.533	-1293
450.604	89
450.674	-932
450.744	-559
450.815	-866
450.885	-466
450.955	-436
451.026	-589
451.096	-1237
451.166	225
451.237	3290
451.307	10410
451.377	1671
451.447	-177
451.518	111
451.588	-511
451.658	90
451.728	1935
451.799	12797
451.869	10817
451.939	466
452.009	-876
452.079	254
452.149	69
452.219	2178
452.289	14588
452.360	7705
452.430	418
452.500	3271
452.570	4439
452.640	2863
452.710	9617
452.780	14303
452.850	26791
452.920	27592
452.990	4863
453.060	2619
453.129	6702
453.199	5753
453.269	17932
453.339	32652
453.409	47417
453.479	56275
453.549	73817
453.619	74827
453.688	19939
453.758	2224
453.828	394
453.898	104
453.968	-10
454.037	-627
454.087	221
454.107	560
454.168	-180
454.177	-306
454.247	-509
454.249	-494
454.316	-443
454.330	-265
454.386	347
454.411	2524
454.456	5989
454.492	7179
454.525	8245
454.574	3240
454.595	1067
454.655	934
454.665	924
454.734	1668
454.736	1783
454.804	5255
454.817	6755
454.873	12412
454.898	12628
454.943	12748
454.979	9301
455.013	6274
455.060	2930
455.082	1635
455.141	2817
455.152	3026
455.221	10734
455.222	10947
455.291	26009
455.303	29556
455.360	41686
455.384	65265
455.430	105304
455.465	71571
455.499	39882
455.546	22366
455.569	14613
455.627	8956
455.638	7952
455.707	1120
455.708	1133
455.777	570
455.789	477
455.846	-77
455.869	79
455.916	519
455.950	410
455.985	166
456.031	373
456.054	430
456.112	766
456.124	891
456.193	360
456.193	344
456.262	348
456.274	555
456.332	1551
456.355	1936
456.401	2437
456.436	1979
456.470	1468
456.516	1072
456.540	933
456.597	251
456.609	98
456.678	569
456.678	559
456.747	19
456.759	-134
456.817	-615
456.840	-250
456.886	195
456.920	94
456.955	101
457.001	125
457.024	217
457.082	1183
457.093	1367
457.162	2240
457.163	2263
457.232	4148
457.243	3740
457.301	1557
457.324	970
457.370	103
457.405	378
457.439	635
457.485	132
457.508	-53
457.566	702
457.577	832
457.646	863
457.647	880
457.715	1746
457.727	2006
457.784	3589
457.808	4332
457.853	5367
457.889	6440
457.922	6295
457.969	4360
457.991	4545
458.050	6349
458.060	6563
458.129	9874
458.130	9971
458.198	9296
458.211	8200
458.267	3064
458.292	1806
458.336	1541
458.372	1675
458.405	2445
458.453	3940
458.474	5227
458.533	10636
458.543	11125
458.611	16543
458.614	16623
458.680	10054
458.694	7949
458.749	3197
458.775	2299
458.818	1666
458.855	1229
458.887	1074
458.936	965
458.955	900
459.016	774
459.024	766
459.093	1559
459.097	1590
459.162	2659
459.177	2975
459.230	3572
459.257	4091
459.299	4496
459.338	3865
459.368	3392
459.418	3256
459.437	3136
459.499	2368
459.505	2275
459.574	1717
459.579	1708
459.643	1798
459.659	1694
459.711	1527
459.740	1738
459.780	2434
459.820	2881
459.849	2594
459.900	1862
459.917	1852
459.981	2636
459.986	2635
460.054	2011
460.061	1924
460.123	2083
460.141	2454
460.191	4481
460.222	5665
460.260	6498
460.302	8326
460.328	7812
460.382	3787
460.397	3255
460.462	1920
460.465	1947
460.534	3616
460.543	3788
460.602	10129
460.623	12811
460.671	20361
460.703	27315
460.739	26628
460.783	22361
460.808	17986
460.864	4376
460.876	3545
460.944	2501
460.945	2492
461.013	2875
461.024	2933
461.081	3780
461.104	4580
461.150	4703
461.184	4314
461.218	3961
461.264	2687
461.286	2597
461.345	3410
461.355	3287
461.423	2023
461.425	1994
461.491	2070
461.505	2129
461.559	4321
461.585	5415
461.628	9018
461.665	12948
461.696	15107
461.745	20249
461.764	18587
461.825	6005
461.832	5585
461.901	4602
461.905	4666
461.969	4006
461.985	3550
462.037	3234
462.065	3124
462.105	2631
462.145	2415
462.173	4327
462.225	7881
462.241	8574
462.305	12182
462.310	11925
462.378	7574
462.385	6779
462.446	3950
462.465	3701
462.514	4218
462.545	4562
462.582	3950
462.625	2711
462.650	2311
462.705	1737
462.718	1809
462.785	2510
462.786	2542
462.854	4193
462.865	4503
462.922	6424
462.945	7298
462.990	5809
463.025	3990
463.058	3279
463.104	2357
463.126	2215
463.184	2347
463.194	2507
463.262	3570
463.264	3619
463.330	4056
463.344	4032
463.398	4099
463.424	3960
463.466	3244
463.504	3062
463.533	3381
463.583	3718
463.601	4072
463.663	4847
463.669	4975
463.737	7002
463.743	7206
463.805	10748
463.823	11670
463.873	14671
463.903	16655
463.940	18158
463.982	20231
464.008	16833
464.062	7603
464.076	6933
464.142	3992
464.144	3966
464.211	3704
464.221	3703
464.279	4187
464.301	4373
464.347	5451
464.381	6003
464.414	5998
464.461	6245
464.482	6657
464.540	7764
464.550	7664
464.617	6816
464.620	6772
464.685	8480
464.699	8902
464.753	9189
464.779	9275
464.820	8058
464.859	6666
464.888	6232
464.938	5584
464.956	5988
465.018	7737
465.023	7667
465.091	6219
465.098	6072
465.158	5565
465.177	5434
465.226	5579
465.257	5657
465.293	6387
465.336	7059
465.361	8321
465.416	11337
465.428	11782
465.495	14478
465.496	14515
465.563	16328
465.575	16717
465.631	20398
465.654	22081
465.698	15082
465.734	8458
465.765	6871
465.813	4947
465.833	4866
465.893	4732
465.900	4841
465.968	5756
465.972	5806
466.035	5070
466.052	4851
466.102	5206
466.131	5411
466.170	5698
466.210	6022
466.237	6018
466.290	5866
466.304	5989
466.369	6466
466.372	6469
466.439	6186
466.449	6144
466.506	7218
466.528	7587
466.573	10691
466.607	13016
466.641	19684
466.687	28936
466.708	32376
466.766	41974
466.775	39340
466.842	18710
466.845	17695
466.909	11853
466.925	10500
466.977	9229
467.004	8565
467.044	8116
467.083	7646
467.111	8336
467.163	9601
467.178	9849
467.242	10772
467.245	10810
467.312	11161
467.321	11187
467.379	9859
467.400	9346
467.446	9593
467.480	9742
467.559	9328
467.638	7435
467.717	8956
467.796	12832
467.875	15477
467.955	11119
468.034	13014
468.113	28011
468.192	40007
468.271	14523
468.350	7696
468.429	8379
468.508	9199
468.588	7860
468.667	6815
468.746	7720
468.825	6824
468.904	6893
468.983	8393
469.062	15085
469.141	18600
469.220	9940
469.299	7337
469.378	7247
469.456	10628
469.535	8335
469.614	8026
469.693	8760
469.772	10276
469.851	14707
469.930	11910
470.009	8898
470.088	8621
470.166	8885
470.245	11012
470.324	12577
470.403	11170
470.482	9538
470.560	8638
470.639	11929
470.718	15717
470.797	11892
470.875	10253
470.954	14312
471.033	15292
471.111	7046
471.190	6232
471.269	6679
471.347	6457
471.426	6945
471.505	7011
471.583	7354
471.662	7040
471.740	7155
471.819	6874
471.898	5530
471.976	7042
472.055	6315
472.133	7313
472.212	10145
472.290	9383
472.369	6864
472.447	6237
472.526	5891
472.604	7300
472.683	8142
472.761	9958
472.839	9802
472.918	7804
472.996	6528
473.075	9205
473.153	8934
473.231	6874
473.310	9250
473.388	10059
473.466	8029
473.545	11198
473.623	21437
473.701	22919
473.780	8174
473.858	5715
473.936	7760
474.014	7106
474.093	9444
474.171	12686
474.249	15005
474.327	11212
474.405	6438
474.484	7573
474.562	8247
474.640	7556
474.718	7595
474.796	7685
474.874	6863
474.952	5806
475.030	5710
475.108	6827
475.187	7406
475.265	7198
475.343	6707
475.421	7734
475.499	6139
475.577	6638
475.655	9588
475.733	18434
475.811	30134
475.889	27854
475.966	22998
476.044	5650
476.122	6701
476.200	6358
476.278	5828
476.356	5846
476.434	7201
476.512	6650
476.590	7600
476.667	9069
476.745	7204
476.823	7624
476.901	7717
476.979	6150
477.056	6963
477.134	6974
477.212	8022
477.290	8417
477.367	6373
477.445	6373
477.523	6159
477.601	5794
477.678	5753
477.756	7004
477.834	8980
477.911	5570
477.989	6049
478.066	5369
478.144	6810
478.222	6344
478.299	6679
478.377	6968
478.454	5871
478.532	5894
478.609	8111
478.687	10100
478.764	7520
478.842	8025
478.919	13081
478.997	11914
479.074	5908
479.152	6619
479.229	8609
479.307	6585
479.384	5019
479.461	5445
479.539	4839
479.616	6115
479.694	6410
479.771	6945
479.848	7751
479.926	9693
480.003	13253
480.080	7154
480.157	5812
480.235	6159
480.312	5774
480.389	5915
480.467	10383
480.544	13154
480.621	7956
480.698	7152
480.775	8372
480.853	7312
480.930	6186
481.007	6401
481.084	7347
481.161	8138
481.238	7671
481.315	5394
481.392	5590
481.470	5716
481.547	5787
481.624	4231
481.701	5399
481.778	5429
481.855	6342
481.932	9326
482.009	15971
482.086	13963
482.163	5803
482.240	5938
482.317	7996
482.393	7723
482.470	6609
482.547	6310
482.624	5793
482.701	7705
482.778	6770
482.855	4856
482.932	5497
483.009	4873
483.085	7195
483.162	8825
483.239	9562
483.316	4991
483.393	5642
483.469	6074
483.546	6994
483.623	7855
483.699	5541
483.776	6005
483.853	8114
483.930	10893
484.006	26156
484.083	44280
484.160	25948
484.236	25906
484.313	22449
484.389	16024
484.466	15131
484.543	12309
484.619	13401
484.696	14883
484.772	15068
484.849	15926
484.925	14144
485.002	12948
485.078	14846
485.155	14272
485.231	12184
485.308	11889
485.384	12790
485.461	16239
485.537	28710
485.614	37376
485.690	17078
485.766	13570
485.843	17514
485.919	40006
485.995	51292
486.072	16590
486.148	11564
486.224	12348
486.301	13586
486.377	16646
486.453	16540
486.530	15099
486.606	16440
486.682	18936
486.758	25101
486.835	32644
486.911	26129
486.987	43657
487.063	89377
487.139	150559
487.215	102924
487.292	33376
487.368	14824
487.444	16014
487.520	20543
487.596	21670
487.672	24131
487.748	59672
487.824	97879
487.900	39170
487.976	15111
488.052	15642
488.128	23537
488.204	21209
488.280	15045
488.356	14880
488.432	32211
488.508	55864
488.584	29648
488.660	18494
488.736	18108
488.812	19858
488.888	28804
488.964	43137
489.039	132264
489.115	247998
489.191	167778
489.267	21960
489.343	14870
489.418	12451
489.494	9976
489.570	9009
489.646	12704
489.722	10881
489.797	11640
489.873	16790
489.949	37280
490.024	42307
490.100	12187
490.176	10897
490.251	22739
490.327	40619
490.403	20555
490.478	10552
490.554	8583
490.629	9357
490.705	10327
490.781	12028
490.856	11448
490.932	16974
491.007	20565
491.083	16647
491.158	11615
491.234	13533
491.309	28808
491.385	37321
491.460	12788
491.536	14414
491.611	14264
491.686	18011
491.762	30294
491.837	84777
491.913	161095
491.988	215432
492.063	334381
492.139	78591
492.214	23563
492.289	11996
492.365	11412
492.440	15753
492.515	15220
492.590	12391
492.666	10846
492.741	15135
492.816	20992
492.891	14620
492.967	11220
493.042	12114
493.117	14282
493.192	16044
493.267	34656
493.342	154335
493.418	273613
493.493	56181
493.568	11461
493.643	9688
493.718	13465
493.793	23770
493.868	40180
493.943	29813
494.018	14910
494.093	8890
494.168	10263
494.243	9505
494.318	7576
494.393	7521
494.468	7472
494.543	9554
494.618	14500
494.693	12048
494.768	8153
494.842	9000
494.917	8085
494.992	10689
495.067	9530
495.142	6971
495.217	10857
495.292	12389
495.366	13463
495.441	19445
495.516	25873
495.591	39496
495.665	183607
495.740	534058
495.815	310667
495.890	24981
495.964	10675
496.039	12320
496.114	10530
496.188	11416
496.263	10882
496.338	8598
496.412	9660
496.487	14138
496.561	20168
496.636	26798
496.710	13225
496.785	15168
496.860	16141
496.934	12899
497.009	14389
497.083	12072
497.158	9291
497.232	12927
497.307	18941
497.381	13063
497.455	13302
497.530	18696
497.604	14280
497.679	13967
497.753	22484
497.827	33059
497.902	29877
497.976	29558
498.050	59357
498.125	259350
498.199	380399
498.273	90748
498.348	58826
498.422	41470
498.496	35308
498.570	38702
498.645	18024
498.719	14921
498.793	18555
498.867	30692
498.941	38696
499.016	95522
499.090	301360
499.164	182387
499.238	16992
499.312	12781
499.386	22565
499.460	20045
499.534	12111
499.609	13758
499.683	20737
499.757	23045
499.831	38388
499.905	175471
499.979	245367
500.053	40141
500.127	43533
500.201	51874
500.275	24623
500.349	16323
500.422	17094
500.496	34004
500.570	94220
500.644	153357
500.718	225995
500.792	86059
500.866	15443
500.940	15597
501.013	16341
501.087	15475
501.161	38893
501.235	55267
501.309	54403
501.382	163454
501.456	211773
501.530	55828
501.603	55257
501.677	33291
501.751	10521
501.825	15369
501.898	21037
501.972	63220
502.046	61801
502.119	14597
502.193	34272
502.266	78005
502.340	52614
502.413	28215
502.487	64971
502.561	46044
502.634	20355
502.708	19144
502.781	17377
502.855	13576
502.928	7451
503.002	8413
503.075	6595
503.149	7529
503.222	7734
503.295	8788
503.369	10594
503.442	13406
503.516	41849
503.589	127867
503.662	111105
503.736	30094
503.809	55047
503.882	61854
503.956	64230
504.029	82869
504.102	58343
504.175	72916
504.249	26697
504.322	11897
504.395	12734
504.468	9677
504.542	7886
504.615	6458
504.688	7532
504.761	6024
504.834	13180
504.907	20259
504.980	47462
505.053	22186
505.127	21572
505.200	30013
505.273	12978
505.346	9113
505.419	6647
505.492	6855
505.565	5005
505.638	4750
505.711	4896
505.784	4458
505.857	5601
505.930	7392
506.003	4961
506.076	8028
506.149	8282
506.221	10220
506.294	10958
506.367	21660
506.440	91371
506.513	87773
506.586	18183
506.659	10734
506.731	9366
506.804	13767
506.877	27937
506.950	16959
507.022	7201
507.095	8455
507.168	15067
507.241	13861
507.313	9972
507.386	11949
507.459	26156
507.531	17248
507.604	8162
507.677	8851
507.749	4699
507.822	12015
507.894	27997
507.967	32536
508.040	12388
508.112	8769
508.185	7972
508.257	8857
508.330	24478
508.402	11856
508.475	6956
508.547	7475
508.620	7771
508.692	12312
508.765	10163
508.837	6046
508.909	7014
508.982	6924
509.054	13284
509.127	10948
509.199	7038
509.271	5439
509.344	5916
509.416	5381
509.488	6371
509.560	6875
509.633	10642
509.705	17178
509.777	13415
509.849	24617
509.922	17924
509.994	7358
510.066	6702
510.138	5549
510.210	12852
510.283	11762
510.355	11669
510.427	10015
510.499	10281
510.571	12629
510.643	9961
510.715	25758
510.787	30403
510.859	12651
510.931	13235
511.003	23999
511.076	26995
511.148	8699
511.219	6838
511.291	11519
511.363	17327
511.435	8647
511.507	6221
511.579	7935
511.651	7390
511.723	6841
511.795	5357
511.867	6462
511.939	8531
512.010	17883
512.082	22110
512.154	10046
512.226	10005
512.298	13437
512.369	25403
512.441	20036
512.513	26760
512.585	18344
512.656	14885
512.728	17894
512.800	12966
512.871	10230
512.943	9833
513.015	8301
513.086	11183
513.158	14650
513.230	14902
513.301	29976
513.373	49585
513.444	22046
513.516	12023
513.588	11066
513.659	14967
513.731	25749
513.802	21289
513.874	48347
513.945	129746
514.016	47535
514.088	12442
514.159	13167
514.231	24244
514.302	29594
514.374	13083
514.445	9989
514.516	21728
514.588	19999
514.659	11476
514.730	19275
514.802	26444
514.873	16137
514.944	14086
515.016	11550
515.087	19438
515.158	18351
515.229	25698
515.301	12700
515.372	14366
515.443	9872
515.514	9122
515.585	6412
515.656	9242
515.728	9253
515.799	7406
515.870	10506
515.941	12033
516.012	10117
516.083	13521
516.154	19296
516.225	38190
516.296	35129
516.367	21024
516.438	21547
516.509	27596
516.580	38858
516.651	90086
516.722	388239
516.793	335723
516.864	44714
516.935	35664
517.006	28882
517.077	44357
517.148	120854
517.219	250079
517.289	505653
517.360	172001
517.431	65126
517.502	13599
517.573	12811
517.643	11888
517.714	13607
517.785	13470
517.856	13028
517.926	17773
517.997	22135
518.068	25102
518.138	33468
518.209	42488
518.280	142117
518.350	650308
518.421	427660
518.492	44268
518.562	19705
518.633	18174
518.703	15728
518.774	23960
518.845	51558
518.915	61356
518.986	27233
519.056	26793
519.127	71930
519.197	112263
519.268	166192
519.338	105558
519.408	25398
519.479	48337
519.549	45843
519.620	20559
519.690	10281
519.760	9516
519.831	12677
519.901	17139
519.971	8844
520.042	8858
520.112	10903
520.182	20331
520.253	32322
520.323	12892
520.393	15986
520.463	35177
520.534	18801
520.604	46590
520.674	25084
520.744	16135
520.814	50333
520.885	66933
520.955	30933
521.025	118566
521.095	81033
521.165	12174
521.235	9742
521.305	9090
521.375	9788
521.445	13327
521.515	27398
521.585	31592
521.655	36440
521.725	22628
521.795	20450
521.865	8788
521.935	13171
522.005	12286
522.075	8413
522.145	9989
522.215	10139
522.285	16385
522.355	21179
522.424	39068
522.494	42922
522.564	30002
522.634	65550
522.704	272170
522.774	158582
522.843	19982
522.913	17514
522.983	28466
523.053	20532
523.122	17147
523.192	27089
523.262	133851
523.331	205406
523.401	29905
523.471	10273
523.540	11767
523.610	8211
523.680	6367
523.749	6447
523.819	8831
523.888	9748
523.958	6524
524.027	7097
524.097	8834
524.166	8038
524.236	13795
524.305	14128
524.375	7343
524.444	6046
524.514	8113
524.583	7366
524.653	8370
524.722	12419
524.791	7530
524.861	8697
524.930	5995
524.999	8838
525.069	20598
525.138	12200
525.207	10675
525.277	9196
525.346	9641
525.415	8621
525.484	8416
525.554	8862
525.623	9915
525.692	8054
525.761	8689
525.830	9748
525.900	9550
525.969	13319
526.038	19582
526.107	30063
526.176	93639
526.245	98324
526.314	49017
526.383	67355
526.452	80715
526.522	117496
526.591	178018
526.660	145565
526.729	76322
526.797	47976
526.867	100534
526.935	541376
527.004	696461
527.073	338325
527.142	36335
527.211	16096
527.280	18742
527.349	29373
527.418	9027
527.487	9288
527.555	7155
527.624	5885
527.693	5455
527.762	7150
527.831	5009
527.899	8002
527.968	7202
528.037	7875
528.106	13348
528.174	39404
528.243	30719
528.312	31192
528.380	72234
528.449	20218
528.518	8978
528.586	3391
528.655	6424
528.723	5345
528.792	4666
528.861	6862
528.929	4782
528.998	5440
529.066	4203
529.135	4048
529.203	4226
529.272	3013
529.340	4629
529.409	7217
529.477	4483
529.545	6118
529.614	10599
529.682	8308
529.751	12073
529.819	13580
529.887	10651
529.956	5339
530.024	6827
530.092	5531
530.161	11053
530.229	31351
530.297	17698
530.365	6596
530.434	4444
530.502	4284
530.570	4228
530.638	2684
530.707	7087
530.775	10030
530.843	4914
530.911	3967
530.979	5439
531.047	4345
531.115	4395
531.183	4961
531.252	5762
531.320	4675
531.388	4514
531.456	5902
531.524	4142
531.592	6246
531.660	9139
531.728	4584
531.796	5484
531.864	5709
531.932	7142
532.000	6062
532.067	7497
532.135	10394
532.203	12988
532.271	14414
532.339	31603
532.407	125136
532.475	102186
532.542	25791
532.610	25841
532.678	32664
532.746	133464
532.814	539528
532.881	199150
532.949	22368
533.017	12006
533.084	7792
533.152	5700
533.220	6326
533.287	12471
533.355	7970
533.423	5975
533.490	4500
533.558	6185
533.625	6002
533.693	7343
533.761	7957
533.828	9602
533.896	10156
533.963	29703
534.031	49608
534.098	61770
534.166	32046
534.233	6796
534.300	8061
534.368	8611
534.435	6020
534.503	7111
534.570	8258
534.637	7893
534.705	6726
534.772	7484
534.840	10730
534.907	39652
534.974	72535
535.041	14276
535.109	10271
535.176	6904
535.243	6018
535.310	8885
535.378	9103
535.445	5617
535.512	5190
535.579	5241
535.646	4065
535.714	5803
535.781	7061
535.848	7814
535.915	7602
535.982	7049
536.049	7333
536.116	9142
536.183	8513
536.250	9349
536.317	10347
536.384	14811
536.451	31005
536.518	41965
536.585	21297
536.652	24416
536.719	48042
536.786	47163
536.853	23815
536.920	34618
536.987	74631
537.053	68593
537.120	219858
537.187	302018
537.254	27542
537.321	11266
537.388	11345
537.454	7055
537.521	5627
537.588	5327
537.654	8252
537.721	7985
537.788	8641
537.855	6811
537.921	9202
537.988	10229
538.055	9724
538.121	9756
538.188	12467
538.254	27149
538.321	85651
538.388	63127
538.454	13290
538.521	9315
538.587	7130
538.654	7048
538.720	7599
538.787	7193
538.853	8655
538.920	14512
538.986	15585
539.053	11075
539.119	12325
539.185	14143
539.252	15472
539.318	40334
539.385	27049
539.451	13255
539.517	15385
539.583	18079
539.650	45764
539.716	204514
539.782	80417
539.849	16283
539.915	12627
539.981	13675
540.047	24957
540.114	20041
540.180	18164
540.246	16910
540.312	27265
540.378	73520
540.444	94814
540.510	60605
540.576	228927
540.643	107161
540.709	13437
540.775	10648
540.841	10542
540.907	13790
540.973	25235
541.039	31411
541.105	49785
541.171	20198
541.237	11788
541.303	13198
541.369	16871
541.435	26719
541.500	72264
541.566	54771
541.632	14239
541.698	8906
541.764	9352
541.830	8197
541.896	7766
541.961	9269
542.027	9159
542.093	10818
542.159	12284
542.224	15748
542.290	26023
542.356	61462
542.421	102209
542.487	35994
542.553	16395
542.618	14172
542.684	14219
542.750	14196
542.815	17049
542.881	31598
542.947	167718
543.012	195109
543.078	19902
543.143	11423
543.209	12073
543.274	12949
543.340	16602
543.405	50190
543.471	139792
543.536	30011
543.602	10349
543.667	8312
543.732	8705
543.798	5945
543.863	7891
543.928	6988
543.994	6883
544.059	7972
544.124	8355
544.190	9236
544.255	10377
544.320	12162
544.386	13786
544.451	25459
544.516	39240
544.581	28956
544.646	86944
544.712	229918
544.777	43993
544.842	12298
544.907	12271
544.972	9072
545.037	10363
545.102	11119
545.168	11030
545.233	13523
545.298	15353
545.363	17796
545.428	22250
545.493	51176
545.558	171605
545.623	86560
545.688	13413
545.753	10728
545.818	9376
545.883	9719
545.947	9568
546.012	10675
546.077	11867
546.142	12109
546.207	13885
546.272	26269
546.337	35493
546.401	18268
546.466	11571
546.531	9927
546.596	12702
546.661	14823
546.725	12116
546.790	9405
546.855	9537
546.919	8984
546.984	10287
547.049	11475
547.113	13299
547.178	12124
547.243	13588
547.307	17097
547.372	20734
547.436	23814
547.501	15832
547.565	16852
547.630	29930
547.695	34095
547.759	21494
547.823	18866
547.888	13150
547.952	13995
548.017	14060
548.081	18447
548.146	24875
548.210	20930
548.274	14416
548.339	15453
548.403	13722
548.468	12499
548.532	12761
548.596	14320
548.660	14059
548.725	16955
548.789	22826
548.853	23301
548.917	16141
548.982	19783
549.046	22074
549.110	13944
549.174	13956
549.238	13749
549.303	13179
549.367	17112
549.431	15228
549.495	13210
549.559	14048
549.623	14961
549.687	20059
549.751	40855
549.815	28896
549.879	18736
549.943	16780
550.007	18309
550.071	20370
550.135	32197
550.199	27706
550.263	18195
550.327	19192
550.391	23688
550.455	20787
550.519	18476
550.582	23105
550.646	44552
550.710	52281
550.774	22595
550.838	20481
550.901	20464
550.965	22094
551.029	22986
551.093	25943
551.156	31072
551.220	50805
551.284	72290
551.347	38499
551.411	49226
551.475	71230
551.538	27242
551.602	20591
551.666	18260
551.729	16873
551.793	17861
551.856	18694
551.920	18353
551.983	18993
552.047	16616
552.110	16573
552.174	16429
552.237	17917
552.301	16570
552.364	14413
552.428	15640
552.491	16075
552.554	18603
552.618	18271
552.681	17672
552.745	17761
552.808	24400
552.871	35402
552.934	25816
552.998	18861
553.061	19347
553.124	19325
553.187	19265
553.251	22228
553.314	27569
553.377	23086
553.440	28873
553.503	80756
553.567	195091
553.630	48877
553.693	20450
553.756	17170
553.819	17122
553.882	16541
553.945	16543
554.008	14765
554.071	15144
554.134	15770
554.197	14746
554.260	15528
554.323	20072
554.386	18731
554.449	17132
554.512	16173
554.575	15061
554.638	16657
554.701	17399
554.764	13925
554.827	14664
554.889	13401
554.952	12804
555.015	13274
555.078	12029
555.141	12611
555.203	12954
555.266	12147
555.329	14394
555.391	15063
555.454	17168
555.517	19411
555.580	12610
555.642	12522
555.705	11601
555.768	13343
555.830	13475
555.893	12277
555.955	12025
556.018	13547
556.080	13367
556.143	13034
556.206	12630
556.268	15404
556.330	16856
556.393	17634
556.455	14097
556.518	20323
556.580	28225
556.643	15482
556.705	14120
556.767	12867
556.830	14840
556.892	19835
556.955	49992
557.017	40720
557.079	18513
557.142	15185
557.204	20974
557.266	66956
557.328	73391
557.391	16350
557.453	10835
557.515	12545
557.577	20422
557.639	28871
557.701	13243
557.764	10258
557.826	11354
557.888	12031
557.950	12450
558.012	12381
558.074	15008
558.136	28192
558.198	79895
558.260	41961
558.322	16936
558.384	18404
558.446	21845
558.508	25517
558.570	35063
558.632	75181
558.694	155587
558.756	79084
558.818	143144
558.880	473594
558.942	183669
559.003	88190
559.065	56499
559.127	21612
559.189	20398
559.251	23150
559.312	28033
559.374	61005
559.436	253074
559.498	173130
559.559	26347
559.621	20805
559.683	23109
559.744	31843
559.806	102741
559.868	204271
559.929	46336
559.991	22226
560.052	27155
560.114	73635
560.176	62208
560.237	45913
560.299	98050
560.360	32260
560.422	11816
560.483	10083
560.545	9701
560.606	8913
560.667	8782
560.729	8785
560.790	8243
560.852	8731
560.913	9097
560.974	9227
561.036	9416
561.097	10146
561.158	10657
561.220	12272
561.281	13092
561.342	13967
561.403	19299
561.465	27651
561.526	96515
561.587	186382
561.648	41066
561.709	14980
561.771	11670
561.832	10243
561.893	11080
561.954	9977
562.015	9208
562.076	9614
562.137	9505
562.198	9773
562.259	9625
562.320	10188
562.381	14122
562.442	32275
562.503	27061
562.564	10740
562.625	9239
562.686	8846
562.747	10388
562.808	10599
562.869	8387
562.930	10027
562.991	8508
563.051	8955
563.112	8493
563.173	9233
563.234	8157
563.294	9197
563.355	9718
563.416	12652
563.477	9323
563.537	9275
563.598	10042
563.659	9417
563.720	10414
563.780	12050
563.841	15542
563.901	9650
563.962	8703
564.023	9341
564.083	9101
564.144	11142
564.204	10198
564.265	9407
564.325	9830
564.386	20916
564.446	23537
564.507	9803
564.567	8663
564.628	8968
564.688	8354
564.749	7745
564.809	10009
564.869	13123
564.930	9631
564.990	8896
565.050	8828
565.111	9838
565.171	8082
565.231	8938
565.292	9562
565.352	8429
565.412	9962
565.472	11467
565.532	14948
565.593	12786
565.653	9883
565.713	10058
565.773	12133
565.833	18603
565.893	34874
565.953	16037
566.013	9648
566.074	10444
566.134	12826
566.194	21097
566.254	31845
566.314	18637
566.374	10308
566.434	9853
566.494	9595
566.554	9388
566.614	9793
566.673	9979
566.733	11319
566.793	10469
566.853	11136
566.913	9878
566.973	10367
567.033	10996
567.092	12876
567.152	9960
567.212	9805
567.272	9890
567.331	11008
567.391	11076
567.451	12428
567.511	14923
567.570	18482
567.630	11139
567.690	9738
567.749	10648
567.809	11115
567.868	13524
567.928	15491
567.988	14406
568.047	16180
568.107	18086
568.166	25122
568.226	37261
568.285	55525
568.345	47076
568.404	34975
568.464	29717
568.523	25858
568.582	27164
568.642	31997
568.701	36003
568.761	51235
568.820	89081
568.879	90511
568.939	62837
568.998	43390
569.057	31046
569.116	25319
569.176	20358
569.235	16358
569.294	14245
569.353	14039
569.413	12993
569.472	11211
569.531	10549
569.590	9606
569.649	9702
569.708	9943
569.767	11216
569.827	14693
569.886	13193
569.945	9669
570.004	9649
570.063	8946
570.122	10972
570.181	13505
570.240	11892
570.299	13226
570.358	13949
570.417	10277
570.475	9002
570.534	10963
570.593	13370
570.652	12252
570.711	12285
570.770	10555
570.829	13310
570.887	14592
570.946	21177
571.005	10917
571.064	8404
571.122	8520
571.181	11004
571.240	9544
571.299	7656
571.357	8526
571.416	9997
571.475	9565
571.533	10984
571.592	7963
571.650	8702
571.709	7414
571.768	9514
571.826	8213
571.885	6565
571.943	6957
572.002	6486
572.060	7754
572.119	7348
572.177	6882
572.236	6754
572.294	5716
572.352	7000
572.411	5974
572.469	5561
572.528	6503
572.586	7002
572.644	8291
572.703	14321
572.761	9252
572.819	6088
572.877	5387
572.936	6229
572.994	5373
573.052	5779
573.110	6532
573.169	8397
573.227	6622
573.285	6271
573.343	6174
573.401	6863
573.459	6107
573.517	5994
573.576	5691
573.634	6250
573.692	6975
573.750	5701
573.808	5190
573.866	7244
573.924	8383
573.982	8786
574.040	6429
574.098	6447
574.155	6119
574.213	6263
574.271	5300
574.329	5950
574.387	5866
574.445	4768
574.503	5062
574.560	4529
574.618	4866
574.676	4621
574.734	5925
574.792	5416
574.849	5475
574.907	4951
574.965	4016
575.022	5026
575.080	5305
575.138	7451
575.195	6881
575.253	7324
575.311	10738
575.368	7552
575.426	4922
575.483	6636
575.541	5234
575.598	4545
575.656	5766
575.713	5664
575.771	5041
575.828	5061
575.886	5913
575.943	6875
576.001	6053
576.058	6238
576.115	6513
576.173	8600
576.230	10805
576.287	18035
576.345	13223
576.402	6915
576.459	6002
576.517	5897
576.574	6278
576.631	7913
576.688	5157
576.746	5772
576.803	5325
576.860	4495
576.917	5483
576.974	4998
577.031	5565
577.089	6259
577.146	5072
577.203	6106
577.260	7435
577.317	7499
577.374	7531
577.431	7671
577.488	6502
577.545	7190
577.602	5930
577.659	6450
577.716	7162
577.773	8780
577.830	6922
577.886	6115
577.943	5615
578.000	5682
578.057	6903
578.114	6290
578.171	6598
578.227	7395
578.284	6421
578.341	6060
578.398	6277
578.454	6305
578.511	7623
578.568	8363
578.625	7940
578.681	6590
578.738	6180
578.794	5199
578.851	5288
578.908	5602
578.964	5887
579.021	5864
579.077	7147
579.134	6967
579.190	5350
579.247	5166
579.303	5855
579.360	6177
579.416	5165
579.473	5054
579.529	4502
579.586	5726
579.642	4687
579.698	5130
579.755	5842
579.811	5704
579.867	6114
579.924	4759
579.980	5892
580.036	5473
580.093	6311
580.149	7020
580.205	8021
580.261	8410
580.317	6564
580.374	6676
580.430	7915
580.486	8253
580.542	7221
580.598	7183
580.619	7011
580.654	6716
580.692	6476
580.710	6367
580.765	6123
580.767	6119
580.823	6000
580.838	6153
580.879	6575
580.911	6410
580.935	6301
580.984	6526
580.991	6561
581.047	5650
581.057	5548
581.103	5138
581.130	5329
581.159	5517
581.203	5825
581.215	5909
581.270	6684
581.276	6585
581.326	5653
581.349	5488
581.382	5238
581.422	5502
581.438	5630
581.494	6346
581.494	6341
581.550	6102
581.567	6763
581.606	8170
581.640	7584
581.661	7234
581.713	6780
581.717	6756
581.773	5898
581.786	5747
581.829	5102
581.859	5112
581.885	5228
581.932	5899
581.940	5996
581.996	5232
582.004	5336
582.052	5976
582.077	5824
582.107	5621
582.150	6399
582.163	6638
582.219	5795
582.223	5803
582.274	5901
582.296	6203
582.330	6716
582.368	6238
582.386	6034
582.441	5673
582.441	5672
582.497	5860
582.514	6297
582.552	7414
582.587	7480
582.608	7372
582.659	7347
582.663	7346
582.719	6042
582.732	6096
582.774	6557
582.805	6172
582.830	5717
582.877	6343
582.885	6480
582.941	6104
582.950	6114
582.996	6067
583.023	6247
583.052	6571
583.095	6632
583.107	6591
583.162	7032
583.168	7056
583.218	7304
583.240	7215
583.273	6948
583.313	6580
583.328	6631
583.384	7264
583.385	7248
583.439	5960
583.458	6168
583.494	6887
583.531	6380
583.549	6104
583.603	6208
583.605	6209
583.660	6829
583.676	6819
583.715	6694
583.748	6743
583.770	6986
583.820	7106
583.825	7070
583.881	6211
583.893	6108
583.936	5964
583.965	6384
583.991	6747
584.038	6680
584.046	6637
584.101	6536
584.110	6409
584.156	6042
584.183	6274
584.211	6359
584.255	6152
584.266	6153
584.321	6362
584.328	6428
584.376	7039
584.400	7308
584.431	7491
584.472	6786
584.486	6622
584.541	7059
584.545	7099
584.596	7524
584.617	7398
584.651	7506
584.689	7815
584.706	7819
584.761	8503
584.762	8496
584.816	8155
584.834	8206
584.871	8184
584.906	8108
584.926	8093
584.978	8123
584.980	8131
585.035	8481
585.051	8614
585.090	9213
585.123	10144
585.145	10665
585.195	11375
585.200	11533
585.254	12557
585.267	13526
585.309	16899
585.340	21031
585.364	23328
585.412	18619
585.419	17895
585.473	15159
585.484	15149
585.528	16911
585.556	18998
585.583	22807
585.628	32252
585.637	35763
585.692	69812
585.700	77319
585.747	105876
585.772	87848
585.801	57066
585.845	23866
585.856	19152
585.910	15264
585.917	14972
585.965	14123
585.989	13331
586.019	12657
586.061	12439
586.074	12438
586.128	13249
586.133	13296
586.183	14095
586.205	14605
586.237	14921
586.277	13387
586.292	12808
586.346	12225
586.349	12201
586.401	11992
586.421	12004
586.455	12688
586.493	13372
586.509	14114
586.564	17420
586.565	17585
586.618	25957
586.637	26495
586.672	23486
586.709	17089
586.727	14988
586.781	14601
586.781	14615
586.835	13964
586.853	13894
586.889	13459
586.925	12711
586.944	12844
586.996	13929
586.998	13964
587.052	14859
587.068	14922
587.106	14988
587.140	14919
587.161	14905
587.212	14739
587.215	14793
587.269	16226
587.284	16520
587.323	16593
587.356	16717
587.377	17199
587.427	18214
587.431	18255
587.485	17795
587.499	17903
587.539	19242
587.571	19949
587.593	20049
587.643	20555
587.648	20698
587.702	21535
587.715	21912
587.755	23205
587.786	24004
587.810	24583
587.858	25195
587.864	25491
587.917	29145
587.930	29903
587.971	32054
588.001	33515
588.025	34811
588.073	37182
588.079	37750
588.133	43063
588.145	44228
588.187	48564
588.217	51949
588.241	55625
588.288	63012
588.295	64330
588.348	75941
588.360	78334
588.402	88877
588.431	96558
588.456	103685
588.503	118603
588.510	121607
588.564	146727
588.575	152416
588.617	178856
588.646	198121
588.671	223933
588.718	277694
588.725	293697
588.778	432153
588.789	465788
588.832	739821
588.861	950799
588.886	1222144
588.932	1779644
588.939	1805532
588.993	1833575
589.004	1817539
589.047	1366127
589.075	1016759
589.100	786422
589.147	422808
589.154	403458
589.207	297756
589.218	278940
589.261	260886
589.290	253281
589.314	265695
589.361	298903
589.368	316085
589.421	470912
589.433	509123
589.475	845993
589.504	1111831
589.528	1318946
589.576	1686188
589.582	1645784
589.635	1105389
589.647	976286
589.689	558582
589.718	303496
589.742	241668
589.790	144819
589.795	140222
589.849	104227
589.861	96861
589.902	83703
589.932	73963
589.955	68116
590.004	55780
590.009	55034
590.062	48111
590.075	46274
590.115	42880
590.146	40485
590.168	39615
590.218	37466
590.222	37328
590.275	35377
590.289	34671
590.328	32936
590.360	31409
590.381	30905
590.431	29743
590.435	29698
590.488	27973
590.503	27504
590.541	27806
590.574	27958
590.594	27349
590.645	25349
590.647	25382
590.700	25065
590.716	24889
590.753	23856
590.787	22917
590.806	23055
590.859	23196
590.859	23239
590.912	22699
590.930	22496
590.965	22765
591.001	23095
591.018	22779
591.071	21333
591.072	21271
591.124	21952
591.143	22136
591.177	22359
591.214	22474
591.230	22919
591.283	24474
591.285	24470
591.336	25706
591.356	26285
591.389	26283
591.427	25806
591.442	25012
591.495	21672
591.498	21386
591.547	20924
591.569	20749
591.600	20710
591.640	20472
591.653	20569
591.706	20766
591.711	20736
591.759	20497
591.782	20321
591.811	20980
591.853	21820
591.864	21626
591.917	20243
591.924	20005
591.969	20092
591.995	20083
592.022	20141
592.066	20084
592.075	20368
592.127	21817
592.137	22048
592.180	22727
592.208	23045
592.233	22065
592.279	19960
592.285	19973
592.338	19777
592.350	19686
592.390	19474
592.421	19232
592.443	19595
592.491	20221
592.495	20273
592.548	20268
592.562	20217
592.600	19645
592.633	19059
592.653	19360
592.704	19931
592.705	20038
592.775	19599
592.846	20926
592.916	21540
592.987	25098
593.058	21234
593.128	18695
593.199	18051
593.270	19176
593.341	18561
593.411	19175
593.482	19684
593.553	18029
593.623	18942
593.694	19594
593.764	18446
593.835	18472
593.906	18219
593.976	18295
594.047	18039
594.117	20541
594.188	19580
594.258	18309
594.329	17493
594.399	18130
594.470	17678
594.540	16764
594.611	18568
594.681	17936
594.751	19031
594.822	22379
594.892	22512
594.963	21275
595.033	19104
595.103	19649
595.174	21693
595.244	25187
595.314	27699
595.384	19611
595.455	18527
595.525	19754
595.595	20419
595.665	20371
595.736	18555
595.806	20143
595.876	18088
595.946	19979
596.016	19389
596.087	20288
596.157	19438
596.227	20327
596.297	20919
596.367	21552
596.437	22594
596.507	26497
596.577	27987
596.647	22828
596.717	22180
596.787	22440
596.857	22336
596.927	23115
596.997	22356
597.067	23494
597.137	24556
597.207	22903
597.277	22939
597.347	22031
597.417	22693
597.487	23729
597.557	24372
597.626	24959
597.696	24643
597.766	25965
597.836	27825
597.906	22473
597.975	21233
598.045	21401
598.115	21813
598.185	22459
598.254	25731
598.324	27656
598.394	28714
598.464	29286
598.533	25318
598.603	24653
598.672	24531
598.742	23452
598.812	22717
598.881	22618
598.951	22644
599.020	23713
599.090	22815
599.159	24129
599.229	23214
599.299	22078
599.368	22790
599.437	22869
599.507	21000
599.576	21595
599.646	22988
599.715	23067
599.785	20974
599.854	21926
599.924	22343
599.993	20922
600.062	19778
600.132	21318
600.201	21353
600.270	27401
600.340	25452
600.409	23722
600.478	24034
600.547	23835
600.617	22459
600.686	20750
600.755	20809
600.824	22098
600.894	19395
600.963	18032
601.032	17294
601.101	17378
601.170	16173
601.239	16168
601.308	17101
601.378	17141
601.447	16996
601.516	16375
601.585	17112
601.654	17596
601.723	16395
601.792	18166
601.861	18826
601.930	25188
601.999	24617
602.068	20368
602.137	17847
602.206	19447
602.275	20862
602.343	27998
602.412	27271
602.481	19674
602.550	17808
602.619	19216
602.688	19597
602.756	18267
602.825	18135
602.894	19439
602.963	18476
603.032	19857
603.100	18205
603.169	18831
603.238	18366
603.307	18575
603.375	18476
603.444	19710
603.513	18737
603.581	19075
603.650	19647
603.719	19001
603.787	18502
603.856	20640
603.924	20818
603.993	20247
604.061	20258
604.130	22700
604.198	23541
604.267	22938
604.335	21799
604.404	22745
604.472	22479
604.541	23057
604.609	22456
604.678	22836
604.746	23083
604.815	23911
604.883	23341
604.951	24783
605.020	24404
605.088	24690
605.156	24917
605.225	25489
605.293	24693
605.361	25822
605.429	25125
605.498	26332
605.566	29182
605.634	29527
605.702	28080
605.771	28435
605.839	28397
605.907	27593
605.975	26995
606.043	26641
606.111	27719
606.180	27824
606.248	30614
606.316	29860
606.384	28069
606.452	33085
606.520	41327
606.588	31900
606.656	26212
606.724	26636
606.792	24991
606.860	22782
606.928	20460
606.996	21362
607.064	18990
607.132	20585
607.200	21654
607.267	22696
607.335	22998
607.403	23782
607.471	21764
607.539	22715
607.607	23334
607.674	20512
607.742	20993
607.810	24110
607.878	21815
607.946	20692
608.013	20687
608.081	23232
608.149	22083
608.216	21404
608.284	22717
608.352	22967
608.419	22014
608.487	25390
608.555	21334
608.622	22540
608.690	23386
608.757	25601
608.825	25423
608.893	26199
608.960	27478
609.028	27144
609.095	26956
609.163	23849
609.230	21280
609.298	21543
609.365	21073
609.432	22886
609.500	24623
609.567	27246
609.635	31143
609.702	31296
609.769	29563
609.837	25615
609.904	21462
609.971	21854
610.039	26079
610.106	35353
610.173	61646
610.241	136580
610.308	67057
610.375	29458
610.442	22015
610.509	19890
610.577	21281
610.644	22280
610.711	23102
610.778	23504
610.845	24322
610.912	25695
610.980	28480
611.047	33518
611.114	28323
611.181	24832
611.248	23829
611.315	26499
611.382	24854
611.449	27050
611.516	27694
611.583	27248
611.650	27110
611.717	27860
611.784	28068
611.851	31559
611.918	35461
611.984	42480
612.051	62101
612.118	128620
612.185	323278
612.252	160618
612.319	39688
612.386	34978
612.452	31726
612.519	31681
612.586	33736
612.653	31355
612.719	30517
612.786	30497
612.853	27432
612.919	26238
612.986	28701
613.053	25543
613.120	23754
613.186	22187
613.253	25540
613.319	24516
613.386	24587
613.453	27023
613.519	30416
613.586	40288
613.652	55978
613.719	46188
613.785	37350
613.852	27579
613.918	27126
613.985	33414
614.051	48078
614.118	98978
614.184	84896
614.250	29682
614.317	25983
614.383	25244
614.449	24660
614.516	25842
614.582	25728
614.648	24567
614.715	24441
614.781	25159
614.847	24668
614.914	24522
614.980	23424
615.046	24084
615.112	24709
615.179	23731
615.245	25934
615.311	27204
615.377	33390
615.443	32607
615.509	27167
615.575	28041
615.642	26178
615.708	28951
615.774	31285
615.840	34877
615.906	40970
615.972	55618
616.038	96266
616.104	182094
616.170	441851
616.236	301424
616.302	59025
616.368	43076
616.434	31901
616.500	31985
616.565	33607
616.631	40274
616.697	32058
616.763	36168
616.829	51351
616.895	87482
616.961	74757
617.026	35486
617.092	25709
617.158	25649
617.224	24380
617.289	23938
617.355	21775
617.421	21718
617.487	22047
617.552	21089
617.618	20013
617.684	19663
617.749	22207
617.815	20056
617.880	18985
617.946	20165
618.012	21009
618.077	20064
618.143	19483
618.208	19782
618.274	21437
618.339	21853
618.405	18041
618.470	19606
618.536	19293
618.601	19077
618.667	17566
618.732	18676
618.798	17236
618.863	17523
618.928	17461
618.994	20515
619.059	25569
619.124	38853
619.190	23424
619.255	17330
619.320	16464
619.386	17931
619.451	15181
619.516	17170
619.581	16456
619.647	16684
619.712	15399
619.777	16461
619.842	16943
619.907	17096
619.972	17008
620.038	17435
620.103	14234
620.168	14502
620.233	15797
620.298	15888
620.363	15371
620.428	16266
620.493	16392
620.558	16575
620.623	16637
620.688	17310
620.753	15817
620.818	17040
620.883	15973
620.948	17135
621.013	16019
621.078	17380
621.143	15677
621.207	19590
621.272	18457
621.337	19812
621.402	18809
621.467	21173
621.532	20324
621.596	19315
621.661	17712
621.726	17259
621.791	17063
621.855	19574
621.920	21080
621.985	18731
622.049	20679
622.114	18557
622.179	19240
622.243	18960
622.308	17493
622.373	21621
622.437	19447
622.502	18648
622.566	18232
622.631	17330
622.695	20185
622.760	19268
622.824	20845
622.889	21525
622.953	25468
623.018	44077
623.082	37325
623.147	21474
623.211	21056
623.276	22299
623.340	16579
623.404	18027
623.469	16961
623.533	18592
623.597	17125
623.662	17754
623.726	16312
623.790	15980
623.854	15365
623.919	16140
623.983	15889
624.047	18144
624.111	16085
624.176	16887
624.240	18091
624.304	21121
624.368	17112
624.432	17607
624.496	20020
624.560	24467
624.625	25093
624.689	18759
624.753	17717
624.817	18634
624.881	16714
624.945	17536
625.009	16176
625.073	17386
625.137	19964
625.201	30020
625.265	25661
625.329	18187
625.393	19387
625.456	18780
625.520	18703
625.584	20917
625.648	22643
625.712	27201
625.776	45391
625.839	48291
625.903	22383
625.967	17028
626.031	24066
626.095	30716
626.158	16870
626.222	12344
626.286	13049
626.349	12964
626.413	10910
626.477	16301
626.540	13286
626.604	11013
626.668	12759
626.731	11740
626.795	11947
626.858	13278
626.922	11072
626.986	12723
627.049	10349
627.113	12767
627.176	10458
627.240	11751
627.303	11044
627.366	10902
627.430	11415
627.493	12144
627.557	10554
627.620	12403
627.684	11023
627.747	12257
627.810	9384
627.874	10959
627.937	8758
628.000	12340
628.064	11378
628.127	8537
628.190	10468
628.253	10476
628.317	8952
628.380	8599
628.443	9377
628.506	9188
628.569	8789
628.632	7793
628.696	8837
628.759	8759
628.822	7512
628.885	7881
628.948	8636
629.011	8963
629.074	9747
629.137	8482
629.200	7311
629.263	9655
629.326	7419
629.389	7963
629.452	7637
629.515	7872
629.578	7866
629.641	9101
629.704	8105
629.767	9662
629.830	8075
629.892	8353
629.955	7126
630.018	11947
630.081	12705
630.144	18557
630.207	10413
630.269	11733
630.332	8063
630.395	8602
630.458	7040
630.520	6523
630.583	8106
630.646	8679
630.708	6941
630.771	6209
630.834	7316
630.896	7046
630.959	6971
631.021	7217
631.084	6773
631.146	7391
631.209	8466
631.272	7529
631.334	6726
631.397	7229
631.459	7128
631.522	9026
631.584	8294
631.646	7873
631.709	9914
631.771	14588
631.834	9001
631.896	8351
631.958	6304
632.021	7824
632.083	5396
632.145	7896
632.208	7339
632.270	8284
632.332	5066
632.395	5810
632.457	7103
632.519	5959
632.581	6575
632.643	6421
632.706	6367
632.768	5372
632.830	6281
632.892	6585
632.954	5149
633.016	6518
633.078	6692
633.141	6007
633.203	6182
633.265	7106
633.327	6332
633.389	6926
633.451	9593
633.513	12573
633.575	9593
633.637	11937
633.698	8810
633.760	7704
633.822	6901
633.884	7332
633.946	7191
634.008	6469
634.070	7374
634.132	9036
634.193	7712
634.255	7273
634.317	6665
634.379	9722
634.441	6351
634.502	6305
634.564	7410
634.626	6563
634.687	7073
634.749	6605
634.811	5683
634.873	5334
634.934	5817
634.996	6511
635.057	4379
635.119	5148
635.181	5702
635.242	6855
635.304	3743
635.365	8079
635.427	4942
635.488	6618
635.550	5029
635.611	7042
635.673	2851
635.734	7911
635.796	5604
635.857	8189
635.918	5796
635.980	8123
636.041	6392
636.102	8264
636.164	7522
636.225	9240
636.286	4888
636.348	7095
636.409	5353
636.470	5010
636.531	5047
636.593	6207
636.654	5419
636.715	5496
636.776	4077
636.838	3904
636.899	5812
636.960	4543
637.021	4535
637.082	4939
637.143	4632
637.204	3849
637.265	3717
637.326	5244
637.387	4075
637.448	3083
637.509	4959
637.570	4703
637.631	4712
637.692	3402
637.753	3251
637.814	4825
637.875	4360
637.936	5251
637.997	4037
638.058	5350
638.119	5258
638.179	3672
638.240	3722
638.301	3939
638.362	2865
638.423	3522
638.483	4553
638.544	3477
638.605	3908
638.666	3305
638.726	3970
638.787	4767
638.848	3765
638.908	4341
638.969	3643
639.030	4988
639.090	3314
639.151	4788
639.211	5946
639.272	10787
639.332	20828
639.393	8725
639.453	2999
639.514	4076
639.574	4516
639.635	4514
639.695	5037
639.756	4331
639.816	7926
639.877	10171
639.937	20340
639.997	27329
640.058	6003
640.118	3938
640.178	4348
640.239	3982
640.299	2850
640.359	4300
640.420	3755
640.480	4470
640.540	3480
640.600	4532
640.661	5562
640.721	5412
640.781	9370
640.841	4325
640.901	4253
640.961	4462
641.021	5519
641.082	8410
641.142	15266
641.202	8211
641.262	1821
641.322	4150
641.382	2322
641.442	5533
641.502	2795
641.562	4734
641.622	3036
641.682	3755
641.742	3551
641.802	4599
641.861	4954
641.921	5866
641.981	7748
642.041	7973
642.101	10392
642.161	5022
642.221	2613
642.280	3493
642.340	2398
642.400	2308
642.460	4046
642.519	2625
642.579	2775
642.639	4789
642.698	1109
642.758	4709
642.818	3689
642.877	3649
642.937	4437
642.997	7055
643.056	12729
643.116	5488
643.175	4817
643.235	3534
643.294	2879
643.354	4072
643.414	4410
643.473	5933
643.532	7040
643.592	10586
643.651	15704
643.711	29602
643.770	56277
643.830	137668
643.889	285055
643.948	58624
644.008	9758
644.067	6463
644.126	4030
644.186	4727
644.245	4370
644.304	2411
644.363	4634
644.423	2252
644.482	3456
644.541	3560
644.600	1567
644.659	5228
644.719	4478
644.778	7053
644.837	10416
644.896	21927
644.955	48083
645.014	15117
645.073	5583
645.132	3861
645.191	3887
645.250	2948
645.309	4758
645.368	3845
645.427	4468
645.486	5222
645.545	9975
645.604	3356
645.663	3391
645.722	3349
645.781	3843
645.840	4531
645.898	6417
645.957	10291
646.016	12598
646.075	24869
646.134	45786
646.192	129584
646.251	181332
646.310	23716
646.369	6472
646.427	4711
646.486	1922
646.545	3562
646.603	2855
646.662	3265
646.721	2688
646.779	3315
646.838	2180
646.896	5423
646.955	4983
647.014	6641
647.072	11375
647.131	30441
647.189	13214
647.248	2167
647.306	3057
647.365	2769
647.423	-135
647.481	4485
647.540	1573
647.598	2341
647.657	1502
647.715	2666
647.773	1204
647.832	3025
647.890	596
647.948	1306
648.007	2346
648.065	1253
648.123	2005
648.181	4192
648.240	3550
648.298	3240
648.356	1736
648.414	2609
648.472	1873
648.531	3203
648.589	2052
648.647	2146
648.705	1326
648.763	2129
648.821	2272
648.879	2369
648.937	2871
648.995	4564
649.053	3643
649.111	7586
649.169	10764
649.227	18135
649.285	35991
649.343	101602
649.401	51765
649.459	36071
649.516	23655
649.574	14896
649.632	35174
649.690	39264
649.748	9413
649.806	9410
649.863	16281
649.921	24034
649.979	13837
650.037	3034
650.094	1016
650.152	2994
650.210	1506
650.268	2615
650.325	1946
650.383	2260
650.440	608
650.498	2779
650.556	673
650.613	1597
650.671	1250
650.728	2057
650.786	2057
650.843	2172
650.901	-135
650.958	2972
651.016	807
651.073	1199
651.131	281
651.188	1282
651.246	1699
651.303	1304
651.360	1698
651.418	2072
651.475	1108
651.532	712
651.590	1614
651.647	1075
651.704	1773
651.762	686
651.819	2049
651.876	1310
651.933	1099
651.990	1783
652.048	148
652.105	751
652.162	1830
652.219	734
652.276	663
652.333	2129
652.390	451
652.448	960
652.505	450
652.562	1744
652.619	1546
652.676	5088
652.733	5268
652.790	2031
652.847	30
652.904	1654
652.961	551
653.017	539
653.074	1180
653.131	1780
653.188	473
653.245	1607
653.302	1024
653.359	1091
653.415	2017
653.472	751
653.529	742
653.586	850
653.642	-31
653.699	2248
653.756	-231
653.813	1342
653.869	2034
653.926	377
653.983	-20
654.039	1530
654.096	566
654.152	2369
654.209	120
654.266	2136
654.322	416
654.379	1854
654.435	2032
654.492	2184
654.548	4626
654.605	7735
654.661	2394
654.717	1638
654.774	569
654.830	433
654.887	308
654.943	1589
655.000	1587
655.056	1216
655.112	1040
655.168	531
655.225	836
655.281	1919
655.337	1155
655.394	3140
655.450	2278
655.506	3029
655.562	3619
655.618	3841
655.675	692
655.731	1051
655.787	774
655.843	2114
655.899	308
655.955	2241
656.011	1494
656.067	1671
656.123	2492
656.179	2215
656.235	2757
656.291	1039
656.347	2317
656.403	2247
656.459	1694
656.515	2322
656.571	1994
656.627	1255
656.683	1789
656.739	2305
656.795	1657
656.850	2580
656.906	3707
656.962	3375
657.018	559
657.074	1727
657.129	731
657.185	1638
657.241	3010
657.297	2366
657.352	967
657.408	742
657.464	1954
657.519	2040
657.575	36
657.630	1531
657.686	179
657.742	936
657.797	847
657.853	1472
657.908	2055
657.964	-52
658.019	928
658.075	1642
658.130	1288
658.186	419
658.241	1483
658.297	381
658.352	156
658.407	2000
658.463	21
658.518	908
658.573	781
658.629	371
658.684	530
658.739	1320
658.795	110
658.850	2186
658.905	63
658.960	837
659.016	776
659.071	1068
659.126	1835
659.181	3246
659.236	7232
659.291	8054
659.346	3114
659.401	2762
659.457	2455
659.512	3394
659.567	2275
659.622	956
659.677	882
659.732	835
659.787	937
659.842	1609
659.897	1372
659.952	1624
660.007	1223
660.061	917
660.116	95
660.171	-98
660.226	242
660.281	1622
660.336	388
660.391	1399
660.445	-82
660.500	1250
660.555	980
660.610	1121
660.664	1023
660.719	469
660.774	1327
660.828	1824
660.883	1310
660.938	1891
660.992	-887
661.047	978
661.101	563
661.156	1002
661.211	-262
661.265	578
661.320	933
661.374	1006
661.429	605
661.483	1766
661.538	-362
661.592	838
661.647	386
661.701	1415
661.755	309
661.810	854
661.864	193
661.919	918
661.973	1082
662.027	1304
662.081	-291
662.136	1375
662.190	283
662.244	1421
662.299	150
662.353	1454
662.407	166
662.461	554
662.515	801
662.569	1111
662.624	485
662.678	1070
662.732	690
662.786	750
662.840	1128
662.894	866
662.948	33
663.002	1449
663.056	398
663.110	470
663.164	902
663.218	1480
663.272	879
663.326	2458
663.380	1995
663.434	699
663.488	495
663.542	618
663.595	475
663.649	1083
663.703	889
663.757	1784
663.811	-137
663.864	586
663.918	665
663.972	1658
664.026	1416
664.079	65
664.133	703
664.187	552
664.240	734
664.294	444
664.348	195
664.401	1247
664.455	209
664.508	297
664.562	669
664.615	1373
664.669	67
664.722	1336
664.776	858
664.829	1271
664.883	551
664.936	434
664.990	514
665.043	1792
665.097	383
665.150	1970
665.203	-494
665.257	1505
665.310	905
665.363	1325
665.417	1043
665.470	1190
665.523	401
665.576	1408
665.630	803
665.683	1131
665.736	736
665.789	947
665.842	480
665.895	1212
665.949	485
666.002	1291
666.055	929
666.108	2529
666.161	1669
666.214	2264
666.267	1155
666.320	3285
666.373	828
666.426	1323
666.479	297
666.532	868
666.585	1424
666.638	2730
666.691	1668
666.744	2066
666.796	323
666.849	921
666.902	724
666.955	1327
667.008	-511
667.060	645
667.113	-230
667.166	718
667.219	905
667.271	699
667.324	856
667.377	1566
667.430	890
667.482	1981
667.535	2278
667.587	1967
667.640	1400
667.693	3007
667.745	7321
667.798	8832
667.850	1932
667.903	2525
667.955	523
668.008	820
668.060	1276
668.113	1415
668.165	1540
668.218	1282
668.270	-389
668.322	1508
668.375	348
668.427	1764
668.479	1034
668.532	1192
668.584	1065
668.636	1364
668.689	1238
668.741	1458
668.793	239
668.845	524
668.898	964
668.950	1461
669.002	845
669.054	1171
669.106	649
669.158	1839
669.211	1021
669.263	1381
669.315	2016
669.367	2747
669.419	890
669.471	2839
669.523	2020
669.575	3434
669.627	1982
669.679	1087
669.731	735
669.783	1925
669.835	1274
669.886	1762
669.938	655
669.990	1233
670.042	888
670.094	1337
670.146	377
670.197	1436
670.249	1692
670.301	2551
670.353	2938
670.404	3945
670.456	5281
670.508	8035
670.560	11813
670.611	17842
670.663	29121
670.715	68213
670.766	111777
670.818	36802
670.869	4981
670.921	4016
670.972	2121
671.024	1272
671.075	1468
671.127	1264
671.178	270
671.230	2157
671.281	1088
671.333	1937
671.384	1327
671.436	2285
671.487	2910
671.538	3582
671.590	3612
671.641	5282
671.692	7112
671.744	14854
671.795	9978
671.846	3147
671.897	1335
671.949	2056
672.000	1252
672.051	734
672.102	1023
672.153	1040
672.204	730
672.256	1726
672.307	954
672.358	1776
672.409	1396
672.460	1976
672.511	1316
672.562	920
672.613	643
672.664	1152
672.715	705
672.766	1177
672.817	1132
672.868	985
672.919	650
672.970	1130
673.021	865
673.071	723
673.122	463
673.173	2220
673.224	431
673.275	881
673.326	844
673.376	1354
673.427	564
673.478	1441
673.528	678
673.579	209
673.630	234
673.680	1529
673.731	345
673.782	1035
673.832	395
673.883	1035
673.934	610
673.984	1271
674.035	803
674.085	1597
674.136	898
674.186	1624
674.237	687
674.287	2186
674.338	712
674.388	301
674.438	992
674.489	284
674.539	1667
674.589	1680
674.640	-316
674.690	1634
674.740	-41
674.791	1780
674.841	128
674.891	1468
674.942	868
674.992	1509
675.042	585
675.092	819
675.142	42
675.193	1158
675.243	539
675.293	764
675.343	244
675.393	949
675.443	888
675.493	925
675.543	402
675.593	1023
675.643	446
675.693	205
675.743	304
675.793	926
675.843	-219
675.893	477
675.943	772
675.993	746
676.043	78
676.093	1560
676.142	147
676.192	1468
676.242	251
676.292	252
676.341	474
676.391	713
676.441	-374
676.491	603
676.540	-124
676.590	606
676.640	901
676.689	-360
676.739	-545
676.789	738
676.838	255
676.888	759
676.937	-84
676.987	410
677.037	66
677.086	286
677.136	53
677.185	1145
677.235	-177
677.284	-521
677.333	-809
677.383	-250
677.432	-1070
677.482	-305
677.531	150
677.580	762
677.630	93
677.679	421
677.728	650
677.778	401
677.827	5
677.876	-112
677.925	-75
677.975	65
678.024	-244
678.073	1396
678.122	271
678.171	949
678.220	11
678.269	164
678.319	-77
678.368	433
678.417	56
678.466	956
678.515	421
678.564	761
678.613	254
678.662	233
678.711	-78
678.760	822
678.809	186
678.857	893
678.906	-598
678.955	861
679.004	586
679.053	93
679.102	52
679.151	962
679.199	-116
679.248	448
679.297	451
679.346	394
679.394	-464
679.443	443
679.492	338
679.540	1028
679.589	-28
679.638	558
679.686	106
679.735	365
679.784	-1155
679.832	563
679.881	-749
679.929	470
679.978	-298
680.026	162
680.075	51
680.123	226
680.172	99
680.220	-47
680.268	-221
680.317	559
680.365	-677
680.414	-385
680.462	-158
680.510	413
680.559	-586
680.607	453
680.655	-415
680.703	429
680.752	-586
680.800	260
680.848	229
680.896	-402
680.945	-472
680.993	248
681.041	27
681.089	134
681.137	-97
681.185	-245
681.233	-261
681.258	102
681.281	439
681.329	-826
681.377	49
681.380	47
681.425	-113
681.473	1188
681.502	108
681.521	-655
681.569	191
681.617	12
681.624	96
681.665	601
681.713	350
681.745	967
681.761	1243
681.809	-634
681.857	424
681.867	323
681.904	-22
681.952	303
681.989	214
682.000	173
682.048	301
682.096	-255
682.111	-71
682.143	303
682.191	-422
682.233	795
682.239	968
682.286	-522
682.334	142
682.354	-63
682.382	-350
682.430	1297
682.476	-20
682.477	-53
682.525	501
682.572	-87
682.598	-53
682.620	-12
682.667	188
682.715	987
682.720	978
682.763	786
682.810	722
682.841	633
682.857	571
682.905	206
682.952	-484
682.963	-340
683.000	158
683.047	456
683.085	1012
683.095	1158
683.142	485
683.190	237
683.206	-149
683.237	-846
683.284	1177
683.328	-3
683.332	-114
683.379	359
683.426	129
683.449	13
683.473	-54
683.521	166
683.568	116
683.571	140
683.615	315
683.662	1134
683.693	696
683.709	467
683.757	408
683.804	776
683.814	889
683.851	1168
683.898	400
683.936	532
683.945	593
683.992	622
684.039	1047
684.057	975
684.086	800
684.133	1358
684.179	360
684.180	320
684.227	1629
684.274	819
684.300	1358
684.321	1769
684.368	160
684.415	79
684.422	129
684.462	428
684.509	624
684.543	667
684.556	681
684.603	1194
684.649	126
684.665	364
684.696	853
684.743	464
684.786	599
684.790	608
684.837	378
684.883	1072
684.908	781
684.930	494
684.977	1492
685.023	832
685.029	877
685.070	1122
685.117	1310
685.150	1045
685.164	992
685.210	912
685.257	1828
685.272	1613
685.303	1026
685.350	1015
685.393	1135
685.396	1164
685.443	1581
685.490	1739
685.514	2062
685.536	2139
685.583	1161
685.629	1406
685.636	1301
685.675	824
685.722	1104
685.757	1076
685.768	1049
685.815	1617
685.861	1077
685.878	1263
685.908	1669
685.954	1080
686.000	1642
686.000	1646
686.047	642
686.093	1786
686.121	1447
686.139	1270
686.185	1616
686.232	1452
686.242	1482
686.278	1472
686.324	1434
686.363	1616
686.370	1656
686.416	855
686.463	1794
686.484	1475
686.509	1121
686.555	907
686.601	1072
686.606	1111
686.647	1519
686.693	1035
686.727	1356
686.739	1443
686.785	1388
686.831	1434
686.848	1163
686.877	779
686.923	1844
686.969	1461
686.969	1458
687.015	1407
687.061	1539
687.090	1743
687.107	1835
687.153	1370
687.199	1510
687.211	1387
687.245	1154
687.291	1970
687.332	1617
687.336	1572
687.382	2100
687.428	1256
687.453	1735
687.474	2062
687.520	900
687.565	1215
687.574	1096
687.611	931
687.657	1520
687.695	1179
687.702	1116
687.748	1964
687.794	2146
687.816	2332
687.839	2311
687.885	1524
687.931	1608
687.937	1489
687.976	1104
688.022	1399
688.058	1750
688.067	1812
688.113	1979
688.158	1511
688.179	1588
688.204	1757
688.249	1872
688.295	2175
688.300	2238
688.340	2643
688.386	2298
688.421	2079
688.431	1993
688.477	2328
688.522	2402
688.542	2360
688.567	2324
688.613	1598
688.658	2032
688.663	2028
688.703	2062
688.749	1348
688.784	1559
688.794	1605
688.839	1463
688.884	1580
688.905	1877
688.930	2298
688.975	1755
689.020	1804
689.026	1721
689.065	1107
689.110	1710
689.146	1482
689.155	1470
689.201	1767
689.246	1913
689.267	2132
689.291	2327
689.336	2239
689.381	2549
689.388	2453
689.426	1903
689.471	2136
689.509	2025
689.516	2008
689.561	2204
689.606	2010
689.630	1984
689.651	1924
689.696	1747
689.741	1812
689.750	1758
689.785	1816
689.830	2036
689.871	1933
689.875	1908
689.920	2261
689.965	1917
689.992	2112
690.010	2192
690.054	1944
690.099	1809
690.112	1745
690.144	1878
690.189	2269
690.233	2231
690.233	2234
690.278	2555
690.323	2081
690.354	2000
690.367	2013
690.412	2088
690.457	2475
690.474	2432
690.501	2366
690.546	2646
690.590	2736
690.595	2729
690.635	2636
690.680	2152
690.716	2384
690.724	2470
690.769	2599
690.813	3201
690.836	3099
690.857	3149
690.902	3168
690.946	3861
690.957	3995
690.991	4796
691.035	5802
691.077	7360
691.080	7378
691.124	5503
691.168	5014
691.198	4161
691.213	3794
691.257	3764
691.301	2829
691.318	2634
691.346	2626
691.390	2390
691.434	2497
691.439	2487
691.478	2724
691.522	3040
691.559	3183
691.567	3178
691.611	3412
691.655	3009
691.680	3101
691.699	3126
691.743	3028
691.787	2810
691.800	2697
691.831	2575
691.875	2715
691.919	2471
691.921	2473
691.964	2890
692.008	2671
692.041	3023
692.052	3122
692.096	2578
692.139	3402
692.162	3065
692.183	2630
692.227	3025
692.271	2714
692.282	2697
692.315	2915
692.359	2798
692.402	3005
692.403	3014
692.447	2915
692.490	3199
692.523	3165
692.534	3173
692.578	3044
692.622	2833
692.643	3094
692.666	3300
692.709	2877
692.753	2981
692.763	2897
692.797	2881
692.840	3035
692.884	3292
692.884	3303
692.928	3309
692.971	3419
693.004	3586
693.015	3601
693.059	3577
693.102	3278
693.124	3233
693.146	3385
693.189	3715
693.233	4065
693.245	4186
693.276	4213
693.320	3680
693.363	3400
693.365	3381
693.407	3430
693.450	3506
693.485	3664
693.493	3725
693.537	3914
693.580	3698
693.605	3996
693.624	4610
693.667	5534
693.710	6685
693.725	7111
693.753	8592
693.797	11149
693.840	13744
693.845	13947
693.883	12130
693.926	9293
693.966	7652
693.970	7552
694.013	6191
694.056	4806
694.086	3628
694.099	3500
694.142	3426
694.185	3348
694.206	3435
694.229	3747
694.272	3822
694.315	4333
694.326	4325
694.358	4332
694.401	5003
694.444	5036
694.446	5046
694.487	4937
694.530	4528
694.566	4072
694.573	4047
694.616	3722
694.659	3867
694.686	3826
694.702	3765
694.745	3441
694.787	3315
694.806	3196
694.830	3149
694.873	3131
694.916	3100
694.926	3056
694.959	3227
695.002	3698
695.044	3642
695.046	3652
695.087	3950
695.130	3774
695.166	3999
695.172	4036
695.215	3922
695.258	3778
695.286	3777
695.301	3734
695.343	3483
695.386	3209
695.406	3132
695.428	3279
695.471	3259
695.514	3489
695.526	3506
695.556	3434
695.599	3531
695.641	3219
695.646	3231
695.684	3472
695.726	3450
695.766	3288
695.769	3301
695.811	3581
695.854	3605
695.886	3778
695.896	3801
695.938	3667
695.981	3617
696.005	3627
696.023	3732
696.065	3778
696.108	3983
696.125	3999
696.150	3938
696.192	4012
696.235	3782
696.245	3796
696.277	4067
696.319	4047
696.361	4360
696.365	4352
696.404	4034
696.446	3839
696.485	3641
696.488	3668
696.530	3776
696.572	3836
696.604	3985
696.614	3997
696.656	3906
696.698	3829
696.724	3764
696.740	3777
696.783	3727
696.825	3817
696.844	3813
696.867	3926
696.909	4078
696.951	4281
696.964	4297
696.992	4140
697.034	3973
697.076	3761
697.083	3726
697.118	4023
697.160	4274
697.202	4677
697.203	4668
697.244	4487
697.286	4459
697.323	4236
697.327	4249
697.369	4403
697.411	4486
697.442	4555
697.453	4586
697.494	4593
697.536	4642
697.562	4664
697.578	4743
697.620	4925
697.661	5038
697.682	5096
697.703	5247
697.744	5495
697.786	5844
697.801	5909
697.828	5925
697.869	5974
697.911	5900
697.921	5913
697.952	5569
697.994	4908
698.035	4402
698.040	4317
698.077	4358
698.118	4363
698.160	4445
698.160	4431
698.201	4575
698.243	4629
698.279	4691
698.284	4707
698.325	4710
698.367	4776
698.399	4721
698.408	4661
698.449	4403
698.491	4089
698.518	3891
698.532	3969
698.573	4128
698.614	4345
698.638	4427
698.656	4514
698.697	4713
698.738	4890
698.757	4972
698.779	5032
698.820	5083
698.862	5149
698.877	5159
698.903	5356
698.944	5640
698.985	5925
698.996	5988
699.026	5701
699.067	5279
699.116	4763
699.235	4987
699.354	5172
699.474	4840
699.593	5665
699.713	5070
699.832	5462
699.951	7143
700.070	6139
700.190	6512
700.309	6103
700.428	6303
700.547	6331
700.667	5056
700.786	5663
700.905	5064
701.024	4870
701.143	5062
701.262	5409
701.381	4257
701.500	5329
701.619	6441
701.738	5576
701.857	5403
701.976	5424
702.095	5453
702.214	6057
702.333	6800
702.452	5015
702.571	4778
702.690	4828
702.809	4530
702.928	4281
703.047	4518
703.165	5034
703.284	5321
703.403	5181
703.522	5527
703.640	5221
703.759	6967
703.878	6638
703.997	5617
704.115	4316
704.234	4572
704.353	3756
704.471	4734
704.590	3828
704.708	3633
704.827	4441
704.946	4878
705.064	3827
705.183	4139
705.301	5005
705.420	6431
705.538	5546
705.656	5240
705.775	7111
705.893	14524
706.012	11262
706.130	4943
706.249	5137
706.367	4832
706.485	4776
706.604	4620
706.722	5518
706.840	6648
706.958	6604
707.077	5348
707.195	4351
707.313	4897
707.431	4496
707.549	4694
707.668	5019
707.786	5082
707.904	4500
708.022	4470
708.140	4898
708.258	4699
708.376	5639
708.494	5010
708.612	5997
708.730	6714
708.848	6458
708.966	6622
709.084	6018
709.202	5925
709.320	5673
709.438	5354
709.556	5307
709.674	5644
709.791	4950
709.909	5301
710.027	5311
710.145	5375
710.263	5617
710.380	4790
710.498	5061
710.616	5819
710.733	5131
710.851	4533
710.969	5428
711.086	5598
711.204	5449
711.322	4957
711.439	4969
711.557	4347
711.674	5707
711.792	5291
711.909	5988
712.027	6008
712.144	4545
712.262	5447
712.379	5517
712.497	8232
712.614	7392
712.732	6715
712.849	7023
712.966	7481
713.084	8579
713.201	5888
713.318	6240
713.436	5974
713.553	5472
713.670	6699
713.787	6227
713.905	6029
714.022	5492
714.139	5474
714.256	6959
714.373	7802
714.490	11960
714.608	28219
714.725	116159
714.842	71645
714.959	7770
715.076	6503
715.193	6662
715.310	4974
715.427	5762
715.544	5719
715.661	5315
715.778	5561
715.895	5620
716.011	5879
716.128	5635
716.245	6041
716.362	9730
716.479	7747
716.596	6124
716.713	6113
716.829	5387
716.946	6050
717.063	5419
717.180	4608
717.296	5118
717.413	5499
717.530	4776
717.646	5198
717.763	5328
717.880	4714
717.996	4654
718.113	5859
718.229	4732
718.346	4751
718.462	4978
718.579	9710
718.695	17435
718.812	7779
718.928	6516
719.045	4390
719.161	3974
719.277	5057
719.394	4767
719.510	5570
719.626	4399
719.743	5679
719.859	5963
719.975	10280
720.092	31621
720.208	45990
720.324	7244
720.440	5390
720.557	7549
720.673	12925
720.789	12605
720.905	16987
721.021	5354
721.137	5166
721.253	5163
721.369	5501
721.486	5587
721.602	6637
721.718	4438
721.834	4141
721.950	4868
722.066	4582
722.181	4599
722.297	5424
722.413	3752
722.529	4999
722.645	4841
722.761	4557
722.877	3977
722.993	3301
723.108	5022
723.224	4225
723.340	4470
723.456	4860
723.571	4630
723.687	4201
723.803	4241
723.918	4633
724.034	3862
724.150	4252
724.265	5510
724.381	8892
724.497	6260
724.612	4146
724.728	3477
724.843	3682
724.959	4943
725.074	8838
725.190	7126
725.305	4431
725.421	4623
725.536	3370
725.651	4308
725.767	3602
725.882	4148
725.997	3950
726.113	4052
726.228	3381
726.343	3258
726.459	3525
726.574	4032
726.689	3701
726.804	2960
726.920	3832
727.035	3403
727.150	3578
727.265	3440
727.380	3930
727.495	4718
727.610	3773
727.725	3515
727.841	5476
727.956	10868
728.071	5156
728.186	3460
728.301	3377
728.416	4199
728.531	4090
728.645	3529
728.760	5041
728.875	5693
728.990	5813
729.105	4510
729.220	5239
729.335	3436
729.449	3748
729.564	2669
729.679	2704
729.794	2125
729.908	3979
730.023	3811
730.138	2969
730.253	3006
730.367	3104
730.482	2318
730.596	2923
730.711	4609
730.826	4349
730.940	2626
731.055	3872
731.169	2787
731.284	2558
731.398	2738
731.513	3434
731.627	2708
731.742	4342
731.856	2968
731.970	3428
732.085	3647
732.199	3558
732.313	4416
732.428	11118
732.542	31986
732.656	12196
732.771	4388
732.885	3103
732.999	3234
733.113	3229
733.227	3106
733.342	3667
733.456	2986
733.570	2591
733.684	2807
733.798	3294
733.912	3263
734.026	2435
734.140	3051
734.254	3234
734.368	5677
734.482	4950
734.596	2952
734.710	2856
734.824	2941
734.938	3055
735.052	3133
735.166	3418
735.280	3641
735.393	2735
735.507	3245
735.621	4255
735.735	4450
735.849	2161
735.962	3084
736.076	3671
736.190	2583
736.303	4402
736.417	3645
736.531	2728
736.644	2724
736.758	1577
736.872	2433
736.985	2473
737.099	2539
737.212	2251
737.326	2710
737.439	2591
737.553	2398
737.666	2619
737.780	1927
737.893	2740
738.007	2208
738.120	2742
738.233	2644
738.347	2632
738.460	3104
738.573	3433
738.687	2227
738.800	4258
738.913	4823
739.026	2827
739.140	3065
739.253	1904
739.366	3110
739.479	2061
739.592	1267
739.705	2572
739.818	2512
739.932	2406
740.045	2500
740.158	2061
740.271	2667
740.384	2412
740.497	3536
740.610	4409
740.723	2939
740.836	3930
740.949	4167
741.062	5441
741.174	3490
741.287	3020
741.400	2643
741.513	4056
741.626	4942
741.739	3731
741.851	2600
741.964	2610
742.077	3426
742.189	3772
742.302	6562
742.415	4539
742.527	2777
742.640	2313
742.753	2376
742.865	2378
742.978	2154
743.090	2408
743.203	2236
743.316	1450
743.428	1803
743.541	2028
743.653	1651
743.766	2139
743.878	2171
743.990	2786
744.103	4219
744.215	4792
744.327	3315
744.440	5240
744.552	7426
744.664	2326
744.777	1623
744.889	1495
745.001	1712
745.113	1715
745.226	1390
745.338	2141
745.450	1916
745.562	1294
745.674	1657
745.786	2176
745.898	1276
746.010	1828
746.122	1770
746.234	2266
746.347	1062
746.459	1931
746.570	1799
746.682	3737
746.794	6452
746.906	2791
747.018	2063
747.130	1399
747.242	984
747.354	1429
747.466	2507
747.577	824
747.689	1990
747.801	1427
747.913	980
748.024	1612
748.136	939
748.248	1432
748.359	2691
748.471	1545
748.583	2279
748.694	2850
748.806	1837
748.918	1929
749.029	2098
749.141	3031
749.252	2040
749.364	4864
749.475	9247
749.587	3367
749.698	2080
749.809	2310
749.921	807
750.032	1844
750.144	1370
750.255	1086
750.366	1321
750.478	2008
750.589	1545
750.700	2160
750.811	1978
750.923	5196
751.034	12442
751.145	6263
751.256	1537
751.367	2456
751.479	1395
751.590	1120
751.701	1542
751.812	656
751.923	1503
752.034	1825
752.145	1315
752.256	1063
752.367	1281
752.478	942
752.589	1615
752.700	1745
752.811	1372
752.922	1730
753.032	2560
753.143	2007
753.254	335
753.365	2033
753.476	1521
753.586	1783
753.697	1162
753.808	1224
753.919	793
754.029	617
754.140	1329
754.251	1449
754.361	1580
754.472	1337
754.582	686
754.693	1212
754.804	1473
754.914	1177
755.025	1539
755.135	1466
755.246	1163
755.356	801
755.466	2190
755.577	2073
755.687	1342
755.798	1097
755.908	1715
756.018	864
756.129	1602
756.239	1585
756.349	1107
756.460	1243
756.570	1616
756.680	1172
756.790	2352
756.900	2654
757.011	1440
757.121	2220
757.231	1635
757.341	1831
757.451	878
757.561	813
757.671	1725
757.781	1168
757.891	2053
758.001	1182
758.111	2260
758.221	2951
758.331	3485
758.441	3084
758.551	5222
758.661	2654
758.771	2216
758.880	1791
758.990	2246
759.100	2105
759.210	1454
759.320	1788
759.429	1025
759.539	1992
759.649	1656
759.758	1585
759.868	2487
759.978	986
760.087	2417
760.197	2338
760.307	1737
760.416	2021
760.526	1061
760.635	2336
760.745	2190
760.854	2274
760.964	2354
761.073	2435
761.182	1699
761.292	2085
761.401	1745
761.511	2197
761.620	2054
761.729	2252
761.839	1555
761.948	3096
762.057	2363
762.166	1906
762.276	906
762.385	2792
762.494	1447
762.603	2185
762.712	2134
762.822	1756
762.931	1856
763.040	1407
763.149	1448
763.258	2067
763.367	2825
763.476	2187
763.585	2760
763.694	3211
763.803	2363
763.912	2844
764.021	2854
764.130	3271
764.238	2523
764.347	2908
764.456	1946
764.565	3947
764.674	3245
764.783	3363
764.891	2680
765.000	4731
765.109	4281
765.217	5569
765.326	6740
765.435	7767
765.543	8427
765.652	10027
765.761	13139
765.869	21179
765.978	35918
766.086	69496
766.195	150881
766.303	409822
766.412	865264
766.520	537606
766.629	130910
766.737	54254
766.846	32718
766.954	22394
767.062	18180
767.171	14045
767.279	10354
767.387	7958
767.496	7171
767.604	6731
767.712	5534
767.820	5174
767.928	5623
768.037	5109
768.145	5481
768.253	5294
768.361	4404
768.469	4277
768.577	4475
768.685	4976
768.793	4863
768.901	5345
769.009	6357
769.117	7420
769.225	9881
769.333	16146
769.441	26879
769.549	56871
769.657	146541
769.765	464568
769.873	631475
769.981	153757
770.088	40339
770.196	21237
770.304	14793
770.412	11745
770.519	8096
770.627	5887
770.735	5594
770.842	4410
770.950	4974
771.058	4222
771.165	4313
771.273	3054
771.380	2810
771.488	3007
771.595	1809
771.703	2349
771.810	2874
771.918	1938
772.025	2596
772.133	2677
772.240	1903
772.348	2656
772.455	2162
772.562	1826
772.670	1337
772.777	2178
772.884	1500
772.991	2060
773.099	2932
773.206	644
773.313	2512
773.420	2040
773.528	510
773.635	2206
773.742	2297
773.849	2030
773.956	1446
774.063	1837
774.170	1234
774.277	2489
774.384	998
774.491	1351
774.598	2534
774.705	2176
774.812	3004
774.919	2473
775.026	690
775.133	1778
775.239	1429
775.346	2037
775.453	1535
775.560	1664
775.667	993
775.773	1236
775.880	1845
775.987	692
776.093	2004
776.200	1496
776.307	945
776.413	1824
776.520	1393
776.627	2279
776.733	1852
776.840	1147
776.946	3060
777.053	5676
777.159	11268
777.266	4557
777.372	10153
777.478	7580
777.585	2985
777.691	1065
777.798	1722
777.904	3135
778.010	5173
778.117	2813
778.223	1246
778.329	1061
778.435	963
778.542	655
778.648	1160
778.754	282
778.860	1738
778.966	1638
779.072	1305
779.178	1432
779.284	886
779.391	1086
779.497	66
779.603	2819
779.708	-432
779.815	4434
779.920	8313
780.026	8288
780.132	1529
780.238	986
780.344	951
780.450	1575
780.556	1146
780.661	1066
780.767	1091
780.873	1469
780.979	1386
781.085	-215
781.190	1424
781.296	560
781.402	920
781.507	1174
781.613	925
781.719	1071
781.824	1047
781.930	2047
782.035	877
782.141	1100
782.246	1281
782.352	292
782.457	648
782.563	1201
782.668	1512
782.773	500
782.879	719
782.984	1677
783.090	3217
783.195	4299
783.300	1779
783.405	1226
783.511	1550
783.616	1162
783.721	830
783.826	-94
783.932	932
784.037	737
784.142	1106
784.247	1272
784.352	985
784.457	1803
784.562	901
784.667	1667
784.772	1635
784.877	234
784.982	1011
785.087	1296
785.192	789
785.297	635
785.402	1278
785.507	906
785.611	1173
785.716	1191
785.821	558
785.926	373
786.031	397
786.135	360
786.240	1369
786.345	711
786.450	1311
786.554	904
786.659	-263
786.763	-137
786.868	1404
786.973	1718
787.077	367
787.182	683
787.286	457
787.391	1251
787.495	-208
787.600	1252
787.704	283
787.809	1003
787.913	49
788.017	1091
788.122	1069
788.226	1076
788.330	635
788.435	952
788.539	1037
788.643	-26
788.747	538
788.852	359
788.956	-681
789.060	1448
789.164	877
789.268	-507
789.372	703
789.476	451
789.580	422
789.684	458
789.788	826
789.892	431
789.996	721
790.100	189
790.204	512
790.308	764
790.412	-49
790.516	1755
790.620	435
790.724	1519
790.828	736
790.931	-129
791.035	2351
791.139	454
791.242	-598
791.346	1782
791.450	-213
791.554	532
791.657	-6
791.761	1258
791.864	888
791.968	1287
792.072	698
792.175	819
792.279	634
792.382	1649
792.486	1362
792.589	543
792.693	1089
792.796	233
792.899	1042
793.003	1470
793.106	-432
793.209	272
793.313	1915
793.416	-328
793.519	1998
793.623	3881
793.726	2606
793.829	1444
793.932	809
794.035	849
794.138	1603
794.242	1855
794.345	1465
794.448	2829
794.551	3854
794.654	5455
794.757	5076
794.860	1361
794.963	993
795.066	-45
795.169	1658
795.272	-461
795.375	360
795.477	306
795.580	890
795.683	-488
795.786	1149
795.889	-1030
795.991	1453
796.094	1440
796.197	-135
796.300	1079
796.402	-126
796.505	-174
796.608	139
796.710	984
796.813	340
796.915	-902
797.018	50
797.120	657
797.223	-1369
797.326	465
797.428	-496
797.530	-210
797.633	556
797.735	1056
797.838	426
797.940	1410
798.042	-858
798.145	-574
798.247	710
798.349	-1911
798.452	706
798.554	-262
798.656	-1231
798.758	507
798.860	-277
798.962	-168
799.065	-565
799.167	-1109
799.269	-31
799.371	297
799.473	966
799.575	-65
799.677	310
799.779	2463
799.881	660
799.983	990
800.085	539
800.187	148
800.289	-229
800.390	-274
800.492	-553
800.594	749
800.696	-575
800.798	274
800.899	-281
801.001	-417
801.103	-158
801.205	-195
801.306	443
801.408	-736
801.509	348
801.611	358
801.713	118
801.814	-80
801.916	-616
802.017	263
802.119	-342
802.220	520
802.322	-1933
802.423	1948
802.525	-1062
802.626	-581
802.727	124
802.829	772
802.930	-2342
803.031	759
803.133	-279
803.234	388
803.335	-63
803.436	-802
803.538	209
803.639	-1126
803.740	218
803.841	-1021
803.942	221
804.043	122
804.144	-739
804.245	469
804.346	-81
804.447	-404
804.548	2269
804.649	1640
804.750	71
804.851	-504
804.952	-413
805.053	-416
805.154	-1448
805.255	-243
805.355	430
805.456	-682
805.557	-663
805.658	-1191
805.758	1248
805.859	-213
805.960	-523
806.061	-922
806.161	-1846
806.262	672
806.362	-523
806.463	-624
806.564	656
806.664	-277
806.765	-497
806.865	405
806.966	342
807.066	-917
807.166	344
807.267	-43
807.367	-383
807.468	-62
807.568	-1651
807.668	170
807.769	-405
807.869	-639
807.969	-911
808.069	-220
808.170	159
808.270	-154
808.370	430
808.470	1567
808.570	-856
808.670	-48
808.770	-503
808.870	-160
808.970	-94
809.070	-895
809.170	-890
809.271	-248
809.370	-354
809.470	567
809.570	-225
809.670	-790
809.770	237
809.870	267
809.970	-372
810.070	-360
810.169	236
810.269	-1423
810.369	457
810.469	-113
810.568	-1001
810.668	-518
810.768	-383
810.867	-6
810.967	-287
811.066	-248
811.166	-183
811.265	878
811.365	-567
811.464	-530
811.564	-14
811.663	167
811.763	-1758
811.862	-296
811.962	707
812.061	-102
812.160	-791
812.260	-9
812.359	-352
812.458	-1267
812.557	666
812.657	-775
812.756	75
812.855	-485
812.954	-831
813.053	-95
813.153	334
813.252	-697
813.351	688
813.450	397
813.549	-90
813.648	627
813.747	-1363
813.846	-58
813.945	-1039
814.044	-236
814.143	-201
814.242	544
814.341	-568
814.439	110
814.538	237
814.637	-184
814.736	-90
814.835	429
814.933	-739
815.032	221
815.131	-65
815.229	-310
815.328	634
815.427	-386
815.525	384
815.624	-127
815.722	52
815.821	-33
815.919	-161
816.018	-304
816.116	177
816.215	-95
816.313	-180
816.412	695
816.510	-523
816.609	1425
816.707	170
816.805	-134
816.904	-75
817.002	706
817.100	1382
817.198	975
817.296	-751
817.395	1315
817.493	1242
817.591	867
817.689	2007
817.787	1323
817.885	4599
817.983	9509
818.081	25099
818.179	66996
818.277	154791
818.375	69834
818.473	11875
818.571	5316
818.669	4223
818.767	5395
818.865	4158
818.963	4851
819.061	10027
819.158	21006
819.256	55769
819.354	147486
819.452	268906
819.549	87477
819.647	14432
819.745	6376
819.842	4903
819.940	3189
820.038	997
820.135	2222
820.233	2161
820.330	1279
820.428	477
820.525	1081
820.623	398
820.720	211
820.818	780
820.915	1080
821.012	637
821.110	-410
821.207	687
821.304	270
821.402	985
821.499	2933
821.596	4239
821.693	816
821.791	1381
821.888	2450
821.985	5383
822.082	1275
822.179	2004
822.276	703
822.373	293
822.470	-86
822.567	52
822.664	-816
822.761	528
822.858	-674
822.955	530
823.052	-72
823.149	-175
823.246	-550
823.343	184
823.440	-825
823.536	-870
823.633	-574
823.730	-522
823.827	545
823.923	509
824.020	855
824.117	-172
824.213	760
824.310	1115
824.407	84
824.503	263
824.600	-204
824.696	-370
824.793	219
824.889	-777
824.986	-526
825.082	-579
825.179	-304
825.275	-768
825.371	-714
825.468	-213
825.564	-864
825.660	-49
825.757	326
825.853	594
825.949	-1159
826.045	-1074
826.142	-1473
826.238	-628
826.334	-693
826.430	-431
826.526	120
826.622	-942
826.718	619
826.814	-905
826.910	502
827.006	-708
827.102	-348
827.198	185
827.294	-945
827.390	-609
827.486	-49
827.582	-1106
827.678	-1564
827.774	548
827.869	-1217
827.965	547
828.061	-1498
828.157	-709
828.252	-295
828.348	-1180
828.444	-187
828.539	-971
828.635	-1532
828.731	208
828.826	-1288
828.922	-680
829.017	-508
829.113	-214
829.208	-1183
829.304	-1510
829.399	623
829.495	-1470
829.590	546
829.685	-1190
829.781	-489
829.876	-804
829.971	491
830.066	-290
830.162	-1188
830.257	-1851
830.352	-614
830.447	49
830.543	230
830.638	-2199
830.733	196
830.828	-616
830.923	67
831.018	-415
831.113	-352
831.208	-1173
831.303	-887
831.398	-1303
831.493	-449
831.588	-894
831.683	-998
831.778	58
831.873	-1043
831.967	707
832.062	-1089
832.157	-810
832.252	-252
832.346	-809
832.441	162
832.536	1512
832.631	4977
832.725	1226
832.820	-57
832.914	-1009
833.009	-352
833.104	-662
833.198	90
833.293	-721
833.387	-900
833.482	-80
833.576	-998
833.670	-354
833.765	-847
833.859	-1100
833.954	813
834.048	-838
834.142	-727
834.237	-1222
834.331	-1161
834.425	-377
834.519	-730
834.613	-83
834.708	-600
834.802	-179
834.896	-1129
834.990	-815
835.084	42
835.178	-484
835.272	-921
835.366	-494
835.460	-32
835.554	-103
835.648	-831
835.742	-1065
835.836	-873
835.930	-1785
836.024	-413
836.117	-392
836.211	-833
836.305	-800
836.399	141
836.493	-1573
836.586	442
836.680	-1569
836.774	-1405
836.867	626
836.961	-828
837.055	-1124
837.148	-623
837.242	-566
837.335	-746
837.429	-439
837.522	-204
837.616	-411
837.709	473
837.803	-1116
837.896	-458
837.989	-585
838.083	460
838.176	96
838.269	-938
838.363	-76
838.456	685
838.549	237
838.642	2116
838.735	3681
838.829	826
838.922	-1331
839.015	-983
839.108	-1190
839.201	-295
839.294	-647
839.387	-310
839.480	-1261
839.573	-578
839.666	-196
839.759	-1096
839.852	-1735
839.945	-335
840.038	-837
840.131	-396
840.223	-887
840.316	-943
840.409	-1105
840.502	-1419
840.594	188
840.687	-1694
840.780	-375
840.873	-249
840.965	-1370
841.058	682
841.150	165
841.243	-1060
841.336	249
841.428	-870
841.521	-1133
841.613	-1797
841.706	-1087
841.798	-1191
841.890	-852
841.983	-1119
842.075	-308
842.167	-463
842.260	-913
842.352	18
842.444	-412
842.537	746
842.629	700
842.721	-679
842.813	-449
842.905	-1843
842.997	-291
843.090	-895
843.182	-269
843.274	612
843.366	2636
843.458	3653
843.550	1970
843.642	86
843.734	-1446
843.826	-174
843.918	-178
844.009	196
844.101	-1302
844.193	-855
844.285	-199
844.377	242
844.469	1298
844.560	1251
844.652	847
844.744	731
844.835	-388
844.927	-211
845.019	-663
845.110	-498
845.202	-185
845.293	-657
845.385	-420
845.476	-700
845.568	-437
845.659	-1172
845.751	-790
845.842	-1620
845.934	-821
846.025	-1194
846.116	-335
846.208	-479
846.299	-434
846.390	-482
846.482	-482
846.573	-36
846.664	184
846.755	359
846.846	636
846.937	-1922
847.029	-979
847.120	-1316
847.211	-499
847.302	26
847.393	-1719
847.484	-275
847.575	-629
847.666	-1470
847.757	-1303
847.847	-747
847.938	-176
848.029	-1560
848.120	-1440
848.211	-592
848.302	-953
848.392	-437
848.483	-804
848.574	-1142
848.664	-889
848.755	-551
848.846	-717
848.936	-1838
849.027	-857
849.118	-530
849.208	-646
849.299	-47
849.389	478
849.480	1584
849.570	4326
849.661	7807
849.751	12515
849.841	1986
849.932	-833
850.022	-863
850.112	-504
850.203	-992
850.293	-990
850.383	-1069
850.474	-1071
850.564	-1075
850.654	-361
850.744	-667
850.834	-1566
850.924	-1251
851.014	-951
851.104	-237
851.194	-1005
851.284	-358
851.374	-839
851.464	-138
851.554	-1164
851.644	-983
851.734	-684
851.824	-1476
851.914	-1569
852.004	-524
852.094	-1165
852.183	-1675
852.273	-264
852.363	-1503
852.452	-1198
852.542	-1141
852.632	-1445
852.721	-494
852.811	-1414
852.901	-904
852.990	-855
853.080	-471
853.169	-451
853.259	-437
853.348	-2021
853.438	-477
853.527	-113
853.617	278
853.706	3003
853.795	6204
853.885	17017
853.974	32304
854.063	63726
854.152	91078
854.242	22405
854.331	1316
854.420	32
854.509	-157
854.598	17
854.687	-1002
854.777	-1044
854.866	215
854.955	-392
855.044	-481
855.133	-960
855.222	-898
855.311	-1123
855.400	-610
855.488	-1363
855.577	-1409
855.666	-469
855.755	-377
855.844	-832
855.933	-1185
856.021	-341
856.110	-531
856.199	-1214
856.288	-1038
856.376	-471
856.465	-942
856.554	-1302
856.642	-1350
856.731	-1262
856.819	-984
856.908	-1329
856.996	-689
857.085	-1092
857.173	-718
857.262	-1209
857.350	-1108
857.438	-1812
857.527	-468
857.615	-1042
857.703	-474
857.792	-1552
857.880	-1684
857.968	-2067
858.056	-1443
858.145	-1122
858.233	-1481
858.321	-1093
858.409	-704
858.497	-1935
858.585	-1135
858.673	-1909
858.761	-1838
858.849	-1794
858.937	-899
859.025	-991
859.113	-541
859.201	-1601
859.289	-468
859.377	-1599
859.465	-613
859.552	-1193
859.640	-1100
859.728	-995
859.816	-938
859.903	-866
859.991	-1333
860.079	-1117
860.166	-986
860.254	-1155
860.342	-784
860.429	-1899
860.517	-2090
860.604	-422
860.692	-1177
860.779	-1512
860.867	-712
860.954	-1214
861.042	-887
861.129	-631
861.216	-631
861.304	-705
861.391	-1190
861.478	-1294
861.565	-1391
861.653	-341
861.740	-887
861.827	-1745
861.914	-900
862.001	-702
862.089	-238
862.176	-1577
862.263	-839
862.350	-766
862.437	-945
862.524	-1587
862.611	-770
862.698	-581
862.785	-868
862.871	-268
862.958	-1401
863.045	-984
863.132	-989
863.219	-1379
863.306	-1401
863.392	-454
863.479	-956
863.566	-1432
863.652	-825
863.739	-1189
863.826	-693
863.912	-1378
863.999	-1247
864.086	-430
864.172	-597
864.259	-513
864.345	-774
864.432	-383
864.518	-1158
864.604	-737
864.691	-1355
864.777	-389
864.863	-140
864.950	-921
865.036	-507
865.122	-1335
865.209	-743
865.295	-130
865.381	-45
865.467	1586
865.553	-143
865.639	234
865.726	2351
865.812	6568
865.898	14556
865.984	20758
866.070	45487
866.156	39677
866.242	6282
866.328	1037
866.414	-341
866.499	-706
866.585	-466
866.671	-234
866.757	-599
866.843	-409
866.928	-824
867.014	-1660
867.100	-380
867.186	-626
867.271	-442
867.357	110
867.442	-521
867.528	-978
867.614	421
867.699	-50
867.785	520
867.870	1098
867.956	1907
868.041	534
868.127	-102
868.212	651
868.297	412
868.383	459
868.468	781
868.553	2202
868.639	2381
868.724	5798
868.809	2724
868.894	158
868.979	-1337
869.065	-71
869.150	-1632
869.235	-661
869.320	-1709
869.405	-1225
869.490	-805
869.575	-1114
869.660	-758
869.745	2
869.830	-1375
869.915	-863
870.000	-826
870.085	-691
870.169	168
870.254	-436
870.339	-1752
870.424	-193
870.509	-648
870.593	-536
870.678	-172
870.763	-694
870.847	-145
870.932	-452
871.016	370
871.101	-461
871.186	-736
871.270	-840
871.355	-822
871.439	-900
871.523	-1373
871.608	-1076
871.692	-239
871.777	-48
871.861	-1002
871.945	-1535
872.030	-1245
872.114	-1907
872.198	-445
872.282	-1310
872.367	-1152
872.451	-1585
872.535	-1063
872.619	-1059
872.703	-1113
872.787	-1355
872.871	-726
872.955	-1071
873.039	-904
873.123	-1391
873.207	-31
873.291	-809
873.375	-1183
873.459	-657
873.543	-1029
873.627	-1452
873.711	-1410
873.794	-1119
873.878	-1629
873.962	-1002
874.045	-634
874.129	-1552
874.137	-1513
874.213	-1122
874.245	-1254
874.296	-1469
874.352	-1242
874.380	-1129
874.460	-1619
874.464	-1641
874.547	-630
874.568	-665
874.631	-782
874.676	-1180
874.714	-1485
874.784	-1125
874.798	-1064
874.881	-484
874.892	-564
874.965	-1076
874.999	-825
875.048	-511
875.107	-659
875.131	-711
875.215	-838
875.215	-838
875.298	-1229
875.323	-1262
875.381	-1335
875.430	-1130
875.465	-956
875.538	-1010
875.548	-1031
875.631	-990
875.646	-1046
875.714	-1277
875.753	-1272
875.798	-1290
875.861	-825
875.881	-663
875.964	-741
875.968	-753
876.047	-894
876.076	-723
876.130	-557
876.183	-469
876.213	-329
876.291	-906
876.296	-957
876.379	-1479
876.398	-1402
876.462	-1089
876.506	-1076
876.545	-1059
876.613	-745
876.628	-664
876.711	-927
876.721	-843
876.794	-284
876.828	-535
876.877	-890
876.935	-939
876.960	-926
877.043	-244
877.043	-242
877.125	151
877.150	-8
877.208	-430
877.258	-624
877.291	-666
877.365	-292
877.374	-255
877.456	-283
877.472	-337
877.539	-737
877.579	-624
877.622	-385
877.687	-842
877.704	-984
877.787	-717
877.794	-724
877.869	-767
877.901	-612
877.952	-258
878.008	-737
878.034	-1067
878.115	-1025
878.117	-1016
878.199	-881
878.222	-823
878.282	-777
878.329	-634
878.364	-427
878.437	-565
878.447	-630
878.529	-1127
878.544	-1048
878.611	-590
878.651	-624
878.694	-558
878.758	-554
878.776	-573
878.858	-538
878.865	-505
878.941	-400
878.972	-585
879.023	-534
879.078	-478
879.105	-476
879.185	387
879.187	403
879.269	44
879.292	-74
879.351	-508
879.399	-461
879.433	-333
879.506	-303
879.516	-290
879.598	-911
879.613	-815
879.680	-504
879.720	-447
879.762	-351
879.827	-582
879.844	-648
879.926	-896
879.933	-891
880.007	-854
880.040	-683
880.089	-293
880.147	-30
880.171	115
880.253	-351
880.254	-352
880.335	-178
880.360	82
880.417	1161
880.467	1954
880.499	2282
880.574	2356
880.580	2301
880.662	400
880.680	197
880.744	-141
880.787	-312
880.825	-481
880.893	-665
880.907	-672
880.989	-392
881.000	-408
881.070	-387
881.106	-523
881.152	-707
881.213	-513
881.233	-462
881.315	-751
881.319	-744
881.396	-252
881.426	-35
881.478	83
881.532	-256
881.559	-321
881.639	290
881.641	295
881.722	-146
881.745	-318
881.803	-49
881.852	419
881.885	265
881.958	-383
881.966	-380
882.047	393
882.064	405
882.129	601
882.171	865
882.210	1737
882.277	3296
882.291	3098
882.372	881
882.383	641
882.454	34
882.489	-166
882.535	-174
882.596	-359
882.616	-446
882.697	-302
882.702	-310
882.778	-87
882.808	76
882.859	222
882.914	140
882.940	128
883.020	142
883.021	146
883.102	88
883.127	49
883.183	-37
883.233	-8
883.264	-224
883.339	-264
883.345	-226
883.426	-729
883.445	-629
883.507	214
883.551	467
883.587	332
883.657	71
883.668	115
883.749	534
883.763	558
883.830	-157
883.869	-405
883.910	-463
883.975	-539
883.991	-453
884.072	-215
884.081	-167
884.152	352
884.187	473
884.233	210
884.292	-41
884.314	14
884.394	-290
884.398	-278
884.475	-211
884.504	-255
884.555	84
884.610	268
884.636	152
884.716	65
884.716	73
884.797	392
884.821	472
884.877	-1
884.927	-246
884.958	150
885.033	683
885.038	621
885.118	-401
885.139	-604
885.199	-195
885.244	128
885.279	197
885.350	12
885.359	35
885.439	430
885.456	449
885.520	42
885.561	-94
885.600	62
885.667	284
885.680	291
885.760	322
885.773	301
885.840	62
885.878	-88
885.920	114
885.984	539
886.000	508
886.080	483
886.089	442
886.160	-236
886.195	-603
886.240	-164
886.300	497
886.320	475
886.400	612
886.406	612
886.480	796
886.511	701
886.560	838
886.616	1107
886.640	1038
886.720	1023
886.722	1012
886.800	585
886.827	390
886.879	488
886.932	631
886.959	641
887.038	551
887.039	552
887.119	73
887.143	-55
887.198	81
887.248	69
887.278	164
887.354	593
887.358	580
887.437	-13
887.459	-138
887.517	459
887.564	893
887.596	818
887.669	608
887.676	577
887.755	263
887.774	145
887.835	361
887.880	523
887.914	557
887.985	608
887.994	630
888.073	770
888.090	794
888.153	796
888.195	841
888.232	793
888.300	555
888.311	626
888.391	1082
888.405	1192
888.470	723
888.510	307
888.549	817
888.615	1792
888.628	1580
888.708	195
888.720	-32
888.787	404
888.825	688
888.866	830
888.930	981
888.945	1023
889.024	1243
889.035	1260
889.103	605
889.140	284
889.182	308
889.245	255
889.261	385
889.340	1063
889.349	1131
889.419	777
889.454	619
889.498	526
889.559	354
889.577	456
889.656	918
889.664	960
889.735	1015
889.768	1037
889.814	825
889.873	536
889.978	1400
890.083	881
890.187	551
890.292	937
890.397	583
890.501	971
890.606	421
890.710	1217
890.815	824
890.919	350
891.024	1092
891.128	239
891.233	784
891.337	1696
891.442	1085
891.546	777
891.650	1229
891.755	1137
891.859	1281
891.963	787
892.068	1109
892.172	828
892.276	-321
892.380	883
892.484	87
892.589	1355
892.693	514
892.797	644
892.901	576
893.005	934
893.109	477
893.213	839
893.317	1193
893.421	775
893.525	484
893.629	596
893.733	468
893.837	761
893.941	153
894.045	572
894.148	144
894.252	828
894.356	922
894.460	1133
894.564	470
894.667	-396
894.771	837
894.875	238
894.978	987
895.082	381
895.186	-147
895.289	1198
895.393	613
895.496	1077
895.600	-69
895.703	294
895.807	293
895.910	533
896.014	243
896.117	-579
896.221	387
896.324	760
896.427	261
896.531	395
896.634	512
896.737	611
896.840	462
896.944	1100
897.047	596
897.150	1116
897.253	695
897.356	486
897.460	157
897.563	1209
897.666	-218
897.769	54
897.872	11
897.975	923
898.078	684
898.181	948
898.284	343
898.387	1046
898.490	652
898.593	913
898.695	26
898.798	756
898.901	380
899.004	1748
899.107	669
899.209	604
899.312	307
899.415	1032
899.518	791
899.620	608
899.723	895
899.826	2658
899.928	2868
900.031	433
900.133	218
900.236	197
900.338	-532
900.441	411
900.543	146
900.646	-94
900.748	308
900.851	970
900.953	710
901.055	116
901.158	491
901.260	1370
901.362	655
901.465	-50
901.567	379
901.669	449
901.771	1305
901.873	255
901.976	393
902.078	1085
902.180	660
902.282	398
902.384	-340
902.486	333
902.588	935
902.690	469
902.792	-233
902.894	734
902.996	519
903.098	574
903.200	-458
903.302	-38
903.404	215
903.505	146
903.607	919
903.709	573
903.811	-29
903.913	756
904.014	45
904.116	6
904.218	300
904.319	1088
904.421	1337
904.523	831
904.624	849
904.726	769
904.827	721
904.929	559
905.030	1400
905.132	409
905.233	766
905.335	615
905.436	-86
905.537	975
905.639	-95
905.740	446
905.841	-179
905.943	1464
906.044	377
906.145	717
906.247	144
906.348	853
906.449	938
906.550	655
906.651	577
906.752	93
906.854	125
906.955	566
907.056	322
907.157	520
907.258	25
907.359	70
907.460	643
907.561	773
907.662	67
907.762	465
907.863	176
907.964	694
908.065	652
908.166	-205
908.267	-89
908.367	330
908.468	146
908.569	804
908.670	29
908.770	1493
908.871	352
908.971	1565
909.072	178
909.173	179
909.273	729
909.374	683
909.474	-23
909.575	700
909.675	-289
909.776	918
909.876	-267
909.977	162
910.077	479
910.177	373
910.278	53
910.378	887
910.478	717
910.579	-86
910.679	251
910.779	1249
910.879	837
910.980	1743
911.080	-702
911.180	872
911.280	521
911.380	555
911.480	162
911.580	-263
911.680	180
911.780	541
911.880	-164
911.980	635
912.080	387
912.180	343
912.280	-223
912.380	580
912.480	405
912.580	470
912.679	-398
912.779	1043
912.879	-742
912.979	194
913.078	-599
913.178	504
913.278	421
913.377	-49
913.477	74
913.577	267
913.676	-264
913.776	-84
913.875	49
913.975	477
914.074	-413
914.174	575
914.273	-966
914.373	919
914.472	666
914.572	113
914.671	44
914.770	619
914.870	-344
914.969	230
915.068	-638
915.167	248
915.267	370
915.366	0
915.465	375
915.564	228
915.663	260
915.763	678
915.862	387
915.961	-246
916.060	-290
916.159	125
916.258	-437
916.357	1092
916.456	735
916.555	122
916.654	-545
916.752	267
916.851	-137
916.950	455
917.049	147
917.148	-34
917.247	-795
917.345	410
917.444	-402
917.543	-256
917.642	-11
917.740	384
917.839	-58
917.937	-77
918.036	869
918.135	170
918.233	-246
918.332	368
918.430	199
918.529	132
918.627	492
918.726	179
918.824	187
918.923	268
919.021	-353
919.119	-214
919.218	-32
919.316	433
919.414	518
919.512	233
919.611	-582
919.709	805
919.807	237
919.905	-226
920.003	558
920.102	112
920.200	7
920.298	342
920.396	281
920.494	891
920.592	-515
920.690	104
920.788	-688
920.886	832
920.984	-111
921.082	290
921.180	-224
921.277	661
921.375	360
921.473	700
921.571	-218
921.669	287
921.766	179
921.864	115
921.962	700
922.060	320
922.157	621
922.255	533
922.352	369
922.450	788
922.548	657
922.645	616
922.743	567
922.840	1597
922.938	961
923.035	1263
923.133	775
923.230	296
923.327	444
923.425	760
923.522	1226
923.619	750
923.717	521
923.814	963
923.911	277
924.008	1051
924.106	713
924.203	417
924.300	-538
924.397	-379
924.494	925
924.591	503
924.688	268
924.786	771
924.883	1017
924.979	498
925.077	841
925.173	362
925.270	376
925.367	1191
925.464	-7
925.561	2191
925.658	298
925.755	1442
925.852	1301
925.948	1965
926.045	1391
926.142	1024
926.239	1200
926.335	2724
926.432	1639
926.529	2094
926.625	2184
926.722	951
926.818	941
926.915	328
927.011	826
927.108	846
927.204	368
927.301	665
927.397	144
927.494	748
927.590	159
927.687	773
927.783	275
927.879	889
927.976	442
928.072	671
928.168	767
928.264	935
928.361	421
928.457	517
928.553	241
928.649	1706
928.745	324
928.841	1040
928.937	345
929.033	944
929.129	505
929.225	459
929.321	230
929.417	313
929.513	388
929.609	-6
929.705	-288
929.801	3
929.897	-209
929.993	368
930.089	215
930.184	688
930.280	-394
930.376	1203
930.471	172
930.567	0
930.663	-118
930.758	775
930.854	343
930.950	313
931.045	85
931.141	412
931.236	89
931.332	846
931.427	-232
931.523	654
931.618	481
931.714	650
931.809	-59
931.905	699
932.000	-505
932.095	660
932.191	346
932.286	281
932.381	-414
932.476	226
932.572	176
932.667	-306
932.762	-105
932.857	661
932.952	617
933.047	1119
933.142	-22
933.237	-93
933.332	574
933.427	385
933.522	-16
933.617	311
933.712	-59
933.807	1034
933.902	77
933.997	656
934.092	325
934.187	-361
934.282	633
934.376	-78
934.471	600
934.566	692
934.661	373
934.755	508
934.850	731
934.945	13
935.039	551
935.134	680
935.228	19
935.323	1128
935.417	41
935.512	235
935.606	-1805
935.701	-245
935.795	-722
935.890	-38
935.984	634
936.079	-51
936.173	229
936.267	1172
936.362	-923
936.456	481
936.550	263
936.644	367
936.738	-19
936.833	982
936.927	865
937.021	388
937.115	-275
937.209	-421
937.303	356
937.397	267
937.491	433
937.585	806
937.679	493
937.773	-36
937.867	-277
937.961	349
938.055	935
938.149	1091
938.243	559
938.337	432
938.430	300
938.524	1366
938.618	1585
938.712	968
938.805	746
938.899	451
938.993	992
939.086	1015
939.180	2625
939.274	3192
939.367	-728
939.461	610
939.554	-742
939.648	-162
939.741	-238
939.835	733
939.928	-301
940.022	-232
940.115	-319
940.208	542
940.302	816
940.395	369
940.488	-327
940.582	-53
940.675	-83
940.768	16
940.861	-536
940.954	1004
941.048	-422
941.141	789
941.234	298
941.327	1152
941.420	1719
941.513	199
941.606	-614
941.699	506
941.792	-690
941.885	81
941.978	49
942.071	100
942.164	-572
942.257	587
942.349	126
942.442	196
942.535	-1713
942.628	-301
942.721	-300
942.813	-1245
942.906	345
942.999	343
943.091	16
943.184	-133
943.277	-900
943.369	98
943.462	-472
943.554	357
943.647	-600
943.739	-493
943.832	-537
943.924	-1611
944.017	109
944.109	-1384
944.201	-1011
944.294	102
944.386	530
944.478	90
944.571	188
944.663	-771
944.755	-606
944.847	-504
944.940	-550
945.032	-367
945.124	-839
945.216	960
945.308	-79
945.400	446
945.492	-283
945.584	-587
945.676	-302
945.768	-51
945.860	-84
945.952	845
946.044	-312
946.136	-103
946.228	-604
946.320	-107
946.412	-488
946.503	-37
946.595	-118
946.687	97
946.779	-696
946.870	176
946.962	-611
947.054	293
947.145	181
947.237	54
947.329	-310
947.420	-589
947.512	-161
947.603	-494
947.695	98
947.786	-882
947.878	-419
947.969	-521
948.061	-1269
948.152	-863
948.243	407
948.335	-67
948.426	-957
948.517	-813
948.609	-675
948.700	-49
948.791	-925
948.882	-564
948.973	-1154
949.065	97
949.156	-703
949.247	-399
949.338	-981
949.429	-458
949.520	-473
949.611	-434
949.702	-173
949.793	-1051
949.884	-817
949.975	-605
950.066	-883
950.157	-122
950.247	-238
950.338	-1008
950.429	-1180
950.520	-712
950.611	-1418
950.701	-442
950.792	-1204
950.883	-479
950.973	-753
951.064	-214
951.155	-379
951.245	121
951.336	-610
951.427	-527
951.517	270
951.608	-1079
951.698	-899
951.788	-876
951.879	-905
951.969	-740
952.060	-726
952.150	-299
952.240	-377
952.331	-1629
952.421	400
952.511	-1704
952.602	-1278
952.692	-368
952.782	-956
952.872	-751
952.962	-1055
953.052	242
953.143	-1446
953.233	80
953.323	-432
953.413	-884
953.503	-583
953.593	-195
953.683	-256
953.773	-1004
953.863	-860
953.953	-1003
954.042	-876
954.132	-202
954.222	-425
954.312	-235
954.402	-197
954.492	119
954.581	-235
954.671	-288
954.761	-2006
954.850	243
954.940	-715
955.030	-678
955.119	-261
955.209	-587
955.298	-1118
955.388	-608
955.477	79
955.567	-745
955.656	-138
955.746	-983
955.835	-1729
955.925	-933
956.014	-1068
956.103	-572
956.193	-322
956.282	-373
956.371	-1349
956.461	-1024
956.550	-1016
956.639	-613
956.728	-1105
956.817	-236
956.906	-157
956.995	-752
957.085	-1274
957.174	-1322
957.263	-1308
957.352	-311
957.441	-668
957.530	-783
957.619	-410
957.708	-902
957.796	-760
957.885	-149
957.974	-1159
958.063	-49
958.152	-1489
958.241	-345
958.329	-921
958.418	-1008
958.507	-1145
958.596	60
958.684	-1875
958.773	-112
958.861	-220
958.950	-283
959.039	-890
959.127	-675
959.216	-422
959.304	-763
959.393	-984
959.481	-275
959.570	-1197
959.658	-460
959.746	203
959.835	153
959.923	-325
960.011	-1157
960.100	-416
960.188	-682
960.276	-196
960.365	-133
960.453	-1346
960.541	-1153
960.629	-367
960.717	-235
960.805	-2092
960.893	-392
960.981	-1226
961.069	-9
961.158	-417
961.245	-473
961.333	-1099
961.421	-1707
961.509	-1414
961.597	-202
961.685	-1304
961.773	-1298
961.861	-1339
961.949	-406
962.036	-1383
962.124	-381
962.212	-1357
962.299	-709
962.387	-1506
962.475	-725
962.562	-1514
962.650	41
962.738	-1471
962.825	-1125
962.913	-1289
963.000	-1295
963.088	-1045
963.175	-743
963.263	-1314
963.350	-794
963.438	-581
963.525	-1089
963.612	-703
963.700	934
963.787	2343
963.874	244
963.962	21
964.049	-216
964.136	-1173
964.223	-1080
964.310	-2155
964.398	-320
964.485	-1177
964.572	-397
964.659	-1080
964.746	-603
964.833	-1504
964.920	-1122
965.007	-966
965.094	120
965.181	-1573
965.268	-579
965.355	-964
965.441	-785
965.528	-2127
965.615	365
965.702	-1622
965.789	-1031
965.875	-1827
965.962	-821
966.049	-2055
966.136	-597
966.222	-2161
966.309	251
966.395	-1023
966.482	-310
966.569	-1282
966.655	-1020
966.742	-1451
966.828	-1048
966.915	-675
967.001	-1390
967.087	-1801
967.174	141
967.260	-396
967.347	-1230
967.433	666
967.519	873
967.605	-573
967.692	-1326
967.778	-1040
967.864	-1299
967.950	-1746
968.036	-1138
968.123	-1116
968.209	-814
968.295	-1242
968.381	1063
968.467	-945
968.553	-1621
968.639	31
968.725	-958
968.811	-555
968.897	-577
968.983	-1649
969.069	-1836
969.154	-812
969.240	-563
969.326	-2141
969.412	-1421
969.497	-739
969.583	-684
969.669	-477
969.755	188
969.840	-1666
969.926	-488
970.012	-1675
970.097	-672
970.183	-1292
970.268	-1233
970.354	-227
970.439	-849
970.525	652
970.610	-909
970.696	-214
970.781	-178
970.866	-1887
970.952	-573
971.037	-1177
971.122	-982
971.208	-1093
971.293	-939
971.378	-2324
971.463	-671
971.549	-814
971.634	-1601
971.719	-712
971.804	-1617
971.889	-419
971.974	-982
972.059	-1878
972.144	-562
972.229	-953
972.314	-285
972.399	-1413
972.484	-746
972.569	-811
972.654	-1626
972.739	-176
972.824	-903
972.908	-1133
972.993	-983
973.078	-984
973.163	-1564
973.247	-1140
973.332	-2120
973.417	-911
973.501	-1713
973.586	-1123
973.671	-1725
973.755	-1494
973.840	-302
973.924	-341
974.009	-671
974.093	-1101
974.178	419
974.262	-1073
974.346	-971
974.431	-1520
974.515	-1315
974.600	-792
974.684	-532
974.768	-793
974.852	-753
974.937	-1961
975.021	-941
975.105	-1319
975.189	-250
975.273	-619
975.358	-119
975.442	-1231
975.526	-1058
975.610	-1917
975.694	-1807
975.778	-696
975.862	-929
975.946	-2807
976.030	362
976.114	-1086
976.198	140
976.281	-1101
976.365	-344
976.449	-2111
976.533	-246
976.617	-1578
976.700	-1347
976.784	-1357
976.868	-1326
976.951	-816
977.035	-793
977.119	-940
977.202	-1156
977.286	-1215
977.369	-647
977.453	-1518
977.536	-1264
977.620	-1502
977.703	22
977.787	-1786
977.870	-834
977.953	-427
978.037	-2159
978.120	-401
978.203	-118
978.287	-903
978.370	-845
978.453	-1706
978.536	-1104
978.620	-233
978.703	-802
978.786	-1525
978.869	-1140
978.952	-2100
979.035	340
979.118	-1520
979.201	-1389
979.284	-1536
979.367	-1905
979.450	-895
979.533	-1846
979.616	-1088
979.699	-1128
979.782	-727
979.865	-769
979.948	-1891
980.030	-1369
980.113	-984
980.196	-1230
980.279	-982
980.361	-1283
980.444	-1276
980.526	-452
980.609	-1015
980.692	-1229
980.774	-816
980.857	-1091
980.939	-844
981.022	-1757
981.104	-2274
981.187	-2177
981.269	-1118
981.352	-1046
981.434	-2611
981.516	-1385
981.599	-1101
981.681	-677
981.763	-1407
981.846	-1122
981.928	-1471
982.010	-1191
982.092	-2045
982.174	-337
982.256	-1192
982.339	-1418
982.421	-1494
982.503	-87
982.585	-1734
982.667	-768
982.749	-1673
982.831	-957
982.913	-2285
982.995	85
983.077	-2101
983.158	-308
983.240	-2044
983.322	-747
983.404	-1155
983.486	-1482
983.568	-1104
983.649	-1097
983.731	-482
983.813	-2032
983.894	-625
983.976	-2028
984.058	-1281
984.139	-581
984.221	-2485
984.302	-1843
984.384	-1478
984.465	-2010
984.547	-1600
984.628	-1541
984.710	-835
984.791	-818
984.872	-874
984.954	-1629
985.035	-1319
985.116	-1076
985.198	-2371
985.279	222
985.360	-1869
985.441	-514
985.522	-1506
985.604	-1330
985.685	-3412
985.766	-792
985.847	-479
985.928	-1902
986.009	-1183
986.090	-1220
986.171	-1291
986.252	-613
986.333	-1631
986.414	-1995
986.495	-1301
986.576	-770
986.656	-1399
986.737	-784
986.818	-1307
986.899	-1448
986.980	-2128
987.060	-415
987.141	-1757
987.222	-695
987.302	-1286
987.383	-419
987.464	-1754
987.544	-828
987.625	-1549
987.705	-1572
987.786	-1685
987.866	-1061
987.947	-1403
988.027	-934
988.108	-2279
988.188	-278
988.268	-1478
988.349	-373
988.429	-1424
988.509	-1119
988.589	-1405
988.670	-2693
988.750	-308
988.830	-500
988.910	-1401
988.990	-1303
989.070	-2557
989.151	-624
989.231	-2137
989.311	-912
989.391	-1434
989.471	-1034
989.551	-1571
989.631	-900
989.711	-1065
989.791	-2143
989.870	-2266
989.950	-729
990.030	-636
990.110	-1086
990.190	-1958
990.269	-487
990.349	-2000
990.429	-1487
990.509	-2079
990.588	-1455
990.668	-1470
990.747	-1341
990.827	-1281
990.907	-1561
990.986	-1916
991.066	-1255
991.145	-1312
991.225	-767
991.304	-1693
991.383	-444
991.463	-1921
991.542	-1774
991.622	-1870
991.701	-1506
991.780	-2931
991.859	-1328
991.939	-1493
992.018	-943
992.097	-1206
992.176	-479
992.256	-2236
992.335	-1911
992.414	-1647
992.493	-1582
992.572	-1674
992.651	-155
992.730	-1779
992.809	-1354
992.888	-2031
992.967	-1439
993.046	-1260
993.125	-3200
993.203	-2158
993.282	-1723
993.361	-1798
993.440	-737
993.519	-2265
993.597	-1618
993.676	-2331
993.755	132
993.834	-990
993.912	-2108
993.991	-1259
994.069	-1181
994.148	-2246
994.226	-1428
994.305	-1367
994.384	-1920
994.462	-2049
994.540	-2058
994.619	-2124
994.697	-728
994.776	-2458
994.854	-985
994.932	-1721
995.011	-1471
995.089	-2034
995.167	-847
995.245	-1634
995.324	-1750
995.402	-2154
995.480	-1899
995.558	-2086
995.636	-2027
995.714	-1809
995.792	-1007
995.870	-2080
995.948	-1035
996.026	-1774
996.104	-2518
996.182	-1227
996.260	-1425
996.338	-1504
996.416	-2303
996.494	-2246
996.572	-473
996.649	-1895
996.727	-2463
996.805	-1439
996.883	-1412
996.960	-1763
997.038	-920
997.116	-1793
997.193	-1701
997.271	-1732
997.348	-1351
997.426	-2174
997.504	-1971
997.581	-2039
997.658	-900
997.736	-2161
997.813	-1742
997.891	-966
997.968	-1247
998.046	-2606
998.123	-2246
998.200	-2155
998.277	-2401
998.355	-848
998.432	-2031
998.509	-2266
998.586	-883
998.663	-1754
998.741	-2011
998.818	-903
998.895	-2476
998.972	-1658
999.049	-1236
999.126	-1493
999.203	-1161
999.280	-2174
999.357	-1232
999.434	-1572
999.511	-2145
999.587	-1362
999.664	-1716
999.741	-2016
999.818	-1062
999.895	-1828
999.971	-1961
1000.048	-2522
1000.125	-1036
1000.202	-2545
1000.278	-1787
1000.355	-1967
1000.431	-1737
1000.508	-2354
1000.584	-1540
1000.661	-2445
1000.738	-2287
1000.814	-2095
1000.890	-1443
1000.967	-2058
1001.043	-725
1001.120	-2603
1001.196	-1033
1001.272	-2438
1001.349	-1410
1001.425	-1901
1001.501	-1788
1001.577	-2388
1001.654	-1555
1001.730	-2894
1001.806	-1850
1001.882	-2826
1001.958	-1073
1002.034	-1541
1002.110	-1548
1002.186	-2365
1002.262	-1925
1002.338	-2168
1002.414	-1579
1002.490	-2051
1002.566	-2532
1002.642	-1737
1002.718	-1518
1002.794	-1674
1002.870	-1365
1002.945	-2207
1003.021	-1945
1003.097	-2418
1003.173	-1002
1003.248	-3158
1003.324	-1848
1003.400	-2144
1003.475	-1968
1003.551	-2515
1003.626	-1631
1003.702	-2595
1003.777	-1900
1003.853	-2238
1003.928	-2202
1004.004	-1818
1004.079	-1726
1004.155	-2086
1004.230	-2584
1004.305	-1494
1004.381	-2131
1004.456	-2506
1004.531	-1670
1004.607	-1807
1004.682	-1681
1004.757	-2179
1004.832	-1615
1004.907	-2577
1004.982	-1980
1005.057	-1416
1005.133	-1908
1005.208	-2133
1005.283	-1951
1005.358	-1101
1005.433	-1817
1005.508	-1651
1005.583	-2603
1005.657	-2496
1005.732	-1034
1005.807	-2790
1005.882	-1980
1005.957	-1852
1006.032	-1493
1006.106	-1820
1006.181	-1932
1006.256	-1358
1006.331	-1211
1006.405	-2127
1006.480	-1336
1006.554	-2782
1006.629	-1087
1006.704	-2197
1006.778	-1367
1006.853	-1729
1006.927	-1259
1007.002	-2889
1007.076	-990
1007.150	-2336
1007.225	-2242
1007.299	-1833
1007.373	-2525
1007.448	-1621
1007.522	-916
1007.596	-1466
1007.671	-2139
1007.745	-1792
1007.819	-2918
1007.893	-2677
1007.967	-2011
1008.041	-2531
1008.115	-1192
1008.190	-2115
1008.264	-1334
1008.338	-3083
1008.412	-2591
1008.486	-1576
1008.560	-1734
1008.633	-1824
1008.707	-1463
1008.781	-2061
1008.855	-1779
1008.929	-2799
1009.003	-2157
1009.076	-879
1009.150	-1347
1009.224	-3213
1009.298	-1328
1009.371	-2954
1009.445	-728
1009.519	-1968
1009.592	-2961
1009.666	-1799
1009.739	-607
1009.813	-2152
1009.886	-1343
1009.960	-2691
1010.033	-1144
1010.107	-2346
1010.180	-2381
1010.253	-1795
1010.327	-2357
1010.400	-2245
1010.473	-1935
1010.547	-1408
1010.620	-1690
1010.693	-2026
1010.766	-2188
1010.840	-1122
1010.913	-1275
1010.986	-2559
1011.059	-1559
1011.132	-2010
1011.205	-979
1011.278	-2253
1011.351	-1999
1011.424	-2435
1011.497	-1366
1011.570	-1892
1011.643	-1946
1011.716	-2749
1011.789	-2058
1011.862	-2571
1011.934	-1293
1012.007	-2930
1012.080	-1374
1012.153	-1989
1012.225	-2141
1012.298	-3085
1012.371	-1972
1012.443	-1972
1012.516	-2649
1012.588	-1977
1012.661	-2207
1012.733	-2221
1012.806	-1022
1012.879	-2422
1012.951	-1881
1013.023	-1970
1013.096	-1669
1013.168	-1997
1013.241	-1223
1013.313	-2593
1013.385	-2064
1013.458	-2915
1013.530	-1360
1013.602	-1926
1013.674	-1247
1013.746	-2862
1013.819	-2039
1013.891	-2529
1013.963	-1815
1014.035	-1819
1014.107	-1700
1014.179	-1607
1014.251	-2559
1014.323	-1384
1014.395	-1725
1014.467	-1325
1014.539	-1768
1014.611	-2384
1014.683	-1597
1014.754	-1868
1014.826	-2169
1014.898	-2562
1014.970	-2529
1015.042	-2022
1015.113	-1825
1015.185	-1724
1015.257	-2696
1015.328	-2178
1015.400	-1729
1015.471	-2036
1015.543	-2711
1015.615	-1392
1015.686	-1511
1015.757	-2322
1015.829	-1254
1015.901	-2798
1015.972	-1096
1016.043	-2966
1016.115	-1736
1016.186	-1463
1016.257	-1898
1016.328	-2686
1016.400	-1463
1016.471	-2977
1016.542	-2123
1016.613	-2041
1016.685	-1703
1016.756	-2677
1016.827	-1616
1016.898	-3199
1016.969	-1451
1017.040	-1558
1017.111	-2151
1017.182	-2587
1017.253	-1401
1017.324	-2387
1017.395	-2584
1017.466	-1489
1017.537	-2200
1017.608	-2148
1017.678	-1574
1017.749	-2295
1017.820	-2390
1017.891	-2830
1017.961	-1438
1018.032	-2207
1018.103	-1629
1018.173	-1944
1018.244	-2244
1018.315	-1912
1018.385	-1979
1018.456	-2258
1018.526	-1918
1018.597	-2336
1018.667	-1792
1018.738	-1946
1018.808	-1939
1018.878	-2614
1018.949	-1271
1019.019	-1234
1019.089	-1197
1019.160	-2726
1019.230	-2321
1019.300	-1899
1019.371	-2790
1019.441	-1850
1019.511	-1831
1019.581	-1603
1019.651	-1229
1019.721	-1466
1019.791	-2177
1019.861	-2261
1019.931	-999
1020.001	-2874
1020.071	-2586
1020.141	-2835
1020.211	-1962
1020.281	-2028
1020.351	-2425
1020.421	-1784
1020.491	-1077
1020.560	-2717
1020.630	-2221
1020.700	-1927
1020.770	-1383
1020.839	-2044
1020.909	-2576
1020.979	-2231
1021.048	-1442
1021.118	-2167
1021.187	-1369
1021.257	-2019
1021.326	-1724
1021.396	-2642
1021.465	-2337
1021.535	-1989
1021.604	-2323
1021.674	-1552
1021.743	-2158
1021.812	-1810
1021.882	-2010
1021.951	-2468
1022.020	-2713
1022.089	-2048
1022.159	-2647
1022.228	-1438
1022.297	-2020
1022.366	-1921
1022.435	-1745
1022.504	-2128
1022.573	-2448
1022.642	-2213
1022.711	-2432
1022.781	-2153
1022.849	-1873
1022.918	-2995
1022.987	-990
1023.056	-1801
1023.125	-1757
1023.194	-2377
1023.263	-1923
1023.331	-2359
1023.400	-2112
1023.469	-1998
1023.538	-2183
1023.606	-2256
1023.675	-1809
1023.744	-1647
1023.812	-1780
1023.881	-2326
1023.949	-1581
1024.018	-3234
1024.086	-2177
1024.155	-1654
1024.223	-2418
1024.292	-2325
1024.360	-1854
1024.429	-2155
1024.497	-2597
1024.565	-2560
1024.634	-1844
1024.702	-1805
1024.770	-1534
1024.838	-2294
1024.907	-1921
1024.975	-2561
1025.043	-1186
1025.111	-3000
1025.179	-2111
1025.247	-2518
1025.315	-2046
1025.383	-2141
1025.451	-1444
1025.519	-2126
1025.587	-2273
1025.655	-2239
1025.723	-1396
1025.791	-2296
1025.859	-2362
1025.927	-2337
1025.995	-1936
1026.062	-2230
1026.130	-2135
1026.198	-2748
1026.266	-1254
1026.333	-1510
1026.401	-1726
1026.469	-1823
1026.536	-2214
1026.604	-2331
1026.671	-1806
1026.739	-2640
1026.806	-2202
1026.874	-2036
1026.941	-1880
1027.009	-2106
1027.076	-2224
1027.144	-1373
1027.211	-2348
1027.278	-3133
1027.345	-1861
1027.413	-2979
1027.480	-2384
1027.547	-1990
1027.614	-2046
1027.682	-2512
1027.749	-1768
1027.816	-2335
1027.883	-1470
1027.950	-1931
1028.017	-2418
1028.084	-1847
1028.151	-2767
1028.218	-2122
1028.285	-1869
1028.352	-2534
1028.419	-2050
1028.486	-2646
1028.553	-2618
1028.619	-2875
1028.686	-2216
1028.753	-2623
1028.820	-1818
1028.886	-3063
1028.953	-2069
1029.020	-2795
1029.086	-2129
1029.153	-2812
1029.220	-2060
1029.286	-3441
1029.353	-1936
1029.419	-2367
1029.486	-1983
1029.552	-3123
1029.619	-2550
1029.685	-2266
1029.751	-2130
1029.818	-2007
1029.884	-2312
1029.951	-2349
1030.017	-2626
1030.083	-2107
1030.149	-2484
1030.216	-2719
1030.282	-947
1030.348	-2597
1030.414	-2414
1030.480	-3271
1030.546	-2270
1030.612	-2887
1030.678	-2157
1030.744	-2570
1030.810	-1822
1030.876	-2947
1030.942	-2756
1031.008	-3291
1031.074	-2017
1031.140	-2427
1031.206	-1187
1031.272	-3261
1031.337	-1740
1031.403	-2941
1031.469	-2181
1031.534	-2615
1031.600	-1725
1031.666	-2785
1031.731	-2788
1031.797	-1481
1031.863	-2457
1031.928	-2644
1031.994	-2127
1032.059	-2929
1032.125	-1724
1032.190	-2662
1032.256	-2509
1032.321	-2908
1032.386	-2656
1032.452	-2123
1032.517	-1818
1032.582	-2191
1032.647	-1300
1032.713	-2680
1032.778	-2119
1032.843	-2964
1032.908	-2142
1032.974	-2825
1033.039	-1960
1033.104	-2440
1033.169	-2443
1033.234	-3152
1033.299	-1826
1033.364	-2468
1033.429	-2000
1033.494	-2812
1033.559	-1910
1033.624	-2835
1033.688	-2214
1033.753	-3312
1033.818	-2234
1033.883	-2812
1033.948	-2478
1034.013	-2877
1034.077	-2017
1034.142	-2964
1034.207	-2150
1034.271	-1872
1034.336	-1168
1034.400	-2866
1034.465	-2116
1034.530	-2370
1034.594	-2412
1034.658	-2662
1034.723	-2174
1034.787	-2325
1034.852	-2268
1034.916	-2572
1034.981	-2162
1035.045	-2479
1035.109	-2844
1035.173	-1884
1035.238	-2479
1035.302	-2828
1035.366	-2860
1035.430	-3151
1035.495	-2357
1035.559	-1926
1035.623	-1809
1035.687	-2739
1035.751	-1738
1035.815	-2356
1035.879	-2334
1035.943	-2600
1036.007	-2100
1036.071	-2452
1036.135	-2594
1036.198	-2327
1036.262	-2206
1036.326	-3044
1036.390	-1927
1036.454	-2451
1036.517	-1404
1036.581	-2324
1036.645	-2454
1036.709	-2112
1036.772	-2082
1036.836	-2170
1036.900	-1677
1036.963	-3038
1037.026	-2844
1037.090	-2972
1037.154	-1822
1037.217	-2799
1037.280	-2897
1037.344	-2490
1037.407	-2804
1037.471	-2690
1037.534	-1928
1037.597	-2053
1037.661	-2166
1037.724	-2702
1037.787	-2888
1037.850	-2349
1037.913	-1666
1037.977	-1485
1038.040	-2487
1038.103	-2582
1038.166	-2658
1038.229	-1452
1038.292	-2727
1038.355	-2838
1038.418	-2264
1038.481	-2073
1038.544	-2380
1038.607	-2401
1038.670	-2095
1038.732	-2348
1038.795	-2757
1038.858	-2693
1038.921	-1958
1038.984	-1371
1039.046	-2110
1039.109	-2762
1039.172	-2237
1039.234	-2353
1039.297	-3016
1039.360	-2535
1039.422	-2070
1039.485	-2128
1039.547	-3069
1039.610	-2675
1039.672	-2709
1039.734	-2858
1039.797	-1684
1039.859	-2764
1039.922	-2136
1039.984	-1941
1040.046	-2006
1040.109	-2954
1040.171	-3030
1040.233	-2366
1040.295	-2394
1040.358	-2588
1040.420	-2015
1040.482	-2554
1040.544	-2936
1040.606	-2417
1040.668	-2230
1040.730	-3016
1040.792	-2449
1040.854	-2362
1040.916	-2086
1040.978	-2261
1041.040	-1661
1041.102	-2649
1041.164	-2691
1041.225	-2367
1041.287	-1760
1041.349	-2451
1041.411	-2322
1041.472	-2160
1041.534	-2463
1041.596	-2886
1041.657	-2642
1041.719	-2582
1041.781	-2777
1041.842	-2142
1041.904	-2006
1041.965	-2628
1042.027	-1628
1042.088	-2342
1042.150	-2238
1042.211	-2624
1042.272	-2494
1042.334	-2676
1042.395	-1979
1042.456	-2513
1042.518	-2256
1042.579	-1952
1042.640	-2559
1042.701	-2556
1042.763	-2395
1042.824	-2356
1042.885	-1782
1042.946	-1920
1043.007	-1886
1043.068	-3081
1043.129	-1887
1043.190	-2450
1043.251	-1576
1043.312	-2189
1043.373	-1902
1043.434	-2868
1043.495	-2242
1043.556	-2864
1043.616	-2050
1043.677	-2376
1043.738	-1471
1043.799	-2163
1043.859	-2260
1043.920	-1913
1043.981	-2326
1044.041	-2656
1044.102	-2749
1044.162	-2269
1044.223	-2622
1044.284	-2505
1044.344	-2602
1044.405	-2579
1044.465	-2207
1044.525	-3208
1044.586	-2375
1044.646	-2410
1044.707	-1254
1044.767	-2876
1044.827	-2383
1044.887	-2588
1044.948	-2234
1045.008	-2230
1045.068	-3109
1045.128	-2121
1045.188	-2404
1045.249	-1962
1045.309	-1113
1045.369	-2216
1045.429	-1390
1045.489	-2491
1045.549	-2262
1045.609	-2534
1045.669	-2193
1045.729	-2747
1045.789	-1484
1045.848	-2088
1045.908	-2230
1045.968	-2491
1046.028	-1914
1046.088	-1595
1046.147	-1611
1046.207	-2314
1046.267	-1576
1046.326	-2125
1046.386	-1677
1046.446	-1729
1046.505	-1294
1046.565	-1547
1046.624	-754
1046.684	-1444
1046.743	-1086
1046.803	-874
1046.862	-892
1046.922	0
