'Start Wavelength	183.907
'End Wavelength	1046.922
'Gate Delay	5.000
'Gate Width (ms)	1.050
'Laser Output Level	0.000
'X Position	0.000
'Y Position	0.000
'Z Position	0.000
'Grid Point Number	1.000
'Shot Number	100.000
183.907	903.000
183.977	-509.000
184.047	345
184.116	288
184.186	98
184.256	-142
184.325	494
184.395	-1150
184.465	2062
184.534	435
184.604	349
184.674	-138
184.743	190
184.813	595
184.883	198
184.952	353
185.022	376
185.092	-220
185.161	654
185.231	-517
185.301	1009
185.370	783
185.440	720
185.509	-289
185.579	302
185.649	83
185.718	167
185.788	569
185.857	440
185.927	110
185.996	-210
186.066	85
186.136	195
186.205	-936
186.275	599
186.344	242
186.414	124
186.483	-303
186.553	1493
186.622	416
186.692	931
186.761	399
186.831	1105
186.900	173
186.970	739
187.039	-36
187.109	965
187.178	-51
187.248	804
187.317	1211
187.387	-1
187.456	-215
187.526	877
187.595	-141
187.664	433
187.734	1148
187.803	998
187.873	231
187.942	982
188.012	458
188.081	319
188.150	622
188.220	1268
188.289	1048
188.358	1407
188.428	170
188.497	760
188.567	601
188.636	894
188.705	788
188.775	978
188.844	-894
188.913	1556
188.983	451
189.052	1016
189.121	-658
189.191	958
189.260	1093
189.329	733
189.399	606
189.468	1060
189.537	-192
189.606	642
189.676	670
189.745	1244
189.814	579
189.883	479
189.953	178
190.022	1672
190.091	2526
190.161	4690
190.230	1626
190.299	1093
190.368	860
190.437	1070
190.507	355
190.576	1846
190.645	892
190.714	975
190.783	-449
190.853	1003
190.922	612
190.991	363
191.060	849
191.129	992
191.198	1046
191.268	380
191.337	451
191.406	1405
191.475	986
191.544	875
191.613	723
191.682	674
191.752	1242
191.821	853
191.890	796
191.959	1102
192.028	-114
192.097	816
192.166	508
192.235	-422
192.304	207
192.373	737
192.442	-435
192.511	1510
192.580	126
192.650	98
192.719	-83
192.788	1741
192.857	1243
192.926	951
192.995	1294
193.064	1442
193.133	2070
193.202	2928
193.271	2805
193.340	2156
193.409	1894
193.478	2034
193.547	2413
193.615	3766
193.684	3138
193.753	2748
193.822	1287
193.891	2093
193.960	1697
194.029	1463
194.098	1177
194.167	1011
194.236	1079
194.305	1373
194.374	1141
194.443	918
194.512	1325
194.580	1909
194.649	1141
194.718	2494
194.787	1681
194.856	566
194.925	1302
194.994	1477
195.062	1565
195.131	1694
195.200	1494
195.269	1751
195.338	603
195.407	1467
195.475	1821
195.544	1792
195.613	1484
195.682	716
195.751	1374
195.819	1910
195.888	1908
195.957	2735
196.026	1842
196.094	2624
196.163	1625
196.232	2177
196.301	1404
196.369	1783
196.438	1812
196.507	1996
196.576	1527
196.644	1932
196.713	29
196.782	1448
196.850	1285
196.919	915
196.988	1066
197.056	1313
197.125	1247
197.194	1663
197.262	1340
197.331	930
197.400	1144
197.468	1007
197.537	174
197.606	1940
197.674	2470
197.743	4501
197.812	858
197.880	3550
197.949	3017
198.017	4242
198.086	3072
198.155	1716
198.223	1567
198.292	5075
198.360	2041
198.429	1574
198.497	1630
198.566	2668
198.635	4358
198.703	2661
198.772	1597
198.840	4367
198.909	4607
198.977	1599
199.046	1538
199.114	1896
199.183	2155
199.251	981
199.320	1248
199.388	1122
199.457	2026
199.525	2150
199.594	1046
199.662	1223
199.731	1505
199.799	1907
199.867	1969
199.936	1703
200.004	2089
200.073	2319
200.141	776
200.210	981
200.278	1405
200.346	1471
200.415	2024
200.483	2632
200.552	2243
200.620	1951
200.688	664
200.757	2161
200.825	1000
200.893	1383
200.962	1827
201.030	1686
201.098	1046
201.167	1537
201.235	839
201.303	3267
201.372	1572
201.440	2104
201.508	2314
201.577	3014
201.645	1523
201.713	1592
201.781	1578
201.850	3481
201.918	1339
201.986	2271
202.055	2626
202.123	2003
202.191	1900
202.259	1590
202.327	1457
202.396	1257
202.464	1448
202.532	3136
202.600	6549
202.669	5192
202.737	2567
202.805	2421
202.873	1969
202.941	2681
203.009	2191
203.078	1336
203.146	1775
203.214	1808
203.282	796
203.350	1940
203.418	1499
203.487	1711
203.555	1735
203.623	2568
203.691	1027
203.759	1820
203.827	2142
203.895	1917
203.963	1628
204.031	1519
204.099	1402
204.168	1840
204.236	2827
204.304	2938
204.372	1633
204.440	2326
204.508	968
204.576	1557
204.644	1442
204.712	2411
204.780	2388
204.848	2069
204.916	2079
204.984	1803
205.052	2399
205.120	1855
205.188	2800
205.256	1861
205.324	1570
205.392	2490
205.460	2372
205.528	2465
205.596	1667
205.664	1974
205.732	2212
205.799	5062
205.867	9137
205.935	3273
206.003	2884
206.071	2258
206.139	1870
206.207	2609
206.275	2677
206.343	2765
206.411	1664
206.478	2251
206.546	2100
206.614	2378
206.682	2495
206.750	1938
206.818	2889
206.885	3950
206.953	935
207.021	2601
207.089	2337
207.157	2130
207.225	1881
207.292	1707
207.360	1895
207.428	2245
207.496	2196
207.563	2969
207.631	2461
207.699	2503
207.767	2247
207.834	1833
207.902	2615
207.970	2406
208.038	2351
208.105	2706
208.173	2040
208.241	4372
208.309	3013
208.376	3375
208.444	4499
208.512	3862
208.579	2617
208.647	3515
208.715	4116
208.782	3744
208.850	2809
208.918	2488
208.985	2255
209.053	3554
209.120	2544
209.188	2863
209.256	2334
209.323	2636
209.391	3096
209.459	4461
209.526	2346
209.594	2221
209.661	2392
209.729	3553
209.796	2781
209.864	3167
209.932	1349
209.999	3809
210.067	3658
210.134	3526
210.202	2820
210.269	4863
210.337	3748
210.404	3396
210.472	2877
210.539	2795
210.607	3284
210.674	4088
210.742	3632
210.809	3468
210.877	3185
210.944	5257
211.012	2182
211.079	4815
211.146	2775
211.214	2871
211.281	3730
211.349	4837
211.416	3664
211.484	4096
211.551	2779
211.618	3755
211.686	3995
211.753	3265
211.821	3482
211.888	4428
211.955	2980
212.023	3453
212.090	3048
212.157	4089
212.225	3337
212.292	7264
212.359	10755
212.427	23441
212.494	12824
212.561	6998
212.629	3786
212.696	4947
212.763	4019
212.831	3730
212.898	3977
212.965	3448
213.032	3746
213.100	4703
213.167	3667
213.234	5470
213.301	3229
213.369	3825
213.436	3235
213.503	3723
213.570	4464
213.638	5335
213.705	2812
213.772	3668
213.839	3590
213.906	4928
213.973	4460
214.041	3397
214.108	4037
214.175	4475
214.242	3457
214.309	4294
214.376	4134
214.444	3871
214.511	4242
214.578	4116
214.645	4355
214.712	4998
214.779	4022
214.846	4290
214.913	5473
214.980	4284
215.048	4595
215.115	6116
215.182	5237
215.249	5356
215.316	4043
215.383	4318
215.450	3776
215.517	4195
215.584	3877
215.651	4325
215.718	3498
215.785	5367
215.852	4643
215.919	5878
215.986	5098
216.053	4480
216.120	3356
216.187	4776
216.254	4598
216.321	4437
216.388	5545
216.455	6076
216.522	4775
216.589	5899
216.656	9115
216.722	9015
216.789	6775
216.856	7009
216.923	5248
216.990	5270
217.057	5557
217.124	6981
217.191	5863
217.258	7874
217.324	8200
217.391	9014
217.458	7181
217.525	5403
217.592	5788
217.659	4784
217.725	6822
217.792	7171
217.859	6985
217.926	4172
217.993	3780
218.059	4748
218.126	4455
218.193	4270
218.260	2870
218.327	3228
218.393	3909
218.460	4263
218.527	3244
218.594	4131
218.660	6933
218.727	7861
218.794	4333
218.860	3963
218.927	2565
218.994	3531
219.061	3016
219.127	4573
219.194	5943
219.261	4483
219.327	2893
219.394	3142
219.461	1763
219.527	3145
219.594	4479
219.661	5012
219.727	2162
219.794	3885
219.860	3011
219.927	5343
219.994	5180
220.060	8534
220.127	7392
220.193	6035
220.260	5588
220.326	7960
220.393	10146
220.460	13128
220.526	9003
220.593	7566
220.659	7348
220.726	7591
220.792	13514
220.859	14735
220.925	16696
220.992	19662
221.058	18647
221.125	19055
221.191	14441
221.258	7946
221.324	6667
221.391	5975
221.457	5421
221.524	4935
221.590	6833
221.657	16651
221.723	12618
221.789	10804
221.856	10851
221.922	7260
221.989	4715
222.055	4238
222.121	3542
222.188	6962
222.254	4106
222.321	4501
222.387	3111
222.453	3424
222.520	2968
222.586	3745
222.652	3361
222.719	2443
222.785	3724
222.851	4080
222.918	2425
222.984	4362
223.050	3646
223.116	3284
223.183	4133
223.249	2899
223.315	2838
223.382	2452
223.448	2373
223.514	2305
223.580	2570
223.647	3059
223.713	2786
223.779	3805
223.845	2451
223.911	3030
223.978	1729
224.044	3418
224.110	2721
224.176	2851
224.242	2505
224.309	2489
224.375	4042
224.441	2702
224.507	1598
224.573	2679
224.639	3481
224.705	2477
224.772	2966
224.838	3067
224.904	3412
224.970	2921
225.036	2928
225.102	2904
225.168	3673
225.234	3427
225.300	2710
225.366	2870
225.432	3700
225.499	3683
225.565	3009
225.631	4218
225.697	3413
225.763	5266
225.829	5443
225.895	5933
225.961	7881
226.027	8063
226.093	5913
226.159	8927
226.225	11281
226.291	21680
226.357	31343
226.423	20041
226.489	12929
226.554	9258
226.620	8170
226.686	9549
226.752	14830
226.818	21019
226.884	37403
226.950	34695
227.016	17435
227.082	12370
227.148	9284
227.214	9409
227.279	6745
227.345	6908
227.411	5901
227.477	6166
227.543	10018
227.609	11206
227.674	6800
227.740	6557
227.806	4852
227.872	4484
227.938	4019
228.003	7141
228.069	5019
228.135	3684
228.201	3980
228.267	3987
228.332	5126
228.398	6377
228.464	4744
228.530	2831
228.595	2957
228.661	2938
228.727	5889
228.792	6910
228.858	4134
228.924	4063
228.990	6742
229.055	4925
229.121	6350
229.187	4357
229.252	4032
229.318	3606
229.384	4292
229.449	5633
229.515	2499
229.581	1967
229.646	4375
229.712	4784
229.777	7916
229.843	10799
229.909	7199
229.974	7853
230.040	7132
230.105	6086
230.171	6534
230.236	7875
230.302	11042
230.368	9562
230.433	4974
230.499	5967
230.564	6217
230.630	3913
230.695	4449
230.761	5702
230.826	2857
230.892	7433
230.957	4011
231.023	4403
231.088	4302
231.154	4389
231.219	5149
231.284	5632
231.350	6811
231.415	4717
231.481	4527
231.546	3667
231.612	3665
231.677	3157
231.742	2880
231.808	5286
231.873	2613
231.939	2241
232.004	6997
232.069	7473
232.135	4386
232.200	3899
232.265	3044
232.331	3416
232.396	2585
232.461	3032
232.527	2869
232.592	3576
232.657	3542
232.723	6320
232.788	6002
232.853	4510
232.918	2871
232.984	2502
233.049	2908
233.114	6108
233.179	5863
233.245	8037
233.310	10916
233.375	4213
233.440	3549
233.506	3144
233.571	3163
233.636	3564
233.701	3285
233.766	7078
233.832	9872
233.897	5260
233.962	4467
234.027	7167
234.092	5084
234.157	4869
234.222	5280
234.288	7002
234.353	19043
234.418	19684
234.483	12024
234.548	9331
234.613	6787
234.678	6891
234.743	6928
234.808	21150
234.873	14438
234.938	7390
235.004	5892
235.069	6783
235.134	5265
235.199	5693
235.264	4412
235.329	3705
235.394	5807
235.459	7211
235.524	5828
235.589	5476
235.654	5183
235.719	4180
235.784	5228
235.849	5548
235.913	11212
235.978	12932
236.043	15449
236.108	7309
236.173	5573
236.238	7891
236.303	4831
236.368	5420
236.433	8164
236.498	15121
236.563	11153
236.627	17775
236.692	48339
236.757	46104
236.822	22334
236.887	17647
236.952	14001
237.017	11073
237.081	12164
237.146	13196
237.211	26840
237.276	50273
237.341	73628
237.405	46926
237.470	21029
237.535	16405
237.600	10191
237.664	8852
237.729	7862
237.794	9973
237.859	18075
237.923	15008
237.988	9407
238.053	12201
238.118	12242
238.182	24209
238.247	25093
238.312	12938
238.376	10605
238.441	7167
238.506	8133
238.570	4415
238.635	4995
238.700	6067
238.764	5792
238.829	11412
238.893	15480
238.958	9081
239.023	8225
239.087	5791
239.152	6465
239.216	5578
239.281	5415
239.346	5172
239.410	4870
239.475	6344
239.539	22608
239.604	21786
239.668	7858
239.733	5300
239.797	7004
239.862	15878
239.926	23013
239.991	10250
240.055	6180
240.120	6138
240.184	6223
240.249	5273
240.313	4771
240.378	5543
240.442	14349
240.507	25347
240.571	8966
240.635	11133
240.700	16492
240.764	7741
240.829	6032
240.893	3541
240.957	5650
241.022	14254
241.086	25004
241.151	13722
241.215	6096
241.279	8334
241.344	14495
241.408	9034
241.472	6652
241.537	7651
241.601	6805
241.665	6077
241.730	5929
241.794	7384
241.858	6340
241.922	6892
241.987	6467
242.051	6300
242.115	5397
242.179	7125
242.244	4645
242.308	7359
242.372	6827
242.436	8060
242.501	7373
242.565	5636
242.629	5150
242.693	6472
242.757	4327
242.822	5588
242.886	6480
242.950	7226
243.014	5987
243.078	7899
243.142	7772
243.206	6791
243.271	7841
243.335	7011
243.399	10173
243.463	30544
243.527	74363
243.591	28360
243.655	14229
243.719	9016
243.783	9068
243.847	13341
243.911	17622
243.975	20883
244.040	15654
244.104	10025
244.168	6961
244.232	10614
244.296	16576
244.360	15521
244.424	10295
244.488	8435
244.552	8834
244.615	5500
244.679	5454
244.743	7607
244.807	7678
244.871	6513
244.935	5360
244.999	4677
245.063	5881
245.127	7265
245.191	10170
245.255	11660
245.319	9838
245.383	9177
245.446	7957
245.510	5631
245.574	7010
245.638	7070
245.702	5731
245.766	16212
245.829	11051
245.893	8405
245.957	6967
246.021	8207
246.085	8137
246.149	9947
246.212	20588
246.276	30999
246.340	15657
246.404	11659
246.467	10048
246.531	15835
246.595	10951
246.659	10383
246.722	8903
246.786	12967
246.850	11097
246.913	15483
246.977	7847
247.041	8559
247.104	9814
247.168	9592
247.232	18665
247.295	38484
247.359	21513
247.423	11370
247.486	18140
247.550	13294
247.614	8739
247.677	14430
247.741	9178
247.804	8053
247.868	9349
247.932	17004
247.995	37260
248.059	18411
248.122	8510
248.186	11694
248.249	19730
248.313	56234
248.376	62188
248.440	43484
248.503	18157
248.567	15501
248.630	20394
248.694	28280
248.757	32501
248.821	62003
248.884	42998
248.948	37381
249.011	50087
249.075	71094
249.138	64582
249.202	30038
249.265	19823
249.328	23858
249.392	17573
249.455	14966
249.519	11374
249.582	14696
249.645	21763
249.709	17788
249.772	12482
249.835	12510
249.899	14105
249.962	11657
250.025	10464
250.089	23811
250.152	35908
250.215	20361
250.279	14436
250.342	14798
250.405	13262
250.468	12868
250.532	15981
250.595	24659
250.658	66159
250.721	113462
250.785	48057
250.848	26973
250.911	16744
250.974	15539
251.038	19975
251.101	39040
251.164	24182
251.227	23197
251.290	21179
251.354	28675
251.417	90030
251.480	102220
251.543	70999
251.606	155739
251.669	136831
251.732	60684
251.795	56999
251.859	57746
251.922	106091
251.985	74261
252.048	31073
252.111	24435
252.174	22308
252.237	37536
252.300	74250
252.363	79180
252.426	135030
252.489	70804
252.552	38819
252.615	27338
252.678	27321
252.741	55889
252.804	71697
252.867	139861
252.930	97612
252.993	56135
253.056	33835
253.119	26019
253.182	19178
253.245	32213
253.308	27679
253.371	25500
253.434	23931
253.497	22334
253.559	36807
253.622	29511
253.685	35605
253.748	39570
253.811	19868
253.874	25294
253.937	23931
254.000	17072
254.062	26137
254.125	42074
254.188	35747
254.251	33668
254.314	16759
254.376	29056
254.439	33788
254.502	29131
254.565	28019
254.628	49364
254.690	32514
254.753	20008
254.816	16140
254.878	17559
254.941	28241
255.004	30864
255.067	15199
255.129	15771
255.192	9481
255.255	8807
255.317	11081
255.380	8792
255.443	6571
255.505	7095
255.568	6709
255.631	7751
255.693	8561
255.756	7793
255.819	7034
255.881	6452
255.944	6363
256.006	6692
256.069	6851
256.132	6719
256.194	9412
256.257	24747
256.319	19229
256.382	17926
256.444	10612
256.507	9016
256.569	7811
256.632	8974
256.694	15246
256.757	29837
256.819	80378
256.882	41536
256.944	18541
257.007	15564
257.069	16548
257.132	11788
257.194	10115
257.257	9433
257.319	9358
257.381	11480
257.444	24157
257.506	86186
257.569	110344
257.631	63098
257.693	33468
257.756	18554
257.818	17189
257.880	10687
257.943	10045
258.005	8574
258.067	8826
258.130	9012
258.192	10184
258.254	21698
258.317	14262
258.379	9516
258.441	20632
258.503	22063
258.566	25127
258.628	37515
258.690	11516
258.753	12123
258.815	20232
258.877	13556
258.939	8946
259.001	8759
259.064	7804
259.126	11062
259.188	14889
259.250	11187
259.312	11953
259.375	29047
259.437	21841
259.499	10033
259.561	8860
259.623	10152
259.685	8326
259.747	9310
259.809	22560
259.872	48741
259.934	62173
259.996	63369
260.058	18991
260.120	10608
260.182	8735
260.244	7456
260.306	6985
260.368	8173
260.430	7268
260.492	14002
260.554	28342
260.616	24523
260.678	33295
260.740	51598
260.802	14930
260.864	12420
260.926	9541
260.988	11285
261.050	10013
261.112	18916
261.174	46744
261.236	41571
261.298	15111
261.359	21809
261.421	32670
261.483	11893
261.545	9596
261.607	6553
261.669	7227
261.731	13898
261.793	35200
261.854	18437
261.916	11949
261.978	10333
262.040	11489
262.102	9260
262.164	14781
262.225	13309
262.287	8885
262.349	19315
262.411	17901
262.472	9135
262.534	14157
262.596	33430
262.658	11763
262.719	8835
262.781	10673
262.843	30860
262.904	15677
262.966	11379
263.028	13502
263.090	47194
263.151	129975
263.213	48924
263.275	26737
263.336	14013
263.398	9472
263.459	7247
263.521	7854
263.583	18078
263.644	15257
263.706	8180
263.767	4694
263.829	5890
263.891	4432
263.952	4183
264.014	4828
264.075	8858
264.137	20903
264.198	13129
264.260	5862
264.321	6832
264.383	13166
264.444	33989
264.506	11530
264.567	8434
264.629	13019
264.690	25902
264.752	13184
264.813	9538
264.875	6245
264.936	7184
264.998	5582
265.059	5832
265.120	6476
265.182	10679
265.243	41036
265.305	50439
265.366	14058
265.427	9244
265.489	7908
265.550	5467
265.611	7758
265.673	8075
265.734	6749
265.795	5747
265.857	4600
265.918	6474
265.979	13912
266.040	65002
266.102	66882
266.163	20949
266.224	16531
266.286	10128
266.347	7150
266.408	7403
266.469	7498
266.530	6491
266.592	5738
266.653	12461
266.714	23345
266.775	9522
266.836	6867
266.898	5951
266.959	9734
267.020	8639
267.081	7194
267.142	5513
267.203	5011
267.264	5301
267.326	7595
267.387	6052
267.448	4570
267.509	6155
267.570	5151
267.631	5090
267.692	4815
267.753	6264
267.814	5062
267.875	11259
267.936	25681
267.997	15131
268.058	13398
268.119	9794
268.180	7980
268.241	7082
268.302	5410
268.363	5490
268.424	6589
268.485	7001
268.546	4716
268.607	4879
268.668	3642
268.729	4995
268.790	4905
268.851	6642
268.912	14751
268.972	21584
269.033	12160
269.094	6897
269.155	5952
269.216	5170
269.277	6375
269.338	6467
269.398	5133
269.459	8011
269.520	10525
269.581	12730
269.642	16276
269.702	11604
269.763	8977
269.824	7117
269.885	7938
269.945	15340
270.006	6737
270.067	4589
270.128	5184
270.188	5254
270.249	5282
270.310	5277
270.370	5276
270.431	5890
270.492	4464
270.553	6432
270.613	13008
270.674	26219
270.734	12831
270.795	7388
270.856	9912
270.916	10081
270.977	6241
271.038	8901
271.098	9053
271.159	13747
271.219	14158
271.280	6655
271.340	5490
271.401	8253
271.462	19724
271.522	12421
271.583	7225
271.643	7737
271.704	7432
271.764	9264
271.825	19049
271.885	57540
271.946	82336
272.006	31711
272.066	33939
272.127	61970
272.187	22115
272.248	14112
272.308	13213
272.369	38637
272.429	25906
272.489	20140
272.550	22041
272.610	21400
272.671	18077
272.731	15187
272.791	26601
272.852	17075
272.912	13678
272.972	9017
273.033	7793
273.093	14273
273.153	13388
273.214	10184
273.274	10990
273.334	27960
273.394	61957
273.455	29968
273.515	24688
273.575	53985
273.635	26177
273.696	30334
273.756	58852
273.816	28729
273.876	17014
273.936	29188
273.997	55031
274.057	17788
274.117	13769
274.177	19332
274.237	65657
274.297	67224
274.358	47808
274.418	46889
274.478	40219
274.538	18433
274.598	14445
274.658	42774
274.718	59399
274.778	26354
274.838	13602
274.898	24352
274.958	78891
275.018	62578
275.078	42371
275.138	20420
275.198	11404
275.258	9728
275.318	11748
275.378	21662
275.438	24197
275.498	16613
275.558	32503
275.618	69913
275.678	45920
275.738	27562
275.798	23199
275.858	13629
275.918	8348
275.978	10877
276.038	10474
276.098	8455
276.157	15638
276.217	46429
276.277	23107
276.337	18102
276.397	10315
276.457	13005
276.517	9602
276.576	8301
276.636	6396
276.696	13298
276.756	26627
276.815	24317
276.875	11663
276.935	13980
276.995	11565
277.055	7813
277.114	7458
277.174	11221
277.234	34758
277.293	18310
277.353	10525
277.413	8555
277.472	9447
277.532	10711
277.592	10406
277.651	30682
277.711	63080
277.771	24390
277.830	65712
277.890	63436
277.950	39225
278.009	103786
278.069	46356
278.128	41161
278.188	64683
278.248	30983
278.307	64574
278.367	46214
278.426	16694
278.486	11912
278.545	9367
278.605	9140
278.664	8886
278.724	10031
278.783	21157
278.843	56816
278.902	21095
278.962	14563
279.021	15987
279.081	22718
279.140	24206
279.199	17780
279.259	17169
279.318	18494
279.378	21492
279.437	39590
279.496	112283
279.556	281879
279.615	257053
279.675	84235
279.734	48659
279.793	65368
279.853	95151
279.912	39302
279.971	23142
280.031	22166
280.090	32091
280.149	57674
280.208	52768
280.268	187612
280.327	221199
280.386	65673
280.445	43339
280.505	41155
280.564	21333
280.623	17408
280.682	21942
280.742	34797
280.801	14069
280.860	11455
280.919	10377
280.978	9614
281.037	8928
281.097	8793
281.156	8926
281.215	8965
281.274	10088
281.333	34985
281.392	31441
281.451	10698
281.510	8074
281.569	7953
281.628	7421
281.688	7305
281.747	7929
281.806	8224
281.865	6556
281.924	6757
281.983	6909
282.042	5908
282.101	6435
282.160	7141
282.219	6010
282.278	7615
282.337	22519
282.396	19936
282.454	9034
282.513	10541
282.572	34769
282.631	25325
282.690	8720
282.749	7724
282.808	10051
282.867	9990
282.926	10467
282.985	7093
283.043	5956
283.102	6829
283.161	8583
283.220	16934
283.279	37867
283.338	14912
283.396	9168
283.455	9556
283.514	9882
283.573	15936
283.631	13092
283.690	8902
283.749	9455
283.808	17732
283.866	22605
283.925	10779
283.984	10623
284.043	13479
284.101	14522
284.160	10128
284.219	12273
284.277	12798
284.336	18128
284.395	47792
284.453	44276
284.512	19040
284.570	25174
284.629	24573
284.688	21278
284.746	24263
284.805	27862
284.863	35998
284.922	45908
284.981	55238
285.039	75739
285.098	124134
285.156	229195
285.215	288700
285.273	276247
285.332	252528
285.390	162075
285.449	104179
285.507	72340
285.566	53554
285.624	41782
285.683	32355
285.741	26464
285.799	22996
285.858	21084
285.916	18755
285.975	15948
286.033	13397
286.091	12075
286.150	11928
286.208	10767
286.267	12692
286.325	11763
286.383	19216
286.442	16015
286.500	10197
286.558	8729
286.616	8943
286.675	11575
286.733	11978
286.791	9636
286.850	12489
286.908	13753
286.966	23491
287.024	11622
287.083	9468
287.141	6843
287.199	8137
287.257	12432
287.315	10349
287.374	10796
287.432	23050
287.490	17728
287.548	11211
287.606	8929
287.664	8433
287.723	11343
287.781	16618
287.839	9275
287.897	11548
287.955	13764
288.013	20647
288.071	43701
288.129	136260
288.187	342263
288.245	194397
288.303	67565
288.361	39319
288.419	29170
288.477	20971
288.535	14670
288.593	13008
288.651	10465
288.709	8704
288.767	7593
288.825	8327
288.883	6509
288.941	6771
288.999	6818
289.057	6369
289.115	6064
289.173	7803
289.231	7160
289.289	7776
289.346	6281
289.404	8764
289.462	13156
289.520	15984
289.578	8433
289.636	5234
289.694	4887
289.751	5592
289.809	4577
289.867	5728
289.925	8128
289.983	10324
290.040	6095
290.098	6292
290.156	7043
290.214	9636
290.271	6401
290.329	4446
290.387	4661
290.444	5367
290.502	4751
290.560	4828
290.617	5780
290.675	5806
290.733	5556
290.790	7707
290.848	4639
290.906	6340
290.963	6253
291.021	6287
291.078	5225
291.136	7391
291.194	16114
291.251	42087
291.309	14929
291.366	6488
291.424	6153
291.481	7359
291.539	6803
291.596	7961
291.654	4967
291.711	5208
291.769	6513
291.826	14701
291.884	11227
291.941	5487
291.999	6300
292.056	7569
292.114	8533
292.171	6602
292.228	6508
292.286	8724
292.343	14831
292.401	19992
292.458	12641
292.515	9352
292.573	10772
292.630	9682
292.687	9850
292.745	8972
292.802	11119
292.859	25418
292.917	43684
292.974	29737
293.031	11662
293.089	8280
293.146	6709
293.203	7052
293.260	5599
293.318	8704
293.375	12274
293.432	9180
293.489	6251
293.546	7229
293.604	11045
293.661	26858
293.718	65803
293.775	38559
293.832	19812
293.889	16973
293.947	16114
294.004	12904
294.061	11509
294.118	20382
294.175	40394
294.232	48936
294.289	24638
294.346	13264
294.403	12058
294.460	11520
294.517	8469
294.574	8371
294.631	7020
294.688	10057
294.745	21261
294.802	67261
294.859	80453
294.916	36837
294.973	21496
295.030	17696
295.087	15060
295.144	12074
295.201	9031
295.258	8096
295.315	10762
295.372	26266
295.429	53634
295.486	27015
295.542	16632
295.599	29378
295.656	54878
295.713	39548
295.770	50237
295.827	22999
295.883	12498
295.940	12260
295.997	18748
296.054	20435
296.111	12090
296.167	8382
296.224	7201
296.281	7709
296.338	6985
296.394	7384
296.451	9497
296.508	21394
296.564	44526
296.621	34537
296.678	54640
296.734	88485
296.791	37766
296.848	19506
296.904	19657
296.961	41666
297.018	58387
297.074	46605
297.131	19654
297.187	15627
297.244	19171
297.301	49239
297.357	95120
297.414	38816
297.470	16598
297.527	11905
297.583	10653
297.640	12553
297.696	9208
297.753	7979
297.809	6242
297.866	6496
297.922	6160
297.979	7055
298.035	8129
298.092	13218
298.148	30924
298.204	35246
298.261	19233
298.317	27290
298.374	68216
298.430	47664
298.486	23084
298.543	18379
298.599	14333
298.656	16993
298.712	24997
298.768	60443
298.824	48545
298.881	18495
298.937	11499
298.993	10100
299.050	14191
299.106	13256
299.162	10389
299.218	11399
299.275	8893
299.331	11404
299.387	18297
299.443	56547
299.500	69437
299.556	29776
299.612	15932
299.668	14519
299.724	16578
299.780	18271
299.837	12897
299.893	17843
299.949	50152
300.005	68086
300.061	51134
300.117	86754
300.173	48374
300.229	23469
300.285	27386
300.341	33731
300.397	18433
300.453	12060
300.510	10115
300.566	11411
300.622	12804
300.678	29470
300.734	58217
300.790	55183
300.845	63743
300.901	42486
300.957	54502
301.013	49515
301.069	20650
301.125	15249
301.181	16269
301.237	13651
301.293	9363
301.349	8842
301.405	7950
301.461	7517
301.516	9128
301.572	10967
301.628	20052
301.684	20072
301.740	22754
301.796	39974
301.851	28434
301.907	44317
301.963	49618
302.019	64439
302.074	151741
302.130	167783
302.186	82999
302.242	35158
302.297	24306
302.353	24161
302.409	37438
302.464	37539
302.520	29570
302.576	62005
302.631	76959
302.687	49708
302.743	22114
302.798	14749
302.854	11409
302.910	13854
302.965	14997
303.021	25732
303.076	25150
303.132	30661
303.187	38118
303.243	22747
303.299	12300
303.354	10057
303.410	9242
303.465	9041
303.521	7619
303.576	9746
303.632	12298
303.687	18795
303.743	49397
303.798	51861
303.853	22748
303.909	14124
303.964	12967
304.020	17538
304.075	28851
304.130	26316
304.186	44174
304.241	48369
304.297	38978
304.352	23196
304.358	22269
304.407	14764
304.449	13533
304.463	13131
304.518	13912
304.539	13721
304.573	13422
304.629	12711
304.630	12834
304.684	18912
304.720	32210
304.739	38839
304.794	64179
304.811	55480
304.850	34631
304.902	17593
304.905	16510
304.960	12065
304.992	12350
305.015	12525
305.071	13617
305.083	13093
305.126	11239
305.173	8815
305.181	8425
305.236	7444
305.264	7744
305.292	8070
305.347	11141
305.354	11269
305.402	12131
305.445	13301
305.457	13620
305.512	15824
305.535	16315
305.567	16976
305.622	16884
305.626	17308
305.678	27492
305.716	48229
305.733	55422
305.788	69884
305.807	60613
305.843	44768
305.897	51707
305.898	51739
305.953	56365
305.988	40177
306.008	31537
306.063	19316
306.078	18050
306.118	15069
306.168	10707
306.173	10337
306.228	9300
306.259	8363
306.283	7692
306.338	7684
306.349	7815
306.393	8442
306.440	10205
306.448	10522
306.503	10983
306.530	11989
306.558	14832
306.613	28209
306.620	30581
306.668	45328
306.711	56166
306.723	57092
306.778	48889
306.801	38030
306.833	25436
306.888	14413
306.892	13990
306.943	10699
306.982	9715
306.997	9368
307.052	8253
307.072	8404
307.107	9341
307.162	11723
307.163	11775
307.217	17306
307.253	20796
307.272	21472
307.327	24861
307.343	22922
307.381	18857
307.434	17131
307.436	17488
307.491	30386
307.524	45510
307.546	49704
307.600	51835
307.614	46434
307.655	30150
307.704	16694
307.710	16013
307.765	17988
307.795	21091
307.819	24409
307.874	39781
307.885	40256
307.929	33551
307.975	24545
307.984	24494
308.038	31956
308.065	39686
308.093	64964
308.148	130935
308.156	145805
308.202	217178
308.246	267507
308.257	264079
308.312	158442
308.336	115293
308.366	87310
308.421	57804
308.426	55143
308.475	35356
308.517	25972
308.530	24053
308.585	20070
308.607	19287
308.639	19433
308.694	20979
308.697	21202
308.748	34271
308.787	49740
308.803	49807
308.857	40961
308.877	35023
308.912	29418
308.967	26780
308.967	26834
309.021	36001
309.058	45584
309.076	56013
309.130	95230
309.148	111480
309.185	191326
309.238	321617
309.239	322253
309.293	341797
309.328	321526
309.348	285767
309.402	151421
309.418	116750
309.457	82577
309.508	53679
309.511	52717
309.566	48921
309.598	49729
309.620	56810
309.674	80572
309.688	87618
309.729	84008
309.778	68927
309.783	67447
309.837	48207
309.868	38998
309.892	42702
309.946	57389
309.959	63089
310.001	78394
310.049	91563
310.055	88934
310.109	54745
310.139	34708
310.163	27429
310.218	17528
310.229	16194
310.272	13293
310.319	10823
310.326	10536
310.381	9418
310.409	9016
310.435	8591
310.489	7772
310.499	7702
310.543	7852
310.589	8237
310.598	8163
310.652	8015
310.679	7746
310.706	6824
310.760	4985
310.769	4724
310.814	4814
310.859	5083
310.868	5060
310.923	5063
310.948	5215
310.977	5923
311.031	7266
311.038	7471
311.085	7132
311.128	6621
311.139	6597
311.193	6585
311.218	6615
311.247	6208
311.301	5395
311.308	5308
311.356	4752
311.398	4344
311.410	4299
311.464	4247
311.488	4207
311.518	4247
311.572	4371
311.578	4414
311.626	6902
311.668	9284
311.680	9242
311.734	8744
311.758	8609
311.788	8419
311.842	8083
311.847	8067
311.896	10231
311.937	12268
311.950	11892
312.004	10286
312.027	9545
312.058	8397
312.112	6483
312.117	6315
312.165	5846
312.207	5501
312.297	7234
312.386	6174
312.476	7380
312.566	14950
312.656	6291
312.745	4298
312.835	5839
312.925	5101
313.015	5272
313.104	5792
313.194	4518
313.284	4986
313.374	7267
313.463	6314
313.553	4743
313.643	4295
313.732	4103
313.822	3263
313.912	5397
314.001	6312
314.091	6076
314.180	7832
314.270	8019
314.360	9765
314.449	7268
314.539	5173
314.628	4716
314.718	6379
314.808	8198
314.897	4603
314.987	5705
315.076	7756
315.166	10004
315.255	8817
315.345	9088
315.434	8825
315.524	7554
315.613	8693
315.703	12540
315.792	18601
315.881	53191
315.971	18768
316.060	17610
316.150	26086
316.239	26226
316.328	8920
316.418	5407
316.507	5985
316.597	8842
316.686	7162
316.775	13214
316.865	27174
316.954	6663
317.043	4637
317.133	5420
317.222	5009
317.311	5361
317.400	4092
317.490	7788
317.579	9744
317.668	7370
317.757	12730
317.847	29167
317.936	94189
318.025	36554
318.114	21648
318.203	13265
318.293	16599
318.382	29438
318.471	22464
318.560	30355
318.649	55334
318.738	12410
318.828	9925
318.917	11094
319.006	13800
319.095	33599
319.184	74723
319.273	41721
319.362	21821
319.451	8746
319.540	8478
319.629	18769
319.718	30857
319.807	14240
319.896	27172
319.985	91451
320.074	32608
320.163	10009
320.252	17664
320.341	12369
320.430	11242
320.519	15529
320.608	8611
320.697	7029
320.786	8117
320.875	10043
320.964	13053
321.053	21529
321.142	31890
321.230	31164
321.319	24107
321.408	53908
321.497	21260
321.586	21781
321.675	27658
321.764	24081
321.852	16410
321.941	31349
322.030	20307
322.119	22368
322.207	57650
322.296	39256
322.385	19244
322.474	23606
322.562	68613
322.651	32414
322.740	25909
322.829	36063
322.917	38413
323.006	20435
323.095	18194
323.183	14396
323.272	23001
323.361	39153
323.449	119389
323.538	37233
323.626	81965
323.715	46802
323.804	20238
323.892	73854
323.981	38711
324.069	12635
324.158	40764
324.246	35038
324.335	13185
324.424	20421
324.512	8472
324.601	14445
324.689	38556
324.778	71795
324.866	32054
324.954	8393
325.043	7936
325.131	16816
325.220	30605
325.308	32502
325.397	24136
325.485	13119
325.574	5705
325.662	5392
325.750	6600
325.839	5368
325.927	4906
326.015	7164
326.104	12995
326.192	17936
326.280	6197
326.369	4894
326.457	9465
326.545	16347
326.634	6766
326.722	3848
326.810	5406
326.898	4506
326.987	6308
327.075	15083
327.163	18105
327.251	11015
327.340	28193
327.428	38493
327.516	6776
327.604	5485
327.692	6260
327.781	7798
327.869	13055
327.957	8095
328.045	7812
328.133	3793
328.221	6332
328.309	5462
328.397	4688
328.485	7281
328.574	10755
328.662	36620
328.750	19766
328.838	8381
328.926	4671
329.014	3502
329.102	7734
329.190	18940
329.278	12357
329.366	4593
329.454	3368
329.542	3611
329.630	3228
329.718	4847
329.806	6547
329.893	5228
329.981	6753
330.069	11789
330.157	43548
330.245	116469
330.333	57474
330.421	11060
330.509	13024
330.597	43741
330.684	25624
330.772	9667
330.860	12458
330.948	14165
331.036	6418
331.123	2546
331.211	3996
331.299	5238
331.387	13275
331.475	21315
331.562	7162
331.650	3470
331.738	5961
331.825	7541
331.913	4259
332.001	4281
332.089	6985
332.176	14867
332.264	38106
332.352	27117
332.439	7676
332.527	5496
332.614	5357
332.702	7310
332.790	5966
332.877	17364
332.965	35280
333.052	10471
333.140	12138
333.228	26761
333.315	6782
333.403	6968
333.490	21919
333.578	19288
333.665	31585
333.753	13956
333.840	5792
333.928	8031
334.015	23703
334.103	35415
334.190	99234
334.278	23033
334.365	10684
334.452	7083
334.540	5573
334.627	8337
334.715	12537
334.802	28598
334.889	142085
334.977	128336
335.064	16829
335.151	7338
335.239	7274
335.326	10989
335.413	48349
335.501	57273
335.588	9000
335.675	5950
335.762	8257
335.850	13849
335.937	12996
336.024	35316
336.111	139384
336.199	51429
336.286	9968
336.373	5528
336.460	4575
336.547	3672
336.635	6477
336.722	5378
336.809	6175
336.896	10410
336.983	30584
337.070	69458
337.157	98169
337.245	88763
337.332	58374
337.419	7732
337.506	5556
337.593	6772
337.680	23213
337.767	60058
337.854	18123
337.941	20020
338.028	29364
338.115	9534
338.202	12103
338.289	24947
338.376	87919
338.463	25907
338.550	38316
338.637	35982
338.724	17366
338.811	24718
338.898	5749
338.984	4226
339.071	6364
339.158	7986
339.245	21459
339.332	12472
339.419	18076
339.506	15583
339.593	2816
339.679	4637
339.766	3610
339.853	7116
339.940	15089
340.027	4602
340.113	5638
340.200	8032
340.287	5476
340.374	7139
340.460	14096
340.547	5248
340.634	11950
340.720	43251
340.807	23166
340.894	4631
340.980	5317
341.067	3970
341.154	5782
341.240	9653
341.327	19973
341.414	7899
341.500	7499
341.587	5258
341.674	4632
341.760	13781
341.847	15139
341.933	5991
342.020	2415
342.106	2702
342.193	5641
342.279	11316
342.366	8403
342.452	13883
342.539	7702
342.625	19170
342.712	45087
342.798	17472
342.885	6647
342.971	2565
343.058	3010
343.144	3267
343.230	3462
343.317	4208
343.403	3545
343.490	3116
343.576	2682
343.662	4309
343.749	5682
343.835	7284
343.921	15909
344.008	88584
344.094	180653
344.180	38216
344.267	17128
344.353	52903
344.439	51725
344.525	21034
344.612	8019
344.698	5765
344.784	4098
344.870	3833
344.957	4755
345.043	7793
345.129	6350
345.215	12709
345.301	8087
345.387	4451
345.474	3305
345.560	3151
345.646	5481
345.732	4023
345.818	5693
345.904	4717
345.990	5362
346.076	6438
346.162	12507
346.249	5641
346.335	3710
346.421	5331
346.507	24933
346.593	72051
346.679	15111
346.765	4539
346.851	4325
346.937	4140
347.023	4700
347.108	5303
347.194	4191
347.280	4798
347.366	7087
347.452	23661
347.538	91029
347.624	62321
347.710	49475
347.796	7973
347.882	4414
347.967	3246
348.053	5487
348.139	4034
348.225	3307
348.311	4375
348.397	2681
348.482	5412
348.568	6429
348.654	3005
348.740	4695
348.825	4222
348.911	11214
348.997	43687
349.083	78098
349.168	12175
349.254	5767
349.340	5249
349.425	3784
349.511	6295
349.597	7433
349.682	16647
349.768	51106
349.854	21000
349.939	5295
350.025	3545
350.110	2826
350.196	3067
350.282	2594
350.367	3186
350.453	9159
350.538	8541
350.624	6296
350.709	6236
350.795	3592
350.880	2941
350.966	6029
351.051	8072
351.137	6431
351.222	5146
351.308	18428
351.393	43323
351.479	10963
351.564	4998
351.649	5188
351.735	3676
351.820	3195
351.906	4060
351.991	7413
352.076	30597
352.162	39758
352.247	7343
352.332	6423
352.418	13228
352.503	17247
352.588	65124
352.673	48784
352.759	10950
352.844	5992
352.929	6765
353.014	9755
353.100	6484
353.185	11245
353.270	16975
353.355	16248
353.441	4807
353.526	7186
353.611	15592
353.696	16198
353.781	8837
353.866	4636
353.952	5759
354.037	15481
354.122	33579
354.207	29053
354.292	9527
354.377	4589
354.462	4664
354.547	6209
354.632	6232
354.717	8321
354.802	11896
354.887	4814
354.972	3371
355.057	3145
355.142	2371
355.227	5959
355.312	9977
355.397	22494
355.482	52685
355.567	23688
355.652	19676
355.737	21103
355.822	62852
355.907	45717
355.991	7526
356.076	3755
356.161	4447
356.246	3329
356.331	5432
356.416	17241
356.501	103728
356.585	94800
356.670	13568
356.755	9763
356.840	15785
356.924	76554
357.009	239094
357.094	79979
357.179	18741
357.263	12204
357.348	12031
357.433	11608
357.517	10883
357.602	8453
357.687	6215
357.771	10612
357.856	16836
357.941	15242
358.025	57589
358.110	225488
358.195	92996
358.279	15361
358.364	12612
358.448	44981
358.533	112956
358.617	78820
358.702	78982
358.787	26225
358.871	16036
358.956	13119
359.040	4750
359.125	3199
359.209	5045
359.294	8228
359.378	11902
359.462	11609
359.547	7826
359.631	5978
359.716	2978
359.800	4292
359.885	8144
359.969	4737
360.053	5203
360.138	5275
360.222	8585
360.306	16014
360.391	11454
360.475	17115
360.559	33914
360.644	43664
360.728	30187
360.812	59678
360.896	146178
360.981	55986
361.065	27659
361.149	9295
361.233	8058
361.318	6925
361.402	7989
361.486	7883
361.570	4972
361.654	8485
361.739	23565
361.823	103178
361.907	141822
361.991	24448
362.075	15749
362.159	30856
362.243	21176
362.327	18995
362.411	21449
362.495	12729
362.580	6497
362.664	5213
362.748	4715
362.832	6040
362.916	10424
363.000	38054
363.084	119949
363.168	164897
363.252	36791
363.336	14580
363.420	21752
363.503	69847
363.587	69557
363.671	14337
363.755	10452
363.839	15764
363.923	6494
364.007	17385
364.091	18589
364.175	28423
364.258	105376
364.342	65042
364.426	67595
364.510	35569
364.594	20421
364.677	30986
364.761	133492
364.845	82920
364.929	28384
365.013	23120
365.096	19602
365.180	21624
365.264	32686
365.347	105183
365.431	40290
365.515	11004
365.598	6380
365.682	6892
365.766	10762
365.849	12712
365.933	7560
366.017	10158
366.100	6356
366.184	3698
366.267	5583
366.351	5042
366.435	3676
366.518	3260
366.602	3448
366.685	5346
366.769	6333
366.852	10411
366.936	17183
367.019	10377
367.103	8029
367.186	14014
367.270	4527
367.353	3189
367.436	4502
367.520	3741
367.603	6523
367.687	11215
367.770	19011
367.853	11703
367.937	39653
368.020	58035
368.104	14072
368.187	14521
368.270	20695
368.353	17896
368.437	26703
368.520	61247
368.603	34154
368.687	49080
368.770	79280
368.853	18295
368.936	17959
369.020	16134
369.103	6591
369.186	4713
369.269	5673
369.352	13061
369.436	17437
369.519	10570
369.602	4423
369.685	7857
369.768	6501
369.851	5865
369.934	4154
370.018	6671
370.101	15931
370.184	12733
370.267	8417
370.350	16271
370.433	24771
370.516	68890
370.599	81372
370.682	26350
370.765	44334
370.848	56329
370.931	101871
371.014	33723
371.097	8346
371.180	6793
371.263	4081
371.346	2210
371.429	4735
371.511	4601
371.594	10040
371.677	16715
371.760	17404
371.843	16873
371.926	84669
372.009	175840
372.091	53213
372.174	41815
372.257	92299
372.340	33162
372.423	24654
372.505	26220
372.588	13251
372.671	34636
372.754	101898
372.836	44340
372.919	35666
373.002	56699
373.085	17243
373.167	17759
373.250	44573
373.332	93023
373.415	129831
373.498	248703
373.580	84924
373.663	128088
373.746	155701
373.828	33135
373.911	14887
373.993	18429
374.076	60332
374.159	52022
374.241	30056
374.324	85912
374.406	52178
374.489	79941
374.571	201499
374.654	74932
374.736	43503
374.819	127624
374.901	182148
374.983	175756
375.066	28823
375.148	13279
375.231	51087
375.313	87651
375.395	29438
375.478	9050
375.560	7363
375.643	10470
375.725	43558
375.807	167835
375.890	121488
375.972	52376
376.054	29402
376.136	48715
376.219	21103
376.301	52642
376.383	138354
376.465	47001
376.548	32301
376.630	42294
376.712	119409
376.794	47614
376.877	6932
376.959	3228
377.041	6024
377.123	12715
377.205	13476
377.287	3464
377.369	4065
377.452	4561
377.534	4311
377.616	4991
377.698	4069
377.780	2485
377.862	4330
377.944	5418
378.026	2298
378.108	3271
378.190	3246
378.272	3901
378.354	3148
378.436	3211
378.518	7921
378.600	26306
378.682	25181
378.764	60030
378.846	42415
378.928	12976
379.010	17047
379.091	8673
379.173	4867
379.255	4852
379.337	7408
379.419	31221
379.501	83233
379.583	30365
379.664	9210
379.746	22012
379.828	59310
379.910	79088
379.991	64713
380.073	10614
380.155	6882
380.237	4938
380.318	4215
380.400	5615
380.482	12547
380.564	20716
380.645	19756
380.727	17752
380.809	10454
380.890	7097
380.972	5898
381.053	5704
381.135	7550
381.217	21765
381.298	60936
381.380	27864
381.461	28142
381.543	126044
381.624	136854
381.706	22893
381.787	13082
381.869	15405
381.951	55367
382.032	196318
382.113	109528
382.195	22974
382.276	17924
382.358	41202
382.439	105464
382.521	120556
382.602	181725
382.684	81922
382.765	156789
382.846	172751
382.928	258226
383.009	131188
383.090	100241
383.172	374949
383.253	515114
383.334	171821
383.416	168739
383.497	82484
383.578	41645
383.659	84274
383.741	325643
383.822	768131
383.903	356468
383.984	132600
384.066	203321
384.147	117351
384.228	25513
384.309	19911
384.390	13690
384.471	11305
384.553	11924
384.634	16131
384.715	16463
384.796	9312
384.877	13671
384.958	55416
385.039	61917
385.120	20343
385.201	10911
385.282	12061
385.363	12307
385.444	11494
385.525	24896
385.606	83017
385.687	63503
385.768	15520
385.849	21515
385.930	93374
386.011	144486
386.092	34993
386.173	9422
386.254	8023
386.335	7996
386.416	9482
386.496	36611
386.577	56007
386.658	19189
386.739	11926
386.820	10786
386.901	7823
386.981	7488
387.062	6081
387.143	14533
387.224	57924
387.304	48640
387.385	17227
387.466	9236
387.547	12925
387.627	8883
387.708	23500
387.789	103291
387.869	116387
387.950	28613
388.031	6606
388.111	4594
388.192	16337
388.273	22343
388.353	12874
388.434	8508
388.514	23174
388.595	96704
388.676	116847
388.756	54983
388.837	53434
388.917	28647
388.998	6055
389.078	6648
389.159	5607
389.239	4455
389.320	11510
389.400	8383
389.480	23561
389.561	59217
389.641	25893
389.722	10258
389.802	16674
389.883	28196
389.963	72203
390.043	41044
390.124	13515
390.204	22958
390.284	66254
390.365	38673
390.445	48984
390.525	135536
390.605	112653
390.686	31443
390.766	11079
390.846	7097
390.927	4265
391.007	4811
391.087	6635
391.167	6883
391.247	5259
391.328	11242
391.408	14653
391.488	10400
391.568	4144
391.648	8206
391.728	11956
391.808	10559
391.888	12348
391.969	33730
392.049	50039
392.129	20709
392.209	28009
392.289	66529
392.369	33985
392.449	25614
392.529	16042
392.609	14249
392.689	21671
392.769	69351
392.849	52109
392.929	39369
393.009	93167
393.089	66582
393.169	58107
393.248	201852
393.328	758939
393.408	746140
393.488	180107
393.568	48692
393.648	25081
393.728	16343
393.807	12255
393.887	11500
393.967	10360
394.047	12537
394.127	15929
394.206	26326
394.286	102874
394.366	421117
394.446	399680
394.525	84434
394.605	22797
394.685	18929
394.764	39057
394.844	62682
394.924	41165
395.003	13666
395.083	9954
395.163	8342
395.242	8502
395.322	9426
395.402	6398
395.481	10523
395.561	29428
395.640	72968
395.720	55422
395.799	79939
395.879	57464
395.958	38921
396.038	148572
396.117	551793
396.197	540179
396.276	144421
396.356	47783
396.435	32910
396.515	24526
396.594	29346
396.673	55979
396.753	225666
396.832	693439
396.912	464308
396.991	104739
397.070	27951
397.150	14939
397.229	11838
397.308	14591
397.388	21973
397.467	11452
397.546	6506
397.625	4301
397.705	9692
397.784	10240
397.863	4444
397.942	3833
398.022	4792
398.101	25043
398.180	64892
398.259	29492
398.338	8780
398.417	5670
398.497	4057
398.576	5634
398.655	2864
398.734	2946
398.813	4785
398.892	23630
398.971	72166
399.050	30449
399.129	4369
399.208	2841
399.287	3126
399.366	2321
399.445	2769
399.524	3345
399.603	1966
399.682	9684
399.761	27121
399.840	80806
399.919	53048
399.998	7559
400.077	1972
400.156	959
400.235	5488
400.313	2717
400.392	5491
400.471	32284
400.550	47352
400.629	11347
400.708	5343
400.786	5509
400.865	14702
400.944	14834
401.023	7514
401.102	2395
401.180	1871
401.259	2874
401.338	3530
401.416	5786
401.495	4969
401.574	3629
401.652	3601
401.731	5867
401.810	4597
401.888	2496
401.967	1114
402.046	2588
402.124	4597
402.203	6403
402.281	4644
402.360	7081
402.438	18872
402.517	10936
402.596	4086
402.674	4508
402.753	2428
402.831	2222
402.910	5134
402.988	22993
403.066	73300
403.145	36566
403.223	23948
403.302	57968
403.380	41316
403.459	40565
403.537	14687
403.615	5246
403.694	-118
403.772	2402
403.850	1552
403.929	1622
404.007	2247
404.085	7685
404.164	8128
404.242	2759
404.320	4664
404.398	12151
404.477	35323
404.555	155885
404.633	118725
404.711	16938
404.789	6237
404.868	3487
404.946	1940
405.024	2229
405.102	1153
405.180	1608
405.258	1168
405.336	2657
405.415	1648
405.493	7504
405.571	6791
405.649	2241
405.727	2444
405.805	5270
405.883	4337
405.961	4499
406.039	4702
406.117	1964
406.195	7095
406.273	38244
406.351	130291
406.429	66100
406.507	10425
406.585	2889
406.663	4453
406.740	5987
406.818	4415
406.896	1863
406.974	3338
407.052	12301
407.130	79643
407.208	98801
407.285	17051
407.363	3090
407.441	3851
407.519	2734
407.596	4129
407.674	12178
407.752	36589
407.830	32194
407.907	11877
407.985	4011
408.063	2544
408.141	1640
408.218	5386
408.296	5083
408.373	3988
408.451	5205
408.529	4247
408.606	1293
408.684	1280
408.762	707
408.839	471
408.917	626
408.994	1475
409.072	1152
409.149	1109
409.227	4176
409.304	4468
409.382	3636
409.459	2780
409.537	6854
409.614	5114
409.692	3577
409.769	3243
409.846	5800
409.924	8568
410.001	5178
410.079	2975
410.156	3614
410.233	2787
410.311	2358
410.388	1472
410.465	3623
410.543	2675
410.620	2481
410.697	3505
410.775	4716
410.852	712
410.929	4820
411.006	5385
411.083	2956
411.161	8331
411.238	8067
411.315	3445
411.392	1232
411.469	4350
411.547	3955
411.624	1836
411.701	2054
411.778	3924
411.855	8883
411.932	3856
412.009	2162
412.086	2171
412.163	3225
412.240	2676
412.317	4568
412.394	3407
412.471	1648
412.548	1948
412.625	2530
412.702	3540
412.779	7049
412.856	4050
412.933	493
413.010	2102
413.087	5060
413.164	29564
413.241	38167
413.318	8449
413.395	5885
413.471	8400
413.548	3644
413.625	2167
413.702	3239
413.779	2781
413.855	1332
413.932	617
414.009	312
414.086	1797
414.162	1409
414.239	5557
414.316	29938
414.393	61879
414.469	18304
414.546	2279
414.623	2264
414.699	868
414.776	3273
414.853	1310
414.929	2256
415.006	1566
415.082	2636
415.159	2262
415.236	1920
415.312	2625
415.389	6294
415.465	7784
415.542	3664
415.618	1739
415.695	5320
415.771	3598
415.848	2923
415.924	2518
416.000	792
416.077	1231
416.153	-254
416.230	-136
416.306	1188
416.383	1649
416.459	1865
416.535	915
416.612	453
416.688	988
416.764	995
416.841	269
416.917	1745
416.993	1494
417.069	3411
417.146	3939
417.222	5912
417.298	2592
417.374	1525
417.451	2385
417.527	4259
417.603	4339
417.679	3343
417.755	2887
417.831	831
417.908	1013
417.984	802
418.060	980
418.136	7718
418.212	9368
418.288	3265
418.364	1324
418.440	1715
418.516	4373
418.592	6532
418.668	11938
418.744	19283
418.820	12113
418.896	3659
418.972	-244
419.048	2429
419.124	9556
419.200	4624
419.276	1063
419.352	113
419.428	431
419.504	3121
419.579	3285
419.655	2372
419.731	2798
419.807	13796
419.883	22593
419.959	14280
420.034	4777
420.110	10282
420.186	39563
420.262	26533
420.337	4672
420.413	3763
420.489	1704
420.565	2548
420.640	1632
420.716	2375
420.792	572
420.867	2839
420.943	2235
421.019	5800
421.094	4224
421.170	2033
421.245	837
421.321	2310
421.397	2042
421.472	7812
421.548	19252
421.623	12749
421.699	5334
421.774	3880
421.850	3494
421.925	8147
422.001	6425
422.076	4927
422.152	6208
422.227	10847
422.302	11562
422.378	17250
422.453	31527
422.529	83806
422.604	259879
422.679	417193
422.755	242646
422.830	76939
422.905	30436
422.981	15731
423.056	11628
423.131	7904
423.207	5969
423.282	7520
423.357	14043
423.432	8545
423.508	9878
423.583	20424
423.658	13496
423.733	4556
423.808	5416
423.883	6913
423.959	5022
424.034	4743
424.109	3433
424.184	2093
424.259	1608
424.334	2061
424.409	1079
424.484	1539
424.559	3012
424.634	2434
424.709	3818
424.784	4815
424.859	3517
424.934	6229
425.009	29136
425.084	44269
425.159	13579
425.234	2624
425.309	944
425.384	2761
425.459	3067
425.534	2396
425.609	1651
425.683	1446
425.758	1827
425.833	1482
425.908	3784
425.983	17679
426.058	47693
426.132	17326
426.207	3272
426.282	6506
426.357	3904
426.431	1678
426.506	1696
426.581	2608
426.655	2372
426.730	1603
426.805	1937
426.879	2479
426.954	2792
427.029	8833
427.103	49620
427.178	111263
427.253	42207
427.327	5508
427.402	4940
427.476	8752
427.551	3527
427.625	2813
427.700	2828
427.774	2201
427.849	2792
427.923	1554
427.998	1505
428.072	1645
428.147	6989
428.221	33637
428.296	81179
428.370	36308
428.444	6406
428.519	7058
428.593	14032
428.667	11953
428.742	14138
428.816	15738
428.890	54003
428.965	72393
429.039	22660
429.113	16156
429.188	5862
429.262	2306
429.336	7419
429.410	21423
429.485	12986
429.559	11741
429.633	8951
429.707	3250
429.781	11830
429.855	61923
429.930	84093
430.004	47670
430.078	68416
430.152	61438
430.226	115611
430.300	99748
430.374	14271
430.448	7117
430.522	25027
430.596	66598
430.670	43297
430.744	111366
430.818	144466
430.892	28641
430.966	5026
431.040	2552
431.114	767
431.188	973
431.262	1703
431.336	2187
431.410	7230
431.484	19977
431.557	12376
431.631	2753
431.705	3062
431.779	17840
431.853	70722
431.927	43655
432.000	5382
432.074	2495
432.148	3592
432.222	2810
432.295	1543
432.369	1520
432.443	6419
432.516	48027
432.590	109763
432.664	35511
432.737	3801
432.811	1078
432.885	164
432.958	903
433.032	4
433.106	731
433.179	336
433.253	560
433.326	38
433.400	-217
433.473	482
433.547	-184
433.620	1085
433.694	4170
433.767	4300
433.841	1131
433.914	671
433.988	21
434.061	332
434.134	117
434.208	358
434.281	49
434.355	-113
434.428	710
434.501	36
434.575	-167
434.648	487
434.721	724
434.795	-120
434.868	93
434.941	146
435.014	-74
435.088	225
435.161	2243
435.234	4889
435.307	6703
435.381	2885
435.454	2249
435.527	2900
435.600	3722
435.673	1772
435.746	875
435.819	1088
435.892	1144
435.966	177
436.039	1007
436.112	964
436.185	-435
436.258	-402
436.331	-485
436.404	-30
436.477	-35
436.550	589
436.623	135
436.696	173
436.769	1672
436.842	1906
436.915	1921
436.987	2727
437.060	1383
437.133	-20
437.206	-262
437.279	1490
437.352	878
437.425	409
437.498	2449
437.570	5391
437.643	5030
437.716	835
437.789	545
437.861	4708
437.934	12324
438.007	6590
438.080	1460
438.152	2265
438.225	9002
438.298	64785
438.370	156962
438.443	57542
438.516	12697
438.588	3216
438.661	568
438.734	440
438.806	1218
438.879	1838
438.951	3671
439.024	6028
439.096	2170
439.169	754
439.241	704
439.314	763
439.386	2407
439.459	5455
439.531	7752
439.604	2574
439.676	1349
439.749	282
439.821	-57
439.893	746
439.966	688
440.038	1979
440.110	2407
440.183	1663
440.255	1015
440.327	3622
440.400	27479
440.472	99309
440.544	58180
440.617	7319
440.689	5299
440.761	7172
440.833	11483
440.905	6554
440.978	490
441.050	386
441.122	764
441.194	218
441.266	1495
441.338	321
441.411	5080
441.483	31406
441.555	43341
441.627	9119
441.699	4546
441.771	3950
441.843	1225
441.915	434
441.987	579
442.059	841
442.131	2157
442.203	3755
442.275	5089
442.347	4463
442.419	5243
442.491	32764
442.563	75289
442.635	32342
442.706	20753
442.778	15185
442.850	2788
442.922	1444
442.994	2107
443.066	4604
443.137	3523
443.209	2360
443.281	4621
443.353	11088
443.425	44875
443.496	149077
443.568	133006
443.640	45233
443.711	9640
443.783	3397
443.855	2117
443.926	1401
443.998	1473
444.070	2920
444.141	3405
444.213	5310
444.285	6318
444.356	5545
444.428	3917
444.499	1916
444.571	515
444.642	1055
444.714	2158
444.785	4894
444.857	6478
444.928	13062
445.000	8126
445.071	8919
445.143	10179
445.214	6159
445.285	11322
445.357	33834
445.428	109901
445.500	227318
445.571	135191
445.642	64700
445.714	27869
445.785	23460
445.856	8691
445.928	7337
445.999	6326
446.070	5017
446.141	5211
446.213	6447
446.284	3645
446.355	3252
446.426	2096
446.497	2117
446.569	4341
446.640	7728
446.711	6570
446.782	1390
446.853	3084
446.924	4410
446.995	3691
447.066	2877
447.138	4736
447.209	2854
447.280	1052
447.351	596
447.422	378
447.493	2047
447.564	3587
447.635	4797
447.706	2221
447.777	524
447.847	699
447.918	512
447.989	2364
448.060	3763
448.131	9774
448.202	9463
448.273	5478
448.344	2086
448.414	1943
448.485	943
448.556	1336
448.627	262
448.698	575
448.768	186
448.839	940
448.910	4499
448.981	4807
449.051	2008
449.122	1418
449.193	884
449.263	295
449.334	982
449.405	3169
449.475	7694
449.546	5821
449.616	6029
449.687	5055
449.758	1138
449.828	1058
449.899	-45
449.969	53
450.040	428
450.110	2485
450.181	3664
450.251	891
450.322	1587
450.392	679
450.463	989
450.533	478
450.604	731
450.674	340
450.744	1134
450.815	540
450.885	1079
450.955	1438
451.026	642
451.096	14
451.166	1903
451.237	6680
451.307	14830
451.377	7094
451.447	635
451.518	934
451.588	743
451.658	1775
451.728	3866
451.799	16308
451.869	18843
451.939	5696
452.009	727
452.079	1486
452.149	1637
452.219	4928
452.289	18881
452.360	15454
452.430	3422
452.500	2279
452.570	3003
452.640	4812
452.710	14770
452.780	22087
452.850	17077
452.920	15548
452.990	5112
453.060	2507
453.129	4360
453.199	6325
453.269	24691
453.339	49565
453.409	74489
453.479	73749
453.549	105900
453.619	108848
453.688	47272
453.758	7486
453.828	2914
453.898	2320
453.968	1189
454.037	1831
454.087	1250
454.107	959
454.168	412
454.177	272
454.247	1160
454.249	1211
454.316	1284
454.330	1692
454.386	2694
454.411	6265
454.456	10703
454.492	13375
454.525	15600
454.574	8901
454.595	6130
454.655	2476
454.665	1992
454.734	5347
454.736	5661
454.804	10428
454.817	13499
454.873	21227
454.898	22598
454.943	23597
454.979	16350
455.013	10859
455.060	6468
455.082	5589
455.141	10165
455.152	10345
455.221	20318
455.222	20815
455.291	26384
455.303	24185
455.360	16222
455.384	16141
455.430	17644
455.465	18377
455.499	17263
455.546	21997
455.569	21977
455.627	15038
455.638	14360
455.707	5048
455.708	5100
455.777	3745
455.789	3664
455.846	2971
455.869	2978
455.916	2988
455.950	3873
455.985	4496
456.031	3859
456.054	3432
456.112	3228
456.124	3260
456.193	3013
456.193	2955
456.262	5629
456.274	6005
456.332	6568
456.355	7087
456.401	7013
456.436	5682
456.470	4422
456.516	3756
456.540	3602
456.597	3000
456.609	2846
456.678	3575
456.678	3535
456.747	3237
456.759	3246
456.817	3393
456.840	3453
456.886	3461
456.920	3714
456.955	4194
457.001	4441
457.024	4908
457.082	7586
457.093	7995
457.162	10811
457.163	10902
457.232	10544
457.243	10001
457.301	6248
457.324	5166
457.370	4843
457.405	4800
457.439	4797
457.485	5170
457.508	5439
457.566	6906
457.577	7195
457.646	8320
457.647	8392
457.715	13646
457.727	14702
457.784	21248
457.808	25184
457.853	29222
457.889	32447
457.922	29804
457.969	21856
457.991	23912
458.050	32469
458.060	33883
458.129	49628
458.130	50175
458.198	41861
458.211	38367
458.267	22611
458.292	16227
458.336	13616
458.372	13261
458.405	17971
458.453	26003
458.474	32858
458.533	55688
458.543	57477
458.611	79408
458.614	80069
458.680	43855
458.694	34659
458.749	19686
458.775	14238
458.818	10622
458.855	9477
458.887	9067
458.936	9072
458.955	8958
459.016	8386
459.024	8432
459.093	9234
459.097	9327
459.162	10389
459.177	10608
459.230	11706
459.257	12561
459.299	13165
459.338	13511
459.368	13962
459.418	15538
459.437	14746
459.499	10919
459.505	10823
459.574	9962
459.579	9931
459.643	9094
459.659	9103
459.711	10213
459.740	10771
459.780	11444
459.820	12347
459.849	13160
459.900	14438
459.917	14159
459.981	13363
459.986	13311
460.054	12419
460.061	12375
460.123	13672
460.141	14218
460.191	17589
460.222	19669
460.260	21211
460.302	23769
460.328	22212
460.382	17801
460.397	17619
460.462	15520
460.465	15636
460.534	20669
460.543	21326
460.602	47991
460.623	57918
460.671	84430
460.703	106138
460.739	92732
460.783	71117
460.808	57421
460.864	16454
460.876	14724
460.944	13089
460.945	13047
461.013	12738
461.024	12721
461.081	13800
461.104	14320
461.150	13509
461.184	12857
461.218	12651
461.264	11849
461.286	11870
461.345	12325
461.355	12318
461.423	12820
461.425	12822
461.491	14510
461.505	15012
461.559	27972
461.585	33955
461.628	55797
461.665	76124
461.696	81508
461.745	92651
461.764	77919
461.825	23315
461.832	22835
461.901	16432
461.905	16289
461.969	14330
461.985	13975
462.037	13621
462.065	13214
462.105	15939
462.145	19063
462.173	27586
462.225	43409
462.241	47909
462.305	67125
462.310	64891
462.378	29636
462.385	25300
462.446	17662
462.465	15533
462.514	14849
462.545	15070
462.582	15181
462.625	15160
462.650	14696
462.705	13553
462.718	14234
462.785	17804
462.786	17963
462.854	27150
462.865	28689
462.922	34042
462.945	36291
462.990	25934
463.025	16949
463.058	15524
463.104	13705
463.126	13610
463.184	13716
463.194	14014
463.262	16218
463.264	16283
463.330	16655
463.344	16739
463.398	18462
463.424	19183
463.466	19241
463.504	19548
463.533	19878
463.583	19832
463.601	20319
463.663	22160
463.669	22876
463.737	31258
463.743	32029
463.805	49235
463.823	54062
463.873	81365
463.903	98244
463.940	101415
463.982	105693
464.008	83057
464.062	32164
464.076	29854
464.142	17632
464.144	17567
464.211	16229
464.221	16097
464.279	17822
464.301	18409
464.347	20288
464.381	21765
464.414	24767
464.461	28819
464.482	29449
464.540	31190
464.550	30088
464.617	21734
464.620	21405
464.685	25244
464.699	26164
464.753	30071
464.779	31918
464.820	34625
464.859	37126
464.888	36683
464.938	35521
464.956	35766
465.018	36598
465.023	36030
465.091	27756
465.098	26849
465.158	27053
465.177	27099
465.226	27930
465.257	28525
465.293	30244
465.336	31911
465.361	34587
465.416	40589
465.428	43333
465.495	57879
465.496	58210
465.563	94880
465.575	101079
465.631	119199
465.654	127003
465.698	78265
465.734	36726
465.765	33351
465.813	28242
465.833	28367
465.893	29258
465.900	29239
465.968	28585
465.972	28496
466.035	29088
466.052	29180
466.102	30723
466.131	31465
466.170	31449
466.210	31421
466.237	32306
466.290	33770
466.304	34137
466.369	35361
466.372	35552
466.439	39221
466.449	39680
466.506	43745
466.528	45163
466.573	61068
466.607	72840
466.641	101984
466.687	142242
466.708	155795
466.766	192588
466.775	178536
466.842	69850
466.845	64547
466.909	52181
466.925	49183
466.977	46397
467.004	44865
467.044	46286
467.083	47566
467.111	50215
467.163	54865
467.178	56184
467.242	61105
467.245	60973
467.312	55523
467.321	54680
467.379	54218
467.400	53881
467.446	57171
467.480	59335
467.559	51882
467.638	45882
467.717	46679
467.796	50868
467.875	56460
467.955	52000
468.034	75200
468.113	158947
468.192	228868
468.271	62978
468.350	44591
468.429	47561
468.508	45903
468.588	43866
468.667	42298
468.746	46144
468.825	44955
468.904	37181
468.983	45173
469.062	68767
469.141	81978
469.220	37449
469.299	36352
469.378	41216
469.456	47288
469.535	42859
469.614	42346
469.693	44770
469.772	56824
469.851	78564
469.930	53824
470.009	39267
470.088	41516
470.166	47472
470.245	61635
470.324	75130
470.403	58831
470.482	45698
470.560	40223
470.639	41262
470.718	47621
470.797	38405
470.875	45751
470.954	65127
471.033	68985
471.111	32589
471.190	31459
471.269	29624
471.347	30610
471.426	33697
471.505	39273
471.583	40243
471.662	36642
471.740	33542
471.819	33476
471.898	32191
471.976	32004
472.055	32623
472.133	38067
472.212	49770
472.290	52143
472.369	36276
472.447	31311
472.526	29321
472.604	30583
472.683	32259
472.761	37748
472.839	34279
472.918	31760
472.996	33996
473.075	38527
473.153	37969
473.231	32721
473.310	38114
473.388	37743
473.466	34884
473.545	39591
473.623	50370
473.701	50052
473.780	33426
473.858	33236
473.936	36723
474.014	33034
474.093	37472
474.171	57085
474.249	78255
474.327	49163
474.405	30113
474.484	29847
474.562	31097
474.640	31805
474.718	33465
474.796	35102
474.874	30848
474.952	28769
475.030	29828
475.108	32954
475.187	37346
475.265	39213
475.343	53044
475.421	59670
475.499	33822
475.577	34578
475.655	45730
475.733	91226
475.811	158933
475.889	141872
475.966	90314
476.044	34489
476.122	40571
476.200	52222
476.278	41961
476.356	31552
476.434	33173
476.512	39737
476.590	50426
476.667	44290
476.745	29299
476.823	31740
476.901	30386
476.979	31839
477.056	30579
477.134	32204
477.212	34022
477.290	31288
477.367	26213
477.445	27358
477.523	27672
477.601	28638
477.678	28229
477.756	36988
477.834	40650
477.911	28606
477.989	27805
478.066	27579
478.144	33206
478.222	38864
478.299	58163
478.377	53397
478.454	27393
478.532	24758
478.609	27925
478.687	31312
478.764	25864
478.842	28598
478.919	31166
478.997	29597
479.074	25844
479.152	33078
479.229	42385
479.307	27679
479.384	22896
479.461	22996
479.539	27443
479.616	33537
479.694	26976
479.771	31147
479.848	32915
479.926	46225
480.003	46779
480.080	25499
480.157	23724
480.235	24477
480.312	25367
480.389	30653
480.467	51645
480.544	65173
480.621	32579
480.698	30029
480.775	33989
480.853	35016
480.930	27947
481.007	29775
481.084	34181
481.161	36925
481.238	34859
481.315	26687
481.392	24197
481.470	26430
481.547	27917
481.624	26585
481.701	24771
481.778	28970
481.855	32534
481.932	49646
482.009	85371
482.086	57139
482.163	29515
482.240	42288
482.317	72109
482.393	55894
482.470	27681
482.547	28579
482.624	27325
482.701	29444
482.778	28276
482.855	22254
482.932	22019
483.009	23704
483.085	28295
483.162	34815
483.239	31669
483.316	25378
483.393	24036
483.469	25157
483.546	31102
483.623	34841
483.699	26670
483.776	28541
483.853	34174
483.930	48743
484.006	125237
484.083	207067
484.160	97804
484.236	132094
484.313	102246
484.389	79015
484.466	69356
484.543	67807
484.619	70254
484.696	71650
484.772	77768
484.849	80172
484.925	64460
485.002	63007
485.078	67028
485.155	70508
485.231	61507
485.308	61467
485.384	64916
485.461	79045
485.537	132474
485.614	155131
485.690	63855
485.766	58831
485.843	63074
485.919	86381
485.995	88526
486.072	54849
486.148	53911
486.224	54279
486.301	59166
486.377	68850
486.453	69542
486.530	65086
486.606	80791
486.682	92781
486.758	115391
486.835	134662
486.911	106349
486.987	167341
487.063	170635
487.139	208718
487.215	142918
487.292	73601
487.368	63231
487.444	72189
487.520	86928
487.596	84292
487.672	107194
487.748	237337
487.824	340613
487.900	141745
487.976	76210
488.052	74163
488.128	86604
488.204	71486
488.280	60362
488.356	74219
488.432	152684
488.508	225473
488.584	77183
488.660	56010
488.736	55728
488.812	59993
488.888	74828
488.964	96528
489.039	197514
489.115	297083
489.191	170964
489.267	59313
489.343	55194
489.418	46959
489.494	46132
489.570	44231
489.646	49718
489.722	48598
489.797	50938
489.873	79126
489.949	174664
490.024	137005
490.100	46469
490.176	46187
490.251	57641
490.327	73094
490.403	46820
490.478	42542
490.554	36747
490.629	39696
490.705	37938
490.781	42651
490.856	41955
490.932	49653
491.007	49398
491.083	48555
491.158	44218
491.234	62403
491.309	130616
491.385	128626
491.460	46782
491.536	48954
491.611	45105
491.686	49487
491.762	65362
491.837	129017
491.913	211355
491.988	291121
492.063	352178
492.139	108219
492.214	64618
492.289	36672
492.365	35173
492.440	43928
492.515	43808
492.590	43193
492.666	34526
492.741	50566
492.816	75964
492.891	40903
492.967	32880
493.042	29454
493.117	30324
493.192	30788
493.267	36894
493.342	57849
493.418	63793
493.493	32678
493.568	28529
493.643	30575
493.718	42676
493.793	65534
493.868	69544
493.943	43928
494.018	35147
494.093	31818
494.168	31321
494.243	28720
494.318	26711
494.393	27600
494.468	26950
494.543	27915
494.618	34503
494.693	31878
494.768	29948
494.842	30954
494.917	24933
494.992	30699
495.067	27590
495.142	28188
495.217	31981
495.292	32232
495.366	39123
495.441	49723
495.516	59930
495.591	81858
495.665	260556
495.740	598604
495.815	235916
495.890	53431
495.964	40348
496.039	43409
496.114	39297
496.188	44174
496.263	42764
496.338	39516
496.412	46012
496.487	53457
496.561	53332
496.636	55907
496.710	44899
496.785	51757
496.860	58109
496.934	46554
497.009	46472
497.083	49044
497.158	52327
497.232	60897
497.307	72880
497.381	61710
497.455	73501
497.530	94577
497.604	69547
497.679	74741
497.753	113135
497.827	143330
497.902	133334
497.976	144093
498.050	263107
498.125	866089
498.199	828577
498.273	194475
498.348	154891
498.422	127191
498.496	117247
498.570	106007
498.645	83014
498.719	80853
498.793	91680
498.867	126545
498.941	152059
499.016	369835
499.090	922495
499.164	302521
499.238	58254
499.312	51196
499.386	63267
499.460	59061
499.534	54302
499.609	66694
499.683	94420
499.757	83977
499.831	170311
499.905	644908
499.979	559047
500.053	110266
500.127	108575
500.201	79424
500.275	52744
500.349	51368
500.422	59936
500.496	83385
500.570	165919
500.644	385609
500.718	670403
500.792	137468
500.866	49630
500.940	65395
501.013	54305
501.087	57231
501.161	94629
501.235	118945
501.309	240498
501.382	647327
501.456	503798
501.530	132184
501.603	225591
501.677	81149
501.751	40992
501.825	49967
501.898	95441
501.972	274681
502.046	152659
502.119	53099
502.193	123712
502.266	295643
502.340	128551
502.413	133721
502.487	252522
502.561	143530
502.634	46640
502.708	38283
502.781	34369
502.855	28760
502.928	26358
503.002	27426
503.075	26976
503.149	32104
503.222	32741
503.295	38423
503.369	45595
503.442	63602
503.516	205371
503.589	514289
503.662	308179
503.736	101066
503.809	240288
503.882	183178
503.956	267655
504.029	228319
504.102	148902
504.175	177025
504.249	72394
504.322	51611
504.395	42384
504.468	30414
504.542	31730
504.615	24947
504.688	22263
504.761	23446
504.834	31108
504.907	39259
504.980	62000
505.053	32693
505.127	42479
505.200	46820
505.273	47182
505.346	28165
505.419	22550
505.492	21261
505.565	17662
505.638	18621
505.711	19711
505.784	19292
505.857	18796
505.930	22933
506.003	21556
506.076	25528
506.149	34768
506.221	44619
506.294	38196
506.367	103148
506.440	345510
506.513	157896
506.586	45661
506.659	26757
506.731	23603
506.804	29448
506.877	44184
506.950	30664
507.022	21605
507.095	32183
507.168	38348
507.241	24169
507.313	19037
507.386	24854
507.459	33384
507.531	22614
507.604	20191
507.677	19972
507.749	17512
507.822	27537
507.894	53257
507.967	62446
508.040	34624
508.112	30620
508.185	28852
508.257	28577
508.330	42152
508.402	29443
508.475	28220
508.547	30379
508.620	30670
508.692	50695
508.765	30317
508.837	22854
508.909	22531
508.982	23870
509.054	27088
509.127	24415
509.199	21236
509.271	21502
509.344	19901
509.416	22144
509.488	22364
509.560	22534
509.633	25592
509.705	29117
509.777	28159
509.849	39099
509.922	27325
509.994	22037
510.066	23388
510.138	26503
510.210	48964
510.283	45911
510.355	36729
510.427	33400
510.499	31693
510.571	32281
510.643	31225
510.715	50484
510.787	44735
510.859	32518
510.931	38357
511.003	49134
511.076	43665
511.148	28755
511.219	28513
511.291	48935
511.363	53748
511.435	26711
511.507	23453
511.579	24944
511.651	24918
511.723	25588
511.795	24416
511.867	26175
511.939	33993
512.010	74022
512.082	51271
512.154	28500
512.226	27486
512.298	42021
512.369	61091
512.441	45895
512.513	44692
512.585	35639
512.656	36082
512.728	42332
512.800	31740
512.871	31298
512.943	29900
513.015	28338
513.086	30523
513.158	33658
513.230	34284
513.301	48993
513.373	51235
513.444	33101
513.516	28126
513.588	30352
513.659	31863
513.731	40257
513.802	36259
513.874	71266
513.945	123384
514.016	43343
514.088	29778
514.159	34276
514.231	43448
514.302	57758
514.374	40348
514.445	41812
514.516	81791
514.588	56742
514.659	41276
514.730	75328
514.802	53779
514.873	49540
514.944	47590
515.016	42377
515.087	45056
515.158	57855
515.229	74517
515.301	52299
515.372	68040
515.443	46583
515.514	37096
515.585	29552
515.656	30197
515.728	29006
515.799	28458
515.870	30820
515.941	31673
516.012	32812
516.083	42726
516.154	46860
516.225	58459
516.296	57497
516.367	52662
516.438	60986
516.509	76349
516.580	104318
516.651	303211
516.722	1057785
516.793	435881
516.864	109811
516.935	101942
517.006	112922
517.077	148704
517.148	317208
517.219	1082109
517.289	1584268
517.360	504597
517.431	148321
517.502	59316
517.573	52024
517.643	51123
517.714	55965
517.785	58380
517.856	60275
517.926	73531
517.997	84965
518.068	107983
518.138	138052
518.209	198028
518.280	687464
518.350	2148401
518.421	901834
518.492	138664
518.562	81041
518.633	76414
518.703	70558
518.774	102598
518.845	202030
518.915	185874
518.986	85560
519.056	72397
519.127	113297
519.197	168015
519.268	377177
519.338	205385
519.408	65082
519.479	74751
519.549	54217
519.620	39819
519.690	31761
519.760	31868
519.831	34051
519.901	33207
519.971	28270
520.042	32295
520.112	38549
520.182	40033
520.253	45210
520.323	31570
520.393	34500
520.463	41105
520.534	33742
520.604	54530
520.674	37781
520.744	41626
520.814	62334
520.885	64495
520.955	114983
521.025	413427
521.095	132756
521.165	36002
521.235	32922
521.305	29600
521.375	27612
521.445	30567
521.515	40760
521.585	47625
521.655	43922
521.725	37180
521.795	35119
521.865	27134
521.935	44553
522.005	37772
522.075	26748
522.145	29883
522.215	36150
522.285	48429
522.355	66780
522.424	125339
522.494	101193
522.564	50154
522.634	97199
522.704	271666
522.774	93173
522.843	32147
522.913	31120
522.983	40316
523.053	30998
523.122	31544
523.192	44939
523.262	151587
523.331	136496
523.401	32417
523.471	23145
523.540	25772
523.610	19946
523.680	21305
523.749	22104
523.819	29804
523.888	29299
523.958	21226
524.027	24174
524.097	25925
524.166	23202
524.236	27064
524.305	25781
524.375	21615
524.444	20922
524.514	24950
524.583	25425
524.653	33087
524.722	34889
524.791	23442
524.861	25360
524.930	21497
524.999	24696
525.069	34797
525.138	29705
525.207	35147
525.277	24570
525.346	24929
525.415	23538
525.484	25999
525.554	32210
525.623	29863
525.692	27768
525.761	30889
525.830	33086
525.900	36642
525.969	55424
526.038	75316
526.107	138798
526.176	379718
526.245	295739
526.314	119216
526.383	214547
526.452	261757
526.522	450684
526.591	443290
526.660	170956
526.729	89356
526.797	91539
526.867	174965
526.935	718089
527.004	1065930
527.073	514979
527.142	67506
527.211	37193
527.280	37000
527.349	37157
527.418	22801
527.487	21669
527.555	19723
527.624	19160
527.693	17431
527.762	20919
527.831	18667
527.899	20277
527.968	20109
528.037	20446
528.106	25598
528.174	48043
528.243	37839
528.312	58657
528.380	71084
528.449	24913
528.518	19130
528.586	16110
528.655	16950
528.723	16817
528.792	16038
528.861	19645
528.929	16315
528.998	17067
529.066	15717
529.135	17055
529.203	15979
529.272	17028
529.340	17798
529.409	19696
529.477	17761
529.545	25697
529.614	25722
529.682	29828
529.751	32716
529.819	32673
529.887	23652
529.956	20376
530.024	20196
530.092	17320
530.161	21704
530.229	37339
530.297	22941
530.365	19383
530.434	17591
530.502	17467
530.570	16729
530.638	14786
530.707	19393
530.775	20267
530.843	17046
530.911	18449
530.979	16958
531.047	18583
531.115	18371
531.183	18137
531.252	17504
531.320	18529
531.388	17177
531.456	18452
531.524	17232
531.592	18350
531.660	21135
531.728	18189
531.796	17248
531.864	18653
531.932	19541
532.000	19186
532.067	21367
532.135	23255
532.203	26225
532.271	27554
532.339	44531
532.407	118156
532.475	66266
532.542	36461
532.610	36453
532.678	49269
532.746	196300
532.814	458622
532.881	108847
532.949	29024
533.017	23454
533.084	21071
533.152	20332
533.220	21073
533.287	23999
533.355	19832
533.423	19489
533.490	18122
533.558	19135
533.625	21578
533.693	22582
533.761	23187
533.828	23741
533.896	22579
533.963	42409
534.031	50160
534.098	71168
534.166	31779
534.233	20358
534.300	22169
534.368	22141
534.435	21260
534.503	21167
534.570	23002
534.637	24311
534.705	27385
534.772	29909
534.840	44300
534.907	176821
534.974	202963
535.041	36552
535.109	31325
535.176	19803
535.243	19392
535.310	21156
535.378	20719
535.445	17777
535.512	17737
535.579	18722
535.646	19080
535.714	20047
535.781	24779
535.848	23063
535.915	24444
535.982	20983
536.049	21989
536.116	24060
536.183	21608
536.250	22402
536.317	23163
536.384	27845
536.451	39892
536.518	40151
536.585	29734
536.652	37697
536.719	51808
536.786	40714
536.853	35024
536.920	49610
536.987	70575
537.053	68050
537.120	246775
537.187	187361
537.254	30065
537.321	23368
537.388	24645
537.454	20665
537.521	20396
537.588	20075
537.654	24661
537.721	27112
537.788	26637
537.855	22016
537.921	23756
537.988	22717
538.055	23689
538.121	22752
538.188	26149
538.254	38729
538.321	71857
538.388	42751
538.454	26267
538.521	22617
538.587	21991
538.654	21005
538.720	21955
538.787	20534
538.853	23884
538.920	29241
538.986	30284
539.053	25863
539.119	26672
539.185	25163
539.252	29366
539.318	45184
539.385	33966
539.451	32485
539.517	31319
539.583	35149
539.650	81614
539.716	187477
539.782	50017
539.849	26361
539.915	25946
539.981	27239
540.047	33170
540.114	28693
540.180	29932
540.246	30382
540.312	41723
540.378	73441
540.444	68726
540.510	79690
540.576	210097
540.643	60358
540.709	25779
540.775	24413
540.841	25365
540.907	32982
540.973	45255
541.039	41358
541.105	45201
541.171	27693
541.237	26318
541.303	27072
541.369	31157
541.435	39329
541.500	62971
541.566	38294
541.632	23827
541.698	21681
541.764	22536
541.830	20998
541.896	22514
541.961	23348
542.027	24850
542.093	24829
542.159	27413
542.224	29257
542.290	42303
542.356	63200
542.421	68010
542.487	33940
542.553	28243
542.618	31411
542.684	28026
542.750	28318
542.815	32618
542.881	53890
542.947	185451
543.012	117776
543.078	27616
543.143	24775
543.209	27580
543.274	26778
543.340	31583
543.405	74585
543.471	108186
543.536	29202
543.602	25109
543.667	22902
543.732	22180
543.798	22466
543.863	23781
543.928	21444
543.994	20681
544.059	22374
544.124	21938
544.190	23290
544.255	24003
544.320	25847
544.386	27557
544.451	35793
544.516	39786
544.581	41839
544.646	120634
544.712	164669
544.777	38546
544.842	32340
544.907	33862
544.972	28644
545.037	28854
545.102	31817
545.168	31484
545.233	32702
545.298	35925
545.363	40419
545.428	43893
545.493	71566
545.558	149494
545.623	58420
545.688	33573
545.753	30686
545.818	31611
545.883	31637
545.947	31319
546.012	34809
546.077	35553
546.142	33020
546.207	34067
546.272	42687
546.337	43367
546.401	35747
546.466	35292
546.531	34218
546.596	37118
546.661	36203
546.725	35448
546.790	34230
546.855	35843
546.919	34968
546.984	38439
547.049	43512
547.113	48769
547.178	46475
547.243	51695
547.307	56523
547.372	66497
547.436	70289
547.501	57720
547.565	62268
547.630	67130
547.695	65837
547.759	71317
547.823	64197
547.888	57815
547.952	55978
548.017	61461
548.081	67776
548.146	79944
548.210	69543
548.274	64416
548.339	61875
548.403	57935
548.468	55296
548.532	55821
548.596	57065
548.660	56999
548.725	63627
548.789	73336
548.853	71457
548.917	63685
548.982	77042
549.046	72453
549.110	52802
549.174	54097
549.238	58544
549.303	60710
549.367	63896
549.431	60934
549.495	55500
549.559	59584
549.623	65555
549.687	74724
549.751	86556
549.815	83054
549.879	79385
549.943	75184
550.007	81587
550.071	82285
550.135	85293
550.199	76109
550.263	69995
550.327	73450
550.391	87825
550.455	77962
550.519	76828
550.582	83249
550.646	103588
550.710	103342
550.774	87700
550.838	89400
550.901	91229
550.965	97386
551.029	102670
551.093	112548
551.156	131527
551.220	191641
551.284	195208
551.347	129612
551.411	190242
551.475	177014
551.538	98370
551.602	87876
551.666	83811
551.729	77487
551.793	77015
551.856	75041
551.920	73661
551.983	73800
552.047	73867
552.110	73182
552.174	74956
552.237	76266
552.301	70026
552.364	68666
552.428	68089
552.491	72149
552.554	74018
552.618	72789
552.681	76763
552.745	79261
552.808	107090
552.871	132800
552.934	94139
552.998	78466
553.061	76858
553.124	70135
553.187	68174
553.251	71392
553.314	71827
553.377	69609
553.440	75067
553.503	89969
553.567	99105
553.630	74149
553.693	72737
553.756	73744
553.819	70246
553.882	69119
553.945	68741
554.008	68404
554.071	67145
554.134	68435
554.197	65504
554.260	63487
554.323	68955
554.386	68518
554.449	70057
554.512	68014
554.575	66183
554.638	67588
554.701	64305
554.764	64221
554.827	62240
554.889	59856
554.952	56805
555.015	56872
555.078	57491
555.141	59331
555.203	56126
555.266	56964
555.329	58468
555.391	55304
555.454	58435
555.517	55538
555.580	52379
555.642	50282
555.705	49209
555.768	50618
555.830	49567
555.893	46735
555.955	46668
556.018	47185
556.080	47792
556.143	46938
556.206	46817
556.268	48821
556.330	49881
556.393	47468
556.455	47666
556.518	62274
556.580	58149
556.643	43135
556.705	42706
556.767	41504
556.830	43542
556.892	46876
556.955	62976
557.017	50619
557.079	41150
557.142	40895
557.204	45412
557.266	79814
557.328	62311
557.391	37112
557.453	35304
557.515	37360
557.577	44263
557.639	45743
557.701	36476
557.764	36373
557.826	39118
557.888	41975
557.950	42150
558.012	44091
558.074	54405
558.136	114859
558.198	245800
558.260	87322
558.322	49519
558.384	50493
558.446	54995
558.508	64451
558.570	78532
558.632	116894
558.694	153709
558.756	160354
558.818	476121
558.880	1053065
558.942	309840
559.003	265201
559.065	123099
559.127	64656
559.189	64562
559.251	70429
559.312	94036
559.374	227115
559.436	709527
559.498	301703
559.559	72006
559.621	63755
559.683	71481
559.744	116741
559.806	357242
559.868	467124
559.929	94952
559.991	68727
560.052	97283
560.114	241376
560.176	140930
560.237	149332
560.299	216285
560.360	56848
560.422	36109
560.483	34218
560.545	32078
560.606	31784
560.667	30687
560.729	29741
560.790	28461
560.852	29551
560.913	28178
560.974	28654
561.036	28395
561.097	29497
561.158	29820
561.220	30531
561.281	31216
561.342	31819
561.403	35410
561.465	45038
561.526	94442
561.587	113149
561.648	38146
561.709	31692
561.771	30298
561.832	28803
561.893	29585
561.954	29079
562.015	28818
562.076	28657
562.137	29680
562.198	29536
562.259	29678
562.320	30621
562.381	31915
562.442	43831
562.503	35351
562.564	27648
562.625	27254
562.686	28265
562.747	30926
562.808	30882
562.869	29284
562.930	34837
562.991	32247
563.051	30266
563.112	30100
563.173	29503
563.234	26914
563.294	27053
563.355	28864
563.416	29204
563.477	28646
563.537	29790
563.598	31468
563.659	30179
563.720	30354
563.780	30183
563.841	30789
563.901	30167
563.962	28108
564.023	29732
564.083	30053
564.144	31170
564.204	30242
564.265	30833
564.325	36542
564.386	61894
564.446	50438
564.507	29560
564.567	28903
564.628	29053
564.688	29106
564.749	30278
564.809	33634
564.869	37750
564.930	29815
564.990	28485
565.050	28047
565.111	28119
565.171	27227
565.231	27323
565.292	27804
565.352	27683
565.412	28445
565.472	30654
565.532	31149
565.593	29526
565.653	29643
565.713	31486
565.773	32082
565.833	37286
565.893	43098
565.953	32119
566.013	31321
566.074	32521
566.134	40056
566.194	59458
566.254	57478
566.314	41725
566.374	34264
566.434	34458
566.494	33319
566.554	34158
566.614	35872
566.673	37056
566.733	38217
566.793	41026
566.853	41421
566.913	41735
566.973	42432
567.033	43029
567.092	43077
567.152	42653
567.212	43199
567.272	45145
567.331	45748
567.391	46603
567.451	50184
567.511	60761
567.570	58588
567.630	45015
567.690	43845
567.749	44796
567.809	48759
567.868	52996
567.928	60225
567.988	68409
568.047	77320
568.107	92418
568.166	123624
568.226	199164
568.285	270447
568.345	223890
568.404	176949
568.464	152221
568.523	140617
568.582	142796
568.642	157132
568.701	192632
568.761	287304
568.820	453639
568.879	425506
568.939	310487
568.998	224983
569.057	170922
569.116	135691
569.176	109823
569.235	91892
569.294	81584
569.353	70735
569.413	64029
569.472	58764
569.531	53400
569.590	49054
569.649	46636
569.708	42632
569.767	43376
569.827	47386
569.886	41101
569.945	36168
570.004	36731
570.063	34791
570.122	37441
570.181	37355
570.240	39323
570.299	38863
570.358	39246
570.417	31445
570.475	31532
570.534	30535
570.593	31925
570.652	33141
570.711	32733
570.770	30587
570.829	33229
570.887	32468
570.946	34578
571.005	29335
571.064	28482
571.122	31495
571.181	33339
571.240	26957
571.299	26089
571.357	27489
571.416	30297
571.475	33197
571.533	32556
571.592	27093
571.650	28507
571.709	25199
571.768	26745
571.826	26218
571.885	24898
571.943	24258
572.002	25776
572.060	25563
572.119	23286
572.177	22378
572.236	23573
572.294	23081
572.352	23490
572.411	23960
572.469	23708
572.528	23418
572.586	23864
572.644	27261
572.703	31962
572.761	24921
572.819	24491
572.877	21937
572.936	21920
572.994	21192
573.052	22248
573.110	23044
573.169	23553
573.227	20758
573.285	21736
573.343	21418
573.401	22336
573.459	20893
573.517	21622
573.576	21294
573.634	22262
573.692	22514
573.750	21943
573.808	22365
573.866	22978
573.924	28326
573.982	27696
574.040	20974
574.098	22500
574.155	20512
574.213	20009
574.271	20478
574.329	22333
574.387	20445
574.445	20277
574.503	20087
574.560	18482
574.618	19372
574.676	19526
574.734	19420
574.792	21120
574.849	19103
574.907	18519
574.965	18189
575.022	19397
575.080	19118
575.138	20094
575.195	20208
575.253	20629
575.311	22771
575.368	20078
575.426	19189
575.483	20031
575.541	19155
575.598	19629
575.656	21141
575.713	19507
575.771	19511
575.828	20795
575.886	19334
575.943	21745
576.001	21097
576.058	21630
576.115	22458
576.173	25903
576.230	27058
576.287	30374
576.345	25238
576.402	22533
576.459	22326
576.517	22533
576.574	24614
576.631	25100
576.688	22505
576.746	21606
576.803	20922
576.860	20600
576.917	20643
576.974	21124
577.031	20015
577.089	20322
577.146	20774
577.203	20778
577.260	22665
577.317	22166
577.374	24228
577.431	23838
577.488	21589
577.545	20170
577.602	20716
577.659	20149
577.716	20341
577.773	20213
577.830	19364
577.886	20226
577.943	19091
578.000	20678
578.057	22771
578.114	21755
578.171	20144
578.227	21504
578.284	20096
578.341	20889
578.398	21533
578.454	21585
578.511	23956
578.568	25638
578.625	22841
578.681	20453
578.738	20098
578.794	20776
578.851	21399
578.908	21098
578.964	23414
579.021	23235
579.077	21518
579.134	20847
579.190	19805
579.247	21246
579.303	20274
579.360	18642
579.416	20033
579.473	20471
579.529	20502
579.586	20631
579.642	20098
579.698	20593
579.755	21834
579.811	21471
579.867	19885
579.924	20349
579.980	19217
580.036	21341
580.093	20299
580.149	22772
580.205	22431
580.261	21718
580.317	21771
580.374	23435
580.430	24985
580.486	25978
580.542	22762
580.598	23229
580.619	23128
580.654	22981
580.692	22705
580.710	22618
580.765	21897
580.767	21903
580.823	22773
580.838	22417
580.879	21558
580.911	21300
580.935	21166
580.984	20507
580.991	20441
581.047	23770
581.057	23173
581.103	20667
581.130	21821
581.159	23089
581.203	21879
581.215	21585
581.270	22839
581.276	22748
581.326	22117
581.349	22411
581.382	22913
581.422	22272
581.438	22021
581.494	22383
581.494	22360
581.550	22198
581.567	22500
581.606	23128
581.640	23407
581.661	23634
581.713	23095
581.717	23077
581.773	21794
581.786	21963
581.829	22549
581.859	22099
581.885	21788
581.932	23411
581.940	23706
581.996	23721
582.004	23628
582.052	23282
582.077	22497
582.107	21602
582.150	22768
582.163	23105
582.219	23128
582.223	23162
582.274	23858
582.296	23904
582.330	24043
582.368	23729
582.386	23597
582.441	23083
582.441	23092
582.497	22028
582.514	22216
582.552	22830
582.587	22746
582.608	22688
582.659	23404
582.663	23456
582.719	23099
582.732	23033
582.774	22987
582.805	23553
582.830	24043
582.877	23419
582.885	23317
582.941	23746
582.950	23659
582.996	23084
583.023	23475
583.052	24180
583.095	23963
583.107	23828
583.162	24847
583.168	24758
583.218	23887
583.240	23568
583.273	23128
583.313	23054
583.328	23129
583.384	24194
583.385	24150
583.439	22383
583.458	22685
583.494	23507
583.531	22977
583.549	22648
583.603	23596
583.605	23630
583.660	23520
583.676	23674
583.715	23641
583.748	23425
583.770	23614
583.820	24800
583.825	24839
583.881	23798
583.893	23668
583.936	23628
583.965	23599
583.991	23322
584.038	23208
584.046	23263
584.101	23898
584.110	24044
584.156	24511
584.183	24158
584.211	23786
584.255	24207
584.266	24280
584.321	24289
584.328	24303
584.376	24634
584.400	24451
584.431	23991
584.472	24894
584.486	25221
584.541	25486
584.545	25500
584.596	25304
584.617	25544
584.651	26423
584.689	27193
584.706	27199
584.761	26894
584.762	26903
584.816	26853
584.834	27242
584.871	27763
584.906	28162
584.926	28383
584.978	28423
584.980	28412
585.035	29736
585.051	29983
585.090	30494
585.123	31258
585.145	31733
585.195	33095
585.200	33254
585.254	35815
585.267	36201
585.309	36860
585.340	38250
585.364	39478
585.412	41210
585.419	41413
585.473	44898
585.484	45941
585.528	51556
585.556	58326
585.583	68945
585.628	97620
585.637	106749
585.692	202780
585.700	218941
585.747	280887
585.772	228854
585.801	144831
585.845	67945
585.856	56584
585.910	44461
585.917	43316
585.965	39813
585.989	39137
586.019	38252
586.061	37653
586.074	37636
586.128	38758
586.133	38945
586.183	40555
586.205	40952
586.237	41011
586.277	40038
586.292	39618
586.346	40654
586.349	40692
586.401	41140
586.421	41914
586.455	43107
586.493	44948
586.509	46593
586.564	54922
586.565	55374
586.618	74094
586.637	72805
586.672	62627
586.709	53103
586.727	49905
586.781	49828
586.781	49768
586.835	47527
586.853	47548
586.889	47482
586.925	47815
586.944	48291
586.996	50240
586.998	50203
587.052	51928
587.068	52309
587.106	53951
587.140	55069
587.161	55264
587.212	56628
587.215	56639
587.269	59391
587.284	60142
587.323	61670
587.356	62941
587.377	64022
587.427	67056
587.431	67107
587.485	69737
587.499	70508
587.539	73196
587.571	75783
587.593	77297
587.643	81667
587.648	82058
587.702	87834
587.715	89610
587.755	94256
587.786	97705
587.810	100168
587.858	105968
587.864	106534
587.917	116177
587.930	118683
587.971	127276
588.001	133820
588.025	138652
588.073	150903
588.079	152488
588.133	169442
588.145	174187
588.187	190296
588.217	202555
588.241	213630
588.288	240243
588.295	243715
588.348	278914
588.360	287740
588.402	321651
588.431	348330
588.456	372843
588.503	427833
588.510	436180
588.564	519673
588.575	540250
588.617	631620
588.646	704389
588.671	785447
588.718	962758
588.725	999244
588.778	1308784
588.789	1373752
588.832	1703060
588.861	1895283
588.886	1971708
588.932	1985530
588.939	1957502
588.993	1762580
589.004	1774396
589.047	1941681
589.075	1977754
589.100	1822814
589.147	1415214
589.154	1374908
589.207	1082076
589.218	1032094
589.261	943885
589.290	906679
589.314	921266
589.361	984281
589.368	1009803
589.421	1268556
589.433	1327668
589.475	1644991
589.504	1828953
589.528	1848002
589.576	1799212
589.582	1776884
589.635	1747986
589.647	1715574
589.689	1367813
589.718	1074703
589.742	916946
589.790	634546
589.795	614361
589.849	467205
589.861	438366
589.902	372594
589.932	328854
589.955	301044
590.004	250413
590.009	245914
590.062	210168
590.075	202811
590.115	184745
590.146	172519
590.168	163647
590.218	146769
590.222	145364
590.275	133232
590.289	130690
590.328	122355
590.360	116562
590.381	112709
590.431	104718
590.435	103978
590.488	96699
590.503	95097
590.541	90514
590.574	87162
590.594	84894
590.645	79613
590.647	79238
590.700	75372
590.716	74563
590.753	71728
590.787	69724
590.806	68596
590.859	66094
590.859	65872
590.912	63176
590.930	62538
590.965	60822
591.001	59694
591.018	58809
591.071	56537
591.072	56676
591.124	54798
591.143	54359
591.177	53217
591.214	52341
591.230	52010
591.283	51749
591.285	51867
591.336	51783
591.356	52011
591.389	50638
591.427	48939
591.442	48285
591.495	46681
591.498	46672
591.547	45010
591.569	44582
591.600	43919
591.640	43069
591.653	42809
591.706	42306
591.711	42380
591.759	42265
591.782	42420
591.811	43050
591.853	44196
591.864	43465
591.917	40020
591.924	39663
591.969	39176
591.995	39100
592.022	38597
592.066	38020
592.075	38144
592.127	39660
592.137	40088
592.180	41721
592.208	42781
592.233	40605
592.279	36762
592.285	36466
592.338	35017
592.350	34794
592.390	34284
592.421	34120
592.443	34073
592.491	34277
592.495	34175
592.548	34187
592.562	34288
592.600	33342
592.633	32721
592.653	32498
592.704	32017
592.705	32204
592.775	32641
592.846	32270
592.916	33069
592.987	35624
593.058	32004
593.128	31391
593.199	30757
593.270	30116
593.341	29621
593.411	31044
593.482	31542
593.553	31163
593.623	28880
593.694	30387
593.764	30471
593.835	30644
593.906	28365
593.976	29493
594.047	30749
594.117	33420
594.188	33638
594.258	29599
594.329	29262
594.399	29271
594.470	30343
594.540	30186
594.611	29932
594.681	30083
594.751	29373
594.822	31373
594.892	32128
594.963	32204
595.033	31180
595.103	32351
595.174	32964
595.244	42076
595.314	46198
595.384	31933
595.455	31598
595.525	33447
595.595	32955
595.665	33294
595.736	32251
595.806	33151
595.876	32068
595.946	32196
596.016	32208
596.087	34219
596.157	33571
596.227	33431
596.297	35487
596.367	37242
596.437	39411
596.507	45066
596.577	50157
596.647	38958
596.717	38230
596.787	38573
596.857	38213
596.927	38766
596.997	38362
597.067	39416
597.137	39702
597.207	40201
597.277	38936
597.347	38881
597.417	36904
597.487	39034
597.557	39005
597.626	41928
597.696	41173
597.766	45078
597.836	47778
597.906	39430
597.975	35788
598.045	35996
598.115	36809
598.185	38792
598.254	42308
598.324	45739
598.394	45985
598.464	45447
598.533	42123
598.603	41068
598.672	40446
598.742	40544
598.812	41068
598.881	41430
598.951	41261
599.020	40407
599.090	42278
599.159	43061
599.229	40597
599.299	40310
599.368	40858
599.437	40868
599.507	37978
599.576	39017
599.646	37241
599.715	37365
599.785	36872
599.854	37347
599.924	38959
599.993	37644
600.062	36110
600.132	36966
600.201	38163
600.270	44340
600.340	44680
600.409	42821
600.478	42781
600.547	43384
600.617	40976
600.686	35041
600.755	34314
600.824	34817
600.894	31183
600.963	31922
601.032	30396
601.101	31086
601.170	29559
601.239	29770
601.308	31993
601.378	31543
601.447	29896
601.516	29865
601.585	31325
601.654	33866
601.723	31585
601.792	31901
601.861	31450
601.930	34651
601.999	34923
602.068	33791
602.137	35447
602.206	34901
602.275	33682
602.343	38118
602.412	37112
602.481	32713
602.550	32927
602.619	34390
602.688	35125
602.756	33743
602.825	33231
602.894	35283
602.963	34104
603.032	35195
603.100	34294
603.169	35701
603.238	36046
603.307	36597
603.375	35432
603.444	37239
603.513	35422
603.581	37012
603.650	36606
603.719	35977
603.787	36465
603.856	38140
603.924	37933
603.993	40346
604.061	39355
604.130	42021
604.198	42954
604.267	43071
604.335	42983
604.404	43385
604.472	43547
604.541	44163
604.609	45569
604.678	45180
604.746	43809
604.815	46866
604.883	46115
604.951	47362
605.020	46687
605.088	47669
605.156	49083
605.225	50114
605.293	48953
605.361	49269
605.429	49722
605.498	52036
605.566	51481
605.634	54089
605.702	55256
605.771	56773
605.839	56472
605.907	54736
605.975	52614
606.043	52089
606.111	51926
606.180	52088
606.248	51636
606.316	52718
606.384	52805
606.452	57022
606.520	60093
606.588	54865
606.656	52407
606.724	53032
606.792	49662
606.860	44251
606.928	41186
606.996	41924
607.064	38934
607.132	40522
607.200	43252
607.267	44699
607.335	44025
607.403	45659
607.471	43595
607.539	42824
607.607	43792
607.674	39911
607.742	40361
607.810	40687
607.878	39991
607.946	39851
608.013	41221
608.081	43091
608.149	42243
608.216	43846
608.284	45553
608.352	45665
608.419	44242
608.487	50419
608.555	43689
608.622	44921
608.690	45446
608.757	50624
608.825	51851
608.893	51418
608.960	51162
609.028	51764
609.095	53845
609.163	46935
609.230	42217
609.298	39868
609.365	40370
609.432	43811
609.500	46202
609.567	53653
609.635	59236
609.702	62670
609.769	60414
609.837	51143
609.904	45042
609.971	45981
610.039	56594
610.106	78416
610.173	156389
610.241	367910
610.308	290494
610.375	148253
610.442	60044
610.509	48286
610.577	45237
610.644	45398
610.711	44895
610.778	46496
610.845	46883
610.912	50569
610.980	51742
611.047	52246
611.114	51247
611.181	49995
611.248	47371
611.315	52696
611.382	51666
611.449	53642
611.516	54393
611.583	55173
611.650	55636
611.717	55825
611.784	57114
611.851	61111
611.918	68762
611.984	82309
612.051	128316
612.118	284633
612.185	716361
612.252	388970
612.319	91511
612.386	73289
612.452	65518
612.519	65558
612.586	67402
612.653	64380
612.719	63843
612.786	61294
612.853	55873
612.919	55516
612.986	56037
613.053	52902
613.120	49116
613.186	46911
613.253	50091
613.319	49240
613.386	49029
613.453	52160
613.519	53423
613.586	57284
613.652	66904
613.719	61193
613.785	56682
613.852	50129
613.918	48682
613.985	51528
614.051	53039
614.118	59047
614.184	55277
614.250	50353
614.317	50379
614.383	50798
614.449	50111
614.516	50646
614.582	52494
614.648	48883
614.715	49981
614.781	48499
614.847	49396
614.914	50066
614.980	48529
615.046	47644
615.112	50190
615.179	51583
615.245	53022
615.311	60830
615.377	84619
615.443	85407
615.509	60012
615.575	57746
615.642	55173
615.708	59403
615.774	62702
615.840	69508
615.906	82728
615.972	121416
616.038	227040
616.104	418551
616.170	928661
616.236	690934
616.302	142711
616.368	99066
616.434	72774
616.500	68139
616.565	74016
616.631	90187
616.697	72182
616.763	76911
616.829	117272
616.895	208708
616.961	186088
617.026	78902
617.092	55514
617.158	53738
617.224	51896
617.289	48612
617.355	46429
617.421	46315
617.487	46592
617.552	43984
617.618	43625
617.684	43091
617.749	45126
617.815	42448
617.880	40660
617.946	41101
618.012	42540
618.077	42190
618.143	41079
618.208	41490
618.274	43759
618.339	44595
618.405	36817
618.470	39611
618.536	38714
618.601	40427
618.667	36392
618.732	34827
618.798	34297
618.863	36444
618.928	33380
618.994	37394
619.059	39226
619.124	46780
619.190	38406
619.255	34258
619.320	34389
619.386	35022
619.451	33230
619.516	33437
619.581	34190
619.647	34439
619.712	34135
619.777	33655
619.842	32835
619.907	34345
619.972	34623
620.038	34179
620.103	33195
620.168	31980
620.233	33300
620.298	32811
620.363	33813
620.428	34008
620.493	34272
620.558	34961
620.623	34492
620.688	36155
620.753	33795
620.818	34777
620.883	35230
620.948	35317
621.013	35094
621.078	35842
621.143	34160
621.207	37656
621.272	36676
621.337	37235
621.402	37972
621.467	41605
621.532	40812
621.596	37592
621.661	36501
621.726	34789
621.791	35699
621.855	36289
621.920	37445
621.985	38665
622.049	40124
622.114	39108
622.179	37072
622.243	39290
622.308	38151
622.373	39903
622.437	38287
622.502	37467
622.566	35889
622.631	36201
622.695	37714
622.760	38372
622.824	36968
622.889	38766
622.953	38925
623.018	52645
623.082	48666
623.147	40466
623.211	38099
623.276	39493
623.340	35474
623.404	35733
623.469	35059
623.533	35676
623.597	34533
623.662	34943
623.726	32751
623.790	31282
623.854	30925
623.919	32041
623.983	32212
624.047	32619
624.111	32229
624.176	33058
624.240	34773
624.304	37741
624.368	32407
624.432	33318
624.496	33912
624.560	38238
624.625	39828
624.689	35308
624.753	34284
624.817	35441
624.881	32922
624.945	31303
625.009	30420
625.073	32213
625.137	32901
625.201	39974
625.265	38274
625.329	32621
625.393	32764
625.456	33031
625.520	32700
625.584	35659
625.648	40270
625.712	52495
625.776	90801
625.839	97540
625.903	45505
625.967	32404
626.031	46866
626.095	62017
626.158	33316
626.222	25028
626.286	24530
626.349	23422
626.413	22635
626.477	25358
626.540	23534
626.604	22373
626.668	22381
626.731	23235
626.795	22476
626.858	22908
626.922	22127
626.986	23448
627.049	20881
627.113	22682
627.176	21500
627.240	21081
627.303	20992
627.366	21168
627.430	21978
627.493	21589
627.557	19900
627.620	22487
627.684	21173
627.747	21369
627.810	19825
627.874	19835
627.937	17930
628.000	22167
628.064	19205
628.127	16374
628.190	17935
628.253	18000
628.317	17480
628.380	16647
628.443	16447
628.506	16794
628.569	15846
628.632	14997
628.696	14860
628.759	15579
628.822	14701
628.885	14934
628.948	14692
629.011	16286
629.074	14954
629.137	13660
629.200	12862
629.263	15893
629.326	12587
629.389	13963
629.452	13838
629.515	13507
629.578	13554
629.641	15666
629.704	13814
629.767	14917
629.830	13795
629.892	14283
629.955	12629
630.018	16621
630.081	15790
630.144	19250
630.207	14774
630.269	16415
630.332	14653
630.395	14034
630.458	12644
630.520	12231
630.583	12834
630.646	13828
630.708	11451
630.771	11742
630.834	13219
630.896	12301
630.959	12349
631.021	13093
631.084	12979
631.146	14300
631.209	15333
631.272	13058
631.334	12342
631.397	12671
631.459	12355
631.522	13854
631.584	13395
631.646	14424
631.709	15611
631.771	19433
631.834	14137
631.896	14009
631.958	10910
632.021	12685
632.083	10898
632.145	12941
632.208	11451
632.270	13281
632.332	10867
632.395	11101
632.457	11628
632.519	11140
632.581	12516
632.643	10698
632.706	11954
632.768	11093
632.830	11741
632.892	11077
632.954	9814
633.016	13280
633.078	11037
633.141	11459
633.203	11245
633.265	12115
633.327	11551
633.389	11549
633.451	12827
633.513	14816
633.575	14196
633.637	13996
633.698	13452
633.760	11929
633.822	11359
633.884	12710
633.946	11727
634.008	12593
634.070	12472
634.132	14032
634.193	12443
634.255	15258
634.317	14669
634.379	15600
634.441	13920
634.502	13202
634.564	12141
634.626	12679
634.687	12924
634.749	11107
634.811	11588
634.873	10000
634.934	9765
634.996	11666
635.057	9100
635.119	10464
635.181	10387
635.242	12153
635.304	9134
635.365	12925
635.427	9768
635.488	12084
635.550	10018
635.611	10965
635.673	8567
635.734	12908
635.796	12368
635.857	14252
635.918	11079
635.980	15820
636.041	13980
636.102	16355
636.164	15829
636.225	16015
636.286	11490
636.348	13407
636.409	11674
636.470	10578
636.531	10641
636.593	11434
636.654	10432
636.715	10613
636.776	9423
636.838	9331
636.899	10189
636.960	9706
637.021	9253
637.082	10237
637.143	8987
637.204	8990
637.265	7619
637.326	9805
637.387	8604
637.448	7553
637.509	9481
637.570	8278
637.631	8985
637.692	7637
637.753	7157
637.814	9335
637.875	8938
637.936	9199
637.997	8050
638.058	9189
638.119	9073
638.179	8338
638.240	8056
638.301	8904
638.362	7054
638.423	8235
638.483	9353
638.544	6676
638.605	7892
638.666	7807
638.726	8092
638.787	9073
638.848	7124
638.908	7311
638.969	7700
639.030	7631
639.090	6251
639.151	8311
639.211	8983
639.272	12683
639.332	17551
639.393	10878
639.453	7550
639.514	8851
639.574	8001
639.635	7746
639.695	8504
639.756	7608
639.816	8289
639.877	10701
639.937	16673
639.997	19643
640.058	7384
640.118	6354
640.178	8267
640.239	7594
640.299	6765
640.359	7068
640.420	7026
640.480	8564
640.540	8184
640.600	8825
640.661	9460
640.721	9026
640.781	11453
640.841	8357
640.901	7753
640.961	8597
641.021	8533
641.082	9894
641.142	12495
641.202	9430
641.262	5811
641.322	7415
641.382	5949
641.442	8102
641.502	6446
641.562	7593
641.622	6223
641.682	7466
641.742	7636
641.802	7992
641.861	7298
641.921	8108
641.981	9232
642.041	9241
642.101	10580
642.161	7466
642.221	6213
642.280	6749
642.340	7062
642.400	6020
642.460	7572
642.519	6472
642.579	5759
642.639	7995
642.698	3871
642.758	8946
642.818	5881
642.877	6759
642.937	7461
642.997	8859
643.056	12119
643.116	7422
643.175	7904
643.235	7001
643.294	6656
643.354	7852
643.414	8950
643.473	11271
643.532	12122
643.592	17522
643.651	30076
643.711	56052
643.770	113451
643.830	287425
643.889	576073
643.948	113738
644.008	19959
644.067	12264
644.126	9220
644.186	9093
644.245	8219
644.304	6561
644.363	7912
644.423	5960
644.482	6653
644.541	7511
644.600	5958
644.659	9667
644.719	9917
644.778	15694
644.837	27122
644.896	55579
644.955	122639
645.014	35275
645.073	10113
645.132	8452
645.191	7927
645.250	7340
645.309	8632
645.368	7892
645.427	9466
645.486	14485
645.545	23771
645.604	8330
645.663	7213
645.722	7176
645.781	7390
645.840	9862
645.898	11066
645.957	16919
646.016	25458
646.075	50865
646.134	101721
646.192	285195
646.251	380329
646.310	47154
646.369	13318
646.427	11124
646.486	7890
646.545	8098
646.603	7056
646.662	6926
646.721	6858
646.779	5618
646.838	5939
646.896	9003
646.955	10048
647.014	16570
647.072	29622
647.131	80052
647.189	31822
647.248	6968
647.306	5954
647.365	7444
647.423	3348
647.481	6528
647.540	4126
647.598	6026
647.657	5157
647.715	6142
647.773	3250
647.832	5331
647.890	3934
647.948	4633
648.007	4946
648.065	3575
648.123	3455
648.181	6556
648.240	4972
648.298	4128
648.356	4513
648.414	5975
648.472	4708
648.531	5939
648.589	4414
648.647	4339
648.705	4246
648.763	4949
648.821	4974
648.879	5351
648.937	5629
648.995	7169
649.053	8508
649.111	13481
649.169	20964
649.227	39044
649.285	81535
649.343	232400
649.401	96312
649.459	29037
649.516	16171
649.574	7296
649.632	10145
649.690	11796
649.748	9670
649.806	11265
649.863	20893
649.921	54894
649.979	31723
650.037	6896
650.094	2969
650.152	4760
650.210	2816
650.268	5506
650.325	4897
650.383	4463
650.440	2933
650.498	4963
650.556	3458
650.613	3919
650.671	3260
650.728	4143
650.786	4537
650.843	5129
650.901	2638
650.958	3520
651.016	3370
651.073	3769
651.131	3131
651.188	3043
651.246	3544
651.303	3506
651.360	3911
651.418	3432
651.475	3816
651.532	2580
651.590	3323
651.647	3576
651.704	2093
651.762	3353
651.819	3465
651.876	3075
651.933	2833
651.990	3930
652.048	736
652.105	2918
652.162	3503
652.219	3078
652.276	3591
652.333	4154
652.390	1845
652.448	3152
652.505	3733
652.562	2984
652.619	2302
652.676	3505
652.733	3792
652.790	3024
652.847	1161
652.904	3197
652.961	1445
653.017	2173
653.074	3125
653.131	3273
653.188	1574
653.245	2594
653.302	2165
653.359	2904
653.415	2257
653.472	2833
653.529	3157
653.586	3070
653.642	1857
653.699	4182
653.756	1237
653.813	2596
653.869	3828
653.926	2995
653.983	1726
654.039	2729
654.096	2402
654.152	3806
654.209	1553
654.266	3865
654.322	1774
654.379	3481
654.435	3655
654.492	4244
654.548	5362
654.605	8751
654.661	4567
654.717	3065
654.774	3203
654.830	2964
654.887	2744
654.943	3224
655.000	3083
655.056	3980
655.112	3236
655.168	2937
655.225	2974
655.281	4902
655.337	4353
655.394	7029
655.450	6364
655.506	5338
655.562	8450
655.618	7637
655.675	3192
655.731	4187
655.787	3485
655.843	5329
655.899	3149
655.955	4968
656.011	4662
656.067	4492
656.123	6527
656.179	6920
656.235	7643
656.291	5805
656.347	6794
656.403	6039
656.459	4102
656.515	5027
656.571	4832
656.627	4984
656.683	3582
656.739	5452
656.795	3783
656.850	4304
656.906	4372
656.962	4490
657.018	1942
657.074	2982
657.129	3166
657.185	5070
657.241	7679
657.297	4432
657.352	3195
657.408	2185
657.464	3485
657.519	2545
657.575	2430
657.630	2829
657.686	2179
657.742	2722
657.797	2567
657.853	2975
657.908	3343
657.964	2241
658.019	2671
658.075	2863
658.130	3258
658.186	2174
658.241	2984
658.297	2651
658.352	2124
658.407	3043
658.463	1363
658.518	2745
658.573	2425
658.629	2611
658.684	1531
658.739	3361
658.795	1353
658.850	2129
658.905	2228
658.960	2737
659.016	1556
659.071	2809
659.126	2077
659.181	3475
659.236	6530
659.291	7411
659.346	2969
659.401	3388
659.457	2755
659.512	2000
659.567	3750
659.622	2312
659.677	2000
659.732	1776
659.787	2768
659.842	3017
659.897	3288
659.952	3817
660.007	2498
660.061	2785
660.116	1357
660.171	2031
660.226	1889
660.281	3456
660.336	2122
660.391	3144
660.445	1255
660.500	2945
660.555	2136
660.610	2429
660.664	2066
660.719	2522
660.774	2988
660.828	3340
660.883	2448
660.938	3583
660.992	352
661.047	2918
661.101	1744
661.156	2442
661.211	1339
661.265	2796
661.320	1822
661.374	2098
661.429	1718
661.483	3714
661.538	2117
661.592	2860
661.647	2061
661.701	2668
661.755	2838
661.810	2743
661.864	1237
661.919	2631
661.973	3507
662.027	2317
662.081	1206
662.136	2912
662.190	2442
662.244	2799
662.299	2389
662.353	3287
662.407	2323
662.461	2011
662.515	2426
662.569	2120
662.624	2730
662.678	2539
662.732	2459
662.786	2783
662.840	2765
662.894	2644
662.948	1978
663.002	1999
663.056	1973
663.110	2072
663.164	1784
663.218	2857
663.272	1833
663.326	3182
663.380	2299
663.434	2826
663.488	2599
663.542	3128
663.595	2230
663.649	2415
663.703	1873
663.757	3158
663.811	1659
663.864	2784
663.918	2653
663.972	2186
664.026	2152
664.079	1996
664.133	2513
664.187	3035
664.240	1493
664.294	2367
664.348	2627
664.401	2963
664.455	2713
664.508	2191
664.562	2082
664.615	3162
664.669	2047
664.722	2274
664.776	1652
664.829	2809
664.883	1671
664.936	2625
664.990	2078
665.043	3194
665.097	2395
665.150	3802
665.203	1942
665.257	3376
665.310	2475
665.363	2482
665.417	2645
665.470	3037
665.523	2616
665.576	2451
665.630	2014
665.683	2811
665.736	2859
665.789	2764
665.842	2190
665.895	4117
665.949	2820
666.002	2483
666.055	2625
666.108	2958
666.161	2685
666.214	3324
666.267	3192
666.320	3385
666.373	3022
666.426	3506
666.479	2533
666.532	3935
666.585	2911
666.638	4499
666.691	3206
666.744	3729
666.796	2731
666.849	3260
666.902	2664
666.955	2913
667.008	1941
667.060	2443
667.113	1472
667.166	3782
667.219	1424
667.271	2769
667.324	2494
667.377	3310
667.430	1452
667.482	3057
667.535	2008
667.587	3669
667.640	2460
667.693	4440
667.745	6339
667.798	6703
667.850	2443
667.903	3591
667.955	3222
668.008	3069
668.060	2879
668.113	3183
668.165	2631
668.218	4424
668.270	2835
668.322	3644
668.375	2705
668.427	2688
668.479	1968
668.532	3313
668.584	3087
668.636	3152
668.689	2284
668.741	3044
668.793	2343
668.845	3075
668.898	2246
668.950	2874
669.002	3153
669.054	3399
669.106	3297
669.158	3791
669.211	2896
669.263	3148
669.315	3402
669.367	3562
669.419	2992
669.471	4720
669.523	4815
669.575	6562
669.627	4584
669.679	4449
669.731	2941
669.783	4949
669.835	4319
669.886	4612
669.938	3701
669.990	4314
670.042	3940
670.094	5578
670.146	4672
670.197	5600
670.249	8725
670.301	10895
670.353	13295
670.404	21750
670.456	30819
670.508	48797
670.560	77998
670.611	131103
670.663	230215
670.715	539107
670.766	773798
670.818	274821
670.869	56317
670.921	28324
670.972	18806
671.024	14336
671.075	10822
671.127	9414
671.178	6444
671.230	7052
671.281	6810
671.333	6173
671.384	4897
671.436	5860
671.487	6405
671.538	7864
671.590	9356
671.641	14073
671.692	21796
671.744	38341
671.795	23990
671.846	10006
671.897	5563
671.949	4985
672.000	3828
672.051	4251
672.102	4043
672.153	3578
672.204	3730
672.256	4397
672.307	3266
672.358	3757
672.409	3206
672.460	2714
672.511	2805
672.562	3103
672.613	2588
672.664	4070
672.715	3244
672.766	3081
672.817	2816
672.868	3380
672.919	2257
672.970	3475
673.021	2714
673.071	2890
673.122	2486
673.173	2749
673.224	1428
673.275	4181
673.326	2571
673.376	2881
673.427	2236
673.478	2688
673.528	2609
673.579	2791
673.630	2188
673.680	3458
673.731	2194
673.782	2080
673.832	2975
673.883	3094
673.934	2112
673.984	2995
674.035	1660
674.085	2772
674.136	2766
674.186	3964
674.237	4147
674.287	5292
674.338	3222
674.388	2344
674.438	3290
674.489	2840
674.539	3037
674.589	2472
674.640	2794
674.690	3366
674.740	1940
674.791	3660
674.841	2507
674.891	3959
674.942	2901
674.992	2877
675.042	2012
675.092	2673
675.142	1898
675.193	2959
675.243	2519
675.293	3693
675.343	1697
675.393	2805
675.443	2774
675.493	3444
675.543	2226
675.593	2877
675.643	2367
675.693	2505
675.743	2468
675.793	3538
675.843	1820
675.893	2101
675.943	1993
675.993	2514
676.043	2177
676.093	2979
676.142	1811
676.192	3427
676.242	1923
676.292	2668
676.341	2236
676.391	2314
676.441	2104
676.491	2009
676.540	1197
676.590	1744
676.640	2223
676.689	1664
676.739	1659
676.789	2066
676.838	1193
676.888	2918
676.937	2175
676.987	2334
677.037	1327
677.086	1751
677.136	1564
677.185	1231
677.235	1225
677.284	1963
677.333	754
677.383	1470
677.432	795
677.482	2928
677.531	1472
677.580	1620
677.630	1691
677.679	2091
677.728	1914
677.778	2544
677.827	1711
677.876	2036
677.925	1491
677.975	1630
678.024	1565
678.073	2034
678.122	1875
678.171	2975
678.220	2250
678.269	3341
678.319	2114
678.368	2198
678.417	2247
678.466	2502
678.515	2032
678.564	2917
678.613	2182
678.662	1712
678.711	1949
678.760	2232
678.809	1270
678.857	2174
678.906	2264
678.955	2535
679.004	2323
679.053	2124
679.102	947
679.151	2736
679.199	1017
679.248	2873
679.297	1290
679.346	2753
679.394	1529
679.443	2109
679.492	1688
679.540	1559
679.589	1482
679.638	2511
679.686	964
679.735	2749
679.784	1586
679.832	1889
679.881	1138
679.929	1852
679.978	1052
680.026	2100
680.075	1707
680.123	2133
680.172	1470
680.220	1820
680.268	1871
680.317	1695
680.365	382
680.414	1967
680.462	1962
680.510	3056
680.559	1055
680.607	1913
680.655	1655
680.703	1792
680.752	1327
680.800	1338
680.848	993
680.896	1904
680.945	1527
680.993	811
681.041	593
681.089	1827
681.137	1743
681.185	1756
681.233	1464
681.258	1432
681.281	1379
681.329	1325
681.377	1589
681.380	1602
681.425	1441
681.473	2455
681.502	1906
681.521	1482
681.569	2362
681.617	978
681.624	1227
681.665	2660
681.713	1989
681.745	2091
681.761	2103
681.809	2103
681.857	2572
681.867	2397
681.904	1723
681.952	2701
681.989	2162
682.000	1966
682.048	1990
682.096	1705
682.111	1996
682.143	2560
682.191	2337
682.233	3366
682.239	3496
682.286	2544
682.334	2297
682.354	2297
682.382	2263
682.430	2729
682.476	2016
682.477	1979
682.525	2761
682.572	2512
682.598	2394
682.620	2295
682.667	3008
682.715	3276
682.720	3271
682.763	3011
682.810	3253
682.841	3369
682.857	3381
682.905	3128
682.952	2469
682.963	2795
683.000	3893
683.047	2351
683.085	3917
683.095	4312
683.142	3077
683.190	3259
683.206	3057
683.237	2643
683.284	3657
683.328	3021
683.332	2952
683.379	3030
683.426	2609
683.449	3457
683.473	4306
683.521	2853
683.568	3353
683.571	3360
683.615	3261
683.662	4844
683.693	3550
683.709	2797
683.757	3357
683.804	3026
683.814	3261
683.851	3990
683.898	3786
683.936	3954
683.945	3999
683.992	4590
684.039	4078
684.057	4192
684.086	4354
684.133	4952
684.179	4265
684.180	4221
684.227	4734
684.274	4150
684.300	4151
684.321	4136
684.368	4012
684.415	5086
684.422	4879
684.462	3610
684.509	4210
684.543	4001
684.556	3934
684.603	4331
684.649	3309
684.665	3952
684.696	5195
684.743	4845
684.786	5304
684.790	5339
684.837	4498
684.883	5335
684.908	5034
684.930	4673
684.977	5851
685.023	4518
685.029	4586
685.070	4962
685.117	4038
685.150	4883
685.164	5289
685.210	5651
685.257	6249
685.272	6332
685.303	6360
685.350	6329
685.393	6012
685.396	5975
685.443	6247
685.490	7096
685.514	6653
685.536	6189
685.583	6261
685.629	6409
685.636	6327
685.675	5758
685.722	6559
685.757	6370
685.768	6333
685.815	6011
685.861	5909
685.878	6080
685.908	6390
685.954	5891
686.000	6982
686.000	7000
686.047	6510
686.093	7859
686.121	7996
686.139	7681
686.185	6963
686.232	5571
686.242	5582
686.278	6059
686.324	5775
686.363	5707
686.370	5664
686.416	5788
686.463	6841
686.484	6377
686.509	5946
686.555	5994
686.601	5904
686.606	5957
686.647	6347
686.693	6013
686.727	6018
686.739	6054
686.785	6142
686.831	6508
686.848	6475
686.877	6259
686.923	6520
686.969	5893
686.969	5889
687.015	6370
687.061	6623
687.090	7034
687.107	7168
687.153	6252
687.199	6300
687.211	6086
687.245	5781
687.291	6682
687.332	7110
687.336	7146
687.382	7371
687.428	6728
687.453	6992
687.474	7108
687.520	6724
687.565	7438
687.574	7218
687.611	6420
687.657	7005
687.695	6599
687.702	6561
687.748	7552
687.794	7387
687.816	7642
687.839	7672
687.885	6555
687.931	6700
687.937	6647
687.976	6642
688.022	6779
688.058	6473
688.067	6384
688.113	6743
688.158	6442
688.179	6900
688.204	7519
688.249	6383
688.295	7333
688.300	7352
688.340	7585
688.386	8384
688.421	7696
688.431	7438
688.477	7468
688.522	7193
688.542	7247
688.567	7442
688.613	7258
688.658	7373
688.663	7321
688.703	6888
688.749	7913
688.784	7354
688.794	7218
688.839	7143
688.884	7392
688.905	7466
688.930	7507
688.975	7157
689.020	7603
689.026	7573
689.065	7786
689.110	8311
689.146	8172
689.155	8036
689.201	7805
689.246	7675
689.267	7711
689.291	7871
689.336	7720
689.381	7687
689.388	7537
689.426	7050
689.471	7848
689.509	8056
689.516	8045
689.561	7805
689.606	7397
689.630	7610
689.651	7865
689.696	7678
689.741	8055
689.750	7927
689.785	7529
689.830	7908
689.871	7437
689.875	7406
689.920	7814
689.965	7836
689.992	7921
690.010	7951
690.054	7957
690.099	7714
690.112	7770
690.144	8111
690.189	8021
690.233	8334
690.233	8346
690.278	8684
690.323	7922
690.354	8238
690.367	8443
690.412	8413
690.457	8217
690.474	8223
690.501	8064
690.546	8455
690.590	7768
690.595	7750
690.635	8089
690.680	8059
690.716	7943
690.724	7892
690.769	7749
690.813	8500
690.836	8383
690.857	8493
690.902	8954
690.946	9266
690.957	9364
690.991	9752
691.035	9886
691.077	10503
691.080	10536
691.124	10274
691.168	11054
691.198	10663
691.213	10391
691.257	10432
691.301	9767
691.318	9656
691.346	9440
691.390	8772
691.434	8467
691.439	8435
691.478	8699
691.522	8822
691.559	8625
691.567	8670
691.611	9534
691.655	9768
691.680	10061
691.699	10059
691.743	9650
691.787	9578
691.800	9422
691.831	9231
691.875	9435
691.919	9590
691.921	9569
691.964	9693
692.008	9829
692.041	9913
692.052	9904
692.096	9899
692.139	10094
692.162	10050
692.183	9968
692.227	9890
692.271	9491
692.282	9530
692.315	9968
692.359	10015
692.402	10020
692.403	10038
692.447	9931
692.490	9994
692.523	9798
692.534	9818
692.578	10219
692.622	10218
692.643	10311
692.666	10130
692.709	9706
692.753	9132
692.763	8998
692.797	9176
692.840	9559
692.884	9485
692.884	9504
692.928	9705
692.971	9908
693.004	9623
693.015	9540
693.059	9699
693.102	9447
693.124	9344
693.146	9484
693.189	9934
693.233	10159
693.245	10318
693.276	10667
693.320	10344
693.363	10437
693.365	10420
693.407	10303
693.450	10165
693.485	9799
693.493	9860
693.537	10355
693.580	10700
693.605	11032
693.624	11301
693.667	11522
693.710	12202
693.725	12262
693.753	13066
693.797	14454
693.840	15815
693.845	15954
693.883	15277
693.926	14344
693.966	13669
693.970	13604
694.013	12194
694.056	11423
694.086	10305
694.099	10199
694.142	10332
694.185	10437
694.206	10564
694.229	10996
694.272	11113
694.315	12025
694.326	12041
694.358	11754
694.401	11807
694.444	11745
694.446	11720
694.487	11867
694.530	11775
694.566	11788
694.573	11716
694.616	10845
694.659	10242
694.686	9607
694.702	9599
694.745	10090
694.787	10259
694.806	10358
694.830	10374
694.873	10140
694.916	10001
694.926	9936
694.959	10225
695.002	10831
695.044	11178
695.046	11171
695.087	11016
695.130	10648
695.166	10611
695.172	10712
695.215	10579
695.258	11171
695.286	11153
695.301	10940
695.343	10772
695.386	10132
695.406	9801
695.428	9890
695.471	10365
695.514	10692
695.526	10751
695.556	10816
695.599	11046
695.641	10837
695.646	10841
695.684	10964
695.726	10634
695.766	10641
695.769	10688
695.811	10728
695.854	10842
695.886	10955
695.896	10982
695.938	10939
695.981	10874
696.005	10843
696.023	10970
696.065	11121
696.108	11487
696.125	11458
696.150	11325
696.192	11319
696.235	11211
696.245	11157
696.277	11138
696.319	11116
696.361	11193
696.365	11150
696.404	10888
696.446	10788
696.485	10491
696.488	10547
696.530	11067
696.572	11446
696.604	11857
696.614	11876
696.656	11632
696.698	11637
696.724	11392
696.740	11264
696.783	11107
696.825	10872
696.844	10751
696.867	10787
696.909	10768
696.951	10793
696.964	10721
696.992	10710
697.034	10858
697.076	10892
697.083	10870
697.118	11315
697.160	11865
697.202	12362
697.203	12343
697.244	11966
697.286	11609
697.323	11181
697.327	11223
697.369	11276
697.411	11554
697.442	11672
697.453	11693
697.494	11553
697.536	11484
697.562	11364
697.578	11559
697.620	12126
697.661	12616
697.682	12770
697.703	12825
697.744	12992
697.786	13240
697.801	13237
697.828	13292
697.869	13429
697.911	13402
697.921	13394
697.952	12803
697.994	11934
698.035	11126
698.040	10983
698.077	11223
698.118	11571
698.160	11853
698.160	11822
698.201	11760
698.243	11636
698.279	11517
698.284	11575
698.325	11814
698.367	12046
698.399	12203
698.408	12216
698.449	12094
698.491	11976
698.518	11867
698.532	11959
698.573	12164
698.614	12362
698.638	12415
698.656	12448
698.697	12486
698.738	12517
698.757	12497
698.779	12621
698.820	12773
698.862	12958
698.877	12984
698.903	13060
698.944	13132
698.985	13202
698.996	13189
699.026	13124
699.067	12980
699.116	12778
699.235	11964
699.354	12164
699.474	11899
699.593	14203
699.713	13194
699.832	13190
699.951	13744
700.070	12840
700.190	12534
700.309	12875
700.428	13328
700.547	12014
700.667	11869
700.786	13617
700.905	11202
701.024	12277
701.143	10498
701.262	11476
701.381	10853
701.500	11966
701.619	13579
701.738	10522
701.857	11153
701.976	10937
702.095	10261
702.214	12392
702.333	12482
702.452	12314
702.571	10519
702.690	10523
702.809	9876
702.928	10034
703.047	11102
703.165	11329
703.284	9806
703.403	11524
703.522	10384
703.640	11517
703.759	13867
703.878	16837
703.997	10550
704.115	10549
704.234	9979
704.353	10384
704.471	10207
704.590	9553
704.708	9933
704.827	9472
704.946	9849
705.064	10132
705.183	9501
705.301	11554
705.420	15314
705.538	13212
705.656	12065
705.775	11716
705.893	12364
706.012	13377
706.130	11489
706.249	12352
706.367	12303
706.485	13978
706.604	11823
706.722	13513
706.840	15630
706.958	14745
707.077	13144
707.195	11831
707.313	11501
707.431	10442
707.549	11554
707.668	11678
707.786	11311
707.904	10940
708.022	10392
708.140	11200
708.258	11961
708.376	11781
708.494	11268
708.612	12431
708.730	16291
708.848	15121
708.966	15338
709.084	14088
709.202	12057
709.320	13871
709.438	13240
709.556	13289
709.674	13191
709.791	13714
709.909	12142
710.027	13287
710.145	12185
710.263	12764
710.380	12117
710.498	13061
710.616	12002
710.733	12308
710.851	12753
710.969	12966
711.086	11370
711.204	12495
711.322	11658
711.439	12130
711.557	12605
711.674	12616
711.792	11756
711.909	12214
712.027	11192
712.144	11941
712.262	11870
712.379	13731
712.497	16917
712.614	17105
712.732	14393
712.849	15297
712.966	15220
713.084	18303
713.201	15166
713.318	14948
713.436	14120
713.553	14851
713.670	14854
713.787	16187
713.905	15442
714.022	14909
714.139	14190
714.256	17469
714.373	19364
714.490	28578
714.608	67248
714.725	269586
714.842	218492
714.959	23066
715.076	15294
715.193	12792
715.310	12052
715.427	12471
715.544	12189
715.661	12917
715.778	12291
715.895	13891
716.011	12749
716.128	12904
716.245	12452
716.362	15830
716.479	14345
716.596	12392
716.713	11623
716.829	12382
716.946	11511
717.063	11955
717.180	11753
717.296	11325
717.413	11454
717.530	11511
717.646	10750
717.763	11129
717.880	10154
717.996	10732
718.113	10779
718.229	11012
718.346	10506
718.462	11141
718.579	14534
718.695	22884
718.812	15725
718.928	15800
719.045	11145
719.161	9989
719.277	8551
719.394	10854
719.510	9855
719.626	11567
719.743	13239
719.859	15071
719.975	22383
720.092	76257
720.208	141317
720.324	20434
720.440	11945
720.557	12933
720.673	18858
720.789	23295
720.905	41196
721.021	14631
721.137	10040
721.253	10463
721.369	10042
721.486	11581
721.602	14157
721.718	9977
721.834	8253
721.950	9672
722.066	7828
722.181	9077
722.297	10011
722.413	9271
722.529	8852
722.645	9669
722.761	8798
722.877	8760
722.993	7774
723.108	9419
723.224	8388
723.340	8111
723.456	7789
723.571	8878
723.687	7073
723.803	8328
723.918	7527
724.034	8590
724.150	8020
724.265	8886
724.381	18130
724.497	18544
724.612	8431
724.728	7339
724.843	7603
724.959	8584
725.074	17323
725.190	16753
725.305	8451
725.421	8223
725.536	7717
725.651	7434
725.767	7216
725.882	7360
725.997	6762
726.113	7255
726.228	6488
726.343	7228
726.459	5775
726.574	7574
726.689	5680
726.804	6824
726.920	6506
727.035	7367
727.150	7039
727.265	6776
727.380	6525
727.495	7866
727.610	5586
727.725	7597
727.841	6101
727.956	7887
728.071	7494
728.186	6000
728.301	5515
728.416	7414
728.531	5804
728.645	6304
728.760	7534
728.875	7885
728.990	8116
729.105	6915
729.220	7526
729.335	7246
729.449	5592
729.564	5880
729.679	6665
729.794	6089
729.908	7092
730.023	6684
730.138	4530
730.253	5993
730.367	4811
730.482	5646
730.596	5637
730.711	6904
730.826	6088
730.940	6099
731.055	6606
731.169	5616
731.284	5344
731.398	6082
731.513	6648
731.627	6342
731.742	8069
731.856	7903
731.970	6413
732.085	7305
732.199	7891
732.313	12366
732.428	28134
732.542	79722
732.656	38763
732.771	9630
732.885	6587
732.999	6889
733.113	6568
733.227	7192
733.342	5904
733.456	5257
733.570	5028
733.684	5481
733.798	5613
733.912	5415
734.026	4922
734.140	6051
734.254	6319
734.368	10328
734.482	11775
734.596	5137
734.710	5192
734.824	4948
734.938	5127
735.052	5568
735.166	6379
735.280	6045
735.393	4873
735.507	5925
735.621	6700
735.735	11826
735.849	6345
735.962	5144
736.076	5238
736.190	5418
736.303	7096
736.417	8790
736.531	4911
736.644	5811
736.758	4878
736.872	5325
736.985	4742
737.099	5039
737.212	4258
737.326	5290
737.439	4740
737.553	5117
737.666	5365
737.780	4131
737.893	3995
738.007	4695
738.120	3915
738.233	4578
738.347	4648
738.460	5509
738.573	5228
738.687	5652
738.800	5218
738.913	8293
739.026	4563
739.140	5256
739.253	3746
739.366	4697
739.479	4313
739.592	5092
739.705	4071
739.818	5413
739.932	3841
740.045	4756
740.158	4943
740.271	4580
740.384	4144
740.497	5463
740.610	4738
740.723	4936
740.836	4725
740.949	5755
741.062	6936
741.174	5343
741.287	5049
741.400	4754
741.513	5481
741.626	6533
741.739	5029
741.851	5549
741.964	3937
742.077	4813
742.189	4766
742.302	6943
742.415	4599
742.527	4706
742.640	4412
742.753	4666
742.865	3568
742.978	4151
743.090	3566
743.203	3977
743.316	4284
743.428	3518
743.541	3818
743.653	3699
743.766	4200
743.878	4239
743.990	5464
744.103	7259
744.215	5439
744.327	5433
744.440	5706
744.552	8879
744.664	3499
744.777	3541
744.889	3780
745.001	3835
745.113	2375
745.226	3456
745.338	3658
745.450	4170
745.562	3050
745.674	4144
745.786	3275
745.898	3613
746.010	3043
746.122	3504
746.234	2992
746.347	3290
746.459	3153
746.570	3602
746.682	4544
746.794	6676
746.906	4489
747.018	3799
747.130	3532
747.242	3490
747.354	2597
747.466	4133
747.577	3024
747.689	4211
747.801	3243
747.913	3194
748.024	3030
748.136	4055
748.248	3503
748.359	2748
748.471	3045
748.583	3550
748.694	3091
748.806	3806
748.918	4343
749.029	4103
749.141	4952
749.252	3522
749.364	4625
749.475	10032
749.587	5054
749.698	3748
749.809	3578
749.921	3570
750.032	2948
750.144	3593
750.255	3256
750.366	3337
750.478	3443
750.589	3683
750.700	2985
750.811	4761
750.923	5206
751.034	11300
751.145	9269
751.256	3438
751.367	2943
751.479	3727
751.590	2710
751.701	3904
751.812	2478
751.923	3127
752.034	3410
752.145	2246
752.256	2628
752.367	3411
752.478	1670
752.589	3532
752.700	3146
752.811	3276
752.922	3196
753.032	3538
753.143	3128
753.254	3067
753.365	3113
753.476	3042
753.586	3086
753.697	2783
753.808	2789
753.919	2595
754.029	3480
754.140	3098
754.251	2941
754.361	3116
754.472	2954
754.582	3225
754.693	2151
754.804	2870
754.914	3418
755.025	2487
755.135	1377
755.246	2521
755.356	2120
755.466	3155
755.577	3288
755.687	2726
755.798	2401
755.908	3133
756.018	2615
756.129	2085
756.239	2039
756.349	2134
756.460	2463
756.570	3960
756.680	2226
756.790	3507
756.900	2822
757.011	2863
757.121	3039
757.231	2913
757.341	2679
757.451	2007
757.561	2421
757.671	2584
757.781	1181
757.891	3839
758.001	2617
758.111	3201
758.221	2894
758.331	3570
758.441	3185
758.551	4887
758.661	3910
758.771	3428
758.880	2836
758.990	2914
759.100	2438
759.210	2209
759.320	2650
759.429	3184
759.539	2860
759.649	3196
759.758	3114
759.868	3833
759.978	3384
760.087	4130
760.197	3078
760.307	3431
760.416	2869
760.526	2233
760.635	3283
760.745	3402
760.854	3390
760.964	3292
761.073	2202
761.182	3630
761.292	3019
761.401	3869
761.511	3062
761.620	3378
761.729	2640
761.839	3807
761.948	3223
762.057	3461
762.166	3536
762.276	2326
762.385	3514
762.494	2693
762.603	2707
762.712	3370
762.822	2407
762.931	3436
763.040	2424
763.149	2990
763.258	3279
763.367	3328
763.476	3152
763.585	3533
763.694	2999
763.803	2900
763.912	3136
764.021	3784
764.130	3121
764.238	3964
764.347	3593
764.456	4298
764.565	2835
764.674	4176
764.783	3463
764.891	3730
765.000	4489
765.109	4681
765.217	3774
765.326	5616
765.435	6926
765.543	6776
765.652	6515
765.761	8387
765.869	11450
765.978	18905
766.086	33031
766.195	68571
766.303	190717
766.412	496036
766.520	328503
766.629	83975
766.737	31629
766.846	19534
766.954	13507
767.062	11800
767.171	8329
767.279	7614
767.387	5775
767.496	5559
767.604	4990
767.712	4494
767.820	4713
767.928	5005
768.037	3669
768.145	4266
768.253	4220
768.361	4711
768.469	3924
768.577	4004
768.685	4514
768.793	5006
768.901	4342
769.009	5515
769.117	5309
769.225	7386
769.333	8916
769.441	14676
769.549	27025
769.657	66790
769.765	226859
769.873	375239
769.981	105276
770.088	25514
770.196	13536
770.304	10296
770.412	7757
770.519	6062
770.627	6033
770.735	4543
770.842	4616
770.950	4801
771.058	3707
771.165	4465
771.273	3824
771.380	4284
771.488	3945
771.595	3557
771.703	3399
771.810	3426
771.918	3273
772.025	3887
772.133	2941
772.240	3785
772.348	4712
772.455	4066
772.562	3449
772.670	3915
772.777	4293
772.884	3899
772.991	2779
773.099	3709
773.206	2842
773.313	3845
773.420	3306
773.528	3208
773.635	2673
773.742	3372
773.849	2768
773.956	2516
774.063	2665
774.170	3942
774.277	3728
774.384	3345
774.491	2443
774.598	3835
774.705	3869
774.812	3626
774.919	3510
775.026	3708
775.133	3411
775.239	2691
775.346	2302
775.453	3351
775.560	2653
775.667	2819
775.773	2095
775.880	3761
775.987	2548
776.093	3911
776.200	3386
776.307	3012
776.413	2953
776.520	3329
776.627	2290
776.733	3537
776.840	2243
776.946	5560
777.053	5006
777.159	11604
777.266	4435
777.372	9842
777.478	7637
777.585	5070
777.691	3142
777.798	3407
777.904	3970
778.010	5354
778.117	3900
778.223	3225
778.329	1959
778.435	2645
778.542	2865
778.648	2563
778.754	1912
778.860	3532
778.966	3858
779.072	2951
779.178	1878
779.284	2313
779.391	2145
779.497	1892
779.603	3603
779.708	2307
779.815	5223
779.920	11588
780.026	14966
780.132	3547
780.238	2134
780.344	1957
780.450	3103
780.556	3040
780.661	2229
780.767	2990
780.873	2552
780.979	3575
781.085	2035
781.190	2036
781.296	1637
781.402	2360
781.507	1880
781.613	1994
781.719	1742
781.824	2421
781.930	2468
782.035	3091
782.141	2045
782.246	2454
782.352	2053
782.457	2091
782.563	2240
782.668	1082
782.773	2510
782.879	2107
782.984	2886
783.090	3538
783.195	4304
783.300	2581
783.405	2425
783.511	2877
783.616	2416
783.721	3104
783.826	2466
783.932	2226
784.037	3026
784.142	2730
784.247	2058
784.352	2498
784.457	2128
784.562	2633
784.667	1944
784.772	2763
784.877	2080
784.982	3164
785.087	3035
785.192	4492
785.297	2004
785.402	2309
785.507	1067
785.611	1622
785.716	2219
785.821	3180
785.926	1327
786.031	1830
786.135	1541
786.240	2569
786.345	434
786.450	2587
786.554	890
786.659	1575
786.763	1146
786.868	3496
786.973	3236
787.077	2142
787.182	1693
787.286	2081
787.391	1580
787.495	1801
787.600	1492
787.704	1649
787.809	1771
787.913	1313
788.017	2050
788.122	2202
788.226	1509
788.330	1472
788.435	1493
788.539	1715
788.643	1194
788.747	1269
788.852	1281
788.956	1452
789.060	1765
789.164	2211
789.268	917
789.372	2277
789.476	1391
789.580	1444
789.684	904
789.788	2571
789.892	937
789.996	2374
790.100	1646
790.204	1814
790.308	1515
790.412	1832
790.516	1660
790.620	945
790.724	1787
790.828	1735
790.931	790
791.035	2807
791.139	1298
791.242	1347
791.346	1454
791.450	1377
791.554	1903
791.657	959
791.761	2558
791.864	2248
791.968	1321
792.072	1707
792.175	1255
792.279	1293
792.382	2357
792.486	2230
792.589	1177
792.693	2529
792.796	992
792.899	1775
793.003	1997
793.106	-24
793.209	945
793.313	2817
793.416	-451
793.519	3474
793.623	3085
793.726	4576
793.829	1582
793.932	2170
794.035	567
794.138	2070
794.242	1974
794.345	1988
794.448	2245
794.551	4195
794.654	7792
794.757	8220
794.860	2976
794.963	1855
795.066	916
795.169	2705
795.272	610
795.375	2033
795.477	512
795.580	1837
795.683	581
795.786	696
795.889	378
795.991	1894
796.094	2314
796.197	1052
796.300	2101
796.402	1389
796.505	670
796.608	950
796.710	1815
796.813	1306
796.915	382
797.018	1594
797.120	1329
797.223	206
797.326	1966
797.428	412
797.530	971
797.633	1386
797.735	1901
797.838	3004
797.940	1908
798.042	649
798.145	1237
798.247	892
798.349	-976
798.452	1287
798.554	1229
798.656	372
798.758	1434
798.860	458
798.962	476
799.065	827
799.167	-106
799.269	3240
799.371	1295
799.473	1345
799.575	1524
799.677	1814
799.779	3081
799.881	3077
799.983	1285
800.085	2098
800.187	1184
800.289	1103
800.390	1279
800.492	517
800.594	1127
800.696	1249
800.798	1519
800.899	837
801.001	1393
801.103	1182
801.205	790
801.306	996
801.408	46
801.509	1391
801.611	1018
801.713	1208
801.814	380
801.916	916
802.017	466
802.119	596
802.220	455
802.322	-694
802.423	2045
802.525	587
802.626	635
802.727	1524
802.829	1442
802.930	-285
803.031	2244
803.133	695
803.234	750
803.335	1420
803.436	-275
803.538	1442
803.639	-124
803.740	2130
803.841	-236
803.942	901
804.043	1463
804.144	465
804.245	32
804.346	853
804.447	1189
804.548	2203
804.649	2171
804.750	805
804.851	1185
804.952	866
805.053	147
805.154	-483
805.255	730
805.355	1232
805.456	221
805.557	-99
805.658	-668
805.758	1281
805.859	832
805.960	838
806.061	720
806.161	748
806.262	559
806.362	672
806.463	311
806.564	1713
806.664	110
806.765	1446
806.865	532
806.966	873
807.066	40
807.166	1512
807.267	520
807.367	-89
807.468	480
807.568	-376
807.668	774
807.769	1864
807.869	1166
807.969	1377
808.069	633
808.170	609
808.270	311
808.370	1897
808.470	1897
808.570	1087
808.670	107
808.770	757
808.870	-706
808.970	916
809.070	359
809.170	-122
809.271	984
809.370	747
809.470	1339
809.570	172
809.670	-244
809.770	1225
809.870	183
809.970	745
810.070	686
810.169	1162
810.269	-1019
810.369	1634
810.469	498
810.568	1141
810.668	368
810.768	1149
810.867	1046
810.967	423
811.066	529
811.166	748
811.265	1018
811.365	329
811.464	584
811.564	1281
811.663	1033
811.763	-157
811.862	1049
811.962	1319
812.061	881
812.160	184
812.260	793
812.359	1936
812.458	1958
812.557	10027
812.657	10522
812.756	2439
812.855	1318
812.954	526
813.053	1069
813.153	1134
813.252	570
813.351	1075
813.450	347
813.549	-245
813.648	744
813.747	692
813.846	1106
813.945	826
814.044	358
814.143	1123
814.242	638
814.341	726
814.439	1172
814.538	1540
814.637	878
814.736	883
814.835	1630
814.933	540
815.032	585
815.131	1451
815.229	1044
815.328	1545
815.427	224
815.525	2743
815.624	1427
815.722	1446
815.821	1765
815.919	1570
816.018	885
816.116	3075
816.215	2156
816.313	2564
816.412	2258
816.510	2417
816.609	2963
816.707	2613
816.805	1672
816.904	2442
817.002	2820
817.100	4247
817.198	4602
817.296	4538
817.395	4392
817.493	6403
817.591	6315
817.689	11060
817.787	12800
817.885	23039
817.983	41218
818.081	86542
818.179	201955
818.277	433965
818.375	317700
818.473	99982
818.571	41525
818.669	29200
818.767	25785
818.865	25860
818.963	29709
819.061	45344
819.158	77917
819.256	161000
819.354	355798
819.452	595251
819.549	364291
819.647	131270
819.745	58801
819.842	36315
819.940	24755
820.038	18035
820.135	13234
820.233	11641
820.330	7872
820.428	7020
820.525	6892
820.623	6474
820.720	4698
820.818	5041
820.915	4571
821.012	4582
821.110	3261
821.207	4208
821.304	2535
821.402	3544
821.499	4154
821.596	5395
821.693	2525
821.791	3415
821.888	3348
821.985	6367
822.082	4259
822.179	3297
822.276	2003
822.373	2091
822.470	1635
822.567	2731
822.664	983
822.761	2573
822.858	374
822.955	1894
823.052	1159
823.149	719
823.246	2180
823.343	1176
823.440	1605
823.536	1194
823.633	1142
823.730	1093
823.827	779
823.923	1804
824.020	2509
824.117	1103
824.213	1122
824.310	1634
824.407	572
824.503	1725
824.600	928
824.696	665
824.793	724
824.889	927
824.986	529
825.082	554
825.179	1514
825.275	428
825.371	-556
825.468	944
825.564	-270
825.660	1167
825.757	818
825.853	1857
825.949	277
826.045	165
826.142	-190
826.238	257
826.334	1256
826.430	400
826.526	173
826.622	590
826.718	66
826.814	-76
826.910	1651
827.006	134
827.102	-668
827.198	715
827.294	99
827.390	2150
827.486	830
827.582	-165
827.678	-258
827.774	1074
827.869	-794
827.965	1340
828.061	-1050
828.157	482
828.252	673
828.348	109
828.444	1421
828.539	-281
828.635	-68
828.731	1287
828.826	-766
828.922	290
829.017	487
829.113	489
829.208	-674
829.304	-111
829.399	1757
829.495	289
829.590	1149
829.685	841
829.781	1002
829.876	923
829.971	251
830.066	627
830.162	-12
830.257	157
830.352	-295
830.447	1812
830.543	547
830.638	-661
830.733	875
830.828	447
830.923	515
831.018	719
831.113	668
831.208	-872
831.303	502
831.398	353
831.493	-152
831.588	858
831.683	-1034
831.778	329
831.873	93
831.967	1051
832.062	422
832.157	160
832.252	357
832.346	101
832.441	956
832.536	2381
832.631	4990
832.725	3311
832.820	-489
832.914	427
833.009	-398
833.104	977
833.198	1397
833.293	360
833.387	457
833.482	896
833.576	-304
833.670	1307
833.765	-601
833.859	358
833.954	951
834.048	484
834.142	123
834.237	222
834.331	530
834.425	160
834.519	-388
834.613	949
834.708	339
834.802	782
834.896	-438
834.990	-68
835.084	697
835.178	101
835.272	-548
835.366	-73
835.460	588
835.554	442
835.648	-190
835.742	181
835.836	473
835.930	-713
836.024	152
836.117	1076
836.211	397
836.305	1522
836.399	1628
836.493	8
836.586	994
836.680	-406
836.774	269
836.867	869
836.961	-753
837.055	-436
837.148	211
837.242	62
837.335	-732
837.429	819
837.522	-749
837.616	593
837.709	2833
837.803	842
837.896	319
837.989	962
838.083	1331
838.176	2858
838.269	1972
838.363	1243
838.456	-12
838.549	2242
838.642	1862
838.735	5203
838.829	1943
838.922	-220
839.015	-291
839.108	100
839.201	594
839.294	372
839.387	1808
839.480	-159
839.573	843
839.666	1032
839.759	-90
839.852	-758
839.945	-200
840.038	302
840.131	-471
840.223	-60
840.316	78
840.409	163
840.502	-226
840.594	705
840.687	-779
840.780	508
840.873	-1003
840.965	925
841.058	500
841.150	2562
841.243	240
841.336	-14
841.428	230
841.521	-358
841.613	-337
841.706	767
841.798	-183
841.890	-392
841.983	-408
842.075	1591
842.167	53
842.260	-89
842.352	858
842.444	909
842.537	2064
842.629	4656
842.721	600
842.813	675
842.905	-534
842.997	1333
843.090	182
843.182	1772
843.274	2443
843.366	8081
843.458	12958
843.550	7757
843.642	703
843.734	702
843.826	-67
843.918	692
844.009	909
844.101	121
844.193	511
844.285	276
844.377	-277
844.469	1625
844.560	1611
844.652	1977
844.744	937
844.835	656
844.927	-294
845.019	1082
845.110	177
845.202	1427
845.293	-584
845.385	-434
845.476	666
845.568	335
845.659	-336
845.751	-225
845.842	36
845.934	-508
846.025	-355
846.116	149
846.208	-209
846.299	-332
846.390	-188
846.482	863
846.573	83
846.664	951
846.755	860
846.846	2384
846.937	-913
847.029	454
847.120	-715
847.211	-182
847.302	534
847.393	-640
847.484	667
847.575	6
847.666	-812
847.757	1010
847.847	313
847.938	793
848.029	-106
848.120	-692
848.211	-451
848.302	350
848.392	-155
848.483	885
848.574	33
848.664	-346
848.755	-391
848.846	812
848.936	-830
849.027	235
849.118	-301
849.208	-332
849.299	1036
849.389	1222
849.480	3627
849.570	7553
849.661	14184
849.751	21968
849.841	5789
849.932	756
850.022	-600
850.112	1248
850.203	-290
850.293	-667
850.383	-513
850.474	-183
850.564	-331
850.654	766
850.744	-958
850.834	-166
850.924	-852
851.014	651
851.104	59
851.194	587
851.284	143
851.374	1274
851.464	-201
851.554	212
851.644	126
851.734	2060
851.824	870
851.914	231
852.004	636
852.094	-110
852.183	30
852.273	924
852.363	147
852.452	454
852.542	-434
852.632	438
852.721	-105
852.811	-574
852.901	-520
852.990	538
853.080	-189
853.169	98
853.259	596
853.348	676
853.438	258
853.527	2508
853.617	1520
853.706	6206
853.795	9938
853.885	26728
853.974	48058
854.063	94101
854.152	135023
854.242	42281
854.331	6057
854.420	2843
854.509	1392
854.598	2308
854.687	1693
854.777	1319
854.866	28
854.955	706
855.044	-821
855.133	287
855.222	-884
855.311	-150
855.400	118
855.488	201
855.577	-440
855.666	729
855.755	256
855.844	-225
855.933	-588
856.021	150
856.110	1187
856.199	-106
856.288	-868
856.376	-375
856.465	-199
856.554	604
856.642	-510
856.731	66
856.819	256
856.908	-170
856.996	56
857.085	630
857.173	-358
857.262	-286
857.350	31
857.438	-254
857.527	-66
857.615	28
857.703	-315
857.792	-828
857.880	-173
857.968	-61
858.056	-608
858.145	125
858.233	-396
858.321	-611
858.409	-365
858.497	-87
858.585	-773
858.673	210
858.761	-786
858.849	-241
858.937	-1066
859.025	361
859.113	-78
859.201	-285
859.289	309
859.377	-327
859.465	34
859.552	-266
859.640	-741
859.728	285
859.816	-471
859.903	-69
859.991	-884
860.079	9
860.166	-905
860.254	-318
860.342	516
860.429	-620
860.517	-118
860.604	20
860.692	19
860.779	79
860.867	-230
860.954	-52
861.042	109
861.129	440
861.216	296
861.304	-120
861.391	-519
861.478	240
861.565	-160
861.653	910
861.740	-845
861.827	-137
861.914	-541
862.001	-271
862.089	842
862.176	285
862.263	-1093
862.350	-100
862.437	-788
862.524	-147
862.611	-15
862.698	898
862.785	428
862.871	782
862.958	-1114
863.045	75
863.132	-456
863.219	-710
863.306	-1423
863.392	-137
863.479	-682
863.566	150
863.652	237
863.739	552
863.826	-187
863.912	343
863.999	-857
864.086	-301
864.172	-200
864.259	55
864.345	-499
864.432	349
864.518	-53
864.604	243
864.691	-1149
864.777	82
864.863	562
864.950	34
865.036	704
865.122	837
865.209	1124
865.295	710
865.381	754
865.467	2040
865.553	2142
865.639	2139
865.726	5757
865.812	12613
865.898	25177
865.984	35977
866.070	71777
866.156	64793
866.242	13560
866.328	3566
866.414	1226
866.499	1363
866.585	922
866.671	364
866.757	723
866.843	1188
866.928	108
867.014	1004
867.100	844
867.186	689
867.271	545
867.357	2119
867.442	2024
867.528	1038
867.614	63
867.699	974
867.785	1576
867.870	1323
867.956	1424
868.041	2027
868.127	1323
868.212	1612
868.297	1781
868.383	874
868.468	1568
868.553	3433
868.639	3074
868.724	6825
868.809	4740
868.894	1370
868.979	210
869.065	424
869.150	145
869.235	1198
869.320	-379
869.405	-130
869.490	-952
869.575	-265
869.660	-214
869.745	-9
869.830	126
869.915	-62
870.000	-106
870.085	561
870.169	-456
870.254	696
870.339	-992
870.424	-293
870.509	380
870.593	1048
870.678	369
870.763	799
870.847	-67
870.932	557
871.016	391
871.101	173
871.186	-303
871.270	902
871.355	-630
871.439	737
871.523	116
871.608	588
871.692	101
871.777	1223
871.861	-125
871.945	588
872.030	-730
872.114	-323
872.198	269
872.282	318
872.367	216
872.451	949
872.535	54
872.619	-86
872.703	-651
872.787	259
872.871	-276
872.955	421
873.039	-100
873.123	-142
873.207	419
873.291	151
873.375	-238
873.459	199
873.543	-332
873.627	146
873.711	-421
873.794	-468
873.878	-243
873.962	-721
874.045	131
874.129	309
874.137	310
874.213	317
874.245	367
874.296	442
874.352	-61
874.380	-304
874.460	839
874.464	883
874.547	-249
874.568	11
874.631	789
874.676	470
874.714	201
874.784	409
874.798	442
874.881	454
874.892	374
874.965	-97
874.999	-81
875.048	-92
875.107	170
875.131	281
875.215	313
875.215	312
875.298	-724
875.323	-668
875.381	-502
875.430	375
875.465	977
875.538	931
875.548	924
875.631	468
875.646	290
875.714	-567
875.753	7
875.798	687
875.861	246
875.881	96
875.964	1023
875.968	982
876.047	303
876.076	398
876.130	619
876.183	494
876.213	367
876.291	654
876.296	676
876.379	350
876.398	395
876.462	689
876.506	432
876.545	53
876.613	277
876.628	374
876.711	-705
876.721	-502
876.794	972
876.828	708
876.877	281
876.935	570
876.960	749
877.043	685
877.043	687
877.125	1009
877.150	1130
877.208	1380
877.258	1176
877.291	1080
877.365	485
877.374	417
877.456	982
877.472	997
877.539	1018
877.579	1178
877.622	1354
877.687	1141
877.704	1095
877.787	1172
877.794	1179
877.869	1183
877.901	1134
877.952	1031
878.008	1043
878.034	1083
878.115	872
878.117	874
878.199	849
878.222	983
878.282	1083
878.329	819
878.364	698
878.437	1490
878.447	1566
878.529	385
878.544	432
878.611	818
878.651	528
878.694	496
878.758	1288
878.776	1401
878.858	1069
878.865	1060
878.941	829
878.972	535
879.023	199
879.078	345
879.105	527
879.185	1378
879.187	1391
879.269	653
879.292	836
879.351	1199
879.399	1005
879.433	1000
879.506	1309
879.516	1337
879.598	1035
879.613	934
879.680	451
879.720	756
879.762	1179
879.827	460
879.844	254
879.926	744
879.933	766
880.007	1075
880.040	1363
880.089	1785
880.147	1695
880.171	1845
880.253	4114
880.254	4120
880.335	5188
880.360	5620
880.417	8210
880.467	11767
880.499	14277
880.574	17848
880.580	17506
880.662	6961
880.680	5412
880.744	2783
880.787	1780
880.825	1408
880.893	1147
880.907	1154
880.989	452
881.000	489
881.070	1139
881.106	1359
881.152	1369
881.213	1450
881.233	1587
881.315	1322
881.319	1337
881.396	1254
881.426	1074
881.478	980
881.532	1261
881.559	1355
881.639	1071
881.641	1066
881.722	1409
881.745	1348
881.803	1499
881.852	1344
881.885	1231
881.958	1572
881.966	1611
882.047	2103
882.064	2192
882.129	2488
882.171	2500
882.210	3120
882.277	4396
882.291	4334
882.372	3028
882.383	2859
882.454	1533
882.489	1260
882.535	1492
882.596	1298
882.616	1219
882.697	1035
882.702	1021
882.778	1270
882.808	1424
882.859	1417
882.914	1034
882.940	1029
883.020	1535
883.021	1545
883.102	1316
883.127	1523
883.183	1950
883.233	1577
883.264	1351
883.339	1662
883.345	1674
883.426	1088
883.445	1070
883.507	1534
883.551	1526
883.587	1421
883.657	1669
883.668	1784
883.749	2262
883.763	2365
883.830	2123
883.869	1866
883.910	1679
883.975	1593
883.991	1679
884.072	1766
884.081	1769
884.152	1631
884.187	1568
884.233	1566
884.292	1824
884.314	1792
884.394	1236
884.398	1203
884.475	1287
884.504	1337
884.555	1268
884.610	1235
884.636	1445
884.716	1977
884.716	1989
884.797	2445
884.821	2529
884.877	2248
884.927	2031
884.958	1994
885.033	1654
885.038	1635
885.118	1458
885.139	1326
885.199	1231
885.244	1341
885.279	1719
885.350	2364
885.359	2341
885.439	1933
885.456	1843
885.520	1625
885.561	1602
885.600	1481
885.667	1055
885.680	1181
885.760	2084
885.773	2224
885.840	2150
885.878	1955
885.920	2022
885.984	2131
886.000	2115
886.080	2387
886.089	2341
886.160	1814
886.195	1736
886.240	1944
886.300	2026
886.320	2043
886.400	2430
886.406	2419
886.480	2131
886.511	2091
886.560	2384
886.616	2648
886.640	2638
886.720	2612
886.722	2594
886.800	2327
886.827	2383
886.879	2284
886.932	1939
886.959	2255
887.038	3310
887.039	3314
887.119	2375
887.143	2218
887.198	2375
887.248	2208
887.278	2064
887.354	1848
887.358	1861
887.437	1816
887.459	1837
887.517	1686
887.564	1528
887.596	1864
887.669	2591
887.676	2577
887.755	2247
887.774	2147
887.835	2039
887.880	1998
887.914	2110
887.985	2332
887.994	2357
888.073	2347
888.090	2367
888.153	2837
888.195	3047
888.232	2768
888.300	2367
888.311	2394
888.391	2383
888.405	2384
888.470	2426
888.510	2357
888.549	2382
888.615	2632
888.628	2637
888.708	2344
888.720	2316
888.787	2430
888.825	2418
888.866	2302
888.930	2174
888.945	2173
889.024	2067
889.035	2050
889.103	2793
889.140	3135
889.182	2819
889.245	2420
889.261	2442
889.340	2417
889.349	2414
889.419	2794
889.454	2947
889.498	2650
889.559	2227
889.577	2228
889.656	2204
889.664	2197
889.735	2583
889.768	2752
889.814	2886
889.873	3044
889.978	3317
890.083	3099
890.187	2802
890.292	2625
890.397	2927
890.501	2926
890.606	2653
890.710	3033
890.815	2653
890.919	1833
891.024	2589
891.128	2029
891.233	2429
891.337	1837
891.442	2386
891.546	2820
891.650	2814
891.755	2260
891.859	3404
891.963	2593
892.068	2117
892.172	2946
892.276	2049
892.380	2021
892.484	2461
892.589	2538
892.693	2867
892.797	1706
892.901	1589
893.005	1912
893.109	2266
893.213	2940
893.317	2813
893.421	2000
893.525	2117
893.629	2256
893.733	3174
893.837	2003
893.941	2678
894.045	2562
894.148	2077
894.252	2467
894.356	2820
894.460	2194
894.564	2541
894.667	2358
894.771	2150
894.875	1709
894.978	1955
895.082	1823
895.186	2210
895.289	2687
895.393	2167
895.496	2579
895.600	2094
895.703	1724
895.807	2850
895.910	2559
896.014	2387
896.117	2146
896.221	2421
896.324	2654
896.427	2075
896.531	2287
896.634	2745
896.737	3369
896.840	2257
896.944	2228
897.047	3083
897.150	2562
897.253	2414
897.356	2557
897.460	2154
897.563	2276
897.666	2521
897.769	2257
897.872	2056
897.975	2381
898.078	2172
898.181	2393
898.284	2862
898.387	2438
898.490	3119
898.593	2809
898.695	2494
898.798	2012
898.901	2496
899.004	3260
899.107	2961
899.209	2557
899.312	2303
899.415	2363
899.518	1497
899.620	1928
899.723	2617
899.826	3452
899.928	6167
900.031	3117
900.133	2315
900.236	1512
900.338	1646
900.441	2155
900.543	2042
900.646	1778
900.748	1543
900.851	3421
900.953	2257
901.055	1959
901.158	3658
901.260	2312
901.362	2128
901.465	2345
901.567	2752
901.669	2688
901.771	2447
901.873	2109
901.976	2145
902.078	2187
902.180	2216
902.282	1578
902.384	2552
902.486	2425
902.588	2506
902.690	2456
902.792	2447
902.894	1668
902.996	2617
903.098	2247
903.200	1292
903.302	2084
903.404	2310
903.505	1523
903.607	1980
903.709	2439
903.811	2865
903.913	2358
904.014	3069
904.116	1407
904.218	2012
904.319	2276
904.421	2908
904.523	2403
904.624	2354
904.726	2089
904.827	3155
904.929	2370
905.030	1961
905.132	2670
905.233	2120
905.335	1752
905.436	2413
905.537	2061
905.639	2796
905.740	1525
905.841	2691
905.943	2403
906.044	2761
906.145	1412
906.247	1805
906.348	2156
906.449	1891
906.550	2223
906.651	2276
906.752	1651
906.854	2997
906.955	2167
907.056	2187
907.157	2224
907.258	2009
907.359	2133
907.460	2853
907.561	2037
907.662	2320
907.762	1985
907.863	2281
907.964	2178
908.065	3399
908.166	2235
908.267	1835
908.367	2527
908.468	1791
908.569	2333
908.670	3510
908.770	2838
908.871	3915
908.971	3496
909.072	2319
909.173	2603
909.273	2309
909.374	2839
909.474	2499
909.575	2676
909.675	1628
909.776	2434
909.876	2022
909.977	2868
910.077	2755
910.177	2890
910.278	2575
910.378	1988
910.478	2086
910.579	2410
910.679	3053
910.779	2606
910.879	3170
910.980	1919
911.080	2299
911.180	3034
911.280	2758
911.380	2124
911.480	2284
911.580	2060
911.680	2329
911.780	2403
911.880	2928
911.980	1147
912.080	2689
912.180	2426
912.280	2756
912.380	2352
912.480	2066
912.580	2465
912.679	1941
912.779	3267
912.879	2526
912.979	2046
913.078	1629
913.178	1718
913.278	1920
913.377	1632
913.477	2880
913.577	2043
913.676	2509
913.776	2202
913.875	2986
913.975	2733
914.074	1869
914.174	1226
914.273	1755
914.373	2354
914.472	3030
914.572	2111
914.671	2453
914.770	2343
914.870	3018
914.969	1949
915.068	2424
915.167	2171
915.267	1877
915.366	2676
915.465	2745
915.564	1583
915.663	2151
915.763	2547
915.862	2672
915.961	2798
916.060	2034
916.159	1586
916.258	1826
916.357	2846
916.456	2165
916.555	1649
916.654	2639
916.752	2606
916.851	2316
916.950	2031
917.049	1964
917.148	2322
917.247	3004
917.345	2537
917.444	1769
917.543	2268
917.642	1961
917.740	1974
917.839	3440
917.937	3208
918.036	2706
918.135	1951
918.233	1736
918.332	2286
918.430	2445
918.529	1938
918.627	2520
918.726	2071
918.824	2158
918.923	2401
919.021	2040
919.119	2010
919.218	1673
919.316	1566
919.414	1952
919.512	3099
919.611	1716
919.709	1862
919.807	2387
919.905	1827
920.003	2867
920.102	2583
920.200	2303
920.298	2497
920.396	2113
920.494	2594
920.592	2551
920.690	2604
920.788	3317
920.886	2412
920.984	3681
921.082	2199
921.180	3136
921.277	2674
921.375	2597
921.473	3312
921.571	3943
921.669	2742
921.766	3919
921.864	3152
921.962	2975
922.060	3589
922.157	1772
922.255	3126
922.352	2537
922.450	3654
922.548	2347
922.645	3975
922.743	4489
922.840	4397
922.938	5554
923.035	4017
923.133	5058
923.230	4816
923.327	5899
923.425	5761
923.522	5827
923.619	4894
923.717	5188
923.814	5003
923.911	5428
924.008	5245
924.106	4366
924.203	4432
924.300	5077
924.397	4869
924.494	5611
924.591	4144
924.688	4226
924.786	5142
924.883	4748
924.979	4768
925.077	5264
925.173	5118
925.270	4802
925.367	4914
925.464	5051
925.561	5771
925.658	4746
925.755	4783
925.852	5036
925.948	4742
926.045	5871
926.142	5063
926.239	6716
926.335	4872
926.432	4997
926.529	5367
926.625	5344
926.722	4679
926.818	4978
926.915	4117
927.011	4495
927.108	5174
927.204	4853
927.301	4310
927.397	5097
927.494	4472
927.590	3862
927.687	4615
927.783	5037
927.879	4166
927.976	4384
928.072	3418
928.168	4205
928.264	4209
928.361	3899
928.457	5121
928.553	3663
928.649	4383
928.745	4641
928.841	4922
928.937	4920
929.033	4881
929.129	4099
929.225	3660
929.321	4011
929.417	3967
929.513	4764
929.609	3577
929.705	3465
929.801	4664
929.897	3020
929.993	4208
930.089	4318
930.184	2929
930.280	3984
930.376	5119
930.471	4004
930.567	3142
930.663	4417
930.758	3186
930.854	4025
930.950	3511
931.045	4164
931.141	4058
931.236	4410
931.332	3954
931.427	4301
931.523	4106
931.618	4571
931.714	2618
931.809	3853
931.905	3838
932.000	3572
932.095	2777
932.191	3867
932.286	3839
932.381	3319
932.476	3135
932.572	4110
932.667	4090
932.762	2463
932.857	3472
932.952	3676
933.047	4184
933.142	3491
933.237	3469
933.332	3860
933.427	3770
933.522	3438
933.617	2572
933.712	2894
933.807	4283
933.902	3082
933.997	3959
934.092	3349
934.187	3862
934.282	3776
934.376	3463
934.471	3847
934.566	2326
934.661	3718
934.755	4325
934.850	3463
934.945	4126
935.039	3801
935.134	3729
935.228	3370
935.323	3975
935.417	2805
935.512	3431
935.606	3784
935.701	3360
935.795	3851
935.890	4099
935.984	3941
936.079	2947
936.173	3789
936.267	2896
936.362	2532
936.456	3282
936.550	4538
936.644	3852
936.738	2934
936.833	2934
936.927	2516
937.021	2872
937.115	2991
937.209	2754
937.303	4029
937.397	2292
937.491	3739
937.585	3645
937.679	3058
937.773	3349
937.867	2679
937.961	2729
938.055	3860
938.149	4072
938.243	2345
938.337	2335
938.430	2796
938.524	4313
938.618	3069
938.712	3370
938.805	4093
938.899	3820
938.993	3467
939.086	2414
939.180	3360
939.274	3516
939.367	3562
939.461	4141
939.554	2850
939.648	2802
939.741	3219
939.835	3230
939.928	3489
940.022	4123
940.115	3406
940.208	3693
940.302	4083
940.395	4273
940.488	2717
940.582	3206
940.675	1861
940.768	2242
940.861	2979
940.954	3527
941.048	3292
941.141	2319
941.234	2849
941.327	3819
941.420	4213
941.513	4311
941.606	2365
941.699	3916
941.792	3731
941.885	2932
941.978	3104
942.071	2274
942.164	2201
942.257	3052
942.349	3381
942.442	2653
942.535	2131
942.628	2725
942.721	2613
942.813	2427
942.906	3382
942.999	2484
943.091	2285
943.184	2556
943.277	2159
943.369	2691
943.462	2037
943.554	3052
943.647	2767
943.739	2947
943.832	3093
943.924	1231
944.017	2725
944.109	2599
944.201	2302
944.294	2896
944.386	3094
944.478	2674
944.571	2800
944.663	2716
944.755	2821
944.847	2702
944.940	2910
945.032	1343
945.124	2343
945.216	2612
945.308	3552
945.400	2642
945.492	2940
945.584	2805
945.676	2941
945.768	3058
945.860	2456
945.952	2486
946.044	2857
946.136	1450
946.228	2564
946.320	2155
946.412	3506
946.503	3884
946.595	3417
946.687	2606
946.779	2322
946.870	2496
946.962	2097
947.054	2808
947.145	2938
947.237	2328
947.329	2132
947.420	2355
947.512	2227
947.603	2291
947.695	2094
947.786	1452
947.878	2218
947.969	2701
948.061	2256
948.152	1630
948.243	2643
948.335	2864
948.426	1657
948.517	1928
948.609	2561
948.700	2152
948.791	2183
948.882	1329
948.973	1456
949.065	1978
949.156	2313
949.247	1957
949.338	1693
949.429	1949
949.520	1830
949.611	1899
949.702	2560
949.793	2141
949.884	2182
949.975	1669
950.066	1225
950.157	1520
950.247	1541
950.338	2274
950.429	2172
950.520	2761
950.611	3028
950.701	1877
950.792	2352
950.883	2750
950.973	1945
951.064	2535
951.155	2579
951.245	2433
951.336	1908
951.427	2118
951.517	2980
951.608	2436
951.698	1420
951.788	1741
951.879	1598
951.969	1945
952.060	2587
952.150	2562
952.240	3103
952.331	1409
952.421	3811
952.511	1380
952.602	1901
952.692	2175
952.782	1906
952.872	2116
952.962	2777
953.052	1739
953.143	1660
953.233	1806
953.323	2022
953.413	1447
953.503	1664
953.593	1524
953.683	2743
953.773	1519
953.863	1971
953.953	2017
954.042	1959
954.132	1788
954.222	1983
954.312	1622
954.402	1358
954.492	2881
954.581	3899
954.671	2094
954.761	1607
954.850	2831
954.940	1791
955.030	1789
955.119	1461
955.209	1285
955.298	1104
955.388	1857
955.477	2675
955.567	622
955.656	1227
955.746	2381
955.835	1458
955.925	1096
956.014	2675
956.103	2427
956.193	2121
956.282	1387
956.371	1519
956.461	962
956.550	1568
956.639	1026
956.728	197
956.817	2216
956.906	1694
956.995	1258
957.085	1183
957.174	1740
957.263	1252
957.352	1654
957.441	1877
957.530	1430
957.619	2273
957.708	950
957.796	1755
957.885	2021
957.974	1735
958.063	2823
958.152	692
958.241	1738
958.329	1443
958.418	1301
958.507	1964
958.596	2727
958.684	1572
958.773	2058
958.861	1517
958.950	1975
959.039	1150
959.127	916
959.216	1791
959.304	1305
959.393	2182
959.481	1076
959.570	1622
959.658	1663
959.746	1854
959.835	2604
959.923	4240
960.011	1498
960.100	1634
960.188	1563
960.276	2089
960.365	1457
960.453	1327
960.541	882
960.629	1796
960.717	-152
960.805	679
960.893	1747
960.981	1297
961.069	2217
961.158	1661
961.245	1909
961.333	1207
961.421	193
961.509	1860
961.597	1103
961.685	737
961.773	1042
961.861	854
961.949	2224
962.036	933
962.124	903
962.212	1736
962.299	815
962.387	1453
962.475	1233
962.562	-24
962.650	1059
962.738	1604
962.825	1313
962.913	1218
963.000	1162
963.088	1097
963.175	1508
963.263	1771
963.350	1096
963.438	2038
963.525	2166
963.612	3971
963.700	6608
963.787	18022
963.874	8475
963.962	2224
964.049	987
964.136	845
964.223	1186
964.310	975
964.398	1411
964.485	1922
964.572	2212
964.659	3822
964.746	3231
964.833	1264
964.920	624
965.007	1977
965.094	626
965.181	648
965.268	1791
965.355	945
965.441	1647
965.528	1160
965.615	1858
965.702	1039
965.789	280
965.875	2087
965.962	1575
966.049	57
966.136	2274
966.222	241
966.309	1410
966.395	439
966.482	1803
966.569	884
966.655	1307
966.742	835
966.828	1148
966.915	701
967.001	844
967.087	663
967.174	1584
967.260	1392
967.347	2685
967.433	5326
967.519	11885
967.605	4535
967.692	1056
967.778	826
967.864	1418
967.950	1600
968.036	1137
968.123	1815
968.209	595
968.295	212
968.381	2128
968.467	425
968.553	-210
968.639	1835
968.725	854
968.811	2823
968.897	2485
968.983	1014
969.069	1167
969.154	493
969.240	1744
969.326	277
969.412	211
969.497	901
969.583	330
969.669	1748
969.755	1193
969.840	1357
969.926	2207
970.012	1584
970.097	2341
970.183	1338
970.268	671
970.354	2409
970.439	2652
970.525	8098
970.610	2783
970.696	1616
970.781	1320
970.866	19
970.952	1498
971.037	239
971.122	530
971.208	1195
971.293	1566
971.378	-718
971.463	309
971.549	1636
971.634	534
971.719	1168
971.804	761
971.889	2098
971.974	598
972.059	318
972.144	993
972.229	895
972.314	562
972.399	1380
972.484	590
972.569	1425
972.654	124
972.739	4025
972.824	3398
972.908	402
972.993	121
973.078	998
973.163	331
973.247	661
973.332	-196
973.417	1875
973.501	528
973.586	550
973.671	761
973.755	817
973.840	1666
973.924	2068
974.009	1517
974.093	1102
974.178	2536
974.262	4110
974.346	3413
974.431	1596
974.515	560
974.600	1112
974.684	2011
974.768	1111
974.852	2140
974.937	-77
975.021	-369
975.105	729
975.189	614
975.273	477
975.358	763
975.442	261
975.526	1988
975.610	254
975.694	134
975.778	1292
975.862	1202
975.946	-371
976.030	1874
976.114	402
976.198	555
976.281	947
976.365	1714
976.449	-78
976.533	1331
976.617	-256
976.700	820
976.784	1327
976.868	-30
976.951	2688
977.035	1697
977.119	1277
977.202	928
977.286	302
977.369	825
977.453	1914
977.536	909
977.620	507
977.703	528
977.787	154
977.870	1084
977.953	2359
978.037	10
978.120	3346
978.203	1938
978.287	4324
978.370	2602
978.453	643
978.536	1584
978.620	2079
978.703	2636
978.786	919
978.869	-70
978.952	-36
979.035	1968
979.118	1366
979.201	-16
979.284	1135
979.367	343
979.450	917
979.533	472
979.616	884
979.699	477
979.782	356
979.865	716
979.948	453
980.030	151
980.113	569
980.196	88
980.279	1364
980.361	278
980.444	1032
980.526	1111
980.609	1180
980.692	735
980.774	1625
980.857	-497
980.939	497
981.022	1134
981.104	364
981.187	1023
981.269	1506
981.352	665
981.434	154
981.516	314
981.599	2171
981.681	368
981.763	1419
981.846	339
981.928	228
982.010	-49
982.092	84
982.174	111
982.256	-395
982.339	1093
982.421	131
982.503	789
982.585	-291
982.667	1027
982.749	-305
982.831	513
982.913	-614
982.995	1226
983.077	-171
983.158	1897
983.240	-614
983.322	632
983.404	1721
983.486	166
983.568	808
983.649	792
983.731	2187
983.813	226
983.894	1214
983.976	425
984.058	437
984.139	1165
984.221	-7
984.302	1846
984.384	459
984.465	-58
984.547	1005
984.628	-86
984.710	1700
984.791	405
984.872	1243
984.954	469
985.035	651
985.116	627
985.198	267
985.279	1042
985.360	-75
985.441	-151
985.522	1202
985.604	114
985.685	-405
985.766	1654
985.847	2112
985.928	883
986.009	1151
986.090	975
986.171	1973
986.252	123
986.333	1030
986.414	-751
986.495	459
986.576	-136
986.656	314
986.737	883
986.818	679
986.899	-54
986.980	557
987.060	751
987.141	-197
987.222	582
987.302	1113
987.383	1053
987.464	937
987.544	1160
987.625	1037
987.705	1504
987.786	682
987.866	435
987.947	581
988.027	1458
988.108	1000
988.188	258
988.268	713
988.349	778
988.429	614
988.509	664
988.589	1176
988.670	-518
988.750	2353
988.830	308
988.910	788
988.990	1325
989.070	1071
989.151	622
989.231	296
989.311	815
989.391	177
989.471	317
989.551	379
989.631	-122
989.711	1408
989.791	202
989.870	-198
989.950	1467
990.030	854
990.110	42
990.190	553
990.269	-493
990.349	995
990.429	1316
990.509	1036
990.588	-530
990.668	551
990.747	540
990.827	-52
990.907	1230
990.986	-24
991.066	542
991.145	-146
991.225	727
991.304	679
991.383	1259
991.463	528
991.542	883
991.622	-157
991.701	-621
991.780	619
991.859	480
991.939	521
992.018	533
992.097	542
992.176	797
992.256	376
992.335	-291
992.414	730
992.493	280
992.572	725
992.651	1015
992.730	203
992.809	300
992.888	-163
992.967	-233
993.046	104
993.125	-473
993.203	-72
993.282	456
993.361	95
993.440	-91
993.519	-49
993.597	-41
993.676	-461
993.755	752
993.834	-529
993.912	-702
993.991	1502
994.069	-679
994.148	198
994.226	52
994.305	131
994.384	251
994.462	1182
994.540	-637
994.619	-635
994.697	548
994.776	-507
994.854	452
994.932	128
995.011	378
995.089	-217
995.167	-13
995.245	546
995.324	-538
995.402	369
995.480	-291
995.558	-129
995.636	-1329
995.714	377
995.792	1102
995.870	-445
995.948	-522
996.026	323
996.104	-521
996.182	1119
996.260	138
996.338	715
996.416	-962
996.494	-3
996.572	1141
996.649	-363
996.727	-745
996.805	502
996.883	-365
996.960	-269
997.038	107
997.116	365
997.193	121
997.271	-440
997.348	114
997.426	209
997.504	-455
997.581	-381
997.658	309
997.736	-484
997.813	-968
997.891	154
997.968	101
998.046	671
998.123	-595
998.200	910
998.277	-434
998.355	700
998.432	-1050
998.509	-296
998.586	54
998.663	549
998.741	85
998.818	-365
998.895	32
998.972	-160
999.049	359
999.126	-15
999.203	149
999.280	-222
999.357	-848
999.434	-1048
999.511	-249
999.587	-312
999.664	-409
999.741	482
999.818	111
999.895	-478
999.971	-993
1000.048	-418
1000.125	156
1000.202	-1401
1000.278	260
1000.355	-240
1000.431	-305
1000.508	-908
1000.584	157
1000.661	-442
1000.738	-370
1000.814	-346
1000.890	-813
1000.967	-318
1001.043	-257
1001.120	-1174
1001.196	-321
1001.272	-1029
1001.349	-531
1001.425	-244
1001.501	-731
1001.577	-774
1001.654	-23
1001.730	-568
1001.806	-674
1001.882	-1439
1001.958	-628
1002.034	-921
1002.110	-424
1002.186	-741
1002.262	-451
1002.338	-570
1002.414	166
1002.490	-588
1002.566	-557
1002.642	-535
1002.718	389
1002.794	-842
1002.870	-419
1002.945	-1075
1003.021	-525
1003.097	-474
1003.173	-50
1003.248	-108
1003.324	237
1003.400	-336
1003.475	-1240
1003.551	-647
1003.626	-364
1003.702	-730
1003.777	-683
1003.853	-748
1003.928	-908
1004.004	-455
1004.079	75
1004.155	-542
1004.230	-1349
1004.305	-460
1004.381	-755
1004.456	-50
1004.531	-244
1004.607	-531
1004.682	-713
1004.757	-832
1004.832	-1349
1004.907	-12
1004.982	-49
1005.057	-1053
1005.133	-678
1005.208	-369
1005.283	-990
1005.358	709
1005.433	-1220
1005.508	-23
1005.583	-378
1005.657	-843
1005.732	129
1005.807	-1321
1005.882	-502
1005.957	-484
1006.032	-357
1006.106	-408
1006.181	-1110
1006.256	-225
1006.331	-1353
1006.405	-503
1006.480	-138
1006.554	-1010
1006.629	-995
1006.704	-1321
1006.778	-696
1006.853	293
1006.927	-629
1007.002	-686
1007.076	-229
1007.150	-1052
1007.225	217
1007.299	-1230
1007.373	-1098
1007.448	-676
1007.522	-145
1007.596	-768
1007.671	-1310
1007.745	-199
1007.819	-726
1007.893	-889
1007.967	-65
1008.041	-1744
1008.115	-1579
1008.190	-780
1008.264	-1118
1008.338	-1444
1008.412	-684
1008.486	-1091
1008.560	-130
1008.633	-731
1008.707	-1140
1008.781	-402
1008.855	-731
1008.929	-934
1009.003	-1340
1009.076	-748
1009.150	-695
1009.224	-1203
1009.298	-702
1009.371	-1315
1009.445	-372
1009.519	-1246
1009.592	-1864
1009.666	-367
1009.739	-6
1009.813	-1524
1009.886	-284
1009.960	-1632
1010.033	-1348
1010.107	-294
1010.180	-1448
1010.253	-666
1010.327	-1231
1010.400	-805
1010.473	-496
1010.547	237
1010.620	-1368
1010.693	-424
1010.766	-1395
1010.840	-658
1010.913	-248
1010.986	-1497
1011.059	-1331
1011.132	-2161
1011.205	-453
1011.278	-574
1011.351	-1360
1011.424	-739
1011.497	-1817
1011.570	-575
1011.643	-1276
1011.716	-1179
1011.789	-848
1011.862	-1551
1011.934	-113
1012.007	-2006
1012.080	-692
1012.153	-1661
1012.225	-1195
1012.298	-985
1012.371	-752
1012.443	-641
1012.516	-1946
1012.588	-797
1012.661	-359
1012.733	-1044
1012.806	-312
1012.879	-924
1012.951	-647
1013.023	-821
1013.096	-921
1013.168	-1796
1013.241	-251
1013.313	-1297
1013.385	-745
1013.458	-900
1013.530	-1172
1013.602	-1565
1013.674	-1235
1013.746	-1273
1013.819	-1523
1013.891	-266
1013.963	-1855
1014.035	-815
1014.107	-1333
1014.179	-1068
1014.251	-1178
1014.323	-687
1014.395	-1319
1014.467	-764
1014.539	-909
1014.611	-1180
1014.683	-1019
1014.754	-866
1014.826	-2180
1014.898	-1109
1014.970	-2159
1015.042	-746
1015.113	-1005
1015.185	-1087
1015.257	-2237
1015.328	-590
1015.400	-1234
1015.471	-1480
1015.543	-1604
1015.615	-255
1015.686	-1339
1015.757	-1162
1015.829	-1567
1015.901	-1229
1015.972	-725
1016.043	-1337
1016.115	-782
1016.186	-1090
1016.257	-1605
1016.328	-724
1016.400	-978
1016.471	-1615
1016.542	-1667
1016.613	-1011
1016.685	-1176
1016.756	-1511
1016.827	-1731
1016.898	-2092
1016.969	-161
1017.040	-2198
1017.111	-1606
1017.182	-1106
1017.253	-1145
1017.324	-1523
1017.395	-1118
1017.466	-1221
1017.537	-1717
1017.608	-1583
1017.678	-1547
1017.749	-1486
1017.820	-1094
1017.891	-463
1017.961	-1328
1018.032	-1049
1018.103	-1447
1018.173	-1158
1018.244	-839
1018.315	-1023
1018.385	-808
1018.456	-1501
1018.526	-1504
1018.597	-1756
1018.667	-912
1018.738	-1364
1018.808	-1501
1018.878	-620
1018.949	-1588
1019.019	-1353
1019.089	-1632
1019.160	-1492
1019.230	-1826
1019.300	-870
1019.371	-2201
1019.441	-1627
1019.511	-1288
1019.581	-1766
1019.651	-892
1019.721	-1337
1019.791	-1860
1019.861	-1089
1019.931	-1116
1020.001	-1457
1020.071	-785
1020.141	-749
1020.211	-1383
1020.281	-1951
1020.351	-889
1020.421	-1139
1020.491	-1508
1020.560	-1815
1020.630	-1618
1020.700	-1273
1020.770	-945
1020.839	-1509
1020.909	-1213
1020.979	-1362
1021.048	-1322
1021.118	-1558
1021.187	-651
1021.257	-1644
1021.326	-1226
1021.396	-2056
1021.465	-1003
1021.535	-2138
1021.604	-1850
1021.674	-356
1021.743	-1192
1021.812	-1013
1021.882	-1622
1021.951	-1631
1022.020	-1743
1022.089	-739
1022.159	-2637
1022.228	-1162
1022.297	-2320
1022.366	-2152
1022.435	-1606
1022.504	-1614
1022.573	-1969
1022.642	-1242
1022.711	-1547
1022.781	-1207
1022.849	-1474
1022.918	-1762
1022.987	-1393
1023.056	-1647
1023.125	-1348
1023.194	-1656
1023.263	-1366
1023.331	-1018
1023.400	-2324
1023.469	-1616
1023.538	-948
1023.606	-2122
1023.675	-1644
1023.744	-2010
1023.812	-1819
1023.881	-686
1023.949	-1066
1024.018	-1667
1024.086	-1593
1024.155	-1595
1024.223	-1979
1024.292	-1123
1024.360	-2226
1024.429	-1678
1024.497	-1420
1024.565	-1528
1024.634	-1386
1024.702	-902
1024.770	-1809
1024.838	-2523
1024.907	-1624
1024.975	-1823
1025.043	-1360
1025.111	-2193
1025.179	-1236
1025.247	-1535
1025.315	-1217
1025.383	-1533
1025.451	-2264
1025.519	-1609
1025.587	-1705
1025.655	-1228
1025.723	-1838
1025.791	-1449
1025.859	-1315
1025.927	-1806
1025.995	-1523
1026.062	-1203
1026.130	-1622
1026.198	-1287
1026.266	-2017
1026.333	-1680
1026.401	-1366
1026.469	-1239
1026.536	-1385
1026.604	-2234
1026.671	-2251
1026.739	-1716
1026.806	-2334
1026.874	-2272
1026.941	-2273
1027.009	-2269
1027.076	-2088
1027.144	-509
1027.211	-2243
1027.278	-1829
1027.345	-1449
1027.413	-2225
1027.480	-1830
1027.547	-2111
1027.614	-1772
1027.682	-1337
1027.749	-1920
1027.816	-1597
1027.883	-1683
1027.950	-1545
1028.017	-1687
1028.084	-1089
1028.151	-2298
1028.218	-546
1028.285	-1604
1028.352	-2342
1028.419	-2029
1028.486	-1478
1028.553	-2448
1028.619	-1149
1028.686	-1530
1028.753	-922
1028.820	-2114
1028.886	-1319
1028.953	-1517
1029.020	-1531
1029.086	-2199
1029.153	-1116
1029.220	-2299
1029.286	-780
1029.353	-704
1029.419	-2454
1029.486	-1592
1029.552	-2115
1029.619	-1979
1029.685	-1984
1029.751	-2061
1029.818	-1213
1029.884	-1715
1029.951	-173
1030.017	-2304
1030.083	-1521
1030.149	-1334
1030.216	-1309
1030.282	-1129
1030.348	-1416
1030.414	-1463
1030.480	-1812
1030.546	-1612
1030.612	-1384
1030.678	-2440
1030.744	-2244
1030.810	-2494
1030.876	-1486
1030.942	-1712
1031.008	-1616
1031.074	-2177
1031.140	-1875
1031.206	-1582
1031.272	-2201
1031.337	-1847
1031.403	-1737
1031.469	-1853
1031.534	-1991
1031.600	-1497
1031.666	-726
1031.731	-2188
1031.797	-1673
1031.863	-1878
1031.928	-1720
1031.994	-2316
1032.059	-2646
1032.125	-1230
1032.190	-1601
1032.256	-1892
1032.321	-1719
1032.386	-1682
1032.452	-1819
1032.517	-2109
1032.582	-2880
1032.647	-1286
1032.713	-1433
1032.778	-1466
1032.843	-1594
1032.908	-2078
1032.974	-1335
1033.039	-1848
1033.104	-1314
1033.169	-1675
1033.234	-1619
1033.299	-892
1033.364	-817
1033.429	-233
1033.494	-951
1033.559	-1616
1033.624	-1800
1033.688	-2004
1033.753	-2670
1033.818	-1973
1033.883	-2070
1033.948	-1140
1034.013	-563
1034.077	-1253
1034.142	-1497
1034.207	-440
1034.271	-345
1034.336	745
1034.400	332
1034.465	-316
1034.530	-753
1034.594	-1350
1034.658	-1050
1034.723	-1948
1034.787	-1133
1034.852	-1582
1034.916	-2092
1034.981	-1991
1035.045	-1926
1035.109	-1995
1035.173	-1195
1035.238	-1727
1035.302	-1737
1035.366	-2748
1035.430	-2221
1035.495	-2427
1035.559	-996
1035.623	-2049
1035.687	-2345
1035.751	-2128
1035.815	-2081
1035.879	-2045
1035.943	-1577
1036.007	-2008
1036.071	-2207
1036.135	-1465
1036.198	-1768
1036.262	-1740
1036.326	-1207
1036.390	-1774
1036.454	-513
1036.517	-633
1036.581	-2073
1036.645	-477
1036.709	-441
1036.772	-1329
1036.836	-1391
1036.900	-1614
1036.963	-1383
1037.026	-1210
1037.090	-1857
1037.154	-1920
1037.217	-1877
1037.280	-1798
1037.344	-1834
1037.407	-1289
1037.471	-1119
1037.534	-1664
1037.597	-1719
1037.661	-2055
1037.724	-1587
1037.787	-2156
1037.850	-2120
1037.913	-2474
1037.977	-1456
1038.040	-1998
1038.103	-1731
1038.166	-2154
1038.229	-2117
1038.292	-1849
1038.355	-2191
1038.418	-733
1038.481	-1212
1038.544	-1503
1038.607	-1500
1038.670	-2033
1038.732	-1795
1038.795	-982
1038.858	-1786
1038.921	-1480
1038.984	-1105
1039.046	-2314
1039.109	-2462
1039.172	-2029
1039.234	-1446
1039.297	-2609
1039.360	-1513
1039.422	-990
1039.485	-1658
1039.547	-2270
1039.610	-1176
1039.672	-1834
1039.734	-1784
1039.797	-2152
1039.859	-594
1039.922	-1896
1039.984	-1708
1040.046	-1825
1040.109	-1443
1040.171	-2138
1040.233	-2260
1040.295	-2429
1040.358	-2258
1040.420	-2578
1040.482	-2375
1040.544	-2394
1040.606	-1787
1040.668	-1873
1040.730	-2351
1040.792	-1244
1040.854	-1712
1040.916	-1463
1040.978	-2385
1041.040	-1772
1041.102	-2099
1041.164	-1896
1041.225	-1437
1041.287	-2046
1041.349	-1503
1041.411	-1945
1041.472	-1978
1041.534	-1944
1041.596	-2420
1041.657	-1594
1041.719	-2169
1041.781	-2460
1041.842	-2375
1041.904	-1388
1041.965	-2344
1042.027	-2248
1042.088	-2058
1042.150	-1157
1042.211	-2100
1042.272	-1714
1042.334	-1456
1042.395	-1372
1042.456	-2561
1042.518	-1809
1042.579	-1236
1042.640	-1425
1042.701	-2154
1042.763	-2080
1042.824	-2379
1042.885	-1887
1042.946	-2164
1043.007	-2076
1043.068	-2038
1043.129	-2444
1043.190	-2190
1043.251	-2019
1043.312	-1731
1043.373	-1819
1043.434	-1303
1043.495	-1757
1043.556	-1871
1043.616	-2262
1043.677	-1642
1043.738	-1546
1043.799	-1554
1043.859	-2533
1043.920	-2197
1043.981	-2580
1044.041	-986
1044.102	-2838
1044.162	-1113
1044.223	-2105
1044.284	-1773
1044.344	-1559
1044.405	-1024
1044.465	-1780
1044.525	-1989
1044.586	-2045
1044.646	-1442
1044.707	-1899
1044.767	-2197
1044.827	-1564
1044.887	-881
1044.948	-1597
1045.008	-1268
1045.068	-2253
1045.128	-565
1045.188	-1915
1045.249	-1412
1045.309	-1670
1045.369	-1366
1045.429	-1211
1045.489	-2306
1045.549	-2547
1045.609	-2168
1045.669	-2232
1045.729	-2030
1045.789	-1879
1045.848	-1615
1045.908	-1479
1045.968	-1605
1046.028	-1334
1046.088	-1289
1046.147	-1054
1046.207	-1403
1046.267	-1924
1046.326	-1645
1046.386	-1118
1046.446	-1039
1046.505	-835
1046.565	-1274
1046.624	-475
1046.684	-356
1046.743	-289
1046.803	-925
1046.862	-665
1046.922	0
