'Start Wavelength	183.907
'End Wavelength	1046.922
'Gate Delay	5.000
'Gate Width (ms)	1.050
'Laser Output Level	0.000
'X Position	0.000
'Y Position	0.000
'Z Position	0.000
'Grid Point Number	1.000
'Shot Number	100.000
183.907	423.000
183.977	357.000
184.047	153
184.116	236
184.186	-582
184.256	419
184.325	-337
184.395	-1037
184.465	202
184.534	56
184.604	-304
184.674	-176
184.743	-302
184.813	884
184.883	470
184.952	363
185.022	1003
185.092	299
185.161	-173
185.231	62
185.301	-379
185.370	7
185.440	63
185.509	-1120
185.579	-89
185.649	-189
185.718	-465
185.788	290
185.857	157
185.927	229
185.996	-145
186.066	139
186.136	181
186.205	304
186.275	202
186.344	426
186.414	646
186.483	-1001
186.553	465
186.622	433
186.692	-70
186.761	109
186.831	672
186.900	-254
186.970	473
187.039	575
187.109	1344
187.178	-172
187.248	-289
187.317	139
187.387	600
187.456	376
187.526	407
187.595	176
187.664	268
187.734	297
187.803	1175
187.873	-391
187.942	110
188.012	-129
188.081	-47
188.150	-23
188.220	-161
188.289	-72
188.358	869
188.428	-8
188.497	10
188.567	-901
188.636	380
188.705	-341
188.775	-44
188.844	-147
188.913	476
188.983	-493
189.052	-44
189.121	288
189.191	-778
189.260	770
189.329	-63
189.399	587
189.468	285
189.537	408
189.606	864
189.676	861
189.745	84
189.814	325
189.883	770
189.953	-155
190.022	176
190.091	1248
190.161	2090
190.230	367
190.299	429
190.368	-247
190.437	123
190.507	-127
190.576	175
190.645	488
190.714	403
190.783	-322
190.853	165
190.922	617
190.991	675
191.060	-23
191.129	-447
191.198	864
191.268	90
191.337	-585
191.406	421
191.475	337
191.544	-1
191.613	324
191.682	-641
191.752	275
191.821	285
191.890	323
191.959	508
192.028	-372
192.097	-222
192.166	935
192.235	-790
192.304	175
192.373	-59
192.442	132
192.511	-185
192.580	292
192.650	-122
192.719	25
192.788	517
192.857	278
192.926	875
192.995	273
193.064	876
193.133	643
193.202	760
193.271	1200
193.340	1007
193.409	806
193.478	611
193.547	611
193.615	2331
193.684	977
193.753	374
193.822	775
193.891	298
193.960	1598
194.029	844
194.098	513
194.167	1576
194.236	196
194.305	307
194.374	792
194.443	524
194.512	212
194.580	482
194.649	212
194.718	335
194.787	288
194.856	202
194.925	726
194.994	189
195.062	448
195.131	589
195.200	74
195.269	213
195.338	536
195.407	923
195.475	12
195.544	511
195.613	369
195.682	476
195.751	648
195.819	158
195.888	682
195.957	588
196.026	783
196.094	946
196.163	958
196.232	1353
196.301	160
196.369	254
196.438	399
196.507	-251
196.576	20
196.644	149
196.713	-389
196.782	243
196.850	859
196.919	209
196.988	231
197.056	85
197.125	456
197.194	998
197.262	-439
197.331	61
197.400	-130
197.468	266
197.537	543
197.606	764
197.674	712
197.743	1970
197.812	658
197.880	1206
197.949	746
198.017	1721
198.086	1066
198.155	962
198.223	918
198.292	2073
198.360	1534
198.429	592
198.497	-66
198.566	780
198.635	1639
198.703	403
198.772	1272
198.840	2245
198.909	2090
198.977	877
199.046	120
199.114	854
199.183	230
199.251	467
199.320	128
199.388	134
199.457	-540
199.525	345
199.594	922
199.662	976
199.731	259
199.799	509
199.867	696
199.936	440
200.004	917
200.073	1216
200.141	607
200.210	183
200.278	300
200.346	438
200.415	811
200.483	671
200.552	11
200.620	-250
200.688	-343
200.757	507
200.825	408
200.893	184
200.962	-57
201.030	411
201.098	-176
201.167	1006
201.235	-402
201.303	639
201.372	94
201.440	575
201.508	-128
201.577	-126
201.645	129
201.713	1266
201.781	-306
201.850	515
201.918	326
201.986	101
202.055	495
202.123	-109
202.191	318
202.259	1010
202.327	92
202.396	879
202.464	-274
202.532	823
202.600	1878
202.669	931
202.737	533
202.805	619
202.873	488
202.941	541
203.009	285
203.078	388
203.146	360
203.214	756
203.282	-250
203.350	1406
203.418	298
203.487	-137
203.555	214
203.623	509
203.691	437
203.759	617
203.827	541
203.895	997
203.963	248
204.031	137
204.099	773
204.168	703
204.236	484
204.304	717
204.372	511
204.440	-40
204.508	708
204.576	414
204.644	833
204.712	337
204.780	670
204.848	-312
204.916	384
204.984	91
205.052	482
205.120	645
205.188	610
205.256	197
205.324	948
205.392	604
205.460	1425
205.528	44
205.596	892
205.664	611
205.732	209
205.799	2266
205.867	3182
205.935	1088
206.003	565
206.071	221
206.139	245
206.207	763
206.275	370
206.343	569
206.411	941
206.478	443
206.546	78
206.614	497
206.682	609
206.750	851
206.818	981
206.885	134
206.953	-146
207.021	842
207.089	1000
207.157	986
207.225	131
207.292	1066
207.360	597
207.428	727
207.496	-29
207.563	271
207.631	465
207.699	736
207.767	543
207.834	592
207.902	894
207.970	531
208.038	413
208.105	938
208.173	1272
208.241	907
208.309	956
208.376	1083
208.444	1649
208.512	1061
208.579	-460
208.647	1160
208.715	725
208.782	870
208.850	-27
208.918	760
208.985	287
209.053	1320
209.120	984
209.188	369
209.256	670
209.323	235
209.391	1068
209.459	1540
209.526	417
209.594	-172
209.661	695
209.729	898
209.796	248
209.864	283
209.932	-176
209.999	1353
210.067	737
210.134	1153
210.202	1198
210.269	902
210.337	737
210.404	1177
210.472	241
210.539	883
210.607	182
210.674	844
210.742	668
210.809	735
210.877	671
210.944	1210
211.012	172
211.079	2598
211.146	485
211.214	791
211.281	418
211.349	1272
211.416	1272
211.484	1655
211.551	242
211.618	1337
211.686	1577
211.753	321
211.821	1138
211.888	825
211.955	563
212.023	1100
212.090	1373
212.157	563
212.225	611
212.292	2675
212.359	4665
212.427	10622
212.494	4155
212.561	1941
212.629	959
212.696	1591
212.763	940
212.831	849
212.898	779
212.965	409
213.032	620
213.100	1565
213.167	836
213.234	1499
213.301	509
213.369	1104
213.436	1212
213.503	690
213.570	1386
213.638	1418
213.705	317
213.772	0
213.839	1108
213.906	1707
213.973	702
214.041	636
214.108	1095
214.175	296
214.242	291
214.309	958
214.376	872
214.444	1503
214.511	857
214.578	808
214.645	979
214.712	1251
214.779	1102
214.846	1388
214.913	1079
214.980	1395
215.048	1452
215.115	1726
215.182	1397
215.249	1418
215.316	1014
215.383	1654
215.450	844
215.517	1432
215.584	138
215.651	1424
215.718	641
215.785	1435
215.852	94
215.919	1944
215.986	1125
216.053	1222
216.120	562
216.187	886
216.254	740
216.321	1171
216.388	172
216.455	1531
216.522	328
216.589	1257
216.656	2918
216.722	2438
216.789	1974
216.856	2143
216.923	890
216.990	1250
217.057	1070
217.124	1858
217.191	1665
217.258	2551
217.324	3436
217.391	2943
217.458	2272
217.525	2032
217.592	1136
217.659	1107
217.725	1170
217.792	1679
217.859	2556
217.926	815
217.993	1185
218.059	1081
218.126	1147
218.193	550
218.260	-53
218.327	729
218.393	284
218.460	114
218.527	259
218.594	428
218.660	1829
218.727	2927
218.794	1326
218.860	1318
218.927	57
218.994	612
219.061	-35
219.127	1375
219.194	1802
219.261	773
219.327	851
219.394	929
219.461	194
219.527	419
219.594	1016
219.661	1107
219.727	302
219.794	772
219.860	-96
219.927	1179
219.994	1252
220.060	2014
220.127	1017
220.193	1298
220.260	728
220.326	2861
220.393	3258
220.460	4810
220.526	3107
220.593	1972
220.659	2444
220.726	1916
220.792	5980
220.859	4471
220.925	5255
220.992	8944
221.058	7847
221.125	7323
221.191	5809
221.258	2296
221.324	1889
221.391	707
221.457	752
221.524	1416
221.590	1494
221.657	5952
221.723	3612
221.789	4622
221.856	3566
221.922	1852
221.989	968
222.055	1272
222.121	814
222.188	1475
222.254	654
222.321	1173
222.387	559
222.453	256
222.520	342
222.586	154
222.652	483
222.719	1003
222.785	106
222.851	746
222.918	618
222.984	703
223.050	879
223.116	178
223.183	688
223.249	704
223.315	108
223.382	-418
223.448	536
223.514	616
223.580	410
223.647	193
223.713	284
223.779	793
223.845	208
223.911	1026
223.978	-467
224.044	777
224.110	-187
224.176	707
224.242	422
224.309	187
224.375	191
224.441	369
224.507	-333
224.573	276
224.639	1127
224.705	357
224.772	76
224.838	90
224.904	776
224.970	510
225.036	916
225.102	563
225.168	550
225.234	1417
225.300	-263
225.366	86
225.432	596
225.499	681
225.565	255
225.631	634
225.697	343
225.763	1216
225.829	520
225.895	1277
225.961	2564
226.027	1813
226.093	1374
226.159	2236
226.225	3912
226.291	7797
226.357	12977
226.423	6384
226.489	3284
226.554	3087
226.620	2078
226.686	2541
226.752	4776
226.818	7624
226.884	17153
226.950	14300
227.016	4529
227.082	2992
227.148	1876
227.214	2577
227.279	1554
227.345	1438
227.411	1654
227.477	1017
227.543	997
227.609	1976
227.674	1325
227.740	487
227.806	981
227.872	818
227.938	1041
228.003	1694
228.069	956
228.135	305
228.201	327
228.267	210
228.332	900
228.398	1024
228.464	1053
228.530	-403
228.595	512
228.661	-52
228.727	1158
228.792	1366
228.858	65
228.924	67
228.990	2105
229.055	96
229.121	2092
229.187	450
229.252	933
229.318	505
229.384	230
229.449	873
229.515	-408
229.581	-710
229.646	1651
229.712	1522
229.777	2559
229.843	2669
229.909	2021
229.974	1945
230.040	1454
230.105	1031
230.171	1099
230.236	2276
230.302	2671
230.368	2547
230.433	803
230.499	1085
230.564	1235
230.630	905
230.695	419
230.761	1115
230.826	-348
230.892	1900
230.957	653
231.023	346
231.088	454
231.154	310
231.219	621
231.284	1572
231.350	1663
231.415	-92
231.481	1039
231.546	982
231.612	774
231.677	204
231.742	276
231.808	2138
231.873	-45
231.939	-744
232.004	2080
232.069	2796
232.135	126
232.200	448
232.265	245
232.331	595
232.396	154
232.461	-318
232.527	76
232.592	-325
232.657	299
232.723	1948
232.788	325
232.853	411
232.918	-37
232.984	65
233.049	-156
233.114	1025
233.179	1568
233.245	2362
233.310	3075
233.375	-458
233.440	586
233.506	497
233.571	-362
233.636	740
233.701	473
233.766	2475
233.832	2276
233.897	793
233.962	11
234.027	1341
234.092	1921
234.157	1038
234.222	288
234.288	1534
234.353	6483
234.418	6444
234.483	3121
234.548	1482
234.613	1241
234.678	646
234.743	1506
234.808	6868
234.873	3774
234.938	2112
235.004	632
235.069	750
235.134	378
235.199	1273
235.264	1152
235.329	-386
235.394	980
235.459	1743
235.524	874
235.589	1161
235.654	491
235.719	91
235.784	1393
235.849	600
235.913	2493
235.978	3307
236.043	3923
236.108	849
236.173	786
236.238	1731
236.303	548
236.368	720
236.433	2118
236.498	3892
236.563	3026
236.627	5481
236.692	21350
236.757	16094
236.822	6707
236.887	4271
236.952	3490
237.017	2803
237.081	3346
237.146	3869
237.211	8802
237.276	20423
237.341	33282
237.405	15872
237.470	5685
237.535	5008
237.600	2665
237.664	2538
237.729	1277
237.794	2020
237.859	6401
237.923	3608
237.988	2010
238.053	2955
238.118	2332
238.182	8806
238.247	7934
238.312	3073
238.376	2292
238.441	1216
238.506	2263
238.570	313
238.635	1491
238.700	1051
238.764	749
238.829	3834
238.893	3820
238.958	2146
239.023	1673
239.087	1231
239.152	1211
239.216	247
239.281	457
239.346	1171
239.410	396
239.475	1204
239.539	9244
239.604	6000
239.668	2007
239.733	1291
239.797	1144
239.862	2032
239.926	5758
239.991	2981
240.055	749
240.120	340
240.184	692
240.249	709
240.313	493
240.378	1013
240.442	4381
240.507	8415
240.571	2629
240.635	3318
240.700	4266
240.764	1372
240.829	515
240.893	41
240.957	1067
241.022	5936
241.086	8139
241.151	3351
241.215	748
241.279	2911
241.344	4085
241.408	1931
241.472	715
241.537	2162
241.601	1241
241.665	386
241.730	147
241.794	2527
241.858	934
241.922	1652
241.987	1076
242.051	375
242.115	-239
242.179	1181
242.244	1281
242.308	1731
242.372	1357
242.436	951
242.501	1028
242.565	-34
242.629	444
242.693	1680
242.757	-196
242.822	1323
242.886	1758
242.950	1207
243.014	750
243.078	1437
243.142	1833
243.206	1520
243.271	2038
243.335	903
243.399	2629
243.463	11917
243.527	31019
243.591	9363
243.655	4010
243.719	1728
243.783	3168
243.847	3468
243.911	4965
243.975	5745
244.040	2475
244.104	1898
244.168	694
244.232	2039
244.296	3356
244.360	4157
244.424	1847
244.488	2037
244.552	1498
244.615	556
244.679	443
244.743	1520
244.807	745
244.871	1479
244.935	1532
244.999	34
245.063	913
245.127	1525
245.191	2739
245.255	2758
245.319	1561
245.383	1243
245.446	2345
245.510	985
245.574	1363
245.638	1520
245.702	848
245.766	4991
245.829	2356
245.893	1711
245.957	1361
246.021	2039
246.085	1004
246.149	2082
246.212	6527
246.276	9168
246.340	3764
246.404	2609
246.467	3504
246.531	3263
246.595	2817
246.659	3021
246.722	590
246.786	2688
246.850	2785
246.913	4340
246.977	1228
247.041	1339
247.104	1579
247.168	2476
247.232	4924
247.295	13557
247.359	6004
247.423	2733
247.486	5027
247.550	3115
247.614	1832
247.677	3468
247.741	1776
247.804	1232
247.868	1970
247.932	4851
247.995	12088
248.059	4037
248.122	915
248.186	3309
248.249	4588
248.313	20804
248.376	20500
248.440	13070
248.503	3453
248.567	4648
248.630	5045
248.694	7726
248.757	10056
248.821	21863
248.884	12358
248.948	10555
249.011	16043
249.075	26743
249.138	20847
249.202	8676
249.265	4870
249.328	6713
249.392	3574
249.455	4221
249.519	2682
249.582	2885
249.645	6925
249.709	4513
249.772	3561
249.835	3164
249.899	2487
249.962	3042
250.025	1745
250.089	8057
250.152	10826
250.215	4596
250.279	2766
250.342	3291
250.405	3294
250.468	2301
250.532	4620
250.595	7579
250.658	29087
250.721	46028
250.785	13962
250.848	8385
250.911	4391
250.974	5067
251.038	6016
251.101	14005
251.164	6548
251.227	5835
251.290	5960
251.354	9027
251.417	40595
251.480	37530
251.543	24908
251.606	74079
251.669	50735
251.732	19173
251.795	20240
251.859	20669
251.922	47307
251.985	24743
252.048	9214
252.111	6980
252.174	5681
252.237	12490
252.300	26275
252.363	28261
252.426	59933
252.489	23596
252.552	12055
252.615	7257
252.678	8207
252.741	20217
252.804	27928
252.867	59874
252.930	33355
252.993	17326
253.056	10291
253.119	7549
253.182	5211
253.245	10096
253.308	7064
253.371	6525
253.434	5791
253.497	6197
253.559	12384
253.622	7598
253.685	8723
253.748	9112
253.811	4533
253.874	6023
253.937	4910
254.000	3842
254.062	8227
254.125	12440
254.188	10599
254.251	8383
254.314	4278
254.376	7824
254.439	8783
254.502	7022
254.565	8145
254.628	15363
254.690	8131
254.753	4444
254.816	3187
254.878	3781
254.941	9101
255.004	9021
255.067	3792
255.129	3238
255.192	2425
255.255	1646
255.317	2212
255.380	1823
255.443	868
255.505	1004
255.568	437
255.631	1252
255.693	1398
255.756	3
255.819	740
255.881	812
255.944	1139
256.006	944
256.069	771
256.132	681
256.194	1656
256.257	7366
256.319	4481
256.382	3930
256.444	2243
256.507	1693
256.569	1184
256.632	1162
256.694	2500
256.757	12020
256.819	32736
256.882	11418
256.944	4352
257.007	4180
257.069	3104
257.132	2090
257.194	2570
257.257	1864
257.319	1268
257.381	1926
257.444	8295
257.506	38096
257.569	38178
257.631	13697
257.693	9086
257.756	4094
257.818	3683
257.880	2724
257.943	2224
258.005	1105
258.067	1221
258.130	1370
258.192	1766
258.254	5676
258.317	2158
258.379	2274
258.441	5916
258.503	7168
258.566	8512
258.628	12782
258.690	1988
258.753	2326
258.815	4343
258.877	1920
258.939	1366
259.001	1670
259.064	1146
259.126	852
259.188	3802
259.250	2510
259.312	1566
259.375	3234
259.437	2241
259.499	1954
259.561	385
259.623	1555
259.685	342
259.747	1686
259.809	8778
259.872	16890
259.934	24508
259.996	19822
260.058	5110
260.120	1864
260.182	1225
260.244	1914
260.306	578
260.368	1519
260.430	190
260.492	3260
260.554	4532
260.616	4076
260.678	12678
260.740	16832
260.802	3113
260.864	2484
260.926	703
260.988	2110
261.050	1550
261.112	5249
261.174	16939
261.236	12870
261.298	3888
261.359	7520
261.421	10428
261.483	1846
261.545	1531
261.607	848
261.669	1636
261.731	3582
261.793	10884
261.854	2986
261.916	2659
261.978	2430
262.040	1834
262.102	1628
262.164	3965
262.225	2536
262.287	1313
262.349	4643
262.411	4000
262.472	1922
262.534	3887
262.596	10452
262.658	3261
262.719	419
262.781	2794
262.843	9822
262.904	3437
262.966	2644
263.028	4352
263.090	21259
263.151	50778
263.213	13518
263.275	6779
263.336	3010
263.398	1850
263.459	1183
263.521	1475
263.583	4240
263.644	2479
263.706	1674
263.767	-998
263.829	539
263.891	146
263.952	-694
264.014	169
264.075	1108
264.137	4680
264.198	3007
264.260	-266
264.321	70
264.383	3342
264.444	9092
264.506	2394
264.567	1062
264.629	3350
264.690	6196
264.752	1608
264.813	1436
264.875	495
264.936	944
264.998	604
265.059	117
265.120	734
265.182	2090
265.243	16132
265.305	14808
265.366	3174
265.427	1802
265.489	1320
265.550	66
265.611	1272
265.673	570
265.734	681
265.795	876
265.857	-346
265.918	394
265.979	4682
266.040	28524
266.102	21544
266.163	5490
266.224	3427
266.286	2158
266.347	180
266.408	462
266.469	1190
266.530	802
266.592	1169
266.653	2092
266.714	3854
266.775	552
266.836	254
266.898	680
266.959	1004
267.020	626
267.081	1383
267.142	136
267.203	76
267.264	-101
267.326	1438
267.387	134
267.448	-800
267.509	120
267.570	107
267.631	-8
267.692	-448
267.753	255
267.814	114
267.875	3068
267.936	7225
267.997	2326
268.058	1526
268.119	183
268.180	614
268.241	304
268.302	190
268.363	342
268.424	195
268.485	1092
268.546	-854
268.607	272
268.668	514
268.729	-716
268.790	-17
268.851	990
268.912	3775
268.972	4626
269.033	1370
269.094	308
269.155	178
269.216	-598
269.277	192
269.338	-726
269.398	850
269.459	748
269.520	1144
269.581	2214
269.642	2033
269.702	754
269.763	823
269.824	470
269.885	710
269.945	2373
270.006	576
270.067	-248
270.128	63
270.188	92
270.249	101
270.310	-415
270.370	736
270.431	-493
270.492	-82
270.553	848
270.613	2806
270.674	6370
270.734	996
270.795	1152
270.856	1368
270.916	836
270.977	1111
271.038	1260
271.098	1125
271.159	2685
271.219	1470
271.280	436
271.340	524
271.401	416
271.462	5058
271.522	2318
271.583	1369
271.643	1324
271.704	384
271.764	1260
271.825	4861
271.885	19916
271.946	25089
272.006	6908
272.066	11058
272.127	20516
272.187	4950
272.248	2244
272.308	2267
272.369	14412
272.429	7103
272.489	4058
272.550	3812
272.610	4219
272.671	2927
272.731	3034
272.791	5854
272.852	2310
272.912	1657
272.972	1096
273.033	768
273.093	2001
273.153	1579
273.214	1534
273.274	1279
273.334	10225
273.394	19474
273.455	6295
273.515	6360
273.575	16600
273.635	5545
273.696	9260
273.756	19407
273.816	6105
273.876	3056
273.936	9518
273.997	16501
274.057	3188
274.117	3059
274.177	4443
274.237	23901
274.297	19308
274.358	13554
274.418	15558
274.478	11381
274.538	3420
274.598	3440
274.658	15844
274.718	18414
274.778	5902
274.838	2835
274.898	8732
274.958	25736
275.018	21644
275.078	12257
275.138	4104
275.198	2016
275.258	1333
275.318	1874
275.378	4810
275.438	4923
275.498	3274
275.558	11887
275.618	24181
275.678	13551
275.738	7825
275.798	4635
275.858	2660
275.918	1196
275.978	2051
276.038	1238
276.098	1084
276.157	2805
276.217	12232
276.277	4092
276.337	3039
276.397	1079
276.457	2024
276.517	654
276.576	482
276.636	734
276.696	2170
276.756	6988
276.815	4980
276.875	391
276.935	1838
276.995	773
277.055	562
277.114	986
277.174	1713
277.234	10413
277.293	3588
277.353	898
277.413	1076
277.472	1174
277.532	1290
277.592	1578
277.651	7224
277.711	12783
277.771	4002
277.830	16633
277.890	12903
277.950	9896
278.009	30474
278.069	9858
278.128	8984
278.188	12911
278.248	5784
278.307	13833
278.367	8471
278.426	1784
278.486	1142
278.545	889
278.605	594
278.664	-263
278.724	1465
278.783	7324
278.843	20208
278.902	4504
278.962	2758
279.021	2807
279.081	2706
279.140	1769
279.199	2608
279.259	2002
279.318	2123
279.378	3219
279.437	6860
279.496	24097
279.556	84406
279.615	64245
279.675	14752
279.734	9492
279.793	11817
279.853	16862
279.912	5658
279.971	3561
280.031	2314
280.090	5306
280.149	8947
280.208	10647
280.268	58836
280.327	58745
280.386	11932
280.445	10381
280.505	8035
280.564	3274
280.623	2738
280.682	5539
280.742	7580
280.801	1782
280.860	921
280.919	985
280.978	1365
281.037	-182
281.097	504
281.156	712
281.215	956
281.274	1764
281.333	13266
281.392	9180
281.451	1292
281.510	1191
281.569	554
281.628	0
281.688	313
281.747	569
281.806	788
281.865	474
281.924	1045
281.983	262
282.042	-174
282.101	-326
282.160	144
282.219	-99
282.278	769
282.337	6041
282.396	3837
282.454	441
282.513	1606
282.572	8750
282.631	5130
282.690	916
282.749	40
282.808	909
282.867	1158
282.926	774
282.985	180
283.043	-203
283.102	56
283.161	577
283.220	4210
283.279	11866
283.338	2772
283.396	445
283.455	1076
283.514	1293
283.573	3281
283.631	1793
283.690	970
283.749	314
283.808	3695
283.866	4429
283.925	765
283.984	926
284.043	1644
284.101	1179
284.160	1264
284.219	1408
284.277	1329
284.336	3259
284.395	14560
284.453	10907
284.512	3421
284.570	3710
284.629	3485
284.688	1889
284.746	2016
284.805	2415
284.863	3634
284.922	5465
284.981	5627
285.039	9437
285.098	18106
285.156	49729
285.215	125257
285.273	115473
285.332	53031
285.390	25016
285.449	15246
285.507	10996
285.566	8130
285.624	4001
285.683	3710
285.741	3500
285.799	2228
285.858	2326
285.916	2346
285.975	1036
286.033	606
286.091	204
286.150	887
286.208	447
286.267	838
286.325	1735
286.383	3649
286.442	1776
286.500	942
286.558	267
286.616	406
286.675	2039
286.733	1051
286.791	777
286.850	1648
286.908	1903
286.966	4432
287.024	1020
287.083	65
287.141	-68
287.199	1554
287.257	1648
287.315	954
287.374	1304
287.432	5505
287.490	3809
287.548	734
287.606	658
287.664	742
287.723	1790
287.781	2901
287.839	892
287.897	1802
287.955	3095
288.013	6008
288.071	16735
288.129	62309
288.187	161228
288.245	70077
288.303	21346
288.361	11890
288.419	7948
288.477	6366
288.535	3473
288.593	3056
288.651	2004
288.709	1131
288.767	315
288.825	464
288.883	-223
288.941	289
288.999	-408
289.057	911
289.115	-276
289.173	182
289.231	482
289.289	102
289.346	271
289.404	1410
289.462	1980
289.520	2258
289.578	371
289.636	-76
289.694	-261
289.751	-2
289.809	-1083
289.867	338
289.925	632
289.983	916
290.040	-199
290.098	-474
290.156	212
290.214	1290
290.271	246
290.329	-34
290.387	-73
290.444	-460
290.502	-1409
290.560	-628
290.617	63
290.675	-330
290.733	-186
290.790	157
290.848	-397
290.906	94
290.963	21
291.021	-113
291.078	-311
291.136	915
291.194	4672
291.251	11737
291.309	3025
291.366	954
291.424	298
291.481	687
291.539	76
291.596	874
291.654	-733
291.711	-412
291.769	19
291.826	2271
291.884	1651
291.941	-417
291.999	22
292.056	42
292.114	349
292.171	144
292.228	300
292.286	440
292.343	2669
292.401	3872
292.458	2067
292.515	716
292.573	968
292.630	906
292.687	1103
292.745	1184
292.802	1210
292.859	6148
292.917	13034
292.974	6680
293.031	1927
293.089	4
293.146	147
293.203	1136
293.260	-455
293.318	157
293.375	1380
293.432	1096
293.489	-272
293.546	375
293.604	1483
293.661	8134
293.718	23215
293.775	10529
293.832	3532
293.889	1891
293.947	1449
294.004	1704
294.061	1266
294.118	4925
294.175	11862
294.232	13602
294.289	4773
294.346	1730
294.403	1837
294.460	2049
294.517	607
294.574	1028
294.631	668
294.688	1763
294.745	6389
294.802	26857
294.859	24765
294.916	8330
294.973	3430
295.030	3802
295.087	3470
295.144	1728
295.201	1760
295.258	1116
295.315	2231
295.372	10114
295.429	19058
295.486	7844
295.542	4214
295.599	9928
295.656	18059
295.713	12466
295.770	17469
295.827	6411
295.883	2181
295.940	2628
295.997	2903
296.054	4005
296.111	1046
296.167	999
296.224	283
296.281	-35
296.338	-86
296.394	460
296.451	1572
296.508	7536
296.564	14127
296.621	10906
296.678	20342
296.734	30099
296.791	10370
296.848	4968
296.904	4883
296.961	13074
297.018	20939
297.074	15776
297.131	5661
297.187	3737
297.244	6204
297.301	22264
297.357	39986
297.414	13580
297.470	3876
297.527	1975
297.583	3127
297.640	1325
297.696	785
297.753	694
297.809	791
297.866	240
297.922	82
297.979	704
298.035	1308
298.092	2664
298.148	11674
298.204	10872
298.261	4915
298.317	9793
298.374	25413
298.430	14642
298.486	5816
298.543	4649
298.599	3757
298.656	4798
298.712	7354
298.768	21091
298.824	14627
298.881	4209
298.937	2058
298.993	1095
299.050	2364
299.106	2187
299.162	794
299.218	1725
299.275	972
299.331	1420
299.387	5488
299.443	21606
299.500	21869
299.556	7387
299.612	2219
299.668	1985
299.724	727
299.780	1420
299.837	1693
299.893	4322
299.949	17671
300.005	19948
300.061	16827
300.117	29945
300.173	15091
300.229	6026
300.285	6253
300.341	7335
300.397	3707
300.453	2307
300.510	497
300.566	1040
300.622	1199
300.678	3918
300.734	12547
300.790	15981
300.845	22983
300.901	12148
300.957	15492
301.013	13195
301.069	4484
301.125	2409
301.181	2771
301.237	2737
301.293	601
301.349	912
301.405	213
301.461	1075
301.516	2196
301.572	2394
301.628	4023
301.684	3728
301.740	7108
301.796	12839
301.851	7800
301.907	13761
301.963	15373
302.019	25010
302.074	66717
302.130	65197
302.186	28557
302.242	11316
302.297	7188
302.353	6657
302.409	13236
302.464	12647
302.520	10168
302.576	22967
302.631	27122
302.687	14498
302.743	5924
302.798	3169
302.854	2388
302.910	1292
302.965	3112
303.021	5864
303.076	6176
303.132	6939
303.187	8936
303.243	5308
303.299	2736
303.354	1638
303.410	723
303.465	1005
303.521	835
303.576	1386
303.632	2216
303.687	6353
303.743	19375
303.798	17865
303.853	5277
303.909	2576
303.964	2183
304.020	3711
304.075	6272
304.130	5958
304.186	11363
304.241	11914
304.297	8766
304.352	3977
304.358	3801
304.407	2369
304.449	1838
304.463	1664
304.518	1990
304.539	1716
304.573	1264
304.629	2140
304.630	2193
304.684	4704
304.720	10915
304.739	14049
304.794	23917
304.811	20216
304.850	11311
304.902	4610
304.905	4185
304.960	2594
304.992	2705
305.015	2769
305.071	2874
305.083	2483
305.126	1056
305.173	1107
305.181	1130
305.236	985
305.264	929
305.292	893
305.347	1820
305.354	1885
305.402	2190
305.445	2047
305.457	2016
305.512	2986
305.535	3193
305.567	3493
305.622	3680
305.626	3862
305.678	7853
305.716	17247
305.733	20798
305.788	26010
305.807	22371
305.843	15894
305.897	20284
305.898	20324
305.953	21617
305.988	14247
306.008	10170
306.063	4994
306.078	4524
306.118	3572
306.168	2268
306.173	2160
306.228	2042
306.259	1533
306.283	1142
306.338	1318
306.349	1230
306.393	1031
306.440	2408
306.448	2594
306.503	2520
306.530	2502
306.558	3112
306.613	7990
306.620	8691
306.668	13549
306.711	18983
306.723	19796
306.778	16238
306.801	12562
306.833	7963
306.888	3411
306.892	3246
306.943	2085
306.982	1829
306.997	1769
307.052	1822
307.072	1842
307.107	2015
307.162	2419
307.163	2443
307.217	5000
307.253	5777
307.272	5869
307.327	6432
307.343	5878
307.381	4687
307.434	4281
307.436	4381
307.491	8734
307.524	13772
307.546	15860
307.600	17363
307.614	15603
307.655	9257
307.704	4754
307.710	4508
307.765	4794
307.795	5767
307.819	6883
307.874	12034
307.885	11838
307.929	9280
307.975	7876
307.984	8032
308.038	11294
308.065	15060
308.093	25229
308.148	51827
308.156	58708
308.202	96868
308.246	119610
308.257	117631
308.312	66143
308.336	46861
308.366	34095
308.421	20750
308.426	19676
308.475	12349
308.517	8408
308.530	7632
308.585	6510
308.607	6388
308.639	6199
308.694	5421
308.697	5478
308.748	9260
308.787	14158
308.803	14575
308.857	11355
308.877	9640
308.912	7974
308.967	7634
308.967	7649
309.021	10269
309.058	13519
309.076	17145
309.130	31034
309.148	37549
309.185	70476
309.238	128036
309.239	128438
309.293	146827
309.328	135452
309.348	117103
309.402	56585
309.418	41993
309.457	28074
309.508	16715
309.511	16257
309.566	12768
309.598	11649
309.620	12086
309.674	14232
309.688	14989
309.729	14943
309.778	12849
309.783	12536
309.837	9458
309.868	8003
309.892	9532
309.946	15085
309.959	17012
310.001	23295
310.049	28557
310.055	27744
310.109	16658
310.139	10343
310.163	7973
310.218	4680
310.229	4234
310.272	3597
310.319	3120
310.326	3037
310.381	2485
310.409	2317
310.435	2142
310.489	1903
310.499	1804
310.543	2081
310.589	2886
310.598	2907
310.652	2593
310.679	2506
310.706	2372
310.760	1845
310.769	1799
310.814	1445
310.859	1034
310.868	1067
310.923	1227
310.948	1384
310.977	1746
311.031	2326
311.038	2402
311.085	1904
311.128	1423
311.139	1464
311.193	1739
311.218	1759
311.247	1882
311.301	2238
311.308	2278
311.356	2072
311.398	1905
311.410	1894
311.464	1713
311.488	1628
311.518	1331
311.572	910
311.578	856
311.626	1959
311.668	2941
311.680	2850
311.734	2409
311.758	2198
311.788	2325
311.842	2564
311.847	2589
311.896	3399
311.937	4091
311.950	3966
312.004	3417
312.027	3157
312.058	2772
312.112	2099
312.117	2034
312.165	2020
312.207	2014
312.297	2580
312.386	2347
312.476	2439
312.566	4093
312.656	2475
312.745	1813
312.835	2302
312.925	2373
313.015	1827
313.104	2790
313.194	857
313.284	1907
313.374	2457
313.463	2464
313.553	1243
313.643	1029
313.732	1935
313.822	1050
313.912	1325
314.001	1909
314.091	1183
314.180	2791
314.270	2701
314.360	2742
314.449	2308
314.539	1800
314.628	1567
314.718	1837
314.808	1630
314.897	1755
314.987	803
315.076	1371
315.166	2721
315.255	2289
315.345	2528
315.434	2592
315.524	2541
315.613	2143
315.703	2744
315.792	2846
315.881	1993
315.971	2459
316.060	4166
316.150	5659
316.239	5939
316.328	2310
316.418	1880
316.507	1060
316.597	2748
316.686	1974
316.775	2875
316.865	6323
316.954	1507
317.043	658
317.133	941
317.222	933
317.311	1498
317.400	440
317.490	2831
317.579	2114
317.668	1709
317.757	2088
317.847	2841
317.936	3380
318.025	4965
318.114	1857
318.203	2623
318.293	4739
318.382	9008
318.471	7028
318.560	9997
318.649	23193
318.738	5598
318.828	3008
318.917	2422
319.006	3482
319.095	8515
319.184	29577
319.273	15051
319.362	7290
319.451	2039
319.540	1879
319.629	4544
319.718	8130
319.807	4516
319.896	8928
319.985	35774
320.074	12521
320.163	2934
320.252	4329
320.341	3816
320.430	3604
320.519	3915
320.608	2150
320.697	2065
320.786	1766
320.875	3064
320.964	3651
321.053	4476
321.142	6580
321.230	7676
321.319	5286
321.408	14745
321.497	5623
321.586	5037
321.675	6072
321.764	6104
321.852	4521
321.941	7363
322.030	5516
322.119	5235
322.207	14134
322.296	9988
322.385	4407
322.474	4705
322.562	15975
322.651	8834
322.740	5510
322.829	7065
322.917	8533
323.006	4553
323.095	3527
323.183	3262
323.272	5373
323.361	9210
323.449	28952
323.538	9276
323.626	18820
323.715	13152
323.804	5501
323.892	16894
323.981	8859
324.069	3347
324.158	9216
324.246	9281
324.335	3719
324.424	5036
324.512	2018
324.601	2836
324.689	4812
324.778	11031
324.866	5600
324.954	2194
325.043	2351
325.131	3478
325.220	7737
325.308	8116
325.397	5237
325.485	3576
325.574	1113
325.662	859
325.750	1040
325.839	1101
325.927	1238
326.015	1399
326.104	2597
326.192	3263
326.280	1273
326.369	1111
326.457	2766
326.545	4344
326.634	1883
326.722	1482
326.810	1227
326.898	599
326.987	1591
327.075	3351
327.163	4156
327.251	2474
327.340	3670
327.428	4928
327.516	1350
327.604	955
327.692	1399
327.781	1155
327.869	2076
327.957	2076
328.045	1437
328.133	1756
328.221	1659
328.309	1501
328.397	1244
328.485	1844
328.574	3151
328.662	8785
328.750	5410
328.838	1775
328.926	1230
329.014	2007
329.102	2398
329.190	6434
329.278	4042
329.366	867
329.454	1061
329.542	1364
329.630	1814
329.718	1394
329.806	1860
329.893	2686
329.981	3995
330.069	7163
330.157	26606
330.245	81127
330.333	45895
330.421	7022
330.509	4011
330.597	11266
330.684	7115
330.772	2795
330.860	4036
330.948	4792
331.036	2286
331.123	705
331.211	780
331.299	1010
331.387	3934
331.475	7521
331.562	2444
331.650	1554
331.738	1233
331.825	2113
331.913	522
332.001	480
332.089	1903
332.176	3265
332.264	7901
332.352	7849
332.439	1305
332.527	1242
332.614	730
332.702	1443
332.790	1757
332.877	3432
332.965	8138
333.052	2410
333.140	1993
333.228	3511
333.315	1012
333.403	1074
333.490	5043
333.578	3747
333.665	4397
333.753	2528
333.840	709
333.928	1814
334.015	5853
334.103	9874
334.190	34570
334.278	9289
334.365	1853
334.452	992
334.540	998
334.627	1141
334.715	2236
334.802	5121
334.889	31480
334.977	34106
335.064	3694
335.151	1436
335.239	2419
335.326	3512
335.413	17381
335.501	27152
335.588	3536
335.675	2042
335.762	2095
335.850	4356
335.937	3008
336.024	6670
336.111	34863
336.199	13959
336.286	2106
336.373	1131
336.460	916
336.547	599
336.635	1749
336.722	1920
336.809	1128
336.896	2599
336.983	9366
337.070	24981
337.157	40346
337.245	22879
337.332	16342
337.419	1624
337.506	1595
337.593	1846
337.680	6976
337.767	24707
337.854	6321
337.941	6602
338.028	6962
338.115	1906
338.202	3515
338.289	6017
338.376	21088
338.463	7388
338.550	12953
338.637	15667
338.724	4418
338.811	6201
338.898	613
338.984	810
339.071	1182
339.158	2110
339.245	4990
339.332	3861
339.419	3999
339.506	3331
339.593	-49
339.679	1559
339.766	998
339.853	1387
339.940	3436
340.027	1202
340.113	1406
340.200	1636
340.287	1559
340.374	868
340.460	3589
340.547	1162
340.634	2683
340.720	10697
340.807	5951
340.894	1217
340.980	508
341.067	404
341.154	1723
341.240	2098
341.327	5442
341.414	1468
341.500	1755
341.587	983
341.674	1630
341.760	3215
341.847	3334
341.933	1377
342.020	-164
342.106	875
342.193	1324
342.279	2719
342.366	1864
342.452	3854
342.539	1014
342.625	4083
342.712	11938
342.798	4855
342.885	2002
342.971	-400
343.058	945
343.144	765
343.230	875
343.317	894
343.403	2
343.490	606
343.576	287
343.662	699
343.749	1082
343.835	2092
343.921	4100
344.008	30078
344.094	75490
344.180	16346
344.267	4556
344.353	16139
344.439	19134
344.525	5898
344.612	4497
344.698	4404
344.784	2020
344.870	1549
344.957	929
345.043	2572
345.129	236
345.215	3238
345.301	1714
345.387	1534
345.474	310
345.560	366
345.646	843
345.732	1306
345.818	1832
345.904	677
345.990	1165
346.076	563
346.162	2213
346.249	1854
346.335	327
346.421	1409
346.507	6529
346.593	27043
346.679	5887
346.765	1847
346.851	576
346.937	255
347.023	1402
347.108	1006
347.194	751
347.280	195
347.366	1723
347.452	6909
347.538	33134
347.624	23311
347.710	18563
347.796	2649
347.882	1560
347.967	384
348.053	511
348.139	1450
348.225	745
348.311	953
348.397	1172
348.482	1231
348.568	1579
348.654	455
348.740	68
348.825	-151
348.911	3206
348.997	13649
349.083	30971
349.168	5336
349.254	1532
349.340	861
349.425	910
349.511	1453
349.597	1461
349.682	3908
349.768	17004
349.854	8054
349.939	1229
350.025	477
350.110	1536
350.196	223
350.282	165
350.367	853
350.453	1373
350.538	1144
350.624	1328
350.709	1735
350.795	-60
350.880	292
350.966	1765
351.051	2311
351.137	690
351.222	1405
351.308	4203
351.393	14082
351.479	3499
351.564	989
351.649	1308
351.735	642
351.820	278
351.906	774
351.991	791
352.076	7965
352.162	12983
352.247	2064
352.332	1093
352.418	3080
352.503	4744
352.588	19039
352.673	15841
352.759	3171
352.844	1095
352.929	1536
353.014	1507
353.100	1183
353.185	1583
353.270	2685
353.355	3517
353.441	1133
353.526	1359
353.611	3476
353.696	3338
353.781	2581
353.866	420
353.952	1346
354.037	3650
354.122	7292
354.207	6839
354.292	2054
354.377	1157
354.462	229
354.547	862
354.632	1190
354.717	1899
354.802	822
354.887	627
354.972	991
355.057	444
355.142	19
355.227	999
355.312	1667
355.397	5487
355.482	11634
355.567	5982
355.652	5181
355.737	5193
355.822	19099
355.907	16142
355.991	2601
356.076	870
356.161	1889
356.246	174
356.331	1427
356.416	3511
356.501	34300
356.585	37929
356.670	4413
356.755	3124
356.840	3585
356.924	19279
357.009	80303
357.094	30953
357.179	4978
357.263	2917
357.348	3276
357.433	3052
357.517	2293
357.602	1992
357.687	808
357.771	4616
357.856	15879
357.941	9926
358.025	17080
358.110	82604
358.195	39732
358.279	4869
358.364	2645
358.448	10683
358.533	34067
358.617	23781
358.702	25327
358.787	8967
358.871	3808
358.956	3341
359.040	706
359.125	567
359.209	1314
359.294	6219
359.378	13653
359.462	4443
359.547	1889
359.631	600
359.716	532
359.800	1065
359.885	2101
359.969	624
360.053	1319
360.138	1010
360.222	1500
360.306	3134
360.391	4483
360.475	7137
360.559	16631
360.644	11281
360.728	7916
360.812	16937
360.896	54382
360.981	20008
361.065	7668
361.149	2360
361.233	2021
361.318	1054
361.402	1249
361.486	1916
361.570	1132
361.654	1647
361.739	4368
361.823	30433
361.907	54883
361.991	8932
362.075	3235
362.159	7064
362.243	5042
362.327	2820
362.411	3080
362.495	1517
362.580	1876
362.664	1463
362.748	372
362.832	411
362.916	496
363.000	5701
363.084	27004
363.168	60191
363.252	12898
363.336	3816
363.420	5691
363.503	24765
363.587	31815
363.671	4586
363.755	2543
363.839	4089
363.923	1643
364.007	3988
364.091	3669
364.175	6390
364.258	41869
364.342	19652
364.426	6301
364.510	2822
364.594	4664
364.677	8954
364.761	45350
364.845	34818
364.929	8086
365.013	5840
365.096	5058
365.180	5231
365.264	9193
365.347	44842
365.431	19320
365.515	3158
365.598	1171
365.682	2495
365.766	2298
365.849	4110
365.933	1377
366.017	3612
366.100	1760
366.184	560
366.267	2140
366.351	826
366.435	451
366.518	204
366.602	797
366.685	1577
366.769	1051
366.852	2555
366.936	5297
367.019	2794
367.103	1534
367.186	5605
367.270	1236
367.353	-644
367.436	774
367.520	972
367.603	977
367.687	1848
367.770	3675
367.853	3889
367.937	12667
368.020	23034
368.104	3339
368.187	3827
368.270	5796
368.353	4605
368.437	4610
368.520	13187
368.603	8668
368.687	12577
368.770	26845
368.853	5710
368.936	4538
369.020	5365
369.103	1291
369.186	971
369.269	838
369.352	1953
369.436	4168
369.519	2427
369.602	474
369.685	1545
369.768	860
369.851	1346
369.934	347
370.018	1611
370.101	2505
370.184	4169
370.267	2266
370.350	3652
370.433	6358
370.516	21772
370.599	27683
370.682	5021
370.765	12406
370.848	16597
370.931	35008
371.014	13704
371.097	1810
371.180	2167
371.263	1050
371.346	20
371.429	902
371.511	728
371.594	1634
371.677	4141
371.760	5841
371.843	4560
371.926	27898
372.009	73275
372.091	23038
372.174	12414
372.257	35452
372.340	13385
372.423	6442
372.505	9040
372.588	2977
372.671	8955
372.754	32174
372.836	17223
372.919	10840
373.002	24252
373.085	6103
373.167	4675
373.250	12078
373.332	34197
373.415	43303
373.498	96004
373.580	33380
373.663	38649
373.746	58950
373.828	11969
373.911	5147
373.993	4413
374.076	22640
374.159	21896
374.241	8343
374.324	25991
374.406	18759
374.489	25004
374.571	81281
374.654	33645
374.736	12766
374.819	47051
374.901	67787
374.983	72832
375.066	12761
375.148	4169
375.231	17899
375.313	38673
375.395	12178
375.478	2705
375.560	1477
375.643	2874
375.725	11709
375.807	57632
375.890	45488
375.972	13470
376.054	7159
376.136	10966
376.219	4908
376.301	14384
376.383	51255
376.465	19025
376.548	7489
376.630	10949
376.712	41645
376.794	19071
376.877	2015
376.959	255
377.041	1588
377.123	3833
377.205	4704
377.287	589
377.369	1079
377.452	545
377.534	153
377.616	814
377.698	661
377.780	-30
377.862	-64
377.944	1471
378.026	529
378.108	646
378.190	1080
378.272	698
378.354	364
378.436	-337
378.518	529
378.600	8887
378.682	6445
378.764	16983
378.846	14986
378.928	3135
379.010	4282
379.091	2432
379.173	595
379.255	948
379.337	1877
379.419	7276
379.501	27245
379.583	10810
379.664	1471
379.746	4879
379.828	17004
379.910	23923
379.991	22578
380.073	3354
380.155	1299
380.237	1478
380.318	528
380.400	-178
380.482	2369
380.564	4191
380.645	3050
380.727	3357
380.809	3390
380.890	1537
380.972	137
381.053	1501
381.135	1756
381.217	5162
381.298	18582
381.380	8044
381.461	6674
381.543	38465
381.624	50855
381.706	8767
381.787	3564
381.869	4035
381.951	15913
382.032	72267
382.113	45499
382.195	6642
382.276	4284
382.358	9450
382.439	37057
382.521	41701
382.602	69824
382.684	26830
382.765	44707
382.846	39612
382.928	34552
383.009	18286
383.090	13218
383.172	49387
383.253	80669
383.334	32810
383.416	53536
383.497	27786
383.578	6758
383.659	10819
383.741	42373
383.822	126048
383.903	65635
383.984	28626
384.066	62558
384.147	37656
384.228	7020
384.309	3522
384.390	2255
384.471	1748
384.553	2053
384.634	3675
384.715	3895
384.796	1366
384.877	2173
384.958	15232
385.039	19804
385.120	6939
385.201	2986
385.282	3162
385.363	2903
385.444	1756
385.525	6272
385.606	28637
385.687	27763
385.768	5218
385.849	5085
385.930	30564
386.011	62907
386.092	15381
386.173	2790
386.254	2647
386.335	1700
386.416	2103
386.496	9024
386.577	18066
386.658	5571
386.739	2100
386.820	3259
386.901	1599
386.981	1541
387.062	649
387.143	2037
387.224	15419
387.304	17371
387.385	4765
387.466	1138
387.547	3399
387.627	1373
387.708	5746
387.789	32226
387.869	43733
387.950	11537
388.031	1307
388.111	-970
388.192	4774
388.273	7084
388.353	3143
388.434	1495
388.514	5323
388.595	35182
388.676	45305
388.756	18354
388.837	15151
388.917	8771
388.998	383
389.078	1349
389.159	1133
389.239	-110
389.320	2479
389.400	1285
389.480	6301
389.561	20194
389.641	10963
389.722	2612
389.802	2824
389.883	6910
389.963	26760
390.043	15572
390.124	3030
390.204	5292
390.284	18422
390.365	12122
390.445	13227
390.525	35600
390.605	32370
390.686	10127
390.766	3384
390.846	1389
390.927	549
391.007	0
391.087	1867
391.167	871
391.247	-102
391.328	1542
391.408	3985
391.488	3246
391.568	-381
391.648	1148
391.728	2493
391.808	2791
391.888	1897
391.969	9089
392.049	18507
392.129	6943
392.209	7474
392.289	23509
392.369	12297
392.449	8691
392.529	4011
392.609	3210
392.689	4801
392.769	21291
392.849	19781
392.929	9793
393.009	30017
393.089	19782
393.169	5959
393.248	12217
393.328	87812
393.408	104222
393.488	18290
393.568	3777
393.648	2690
393.728	1123
393.807	823
393.887	2155
393.967	2054
394.047	2491
394.127	5021
394.206	8434
394.286	34839
394.366	170378
394.446	195339
394.525	43535
394.605	9102
394.685	6649
394.764	13599
394.844	21188
394.924	15127
395.003	3941
395.083	2641
395.163	1418
395.242	1976
395.322	2968
395.402	267
395.481	3842
395.561	7767
395.640	26414
395.720	17658
395.799	29089
395.879	25095
395.958	14503
396.038	52079
396.117	224076
396.197	257500
396.276	73141
396.356	19787
396.435	11657
396.515	6935
396.594	5113
396.673	6835
396.753	20235
396.832	85676
396.912	73274
396.991	18566
397.070	3638
397.150	1434
397.229	2081
397.308	528
397.388	1340
397.467	1283
397.546	1065
397.625	-1316
397.705	2626
397.784	1301
397.863	1002
397.942	670
398.022	417
398.101	6802
398.180	25788
398.259	13825
398.338	2239
398.417	919
398.497	551
398.576	1640
398.655	-556
398.734	448
398.813	575
398.892	6737
398.971	28220
399.050	14277
399.129	291
399.208	-27
399.287	266
399.366	-113
399.445	-550
399.524	57
399.603	-627
399.682	951
399.761	6029
399.840	30465
399.919	25903
399.998	1785
400.077	-322
400.156	-240
400.235	1661
400.313	370
400.392	724
400.471	7696
400.550	13904
400.629	2434
400.708	1053
400.786	1257
400.865	4193
400.944	4080
401.023	2536
401.102	-341
401.180	182
401.259	-218
401.338	65
401.416	1694
401.495	-227
401.574	431
401.652	-271
401.731	885
401.810	-866
401.888	222
401.967	75
402.046	69
402.124	863
402.203	814
402.281	259
402.360	869
402.438	5820
402.517	3856
402.596	1134
402.674	-48
402.753	258
402.831	101
402.910	981
402.988	1067
403.066	7017
403.145	5629
403.223	2830
403.302	5945
403.380	4374
403.459	3379
403.537	1576
403.615	870
403.694	-539
403.772	310
403.850	-154
403.929	16
404.007	-503
404.085	1583
404.164	-89
404.242	242
404.320	6306
404.398	26743
404.477	27979
404.555	52770
404.633	50886
404.711	21410
404.789	12527
404.868	2031
404.946	602
405.024	371
405.102	-280
405.180	-660
405.258	-1166
405.336	661
405.415	-347
405.493	1903
405.571	699
405.649	-410
405.727	-986
405.805	1372
405.883	848
405.961	950
406.039	800
406.117	-597
406.195	1164
406.273	8389
406.351	41086
406.429	25688
406.507	2450
406.585	340
406.663	463
406.740	1013
406.818	-252
406.896	-65
406.974	924
407.052	1334
407.130	22624
407.208	33420
407.285	6027
407.363	256
407.441	-440
407.519	162
407.596	425
407.674	2003
407.752	4991
407.830	7028
407.907	3419
407.985	-474
408.063	158
408.141	-1001
408.218	1448
408.296	291
408.373	-316
408.451	146
408.529	503
408.606	-439
408.684	-340
408.762	-163
408.839	-1314
408.917	-719
408.994	-336
409.072	-711
409.149	-229
409.227	-238
409.304	256
409.382	-30
409.459	-1148
409.537	392
409.614	85
409.692	-544
409.769	-1959
409.846	209
409.924	19
410.001	-430
410.079	-352
410.156	559
410.233	405
410.311	-178
410.388	-669
410.465	23
410.543	-678
410.620	356
410.697	-490
410.775	16
410.852	-647
410.929	255
411.006	854
411.083	-740
411.161	1521
411.238	1973
411.315	580
411.392	-381
411.469	482
411.547	1013
411.624	-874
411.701	-18
411.778	-200
411.855	921
411.932	-84
412.009	-5
412.086	789
412.163	-375
412.240	59
412.317	832
412.394	-340
412.471	-217
412.548	-724
412.625	-56
412.702	271
412.779	1318
412.856	1921
412.933	-752
413.010	83
413.087	703
413.164	7108
413.241	11970
413.318	2036
413.395	1421
413.471	828
413.548	450
413.625	257
413.702	-762
413.779	153
413.855	-428
413.932	-947
414.009	-780
414.086	-306
414.162	-101
414.239	373
414.316	7089
414.393	18119
414.469	5471
414.546	-180
414.623	-526
414.699	-206
414.776	-201
414.853	-1031
414.929	234
415.006	-418
415.082	-70
415.159	-73
415.236	621
415.312	85
415.389	1327
415.465	1282
415.542	724
415.618	-1186
415.695	848
415.771	-59
415.848	-229
415.924	-82
416.000	94
416.077	493
416.153	-1245
416.230	-1504
416.306	-544
416.383	-254
416.459	118
416.535	-838
416.612	-511
416.688	-920
416.764	-388
416.841	-304
416.917	-102
416.993	-352
417.069	305
417.146	480
417.222	2060
417.298	-96
417.374	-583
417.451	730
417.527	192
417.603	-411
417.679	176
417.755	-23
417.831	-932
417.908	435
417.984	-280
418.060	-1028
418.136	1825
418.212	1625
418.288	-156
418.364	193
418.440	-827
418.516	596
418.592	1249
418.668	2553
418.744	3576
418.820	3559
418.896	-81
418.972	-720
419.048	8
419.124	1881
419.200	737
419.276	509
419.352	-997
419.428	-400
419.504	-682
419.579	268
419.655	-196
419.731	617
419.807	2671
419.883	4496
419.959	2901
420.034	-103
420.110	1649
420.186	10035
420.262	9813
420.337	697
420.413	153
420.489	177
420.565	59
420.640	-625
420.716	586
420.792	-1089
420.867	570
420.943	-844
421.019	303
421.094	-620
421.170	-234
421.245	-1364
421.321	-97
421.397	-1142
421.472	380
421.548	1961
421.623	2443
421.699	737
421.774	-152
421.850	-1085
421.925	887
422.001	505
422.076	-571
422.152	1
422.227	253
422.302	1807
422.378	778
422.453	1623
422.529	6266
422.604	34977
422.679	100219
422.755	53859
422.830	9145
422.905	2076
422.981	438
423.056	19
423.131	553
423.207	-77
423.282	-574
423.357	1722
423.432	404
423.508	139
423.583	3171
423.658	2306
423.733	119
423.808	137
423.883	931
423.959	319
424.034	-402
424.109	103
424.184	-498
424.259	-1008
424.334	293
424.409	-54
424.484	-195
424.559	-300
424.634	-834
424.709	-269
424.784	1174
424.859	-164
424.934	478
425.009	6336
425.084	12680
425.159	4706
425.234	1470
425.309	-911
425.384	2573
425.459	6907
425.534	2308
425.609	-251
425.683	-164
425.758	-471
425.833	-382
425.908	565
425.983	1515
426.058	13049
426.132	5326
426.207	386
426.282	1923
426.357	-277
426.431	-603
426.506	-429
426.581	-526
426.655	-75
426.730	-341
426.805	-913
426.879	523
426.954	-54
427.029	1136
427.103	11360
427.178	36596
427.253	18089
427.327	1956
427.402	1508
427.476	7930
427.551	3920
427.625	755
427.700	764
427.774	-490
427.849	530
427.923	-393
427.998	-766
428.072	-450
428.147	1077
428.221	2972
428.296	7873
428.370	2837
428.444	-310
428.519	1145
428.593	3354
428.667	4036
428.742	3916
428.816	3903
428.890	8010
428.965	13515
429.039	6999
429.113	5222
429.188	1769
429.262	108
429.336	525
429.410	5493
429.485	3502
429.559	4112
429.633	2433
429.707	-377
429.781	1123
429.855	9529
429.930	16180
430.004	12877
430.078	24439
430.152	19885
430.226	11562
430.300	12375
430.374	1434
430.448	1058
430.522	6389
430.596	25220
430.670	16773
430.744	20529
430.818	40679
430.892	10870
430.966	1334
431.040	-233
431.114	-909
431.188	-974
431.262	-135
431.336	-858
431.410	1984
431.484	5621
431.557	4458
431.631	-155
431.705	-873
431.779	-206
431.853	4458
431.927	3661
432.000	156
432.074	521
432.148	-503
432.222	413
432.295	-706
432.369	-831
432.443	326
432.516	12086
432.590	39836
432.664	17171
432.737	1196
432.811	-307
432.885	-559
432.958	-194
433.032	-415
433.106	-587
433.179	-503
433.253	-868
433.326	-1011
433.400	-411
433.473	-1252
433.547	-1243
433.620	-111
433.694	32
433.767	1333
433.841	-520
433.914	74
433.988	-797
434.061	-266
434.134	-1095
434.208	-940
434.281	-1004
434.355	-745
434.428	-192
434.501	53
434.575	-757
434.648	-541
434.721	-663
434.795	-1428
434.868	-1180
434.941	-1227
435.014	-1455
435.088	-781
435.161	-449
435.234	441
435.307	1117
435.381	-151
435.454	-726
435.527	-715
435.600	-1129
435.673	-479
435.746	-418
435.819	-918
435.892	-521
435.966	-1163
436.039	-57
436.112	116
436.185	-659
436.258	-1084
436.331	-1433
436.404	-546
436.477	-952
436.550	-873
436.623	-478
436.696	-1084
436.769	-599
436.842	-197
436.915	187
436.987	-295
437.060	-748
437.133	-213
437.206	-619
437.279	28
437.352	-1036
437.425	-782
437.498	-249
437.570	602
437.643	1652
437.716	-912
437.789	-249
437.861	358
437.934	4830
438.007	2040
438.080	13
438.152	227
438.225	1951
438.298	17893
438.370	62519
438.443	31904
438.516	6994
438.588	-147
438.661	-632
438.734	-523
438.806	-819
438.879	315
438.951	-644
439.024	2674
439.096	828
439.169	-615
439.241	-545
439.314	-1016
439.386	-162
439.459	1231
439.531	1765
439.604	460
439.676	-180
439.749	-888
439.821	-958
439.893	-85
439.966	9
440.038	-64
440.110	108
440.183	-245
440.255	-933
440.327	1254
440.400	5891
440.472	35458
440.544	30546
440.617	4260
440.689	1956
440.761	1812
440.833	3998
440.905	3231
440.978	-132
441.050	-109
441.122	-782
441.194	-943
441.266	-338
441.338	-486
441.411	365
441.483	8842
441.555	17724
441.627	5413
441.699	1226
441.771	1701
441.843	-404
441.915	-1417
441.987	-649
442.059	-1058
442.131	-35
442.203	290
442.275	869
442.347	435
442.419	159
442.491	1670
442.563	4239
442.635	4592
442.706	6062
442.778	7562
442.850	1238
442.922	-827
442.994	-331
443.066	761
443.137	791
443.209	-541
443.281	-227
443.353	1130
443.425	3586
443.496	9360
443.568	11377
443.640	3771
443.711	671
443.783	-472
443.855	-512
443.926	-525
443.998	-574
444.070	254
444.141	247
444.213	1250
444.285	1489
444.356	238
444.428	493
444.499	-1108
444.571	-884
444.642	-732
444.714	-579
444.785	419
444.857	1367
444.928	4246
445.000	3694
445.071	2460
445.143	3310
445.214	1388
445.285	1432
445.357	6916
445.428	11518
445.500	23355
445.571	21545
445.642	8871
445.714	5173
445.785	9595
445.856	3338
445.928	1572
445.999	1362
446.070	1364
446.141	439
446.213	1948
446.284	902
446.355	-34
446.426	290
446.497	460
446.569	798
446.640	1922
446.711	2251
446.782	-315
446.853	317
446.924	243
446.995	-189
447.066	624
447.138	1530
447.209	1040
447.280	-685
447.351	-609
447.422	-616
447.493	-70
447.564	436
447.635	1425
447.706	336
447.777	-651
447.847	-215
447.918	-720
447.989	63
448.060	767
448.131	2899
448.202	4241
448.273	2632
448.344	708
448.414	890
448.485	505
448.556	-39
448.627	-230
448.698	488
448.768	-1228
448.839	-34
448.910	1260
448.981	2049
449.051	406
449.122	-48
449.193	310
449.263	-425
449.334	-520
449.405	855
449.475	2957
449.546	2913
449.616	1845
449.687	2462
449.758	691
449.828	716
449.899	400
449.969	54
450.040	146
450.110	558
450.181	775
450.251	-554
450.322	-56
450.392	-171
450.463	-39
450.533	6
450.604	331
450.674	-165
450.744	-428
450.815	110
450.885	519
450.955	-182
451.026	-685
451.096	-662
451.166	469
451.237	1350
451.307	7399
451.377	4436
451.447	297
451.518	194
451.588	61
451.658	1061
451.728	966
451.799	6855
451.869	10405
451.939	2787
452.009	366
452.079	227
452.149	615
452.219	1839
452.289	8281
452.360	9000
452.430	2389
452.500	1329
452.570	1050
452.640	1132
452.710	3890
452.780	8188
452.850	6892
452.920	6158
452.990	3242
453.060	1662
453.129	2166
453.199	2333
453.269	8627
453.339	28569
453.409	48563
453.479	36210
453.549	56870
453.619	61947
453.688	35439
453.758	5722
453.828	1317
453.898	576
453.968	961
454.037	445
454.087	415
454.107	395
454.168	408
454.177	398
454.247	995
454.249	951
454.316	-398
454.330	-154
454.386	738
454.411	1749
454.456	3232
454.492	5414
454.525	7338
454.574	5017
454.595	4035
454.655	1528
454.665	1141
454.734	1089
454.736	1151
454.804	2620
454.817	3652
454.873	7321
454.898	9145
454.943	12248
454.979	8158
455.013	4534
455.060	2388
455.082	1581
455.141	1985
455.152	2047
455.221	6145
455.222	6307
455.291	15920
455.303	16529
455.360	17856
455.384	23548
455.430	30979
455.465	26623
455.499	23092
455.546	14076
455.569	9904
455.627	7927
455.638	7654
455.707	2246
455.708	2247
455.777	-243
455.789	-21
455.846	1221
455.869	949
455.916	427
455.950	752
455.985	984
456.031	579
456.054	357
456.112	895
456.124	1024
456.193	476
456.193	462
456.262	860
456.274	1075
456.332	1967
456.355	1977
456.401	1674
456.436	1207
456.470	920
456.516	744
456.540	579
456.597	-421
456.609	-587
456.678	932
456.678	929
456.747	64
456.759	58
456.817	164
456.840	222
456.886	155
456.920	285
456.955	470
457.001	325
457.024	296
457.082	564
457.093	624
457.162	1658
457.163	1674
457.232	1573
457.243	1554
457.301	983
457.324	594
457.370	243
457.405	717
457.439	1275
457.485	892
457.508	632
457.566	883
457.577	924
457.646	806
457.647	816
457.715	1641
457.727	1674
457.784	1780
457.808	1792
457.853	1630
457.889	2078
457.922	2372
457.969	2005
457.991	1982
458.050	2343
458.060	2385
458.129	2554
458.130	2573
458.198	2322
458.211	2143
458.267	1298
458.292	924
458.336	590
458.372	988
458.405	1732
458.453	2121
458.474	2075
458.533	2480
458.543	2610
458.611	3776
458.614	3835
458.680	3309
458.694	3012
458.749	2475
458.775	1947
458.818	1124
458.855	1140
458.887	1157
458.936	732
458.955	704
459.016	1317
459.024	1369
459.093	1715
459.097	1704
459.162	1057
459.177	1130
459.230	2083
459.257	2297
459.299	2188
459.338	2165
459.368	2113
459.418	2447
459.437	2475
459.499	2471
459.505	2507
459.574	1759
459.579	1755
459.643	1288
459.659	1120
459.711	1275
459.740	1484
459.780	1328
459.820	1481
459.849	1827
459.900	2227
459.917	2291
459.981	2687
459.986	2688
460.054	2439
460.061	2423
460.123	2296
460.141	2182
460.191	2858
460.222	3409
460.260	3574
460.302	3841
460.328	3553
460.382	3201
460.397	3123
460.462	1957
460.465	1990
460.534	3359
460.543	3493
460.602	7154
460.623	8735
460.671	14258
460.703	19981
460.739	19818
460.783	19126
460.808	17855
460.864	6299
460.876	5147
460.944	2465
460.945	2431
461.013	2290
461.024	2222
461.081	2025
461.104	2176
461.150	2317
461.184	2361
461.218	2390
461.264	2285
461.286	2360
461.345	2679
461.355	2639
461.423	2441
461.425	2419
461.491	1910
461.505	1970
461.559	3899
461.585	4816
461.628	8466
461.665	12267
461.696	13782
461.745	17139
461.764	15473
461.825	7419
461.832	7263
461.901	2847
461.905	2771
461.969	2166
461.985	2049
462.037	2490
462.065	2667
462.105	2609
462.145	2772
462.173	4145
462.225	6186
462.241	6791
462.305	10932
462.310	10687
462.378	6456
462.385	5720
462.446	3799
462.465	3309
462.514	2397
462.545	2302
462.582	2529
462.625	2533
462.650	2396
462.705	2338
462.718	2423
462.785	2645
462.786	2662
462.854	3747
462.865	3961
462.922	5236
462.945	5800
462.990	4312
463.025	2854
463.058	2561
463.104	2096
463.126	1967
463.184	1572
463.194	1630
463.262	2551
463.264	2566
463.330	2197
463.344	2203
463.398	3138
463.424	3483
463.466	3272
463.504	3219
463.533	3324
463.583	3290
463.601	3183
463.663	2795
463.669	2928
463.737	4512
463.743	4675
463.805	7101
463.823	7776
463.873	11569
463.903	14015
463.940	15274
463.982	17352
464.008	14597
464.062	7232
464.076	6688
464.142	3033
464.144	3014
464.211	3277
464.221	3353
464.279	3348
464.301	3493
464.347	3485
464.381	3313
464.414	3747
464.461	4512
464.482	4988
464.540	6180
464.550	5912
464.617	3797
464.620	3723
464.685	4540
464.699	4675
464.753	5514
464.779	6114
464.820	6576
464.859	6912
464.888	6983
464.938	6973
464.956	6981
465.018	6953
465.023	6877
465.091	5668
465.098	5555
465.158	5330
465.177	5250
465.226	5841
465.257	6209
465.293	5986
465.336	5703
465.361	6032
465.416	6742
465.428	7340
465.495	10756
465.496	10800
465.563	15100
465.575	15896
465.631	20210
465.654	22214
465.698	14652
465.734	7808
465.765	7173
465.813	5844
465.833	5569
465.893	5410
465.900	5405
465.968	5355
465.972	5341
466.035	4741
466.052	4584
466.102	5662
466.131	6245
466.170	5721
466.210	5213
466.237	5720
466.290	6690
466.304	6733
466.369	6794
466.372	6824
466.439	7513
466.449	7618
466.506	8056
466.528	8168
466.573	10181
466.607	11700
466.641	16601
466.687	23370
466.708	26194
466.766	34160
466.775	31788
466.842	13542
466.845	12654
466.909	10159
466.925	9598
466.977	9041
467.004	8810
467.044	8677
467.083	8528
467.111	9158
467.163	10341
467.178	10621
467.242	11718
467.245	11647
467.312	9910
467.321	9669
467.379	9168
467.400	8971
467.446	9603
467.480	10042
467.559	10408
467.638	7764
467.717	7340
467.796	8937
467.875	10141
467.955	9135
468.034	12465
468.113	24736
468.192	38886
468.271	11017
468.350	6516
468.429	6781
468.508	6142
468.588	6392
468.667	6905
468.746	7144
468.825	7794
468.904	5668
468.983	6900
469.062	11463
469.141	14087
469.220	6085
469.299	6412
469.378	6703
469.456	9524
469.535	8405
469.614	7303
469.693	7197
469.772	10502
469.851	12621
469.930	9181
470.009	6558
470.088	7006
470.166	7883
470.245	9949
470.324	11606
470.403	8792
470.482	7692
470.560	6924
470.639	6967
470.718	8642
470.797	7499
470.875	7637
470.954	9533
471.033	10951
471.111	5636
471.190	5397
471.269	4979
471.347	5204
471.426	5235
471.505	6403
471.583	7548
471.662	6884
471.740	6594
471.819	6433
471.898	5512
471.976	6669
472.055	5930
472.133	7445
472.212	9143
472.290	8296
472.369	5775
472.447	5656
472.526	4723
472.604	6402
472.683	5981
472.761	6436
472.839	5505
472.918	5266
472.996	5488
473.075	6946
473.153	6736
473.231	5268
473.310	6090
473.388	6645
473.466	5291
473.545	7951
473.623	9802
473.701	8421
473.780	5843
473.858	4633
473.936	6194
474.014	5462
474.093	6982
474.171	9123
474.249	12985
474.327	8521
474.405	4801
474.484	4813
474.562	4835
474.640	5849
474.718	5648
474.796	6811
474.874	5130
474.952	5000
475.030	4558
475.108	5825
475.187	6729
475.265	6925
475.343	6405
475.421	7786
475.499	4862
475.577	6061
475.655	7793
475.733	13305
475.811	25227
475.889	21655
475.966	15705
476.044	6847
476.122	5104
476.200	5936
476.278	4554
476.356	4708
476.434	5453
476.512	4652
476.590	5723
476.667	6442
476.745	3987
476.823	5737
476.901	4645
476.979	4679
477.056	4268
477.134	5541
477.212	5561
477.290	5256
477.367	4205
477.445	4575
477.523	4186
477.601	4546
477.678	3974
477.756	4900
477.834	6003
477.911	4613
477.989	4523
478.066	3908
478.144	5251
478.222	5004
478.299	5381
478.377	5679
478.454	4129
478.532	4406
478.609	3787
478.687	4984
478.764	3823
478.842	5400
478.919	5584
478.997	4574
479.074	3778
479.152	5892
479.229	6220
479.307	4717
479.384	3191
479.461	3262
479.539	3473
479.616	5367
479.694	4753
479.771	5539
479.848	5228
479.926	6467
480.003	8387
480.080	4828
480.157	3555
480.235	2899
480.312	3678
480.389	4399
480.467	7595
480.544	10215
480.621	4782
480.698	4963
480.775	4642
480.853	5862
480.930	3358
481.007	4539
481.084	5027
481.161	5022
481.238	5344
481.315	3658
481.392	3275
481.470	3252
481.547	3317
481.624	3704
481.701	3830
481.778	4502
481.855	4446
481.932	6226
482.009	11770
482.086	8808
482.163	2812
482.240	4637
482.317	5093
482.393	4744
482.470	3647
482.547	4012
482.624	3091
482.701	4711
482.778	2935
482.855	3108
482.932	3287
483.009	2397
483.085	3711
483.162	4334
483.239	3753
483.316	3625
483.393	3872
483.469	2313
483.546	3964
483.623	4824
483.699	2558
483.776	4114
483.853	4422
483.930	7801
484.006	17785
484.083	33960
484.160	19918
484.236	27923
484.313	22683
484.389	16378
484.466	13803
484.543	12983
484.619	12522
484.696	13504
484.772	14193
484.849	14959
484.925	12380
485.002	13036
485.078	13592
485.155	13634
485.231	12297
485.308	12826
485.384	12941
485.461	13682
485.537	21344
485.614	27247
485.690	13001
485.766	11150
485.843	12323
485.919	16016
485.995	17939
486.072	11116
486.148	10006
486.224	10434
486.301	11450
486.377	11399
486.453	12856
486.530	11983
486.606	16324
486.682	18559
486.758	21003
486.835	23760
486.911	18159
486.987	28244
487.063	32877
487.139	39263
487.215	27118
487.292	14938
487.368	11465
487.444	11994
487.520	14192
487.596	12211
487.672	12415
487.748	17373
487.824	21228
487.900	13765
487.976	10478
488.052	11385
488.128	13594
488.204	12575
488.280	10979
488.356	14019
488.432	23228
488.508	39252
488.584	15080
488.660	10571
488.736	9595
488.812	10910
488.888	14416
488.964	18431
489.039	34994
489.115	57354
489.191	36662
489.267	11550
489.343	10467
489.418	9425
489.494	8521
489.570	7766
489.646	9449
489.722	9303
489.797	8555
489.873	12567
489.949	27132
490.024	25345
490.100	9221
490.176	8293
490.251	10815
490.327	13701
490.403	8093
490.478	7830
490.554	6757
490.629	7218
490.705	6450
490.781	8436
490.856	7151
490.932	8978
491.007	8941
491.083	8945
491.158	7917
491.234	9513
491.309	19380
491.385	21934
491.460	7101
491.536	8942
491.611	7817
491.686	8748
491.762	11880
491.837	22553
491.913	39494
491.988	52454
492.063	72854
492.139	19433
492.214	11784
492.289	7279
492.365	6336
492.440	8997
492.515	7227
492.590	7270
492.666	5569
492.741	8720
492.816	12491
492.891	7336
492.967	6159
493.042	7387
493.117	8118
493.192	8902
493.267	16637
493.342	63777
493.418	99238
493.493	15320
493.568	5352
493.643	5738
493.718	8021
493.793	9851
493.868	12752
493.943	8097
494.018	6589
494.093	4645
494.168	5128
494.243	5804
494.318	4176
494.393	5245
494.468	4357
494.543	5299
494.618	5415
494.693	4708
494.768	4768
494.842	4715
494.917	4736
494.992	5167
495.067	4840
495.142	4845
495.217	5213
495.292	5478
495.366	6677
495.441	7605
495.516	9988
495.591	13112
495.665	44892
495.740	117571
495.815	51375
495.890	7853
495.964	5127
496.039	7247
496.114	6275
496.188	6649
496.263	6674
496.338	5635
496.412	5455
496.487	8832
496.561	8284
496.636	9745
496.710	6651
496.785	7611
496.860	9560
496.934	6640
497.009	7260
497.083	7150
497.158	7262
497.232	7721
497.307	11293
497.381	9501
497.455	11599
497.530	15107
497.604	11508
497.679	12074
497.753	18342
497.827	25338
497.902	24793
497.976	27846
498.050	50232
498.125	191220
498.199	216379
498.273	39514
498.348	28109
498.422	23379
498.496	20219
498.570	19033
498.645	14493
498.719	13560
498.793	15836
498.867	22075
498.941	26635
499.016	69345
499.090	207422
499.164	80802
499.238	10609
499.312	7569
499.386	10583
499.460	9744
499.534	8409
499.609	9920
499.683	15204
499.757	15603
499.831	28939
499.905	126858
499.979	134567
500.053	19310
500.127	17443
500.201	13988
500.275	7782
500.349	8361
500.422	9133
500.496	13880
500.570	28887
500.644	67727
500.718	138141
500.792	32765
500.866	7868
500.940	9859
501.013	8727
501.087	8379
501.161	15812
501.235	18907
501.309	38462
501.382	109824
501.456	107415
501.530	22134
501.603	35480
501.677	14913
501.751	5301
501.825	8257
501.898	13836
501.972	43284
502.046	28107
502.119	8332
502.193	17772
502.266	47558
502.340	23479
502.413	19398
502.487	41057
502.561	24384
502.634	7604
502.708	5865
502.781	4235
502.855	4576
502.928	3275
503.002	4172
503.075	3612
503.149	4878
503.222	3750
503.295	5308
503.369	6935
503.442	9453
503.516	27915
503.589	81379
503.662	54398
503.736	15672
503.809	35138
503.882	30603
503.956	40631
504.029	38768
504.102	12989
504.175	13029
504.249	5342
504.322	6030
504.395	5391
504.468	4570
504.542	3854
504.615	2759
504.688	3486
504.761	2273
504.834	4740
504.907	6610
504.980	9775
505.053	5147
505.127	3991
505.200	8290
505.273	6707
505.346	3739
505.419	2655
505.492	3759
505.565	2305
505.638	2748
505.711	1976
505.784	2470
505.857	1682
505.930	4199
506.003	2034
506.076	4454
506.149	4528
506.221	6160
506.294	6344
506.367	14573
506.440	58117
506.513	34090
506.586	6654
506.659	3533
506.731	3787
506.804	3865
506.877	6354
506.950	3962
507.022	3227
507.095	3804
507.168	6312
507.241	4105
507.313	2301
507.386	3023
507.459	5182
507.531	3847
507.604	2308
507.677	3216
507.749	1487
507.822	4878
507.894	9364
507.967	13493
508.040	6505
508.112	6090
508.185	5263
508.257	4934
508.330	7749
508.402	4721
508.475	4081
508.547	5599
508.620	4500
508.692	7774
508.765	4780
508.837	3656
508.909	4199
508.982	3895
509.054	4475
509.127	4010
509.199	2743
509.271	3236
509.344	2574
509.416	3484
509.488	3020
509.560	3814
509.633	3877
509.705	6000
509.777	5660
509.849	8491
509.922	4727
509.994	4418
510.066	4645
510.138	3806
510.210	11061
510.283	9687
510.355	8347
510.427	6206
510.499	5251
510.571	6147
510.643	5107
510.715	9087
510.787	7070
510.859	6725
510.931	6206
511.003	8879
511.076	7930
511.148	5452
511.219	5071
511.291	8620
511.363	10438
511.435	4524
511.507	4387
511.579	5286
511.651	4520
511.723	4747
511.795	4487
511.867	4260
511.939	6051
512.010	11059
512.082	9768
512.154	4122
512.226	5467
512.298	8638
512.369	11407
512.441	9150
512.513	8741
512.585	5777
512.656	7223
512.728	5894
512.800	5332
512.871	5382
512.943	5960
513.015	4967
513.086	5855
513.158	5780
513.230	4762
513.301	9026
513.373	11207
513.444	6874
513.516	4896
513.588	4684
513.659	6206
513.731	7263
513.802	5522
513.874	12682
513.945	23869
514.016	7135
514.088	4409
514.159	6282
514.231	7817
514.302	10641
514.374	7809
514.445	6919
514.516	13864
514.588	10299
514.659	6913
514.730	11614
514.802	10399
514.873	8135
514.944	10167
515.016	7854
515.087	6516
515.158	8881
515.229	13012
515.301	8383
515.372	12670
515.443	6936
515.514	6146
515.585	3401
515.656	5953
515.728	5179
515.799	4588
515.870	5524
515.941	6033
516.012	5882
516.083	8147
516.154	8134
516.225	11406
516.296	10248
516.367	8142
516.438	9128
516.509	11119
516.580	14963
516.651	38759
516.722	146624
516.793	75800
516.864	16473
516.935	14733
517.006	17544
517.077	21287
517.148	46069
517.219	146549
517.289	259885
517.360	79179
517.431	29129
517.502	7950
517.573	7392
517.643	6661
517.714	8271
517.785	9120
517.856	8577
517.926	11376
517.997	13412
518.068	15375
518.138	22391
518.209	28173
518.280	95233
518.350	396679
518.421	159308
518.492	17873
518.562	9684
518.633	8130
518.703	5610
518.774	8909
518.845	11498
518.915	11366
518.986	8322
519.056	9881
519.127	18975
519.197	27058
519.268	62061
519.338	43000
519.408	10030
519.479	11983
519.549	9278
519.620	7338
519.690	4621
519.760	5209
519.831	6516
519.901	5128
519.971	3965
520.042	3758
520.112	6027
520.182	6648
520.253	7685
520.323	4927
520.393	7602
520.463	13720
520.534	7375
520.604	19755
520.674	9143
520.744	7734
520.814	20080
520.885	19961
520.955	17738
521.025	73932
521.095	30668
521.165	7332
521.235	4742
521.305	3993
521.375	3920
521.445	4983
521.515	6768
521.585	7064
521.655	5729
521.725	5991
521.795	5833
521.865	2808
521.935	7256
522.005	5169
522.075	4350
522.145	4211
522.215	4769
522.285	7061
522.355	9783
522.424	18354
522.494	16444
522.564	8516
522.634	16399
522.704	49144
522.774	20166
522.843	4993
522.913	4702
522.983	5837
523.053	4613
523.122	4686
523.192	6242
523.262	25487
523.331	26801
523.401	5365
523.471	3513
523.540	4244
523.610	2932
523.680	2919
523.749	2748
523.819	4607
523.888	3984
523.958	2207
524.027	3759
524.097	3923
524.166	3569
524.236	3218
524.305	5536
524.375	2742
524.444	2506
524.514	3619
524.583	3382
524.653	4014
524.722	5351
524.791	2152
524.861	4447
524.930	2045
524.999	2938
525.069	5355
525.138	3469
525.207	4490
525.277	4160
525.346	2981
525.415	3921
525.484	2549
525.554	3658
525.623	3365
525.692	2980
525.761	3383
525.830	2923
525.900	1611
525.969	5018
526.038	4445
526.107	4188
526.176	12384
526.245	9702
526.314	8416
526.383	11033
526.452	8658
526.522	19124
526.591	23918
526.660	24592
526.729	11470
526.797	11205
526.867	23718
526.935	121415
527.004	104981
527.073	36927
527.142	5418
527.211	4703
527.280	5239
527.349	5290
527.418	1537
527.487	3497
527.555	1614
527.624	2269
527.693	896
527.762	2915
527.831	1380
527.899	2947
527.968	2114
528.037	1718
528.106	3907
528.174	7670
528.243	6440
528.312	8845
528.380	12372
528.449	3265
528.518	3230
528.586	573
528.655	2661
528.723	1728
528.792	1752
528.861	2228
528.929	-106
528.998	2358
529.066	1876
529.135	2476
529.203	705
529.272	987
529.340	2715
529.409	2811
529.477	1001
529.545	2904
529.614	4876
529.682	2582
529.751	4656
529.819	6624
529.887	3428
529.956	2021
530.024	2769
530.092	1541
530.161	2876
530.229	5792
530.297	2293
530.365	3117
530.434	2396
530.502	536
530.570	1840
530.638	576
530.707	2235
530.775	3377
530.843	1467
530.911	1380
530.979	1934
531.047	1821
531.115	1665
531.183	1135
531.252	2076
531.320	2168
531.388	368
531.456	2383
531.524	643
531.592	2307
531.660	2729
531.728	927
531.796	866
531.864	2199
531.932	1862
532.000	1247
532.067	2049
532.135	2640
532.203	4123
532.271	3189
532.339	6911
532.407	20939
532.475	12567
532.542	6262
532.610	5369
532.678	6849
532.746	31637
532.814	98271
532.881	23599
532.949	4741
533.017	3251
533.084	2639
533.152	1916
533.220	2770
533.287	1961
533.355	2878
533.423	2281
533.490	1501
533.558	1468
533.625	2996
533.693	3238
533.761	2762
533.828	2985
533.896	2604
533.963	7006
534.031	9759
534.098	11886
534.166	4530
534.233	2147
534.300	3502
534.368	3682
534.435	2944
534.503	2448
534.570	3922
534.637	1845
534.705	2343
534.772	2480
534.840	1838
534.907	5733
534.974	7598
535.041	2220
535.109	3647
535.176	1505
535.243	3420
535.310	2033
535.378	1912
535.445	1002
535.512	2256
535.579	2006
535.646	1806
535.714	1396
535.781	3520
535.848	3150
535.915	4041
535.982	3654
536.049	3430
536.116	3909
536.183	2713
536.250	2632
536.317	2441
536.384	3900
536.451	6714
536.518	5648
536.585	2522
536.652	5813
536.719	9382
536.786	5154
536.853	4867
536.920	7746
536.987	12451
537.053	9984
537.120	43560
537.187	41792
537.254	3048
537.321	2110
537.388	3891
537.454	1694
537.521	1202
537.588	1336
537.654	3157
537.721	3288
537.788	3450
537.855	1883
537.921	2144
537.988	2791
538.055	3568
538.121	2803
538.188	3166
538.254	4434
538.321	13662
538.388	7822
538.454	2925
538.521	2039
538.587	2376
538.654	1763
538.720	2776
538.787	2066
538.853	2455
538.920	3884
538.986	3758
539.053	2417
539.119	3277
539.185	2802
539.252	4820
539.318	6028
539.385	5576
539.451	2627
539.517	4111
539.583	4995
539.650	10769
539.716	33134
539.782	9319
539.849	3290
539.915	3559
539.981	2957
540.047	4252
540.114	2916
540.180	4631
540.246	2916
540.312	4730
540.378	11536
540.444	13794
540.510	11376
540.576	36343
540.643	11556
540.709	2895
540.775	2891
540.841	2886
540.907	4289
540.973	8349
541.039	6875
541.105	8000
541.171	3137
541.237	2554
541.303	3475
541.369	4873
541.435	5134
541.500	11252
541.566	5795
541.632	3032
541.698	1884
541.764	3568
541.830	1985
541.896	1216
541.961	2870
542.027	2497
542.093	2756
542.159	3335
542.224	3120
542.290	6480
542.356	9130
542.421	13568
542.487	6255
542.553	4317
542.618	3916
542.684	3847
542.750	2493
542.815	5056
542.881	6466
542.947	29983
543.012	24570
543.078	4150
543.143	1772
543.209	4019
543.274	2629
543.340	4496
543.405	9804
543.471	18710
543.536	4348
543.602	2887
543.667	1471
543.732	4342
543.798	2065
543.863	3186
543.928	1237
543.994	2427
544.059	2786
544.124	2506
544.190	2428
544.255	3142
544.320	3071
544.386	2152
544.451	4950
544.516	6668
544.581	5493
544.646	16971
544.712	32407
544.777	6698
544.842	3909
544.907	4791
544.972	3202
545.037	2285
545.102	4231
545.168	3530
545.233	4022
545.298	5563
545.363	4977
545.428	6508
545.493	11470
545.558	24887
545.623	10205
545.688	3504
545.753	2881
545.818	3196
545.883	4580
545.947	3649
546.012	4249
546.077	3117
546.142	4713
546.207	2311
546.272	4878
546.337	5694
546.401	5010
546.466	3702
546.531	1892
546.596	4362
546.661	3581
546.725	4840
546.790	1823
546.855	3686
546.919	1405
546.984	3310
547.049	3545
547.113	4036
547.178	2602
547.243	4667
547.307	4920
547.372	4930
547.436	4997
547.501	3311
547.565	3384
547.630	5252
547.695	4987
547.759	5965
547.823	4289
547.888	3304
547.952	3468
548.017	4312
548.081	3803
548.146	7320
548.210	5113
548.274	3543
548.339	3197
548.403	4003
548.468	2303
548.532	3501
548.596	3040
548.660	2876
548.725	3484
548.789	4656
548.853	5422
548.917	4421
548.982	5346
549.046	5989
549.110	3436
549.174	3739
549.238	2177
549.303	2407
549.367	4521
549.431	2807
549.495	3399
549.559	2660
549.623	4013
549.687	4578
549.751	7141
549.815	4124
549.879	3766
549.943	3130
550.007	4249
550.071	3845
550.135	5009
550.199	4832
550.263	3756
550.327	5041
550.391	5254
550.455	3447
550.519	4639
550.582	5209
550.646	5630
550.710	7043
550.774	4600
550.838	3814
550.901	3998
550.965	5127
551.029	3736
551.093	5543
551.156	7759
551.220	15035
551.284	16152
551.347	8223
551.411	17663
551.475	21227
551.538	5093
551.602	4241
551.666	3239
551.729	3446
551.793	4816
551.856	3889
551.920	4572
551.983	3895
552.047	4063
552.110	3636
552.174	3363
552.237	3566
552.301	3743
552.364	3925
552.428	4094
552.491	3241
552.554	4100
552.618	4075
552.681	4803
552.745	4614
552.808	7122
552.871	11775
552.934	6368
552.998	3840
553.061	4984
553.124	4505
553.187	4897
553.251	6290
553.314	6242
553.377	6621
553.440	10214
553.503	34806
553.567	65130
553.630	12471
553.693	4793
553.756	4944
553.819	3432
553.882	3412
553.945	2881
554.008	2871
554.071	2164
554.134	3662
554.197	2533
554.260	2934
554.323	4432
554.386	4492
554.449	2833
554.512	3621
554.575	2689
554.638	3648
554.701	3727
554.764	3216
554.827	2636
554.889	3086
554.952	2435
555.015	2947
555.078	2279
555.141	3842
555.203	2779
555.266	3143
555.329	3475
555.391	3187
555.454	3012
555.517	3995
555.580	2452
555.642	2330
555.705	2428
555.768	3457
555.830	3291
555.893	2589
555.955	1911
556.018	3019
556.080	1974
556.143	2635
556.206	2942
556.268	3939
556.330	3665
556.393	3465
556.455	3627
556.518	6263
556.580	6850
556.643	2788
556.705	2637
556.767	2422
556.830	3255
556.892	3062
556.955	5875
557.017	5406
557.079	3613
557.142	4535
557.204	4165
557.266	11091
557.328	7844
557.391	2276
557.453	2497
557.515	3000
557.577	4387
557.639	5049
557.701	2620
557.764	1873
557.826	3134
557.888	3068
557.950	2395
558.012	3411
558.074	2492
558.136	5322
558.198	7767
558.260	4991
558.322	2995
558.384	4355
558.446	4273
558.508	4274
558.570	5815
558.632	10440
558.694	18775
558.756	10319
558.818	16484
558.880	45632
558.942	13821
559.003	10398
559.065	6036
559.127	3810
559.189	3391
559.251	4110
559.312	4080
559.374	8359
559.436	25784
559.498	15721
559.559	3088
559.621	4469
559.683	4329
559.744	6788
559.806	14452
559.868	19403
559.929	6048
559.991	5083
560.052	4565
560.114	9098
560.176	7460
560.237	6727
560.299	10238
560.360	5214
560.422	3656
560.483	3627
560.545	3837
560.606	4324
560.667	3414
560.729	3168
560.790	3308
560.852	3319
560.913	4201
560.974	3157
561.036	3524
561.097	3896
561.158	3801
561.220	4624
561.281	3856
561.342	4043
561.403	5300
561.465	6040
561.526	15747
561.587	22402
561.648	5588
561.709	4380
561.771	4195
561.832	4631
561.893	4375
561.954	3786
562.015	4059
562.076	5005
562.137	3782
562.198	4067
562.259	4029
562.320	4159
562.381	3943
562.442	6831
562.503	5322
562.564	5014
562.625	4486
562.686	4362
562.747	4300
562.808	4754
562.869	3814
562.930	5762
562.991	4226
563.051	5139
563.112	4345
563.173	4919
563.234	4101
563.294	4877
563.355	4428
563.416	5260
563.477	4014
563.537	4058
563.598	4788
563.659	4931
563.720	4380
563.780	5410
563.841	5089
563.901	5381
563.962	5195
564.023	4182
564.083	4614
564.144	4902
564.204	4844
564.265	5498
564.325	6186
564.386	10739
564.446	9023
564.507	5031
564.567	3562
564.628	5344
564.688	4409
564.749	4993
564.809	5907
564.869	6310
564.930	4766
564.990	5701
565.050	4374
565.111	5478
565.171	4960
565.231	4861
565.292	5563
565.352	4067
565.412	4861
565.472	5765
565.532	5638
565.593	5886
565.653	4954
565.713	5947
565.773	6753
565.833	7069
565.893	9483
565.953	6331
566.013	5738
566.074	7245
566.134	8655
566.194	12365
566.254	11927
566.314	8990
566.374	7532
566.434	8052
566.494	7787
566.554	8191
566.614	9243
566.673	9863
566.733	9214
566.793	9806
566.853	10477
566.913	10569
566.973	10399
567.033	11681
567.092	10125
567.152	10959
567.212	10800
567.272	11362
567.331	11415
567.391	11024
567.451	13530
567.511	14739
567.570	15358
567.630	11889
567.690	10879
567.749	12339
567.809	13639
567.868	15561
567.928	16293
567.988	19098
568.047	23121
568.107	27045
568.166	37020
568.226	53315
568.285	75383
568.345	69788
568.404	56464
568.464	50568
568.523	46699
568.582	48691
568.642	51022
568.701	60838
568.761	82810
568.820	126160
568.879	133490
568.939	103911
568.998	76872
569.057	61931
569.116	50340
569.176	41102
569.235	36224
569.294	30415
569.353	25922
569.413	23974
569.472	20940
569.531	18458
569.590	16838
569.649	16670
569.708	14925
569.767	13917
569.827	14193
569.886	13011
569.945	11590
570.004	11043
570.063	10729
570.122	10742
570.181	10108
570.240	10085
570.299	10972
570.358	10625
570.417	9501
570.475	8584
570.534	8801
570.593	8183
570.652	8578
570.711	8306
570.770	7407
570.829	8784
570.887	7722
570.946	8894
571.005	7151
571.064	7831
571.122	6815
571.181	7442
571.240	7487
571.299	6646
571.357	7716
571.416	7274
571.475	7859
571.533	7900
571.592	6810
571.650	6413
571.709	5374
571.768	6064
571.826	6040
571.885	6032
571.943	6370
572.002	6161
572.060	6480
572.119	6248
572.177	5840
572.236	5529
572.294	5567
572.352	6235
572.411	5047
572.469	5749
572.528	5634
572.586	5677
572.644	5582
572.703	8129
572.761	6483
572.819	6906
572.877	5782
572.936	5548
572.994	5616
573.052	5224
573.110	5937
573.169	5670
573.227	5546
573.285	5845
573.343	5268
573.401	5742
573.459	5717
573.517	5529
573.576	4969
573.634	5641
573.692	4968
573.750	5834
573.808	5227
573.866	5752
573.924	7175
573.982	7439
574.040	5634
574.098	6050
574.155	5229
574.213	6027
574.271	5446
574.329	5940
574.387	5075
574.445	5840
574.503	5668
574.560	4774
574.618	5324
574.676	4696
574.734	5062
574.792	5271
574.849	5099
574.907	6162
574.965	5355
575.022	5027
575.080	5580
575.138	5380
575.195	5451
575.253	6440
575.311	6058
575.368	5973
575.426	4874
575.483	5759
575.541	5160
575.598	5203
575.656	6358
575.713	5910
575.771	6482
575.828	5265
575.886	6246
575.943	7138
576.001	6158
576.058	5779
576.115	6131
576.173	7372
576.230	7514
576.287	8144
576.345	7524
576.402	6403
576.459	6462
576.517	6064
576.574	5996
576.631	7918
576.688	5604
576.746	6935
576.803	6707
576.860	5935
576.917	6557
576.974	6158
577.031	6799
577.089	6717
577.146	6380
577.203	6704
577.260	6717
577.317	7033
577.374	7391
577.431	8360
577.488	6373
577.545	6547
577.602	6488
577.659	7333
577.716	7708
577.773	8492
577.830	8199
577.886	8632
577.943	7246
578.000	8161
578.057	8799
578.114	8379
578.171	8972
578.227	12283
578.284	12264
578.341	11630
578.398	9468
578.454	9331
578.511	8638
578.568	9905
578.625	7975
578.681	7423
578.738	7236
578.794	7840
578.851	7322
578.908	7962
578.964	7455
579.021	8330
579.077	7948
579.134	6938
579.190	7308
579.247	7632
579.303	7679
579.360	6991
579.416	6871
579.473	7796
579.529	7499
579.586	8162
579.642	8397
579.698	7699
579.755	8702
579.811	7457
579.867	9156
579.924	9761
579.980	9279
580.036	10527
580.093	13451
580.149	16350
580.205	19341
580.261	16620
580.317	14172
580.374	13065
580.430	12590
580.486	11568
580.542	9837
580.598	10687
580.619	10502
580.654	10190
580.692	9699
580.710	9467
580.765	9347
580.767	9346
580.823	9637
580.838	9416
580.879	8847
580.911	9482
580.935	9963
580.984	9466
580.991	9405
581.047	9862
581.057	9904
581.103	10083
581.130	10935
581.159	11865
581.203	11796
581.215	11763
581.270	12070
581.276	11988
581.326	11289
581.349	11082
581.382	10819
581.422	11040
581.438	11098
581.494	10739
581.494	10726
581.550	9651
581.567	10145
581.606	11209
581.640	10086
581.661	9414
581.713	10868
581.717	10988
581.773	9878
581.786	10119
581.829	10822
581.859	10213
581.885	9730
581.932	10747
581.940	10931
581.996	10439
582.004	10477
582.052	10644
582.077	11001
582.107	11450
582.150	11454
582.163	11446
582.219	10214
582.223	10293
582.274	11229
582.296	11006
582.330	10729
582.368	11714
582.386	12127
582.441	11435
582.441	11433
582.497	11196
582.514	11234
582.552	11536
582.587	12571
582.608	13132
582.659	12953
582.663	12926
582.719	12945
582.732	12544
582.774	11355
582.805	11873
582.830	12304
582.877	12534
582.885	12578
582.941	12616
582.950	12708
582.996	13212
583.023	13714
583.052	14408
583.095	15359
583.107	15664
583.162	17988
583.168	18192
583.218	19564
583.240	19137
583.273	18125
583.313	16793
583.328	16392
583.384	16188
583.385	16155
583.439	15292
583.458	15387
583.494	15551
583.531	15217
583.549	15088
583.603	15482
583.605	15496
583.660	15240
583.676	15229
583.715	15080
583.748	15535
583.770	15989
583.820	16096
583.825	16092
583.881	16187
583.893	16227
583.936	16172
583.965	15925
583.991	15852
584.038	15744
584.046	15727
584.101	16306
584.110	16456
584.156	17137
584.183	16906
584.211	16716
584.255	17164
584.266	17288
584.321	16645
584.328	16743
584.376	17440
584.400	17524
584.431	17787
584.472	18255
584.486	18353
584.541	19168
584.545	19171
584.596	19354
584.617	19100
584.651	18837
584.689	19517
584.706	19774
584.761	20184
584.762	20181
584.816	20715
584.834	20768
584.871	20819
584.906	20983
584.926	21136
584.978	21882
584.980	21925
585.035	22728
585.051	22915
585.090	23212
585.123	23342
585.145	23551
585.195	24489
585.200	24593
585.254	25185
585.267	25515
585.309	26832
585.340	28075
585.364	28788
585.412	27706
585.419	27549
585.473	28041
585.484	27906
585.528	27787
585.556	28559
585.583	29508
585.628	31045
585.637	31561
585.692	35797
585.700	36745
585.747	41669
585.772	41042
585.801	38004
585.845	32948
585.856	32216
585.910	31591
585.917	31527
585.965	31728
585.989	32063
586.019	32673
586.061	33372
586.074	33656
586.128	34755
586.133	34789
586.183	35101
586.205	35838
586.237	37260
586.277	37993
586.292	38180
586.346	38442
586.349	38471
586.401	39828
586.421	40476
586.455	41598
586.493	42445
586.509	43293
586.564	46710
586.565	46817
586.618	54921
586.637	56247
586.672	54490
586.709	50714
586.727	49537
586.781	49854
586.781	49896
586.835	50607
586.853	51016
586.889	52166
586.925	53108
586.944	53745
586.996	56977
586.998	57133
587.052	59458
587.068	60179
587.106	61847
587.140	63569
587.161	64479
587.212	67047
587.215	67288
587.269	70998
587.284	72026
587.323	74885
587.356	76830
587.377	78166
587.427	82534
587.431	82907
587.485	86021
587.499	87063
587.539	91915
587.571	95421
587.593	97836
587.643	103763
587.648	104500
587.702	111614
587.715	113483
587.755	120320
587.786	125082
587.810	129150
587.858	138440
587.864	139743
587.917	151636
587.930	154392
587.971	165735
588.001	174326
588.025	182239
588.073	197929
588.079	200744
588.133	226277
588.145	231830
588.187	252004
588.217	266321
588.241	282531
588.288	315801
588.295	321141
588.348	365121
588.360	374776
588.402	420198
588.431	451494
588.456	485083
588.503	551535
588.510	564738
588.564	669400
588.575	691374
588.617	808483
588.646	889016
588.671	989712
588.718	1183084
588.725	1221051
588.778	1505571
588.789	1560930
588.832	1737786
588.861	1846616
588.886	1812533
588.932	1701352
588.939	1679764
588.993	1443650
589.004	1416151
589.047	1716695
589.075	1885765
589.100	1867190
589.147	1783134
589.154	1753490
589.207	1493050
589.218	1438119
589.261	1326186
589.290	1253351
589.314	1267762
589.361	1298874
589.368	1324587
589.421	1530907
589.433	1572539
589.475	1720071
589.504	1813429
589.528	1760066
589.576	1592197
589.582	1604739
589.635	1733711
589.647	1752083
589.689	1671948
589.718	1590651
589.742	1418642
589.790	1066375
589.795	1042633
589.849	806857
589.861	751734
589.902	645054
589.932	565759
589.955	525165
590.004	439505
590.009	434466
590.062	375142
590.075	360273
590.115	328496
590.146	303887
590.168	290703
590.218	260269
590.222	258732
590.275	234106
590.289	227580
590.328	213723
590.360	201836
590.381	196352
590.431	182760
590.435	182223
590.488	168162
590.503	164058
590.541	157510
590.574	151363
590.594	147947
590.645	139032
590.647	138977
590.700	130976
590.716	128349
590.753	123354
590.787	118511
590.806	116721
590.859	111089
590.859	111212
590.912	106539
590.930	104877
590.965	101801
591.001	98483
591.018	97957
591.071	95756
591.072	95549
591.124	91665
591.143	90104
591.177	88306
591.214	85887
591.230	85401
591.283	83497
591.285	83249
591.336	80676
591.356	79566
591.389	78552
591.427	76819
591.442	76358
591.495	74241
591.498	73933
591.547	72524
591.569	71688
591.600	70452
591.640	68449
591.653	68484
591.706	68193
591.711	67997
591.759	66352
591.782	65424
591.811	65505
591.853	65150
591.864	64867
591.917	62766
591.924	62322
591.969	61472
591.995	60768
592.022	60457
592.066	59583
592.075	59639
592.127	59330
592.137	59113
592.180	60212
592.208	60723
592.233	59709
592.279	57312
592.285	57166
592.338	54881
592.350	54226
592.390	53282
592.421	52393
592.443	52327
592.491	51770
592.495	51856
592.548	51421
592.562	51187
592.600	51039
592.633	50686
592.653	50266
592.704	48603
592.705	48862
592.775	47832
592.846	47871
592.916	46768
592.987	46134
593.058	45689
593.128	45283
593.199	43636
593.270	43445
593.341	41360
593.411	41557
593.482	40758
593.553	40361
593.623	40168
593.694	39206
593.764	39694
593.835	38735
593.906	38098
593.976	37278
594.047	36764
594.117	39071
594.188	38403
594.258	36241
594.329	35157
594.399	35023
594.470	34952
594.540	33948
594.611	33808
594.681	33479
594.751	32526
594.822	33808
594.892	33537
594.963	33227
595.033	33347
595.103	33095
595.174	33555
595.244	36986
595.314	40677
595.384	32017
595.455	30956
595.525	31630
595.595	31661
595.665	31327
595.736	30613
595.806	30361
595.876	30920
595.946	30092
596.016	29033
596.087	29411
596.157	29475
596.227	29153
596.297	29764
596.367	30696
596.437	31572
596.507	33509
596.577	36475
596.647	30596
596.717	28978
596.787	28961
596.857	27962
596.927	28366
596.997	28522
597.067	29165
597.137	31714
597.207	31529
597.277	28795
597.347	29290
597.417	28675
597.487	28445
597.557	29746
597.626	28493
597.696	29973
597.766	30944
597.836	34445
597.906	29761
597.975	28103
598.045	26915
598.115	25703
598.185	27298
598.254	27913
598.324	27554
598.394	27336
598.464	26864
598.533	26527
598.603	27045
598.672	26914
598.742	26663
598.812	26770
598.881	26620
598.951	26290
599.020	25190
599.090	25436
599.159	26460
599.229	26580
599.299	24794
599.368	25500
599.437	24850
599.507	25361
599.576	25808
599.646	27170
599.715	27391
599.785	24652
599.854	24755
599.924	25136
599.993	25221
600.062	24865
600.132	25209
600.201	25318
600.270	25346
600.340	25459
600.409	25140
600.478	24807
600.547	24788
600.617	25520
600.686	24730
600.755	24152
600.824	24654
600.894	24288
600.963	23746
601.032	22961
601.101	24452
601.170	23504
601.239	23238
601.308	23316
601.378	23523
601.447	23301
601.516	24639
601.585	24094
601.654	24527
601.723	23431
601.792	24159
601.861	24840
601.930	27480
601.999	25937
602.068	23741
602.137	23788
602.206	24553
602.275	24440
602.343	25442
602.412	25018
602.481	24194
602.550	23915
602.619	24808
602.688	23692
602.756	24195
602.825	24564
602.894	24329
602.963	23833
603.032	24179
603.100	23411
603.169	24014
603.238	24782
603.307	23529
603.375	23495
603.444	24545
603.513	22484
603.581	22347
603.650	24116
603.719	22130
603.787	20857
603.856	21762
603.924	22931
603.993	22320
604.061	22467
604.130	22510
604.198	22858
604.267	22748
604.335	22418
604.404	22511
604.472	23080
604.541	22677
604.609	23264
604.678	22959
604.746	22731
604.815	23884
604.883	23739
604.951	23251
605.020	23821
605.088	22688
605.156	23017
605.225	22018
605.293	23368
605.361	23082
605.429	22541
605.498	22145
605.566	22649
605.634	22911
605.702	22686
605.771	22567
605.839	23596
605.907	22241
605.975	22028
606.043	22329
606.111	22769
606.180	22567
606.248	24118
606.316	26944
606.384	22512
606.452	23472
606.520	23033
606.588	20955
606.656	18530
606.724	19003
606.792	18458
606.860	18165
606.928	17643
606.996	17261
607.064	16867
607.132	17362
607.200	17553
607.267	18264
607.335	17105
607.403	17419
607.471	17861
607.539	18467
607.607	17368
607.674	16431
607.742	18391
607.810	17033
607.878	16291
607.946	16640
608.013	16971
608.081	18105
608.149	17574
608.216	16656
608.284	18315
608.352	17197
608.419	17102
608.487	20887
608.555	18640
608.622	16575
608.690	16846
608.757	17873
608.825	18123
608.893	18814
608.960	19179
609.028	20892
609.095	21503
609.163	18196
609.230	16456
609.298	17893
609.365	17344
609.432	17597
609.500	18646
609.567	18524
609.635	20426
609.702	20187
609.769	20102
609.837	19849
609.904	18462
609.971	17762
610.039	19881
610.106	23573
610.173	33693
610.241	65729
610.308	101872
610.375	80280
610.442	29096
610.509	20337
610.577	19071
610.644	18253
610.711	18208
610.778	18758
610.845	18238
610.912	18603
610.980	20635
611.047	26276
611.114	23209
611.181	18461
611.248	17054
611.315	18097
611.382	17337
611.449	17552
611.516	17802
611.583	18039
611.650	17053
611.717	17854
611.784	17255
611.851	18353
611.918	19825
611.984	19007
612.051	23667
612.118	34541
612.185	67771
612.252	57817
612.319	21819
612.386	19695
612.452	18577
612.519	20020
612.586	21820
612.653	21130
612.719	18888
612.786	16330
612.853	16542
612.919	16692
612.986	17653
613.053	16064
613.120	16311
613.186	16246
613.253	18416
613.319	16654
613.386	16511
613.453	17030
613.519	17764
613.586	19560
613.652	23184
613.719	21274
613.785	19910
613.852	17216
613.918	16984
613.985	18635
614.051	21501
614.118	35953
614.184	40086
614.250	19718
614.317	16778
614.383	15884
614.449	16009
614.516	15576
614.582	16525
614.648	15685
614.715	16234
614.781	16517
614.847	17735
614.914	17282
614.980	17972
615.046	17387
615.112	17536
615.179	19036
615.245	22422
615.311	30150
615.377	54632
615.443	71153
615.509	36719
615.575	23403
615.642	20637
615.708	21107
615.774	21417
615.840	26604
615.906	34355
615.972	54522
616.038	110341
616.104	143150
616.170	122668
616.236	108260
616.302	37018
616.368	25700
616.434	22987
616.500	22156
616.565	22058
616.631	20990
616.697	20655
616.763	19832
616.829	22738
616.895	27643
616.961	29025
617.026	22775
617.092	19040
617.158	18422
617.224	17510
617.289	18145
617.355	18512
617.421	18843
617.487	19463
617.552	17633
617.618	16862
617.684	16853
617.749	19514
617.815	18332
617.880	17045
617.946	17484
618.012	18100
618.077	18929
618.143	18561
618.208	17778
618.274	18850
618.339	19582
618.405	18077
618.470	19113
618.536	18061
618.601	20365
618.667	19843
618.732	19507
618.798	19350
618.863	18215
618.928	18310
618.994	19861
619.059	21153
619.124	23072
619.190	20651
619.255	18706
619.320	18366
619.386	18684
619.451	17410
619.516	18550
619.581	17481
619.647	19458
619.712	18269
619.777	18421
619.842	18525
619.907	17891
619.972	18057
620.038	18204
620.103	18548
620.168	17202
620.233	18233
620.298	18176
620.363	17875
620.428	18713
620.493	18236
620.558	17214
620.623	18198
620.688	18427
620.753	17130
620.818	17451
620.883	19022
620.948	17608
621.013	17883
621.078	19236
621.143	17247
621.207	20052
621.272	18959
621.337	19830
621.402	20812
621.467	24505
621.532	25305
621.596	23319
621.661	21225
621.726	20914
621.791	20229
621.855	21748
621.920	22398
621.985	20511
622.049	23799
622.114	22539
622.179	22134
622.243	23505
622.308	23437
622.373	23856
622.437	22672
622.502	22860
622.566	23103
622.631	21065
622.695	23219
622.760	23035
622.824	22972
622.889	22318
622.953	23581
623.018	26709
623.082	26890
623.147	23271
623.211	21648
623.276	22503
623.340	20372
623.404	21580
623.469	21653
623.533	22011
623.597	21111
623.662	21344
623.726	20722
623.790	21304
623.854	20425
623.919	21501
623.983	21001
624.047	20285
624.111	20543
624.176	20642
624.240	21147
624.304	23355
624.368	20006
624.432	20723
624.496	21034
624.560	22008
624.625	21803
624.689	20329
624.753	21417
624.817	21424
624.881	19432
624.945	18967
625.009	19787
625.073	19467
625.137	20081
625.201	21499
625.265	22599
625.329	19561
625.393	20109
625.456	19910
625.520	20234
625.584	20555
625.648	23056
625.712	28532
625.776	47650
625.839	57892
625.903	31833
625.967	20666
626.031	26804
626.095	36777
626.158	21875
626.222	17149
626.286	17051
626.349	17236
626.413	16039
626.477	18237
626.540	17062
626.604	16024
626.668	17398
626.731	16410
626.795	17406
626.858	17729
626.922	16917
626.986	16918
627.049	15628
627.113	16228
627.176	16463
627.240	16132
627.303	15715
627.366	14962
627.430	16490
627.493	16530
627.557	15743
627.620	17881
627.684	16142
627.747	16387
627.810	14610
627.874	16292
627.937	14482
628.000	16427
628.064	16143
628.127	13606
628.190	16044
628.253	15693
628.317	14439
628.380	14672
628.443	13889
628.506	14761
628.569	14405
628.632	14392
628.696	14201
628.759	13409
628.822	13310
628.885	13337
628.948	13853
629.011	13387
629.074	13618
629.137	13170
629.200	12695
629.263	15208
629.326	12045
629.389	12579
629.452	13747
629.515	13794
629.578	12959
629.641	13994
629.704	14397
629.767	14772
629.830	13574
629.892	12992
629.955	13173
630.018	14175
630.081	12622
630.144	14868
630.207	13334
630.269	15410
630.332	13924
630.395	13423
630.458	12847
630.520	11907
630.583	13582
630.646	12418
630.708	12605
630.771	11840
630.834	11995
630.896	12017
630.959	11882
631.021	12161
631.084	11807
631.146	11995
631.209	13608
631.272	12173
631.334	12103
631.397	11783
631.459	11032
631.522	11395
631.584	11335
631.646	11468
631.709	11842
631.771	12233
631.834	12529
631.896	11835
631.958	10509
632.021	11937
632.083	11218
632.145	12106
632.208	11465
632.270	11510
632.332	10342
632.395	9948
632.457	11686
632.519	10837
632.581	11463
632.643	9996
632.706	10986
632.768	10719
632.830	10303
632.892	10844
632.954	10632
633.016	11344
633.078	10447
633.141	10550
633.203	9911
633.265	11697
633.327	10326
633.389	10096
633.451	10863
633.513	11907
633.575	11332
633.637	10888
633.698	9924
633.760	10717
633.822	9618
633.884	10629
633.946	9919
634.008	10852
634.070	10433
634.132	12432
634.193	11139
634.255	10510
634.317	9363
634.379	9849
634.441	10105
634.502	9694
634.564	10255
634.626	9782
634.687	9480
634.749	10579
634.811	9862
634.873	8497
634.934	9716
634.996	9413
635.057	8511
635.119	9109
635.181	9184
635.242	9485
635.304	7754
635.365	10872
635.427	9568
635.488	8939
635.550	7821
635.611	9667
635.673	7945
635.734	10628
635.796	9509
635.857	10323
635.918	8668
635.980	9607
636.041	8528
636.102	9006
636.164	9226
636.225	9795
636.286	7669
636.348	8971
636.409	8532
636.470	8305
636.531	8815
636.593	9328
636.654	9541
636.715	8656
636.776	8029
636.838	7407
636.899	9517
636.960	8443
637.021	7628
637.082	7855
637.143	9198
637.204	8280
637.265	7230
637.326	8024
637.387	8329
637.448	7544
637.509	8135
637.570	8517
637.631	8159
637.692	7867
637.753	6787
637.814	7286
637.875	7204
637.936	8034
637.997	7656
638.058	8499
638.119	8773
638.179	7360
638.240	7659
638.301	8002
638.362	7701
638.423	7222
638.483	8175
638.544	6410
638.605	7791
638.666	7776
638.726	8359
638.787	8696
638.848	7799
638.908	7750
638.969	7479
639.030	7552
639.090	7234
639.151	6677
639.211	7191
639.272	9015
639.332	11108
639.393	8795
639.453	7219
639.514	6912
639.574	7244
639.635	7063
639.695	7965
639.756	6907
639.816	6549
639.877	7671
639.937	9461
639.997	10803
640.058	7541
640.118	6401
640.178	7183
640.239	6477
640.299	7201
640.359	6493
640.420	6944
640.480	7550
640.540	5745
640.600	7317
640.661	7143
640.721	5438
640.781	8638
640.841	6402
640.901	8105
640.961	6852
641.021	6899
641.082	6629
641.142	8276
641.202	7858
641.262	5862
641.322	7156
641.382	5998
641.442	6986
641.502	6510
641.562	7528
641.622	6540
641.682	6682
641.742	6779
641.802	6523
641.861	6356
641.921	6593
641.981	6915
642.041	7355
642.101	7649
642.161	6837
642.221	5609
642.280	6204
642.340	4855
642.400	6360
642.460	6818
642.519	6243
642.579	6849
642.639	7460
642.698	4524
642.758	7340
642.818	6194
642.877	6044
642.937	6506
642.997	7190
643.056	9003
643.116	5757
643.175	7748
643.235	6186
643.294	5996
643.354	6455
643.414	6080
643.473	6972
643.532	6688
643.592	6749
643.651	7994
643.711	10987
643.770	14482
643.830	26836
643.889	61999
643.948	23228
644.008	6895
644.067	5693
644.126	5958
644.186	5750
644.245	6012
644.304	4312
644.363	7621
644.423	4865
644.482	5596
644.541	5629
644.600	3893
644.659	6249
644.719	5376
644.778	6562
644.837	7259
644.896	8911
644.955	12924
645.014	9787
645.073	8201
645.132	6020
645.191	6918
645.250	5396
645.309	6927
645.368	5446
645.427	5622
645.486	4663
645.545	6937
645.604	4588
645.663	6183
645.722	5609
645.781	5780
645.840	5334
645.898	5186
645.957	7171
646.016	5789
646.075	8835
646.134	12240
646.192	24769
646.251	42906
646.310	11010
646.369	5264
646.427	5078
646.486	4559
646.545	4913
646.603	6077
646.662	5418
646.721	4620
646.779	4986
646.838	4039
646.896	5268
646.955	5670
647.014	5814
647.072	5312
647.131	9073
647.189	6865
647.248	4457
647.306	5649
647.365	5031
647.423	3597
647.481	6032
647.540	3343
647.598	5136
647.657	4925
647.715	4628
647.773	4599
647.832	4861
647.890	3525
647.948	4527
648.007	5321
648.065	4241
648.123	4345
648.181	7018
648.240	6580
648.298	5261
648.356	5178
648.414	5647
648.472	5537
648.531	5381
648.589	5416
648.647	4536
648.705	4554
648.763	4661
648.821	4998
648.879	4425
648.937	4077
648.995	4207
649.053	4721
649.111	5522
649.169	5695
649.227	7574
649.285	9542
649.343	21298
649.401	16070
649.459	11037
649.516	10793
649.574	7054
649.632	14034
649.690	17413
649.748	9114
649.806	8687
649.863	15729
649.921	10205
649.979	6793
650.037	5277
650.094	3636
650.152	4295
650.210	3630
650.268	4721
650.325	4206
650.383	3611
650.440	2758
650.498	4745
650.556	3970
650.613	3555
650.671	4796
650.728	4565
650.786	3563
650.843	4006
650.901	2679
650.958	4970
651.016	4258
651.073	3939
651.131	3926
651.188	3725
651.246	3606
651.303	2874
651.360	4411
651.418	3706
651.475	4225
651.532	2993
651.590	4045
651.647	3089
651.704	3421
651.762	2955
651.819	3881
651.876	4017
651.933	3647
651.990	4153
652.048	2508
652.105	3420
652.162	3808
652.219	3803
652.276	4194
652.333	3848
652.390	2686
652.448	4335
652.505	4283
652.562	3836
652.619	4820
652.676	6942
652.733	8895
652.790	4426
652.847	1903
652.904	4244
652.961	2734
653.017	2990
653.074	3890
653.131	3244
653.188	2796
653.245	2306
653.302	3747
653.359	3405
653.415	3499
653.472	3121
653.529	3604
653.586	3078
653.642	2859
653.699	3483
653.756	1751
653.813	3066
653.869	3441
653.926	3095
653.983	2553
654.039	3494
654.096	3059
654.152	3793
654.209	2468
654.266	3705
654.322	2662
654.379	3648
654.435	3964
654.492	3906
654.548	4315
654.605	4511
654.661	4685
654.717	3610
654.774	3747
654.830	3753
654.887	3782
654.943	3369
655.000	4639
655.056	3609
655.112	4492
655.168	2366
655.225	2721
655.281	3521
655.337	4168
655.394	4962
655.450	4994
655.506	4328
655.562	5337
655.618	6536
655.675	2787
655.731	3378
655.787	2975
655.843	4327
655.899	2921
655.955	3937
656.011	2370
656.067	2464
656.123	3344
656.179	3038
656.235	4364
656.291	2219
656.347	3927
656.403	2705
656.459	3302
656.515	4327
656.571	3922
656.627	3329
656.683	3657
656.739	4498
656.795	2891
656.850	4024
656.906	3767
656.962	3763
657.018	2933
657.074	3336
657.129	3221
657.185	3654
657.241	3911
657.297	3261
657.352	3707
657.408	2710
657.464	4606
657.519	3361
657.575	1717
657.630	3905
657.686	3047
657.742	3372
657.797	3145
657.853	3655
657.908	5438
657.964	2790
658.019	2826
658.075	3083
658.130	3699
658.186	2980
658.241	3449
658.297	2775
658.352	2954
658.407	3283
658.463	1751
658.518	3642
658.573	3291
658.629	2313
658.684	3307
658.739	3716
658.795	2475
658.850	3109
658.905	2852
658.960	3167
659.016	2436
659.071	3100
659.126	3486
659.181	3621
659.236	4695
659.291	5761
659.346	3941
659.401	4344
659.457	5214
659.512	6662
659.567	5202
659.622	3400
659.677	2416
659.732	2206
659.787	3434
659.842	4362
659.897	4183
659.952	3625
660.007	3498
660.061	2860
660.116	2578
660.171	3382
660.226	3729
660.281	3908
660.336	2669
660.391	3547
660.445	2727
660.500	3127
660.555	2824
660.610	2933
660.664	3873
660.719	2951
660.774	3446
660.828	3658
660.883	4208
660.938	3342
660.992	2458
661.047	3414
661.101	2325
661.156	3323
661.211	2808
661.265	3261
661.320	3047
661.374	3296
661.429	3477
661.483	3550
661.538	3085
661.592	3072
661.647	2225
661.701	3184
661.755	2523
661.810	2606
661.864	2956
661.919	2763
661.973	3015
662.027	2871
662.081	2183
662.136	2940
662.190	2824
662.244	3668
662.299	3221
662.353	3015
662.407	2546
662.461	2444
662.515	3638
662.569	3056
662.624	3830
662.678	2877
662.732	2171
662.786	2923
662.840	3643
662.894	3709
662.948	2767
663.002	2669
663.056	3360
663.110	3270
663.164	2635
663.218	2571
663.272	3324
663.326	2953
663.380	3097
663.434	3345
663.488	2529
663.542	2739
663.595	2972
663.649	2689
663.703	2963
663.757	2768
663.811	2696
663.864	3099
663.918	3133
663.972	2023
664.026	2118
664.079	3432
664.133	3134
664.187	3060
664.240	2571
664.294	2839
664.348	2058
664.401	3201
664.455	2658
664.508	2600
664.562	2028
664.615	3181
664.669	2432
664.722	2564
664.776	2639
664.829	2892
664.883	2350
664.936	2772
664.990	2805
665.043	3682
665.097	2715
665.150	4051
665.203	2829
665.257	3199
665.310	3499
665.363	2570
665.417	2761
665.470	2963
665.523	2816
665.576	2902
665.630	3051
665.683	2484
665.736	3103
665.789	3045
665.842	1792
665.895	3556
665.949	2864
666.002	2682
666.055	2904
666.108	3419
666.161	3109
666.214	2964
666.267	2659
666.320	2910
666.373	3191
666.426	1972
666.479	2472
666.532	2953
666.585	3138
666.638	3556
666.691	2732
666.744	3743
666.796	3048
666.849	2354
666.902	3193
666.955	2686
667.008	2830
667.060	2263
667.113	2477
667.166	2450
667.219	2712
667.271	2299
667.324	3105
667.377	2818
667.430	3238
667.482	3459
667.535	3779
667.587	2449
667.640	3882
667.693	2808
667.745	3322
667.798	4818
667.850	3491
667.903	2543
667.955	3372
668.008	2248
668.060	3318
668.113	4078
668.165	3218
668.218	3442
668.270	3551
668.322	2916
668.375	2617
668.427	3112
668.479	2789
668.532	3142
668.584	3719
668.636	3570
668.689	3635
668.741	2531
668.793	3295
668.845	3259
668.898	3889
668.950	2868
669.002	3281
669.054	2937
669.106	3282
669.158	3631
669.211	3213
669.263	4226
669.315	3894
669.367	3610
669.419	3285
669.471	3762
669.523	3265
669.575	4559
669.627	4019
669.679	3285
669.731	2935
669.783	3633
669.835	3777
669.886	3480
669.938	2681
669.990	4068
670.042	3124
670.094	4339
670.146	4120
670.197	4372
670.249	5820
670.301	6888
670.353	10116
670.404	13708
670.456	19279
670.508	30707
670.560	52667
670.611	91426
670.663	164199
670.715	359880
670.766	629063
670.818	259042
670.869	47538
670.921	21948
670.972	14062
671.024	10523
671.075	7286
671.127	6621
671.178	5528
671.230	5670
671.281	5284
671.333	4302
671.384	4067
671.436	3826
671.487	4804
671.538	3848
671.590	3817
671.641	5425
671.692	4477
671.744	5575
671.795	6148
671.846	3793
671.897	3895
671.949	3917
672.000	3812
672.051	4149
672.102	4490
672.153	2549
672.204	3040
672.256	3065
672.307	3337
672.358	4014
672.409	3199
672.460	3186
672.511	2843
672.562	2768
672.613	3208
672.664	3277
672.715	2881
672.766	3467
672.817	2911
672.868	2506
672.919	2931
672.970	2876
673.021	2752
673.071	1209
673.122	2303
673.173	3166
673.224	2949
673.275	2513
673.326	2585
673.376	3353
673.427	1682
673.478	3312
673.528	3410
673.579	2227
673.630	3345
673.680	3301
673.731	2188
673.782	1928
673.832	1803
673.883	2485
673.934	2222
673.984	2361
674.035	2536
674.085	2733
674.136	2824
674.186	2710
674.237	2449
674.287	2914
674.338	2684
674.388	2032
674.438	2467
674.489	1634
674.539	2603
674.589	2395
674.640	3169
674.690	2143
674.740	1965
674.791	2641
674.841	2335
674.891	3315
674.942	3472
674.992	2129
675.042	1858
675.092	1048
675.142	1867
675.193	2141
675.243	2959
675.293	2840
675.343	1534
675.393	2288
675.443	3066
675.493	2745
675.543	1175
675.593	2430
675.643	1931
675.693	2198
675.743	2413
675.793	2140
675.843	1424
675.893	2618
675.943	2722
675.993	2438
676.043	2107
676.093	2832
676.142	1497
676.192	2784
676.242	2670
676.292	1293
676.341	1847
676.391	2565
676.441	2171
676.491	1585
676.540	1746
676.590	1781
676.640	2633
676.689	1786
676.739	1006
676.789	1475
676.838	1875
676.888	1941
676.937	2070
676.987	1861
677.037	2414
677.086	1328
677.136	2057
677.185	1276
677.235	1457
677.284	1781
677.333	1632
677.383	1058
677.432	967
677.482	1393
677.531	2026
677.580	1016
677.630	1559
677.679	868
677.728	2766
677.778	2048
677.827	2005
677.876	1584
677.925	1573
677.975	1457
678.024	1619
678.073	1212
678.122	2073
678.171	2340
678.220	1448
678.269	1732
678.319	2219
678.368	1152
678.417	1790
678.466	2351
678.515	2604
678.564	1629
678.613	2300
678.662	1871
678.711	1480
678.760	1576
678.809	1656
678.857	2251
678.906	1179
678.955	1250
679.004	2007
679.053	934
679.102	1717
679.151	1623
679.199	1350
679.248	1619
679.297	712
679.346	1583
679.394	1547
679.443	1424
679.492	1236
679.540	1744
679.589	2014
679.638	1669
679.686	1451
679.735	1367
679.784	1707
679.832	1258
679.881	1765
679.929	1285
679.978	1131
680.026	650
680.075	2188
680.123	735
680.172	1593
680.220	1026
680.268	1198
680.317	1170
680.365	1517
680.414	1339
680.462	1750
680.510	1832
680.559	897
680.607	599
680.655	1092
680.703	1383
680.752	775
680.800	1267
680.848	1058
680.896	1059
680.945	1498
680.993	1142
681.041	931
681.089	1419
681.137	1335
681.185	2062
681.233	1129
681.258	1037
681.281	877
681.329	1563
681.377	1238
681.380	1341
681.425	1808
681.473	2627
681.502	2655
681.521	2534
681.569	2481
681.617	2306
681.624	2384
681.665	2322
681.713	2730
681.745	2785
681.761	2704
681.809	2614
681.857	3017
681.867	3134
681.904	3232
681.952	3260
681.989	3809
682.000	3892
682.048	3681
682.096	3201
682.111	3396
682.143	3573
682.191	4518
682.233	4963
682.239	4955
682.286	3828
682.334	4490
682.354	4451
682.382	4265
682.430	5295
682.476	5432
682.477	5369
682.525	4941
682.572	5317
682.598	5436
682.620	5423
682.667	5522
682.715	6097
682.720	6114
682.763	5648
682.810	5976
682.841	5990
682.857	5919
682.905	6156
682.952	6794
682.963	6859
683.000	6828
683.047	6519
683.085	7256
683.095	7378
683.142	7069
683.190	7046
683.206	7118
683.237	7076
683.284	7363
683.328	7653
683.332	7627
683.379	7939
683.426	7674
683.449	7861
683.473	7966
683.521	8266
683.568	9078
683.571	9080
683.615	8391
683.662	9447
683.693	9433
683.709	9269
683.757	7908
683.804	9556
683.814	9456
683.851	9120
683.898	9742
683.936	10073
683.945	10065
683.992	10141
684.039	9895
684.057	10066
684.086	10304
684.133	10698
684.179	10768
684.180	10720
684.227	10638
684.274	10444
684.300	10625
684.321	10717
684.368	10916
684.415	10628
684.422	10616
684.462	10439
684.509	10647
684.543	11179
684.556	11268
684.603	11208
684.649	11839
684.665	11830
684.696	11865
684.743	11734
684.786	12570
684.790	12603
684.837	12499
684.883	12600
684.908	12941
684.930	13223
684.977	13995
685.023	13620
685.029	13778
685.070	14271
685.117	13798
685.150	13423
685.164	13384
685.210	14902
685.257	14995
685.272	15079
685.303	14928
685.350	15052
685.393	15068
685.396	15034
685.443	15198
685.490	14930
685.514	15347
685.536	15821
685.583	15190
685.629	15681
685.636	15840
685.675	16269
685.722	15529
685.757	15526
685.768	15606
685.815	15932
685.861	16506
685.878	16350
685.908	15814
685.954	16585
686.000	16583
686.000	16572
686.047	17252
686.093	17345
686.121	17687
686.139	17706
686.185	17656
686.232	17194
686.242	17294
686.278	17637
686.324	17599
686.363	17001
686.370	16896
686.416	17211
686.463	17805
686.484	17752
686.509	17691
686.555	17549
686.601	18151
686.606	18260
686.647	18962
686.693	17586
686.727	17824
686.739	17987
686.785	18611
686.831	18477
686.848	18745
686.877	18809
686.923	17936
686.969	17584
686.969	17582
687.015	18432
687.061	18587
687.090	18966
687.107	19083
687.153	19151
687.199	19400
687.211	19301
687.245	19073
687.291	19405
687.332	19936
687.336	19996
687.382	19592
687.428	19844
687.453	20065
687.474	20085
687.520	20103
687.565	19639
687.574	19712
687.611	20195
687.657	20409
687.695	20123
687.702	20148
687.748	20654
687.794	21537
687.816	21461
687.839	20929
687.885	20620
687.931	20483
687.937	20296
687.976	19907
688.022	20789
688.058	21435
688.067	21552
688.113	21082
688.158	21088
688.179	21196
688.204	21414
688.249	21938
688.295	21676
688.300	21669
688.340	22011
688.386	22790
688.421	22854
688.431	22764
688.477	22855
688.522	22741
688.542	22790
688.567	23033
688.613	23042
688.658	23001
688.663	23030
688.703	23169
688.749	22883
688.784	22694
688.794	22712
688.839	22495
688.884	23267
688.905	23047
688.930	22839
688.975	23115
689.020	22942
689.026	22962
689.065	23520
689.110	23411
689.146	24180
689.155	24333
689.201	24202
689.246	24308
689.267	24373
689.291	24462
689.336	24355
689.381	24390
689.388	24317
689.426	24349
689.471	24713
689.509	25133
689.516	25161
689.561	24904
689.606	24616
689.630	24360
689.651	24439
689.696	24455
689.741	25085
689.750	25086
689.785	24987
689.830	24719
689.871	25009
689.875	25089
689.920	25074
689.965	25326
689.992	25288
690.010	25418
690.054	25622
690.099	26072
690.112	26211
690.144	26504
690.189	26667
690.233	26611
690.233	26648
690.278	26569
690.323	27235
690.354	27156
690.367	27429
690.412	28383
690.457	29279
690.474	29714
690.501	30431
690.546	30891
690.590	31724
690.595	31752
690.635	33243
690.680	34830
690.716	36225
690.724	37023
690.769	41257
690.813	45628
690.836	47349
690.857	52291
690.902	63702
690.946	75265
690.957	77885
690.991	104400
691.035	140551
691.077	175275
691.080	176257
691.124	184980
691.168	193547
691.198	199961
691.213	188073
691.257	151966
691.301	115345
691.318	101164
691.346	91502
691.390	75098
691.434	58631
691.439	56750
691.478	52502
691.522	47547
691.559	42853
691.567	42552
691.611	40965
691.655	38561
691.680	37180
691.699	36687
691.743	36206
691.787	34928
691.800	34560
691.831	34387
691.875	33867
691.919	33943
691.921	33860
691.964	33761
692.008	34415
692.041	34217
692.052	34178
692.096	33893
692.139	34439
692.162	34203
692.183	33932
692.227	33615
692.271	33480
692.282	33294
692.315	33272
692.359	33221
692.402	33099
692.403	33163
692.447	33219
692.490	33316
692.523	33075
692.534	33229
692.578	33746
692.622	34258
692.643	34596
692.666	34726
692.709	34138
692.753	33930
692.763	33877
692.797	34371
692.840	34240
692.884	34638
692.884	34713
692.928	35311
692.971	35662
693.004	35958
693.015	36196
693.059	36655
693.102	37214
693.124	37382
693.146	37970
693.189	39270
693.233	40357
693.245	40594
693.276	42665
693.320	45311
693.363	47941
693.365	47933
693.407	51777
693.450	56218
693.485	59664
693.493	61803
693.537	71704
693.580	81691
693.605	87655
693.624	99273
693.667	126140
693.710	153346
693.725	162830
693.753	214725
693.797	295419
693.840	377462
693.845	386348
693.883	403630
693.926	421357
693.966	438181
693.970	430960
694.013	346794
694.056	262125
694.086	203591
694.099	193044
694.142	157679
694.185	122468
694.206	105509
694.229	98896
694.272	85512
694.315	72213
694.326	68644
694.358	64964
694.401	59933
694.444	54578
694.446	54191
694.487	51955
694.530	49613
694.566	47378
694.573	47196
694.616	45436
694.659	43601
694.686	42336
694.702	41930
694.745	40670
694.787	39232
694.806	38575
694.830	38772
694.873	38916
694.916	38939
694.926	38894
694.959	38555
695.002	37973
695.044	37094
695.046	36981
695.087	36735
695.130	36104
695.166	35956
695.172	36142
695.215	36145
695.258	36728
695.286	36806
695.301	36779
695.343	36590
695.386	36471
695.406	36173
695.428	35985
695.471	35748
695.514	35345
695.526	35148
695.556	35164
695.599	35151
695.641	34963
695.646	34879
695.684	35221
695.726	35414
695.766	35608
695.769	35698
695.811	35647
695.854	35551
695.886	35380
695.896	35389
695.938	35085
695.981	34780
696.005	34495
696.023	34526
696.065	34595
696.108	34438
696.125	34352
696.150	35009
696.192	35965
696.235	36772
696.245	36880
696.277	36744
696.319	36663
696.361	36383
696.365	36267
696.404	37635
696.446	39169
696.485	40396
696.488	40449
696.530	39766
696.572	39196
696.604	38560
696.614	38526
696.656	38035
696.698	37635
696.724	37155
696.740	36878
696.783	35943
696.825	35115
696.844	34682
696.867	34930
696.909	34966
696.951	35197
696.964	35158
696.992	35046
697.034	34756
697.076	34451
697.083	34315
697.118	34839
697.160	35404
697.202	35872
697.203	35792
697.244	35366
697.286	34911
697.323	34297
697.327	34374
697.369	34353
697.411	34289
697.442	34196
697.453	34353
697.494	34530
697.536	34747
697.562	34780
697.578	34770
697.620	34527
697.661	34282
697.682	34049
697.703	34116
697.744	34147
697.786	34196
697.801	34053
697.828	34493
697.869	35212
697.911	35904
697.921	35973
697.952	35854
697.994	35540
698.035	35246
698.040	35121
698.077	34976
698.118	34660
698.160	34360
698.160	34267
698.201	34325
698.243	34290
698.279	34229
698.284	34332
698.325	34354
698.367	34486
698.399	34418
698.408	34502
698.449	34472
698.491	34474
698.518	34362
698.532	34532
698.573	34802
698.614	35027
698.638	35070
698.656	35343
698.697	35750
698.738	36168
698.757	36263
698.779	36351
698.820	36330
698.862	36309
698.877	36202
698.903	36490
698.944	36788
698.985	37089
698.996	37073
699.026	37039
699.067	36848
699.116	36522
699.235	34802
699.354	36079
699.474	36111
699.593	36321
699.713	36559
699.832	34517
699.951	34370
700.070	34810
700.190	33501
700.309	34627
700.428	34315
700.547	35020
700.667	34281
700.786	33396
700.905	33250
701.024	33180
701.143	34294
701.262	31740
701.381	32489
701.500	32584
701.619	32611
701.738	32622
701.857	32333
701.976	32297
702.095	31658
702.214	33173
702.333	33365
702.452	31694
702.571	30978
702.690	31799
702.809	30703
702.928	30843
703.047	30766
703.165	30271
703.284	31359
703.403	29703
703.522	31053
703.640	31373
703.759	31005
703.878	35792
703.997	30844
704.115	30882
704.234	29546
704.353	29891
704.471	29458
704.590	29044
704.708	29547
704.827	29172
704.946	29409
705.064	29476
705.183	30674
705.301	33514
705.420	47120
705.538	44419
705.656	38786
705.775	40474
705.893	63887
706.012	88255
706.130	41007
706.249	37950
706.367	37969
706.485	37575
706.604	36634
706.722	37225
706.840	37475
706.958	39601
707.077	37391
707.195	35874
707.313	34711
707.431	35448
707.549	34024
707.668	34847
707.786	34645
707.904	34921
708.022	32993
708.140	32679
708.258	32517
708.376	33954
708.494	34119
708.612	35309
708.730	46042
708.848	47165
708.966	42005
709.084	40358
709.202	38649
709.320	40260
709.438	41071
709.556	39747
709.674	39883
709.791	40755
709.909	38971
710.027	38341
710.145	38645
710.263	39288
710.380	37170
710.498	37553
710.616	37609
710.733	37484
710.851	36053
710.969	37963
711.086	36235
711.204	36488
711.322	35591
711.439	36398
711.557	36177
711.674	35814
711.792	35143
711.909	38419
712.027	41124
712.144	35080
712.262	34628
712.379	36950
712.497	48427
712.614	52426
712.732	44765
712.849	41359
712.966	41406
713.084	43106
713.201	42304
713.318	43906
713.436	42621
713.553	43422
713.670	42292
713.787	43013
713.905	42951
714.022	41501
714.139	40312
714.256	40693
714.373	40466
714.490	42110
714.608	46057
714.725	73527
714.842	88098
714.959	40290
715.076	37750
715.193	38322
715.310	37428
715.427	35752
715.544	36667
715.661	36393
715.778	36158
715.895	39566
716.011	38662
716.128	37306
716.245	36313
716.362	36780
716.479	37974
716.596	35277
716.713	36730
716.829	34182
716.946	35744
717.063	34250
717.180	33581
717.296	33295
717.413	34221
717.530	32881
717.646	33346
717.763	34526
717.880	31407
717.996	31986
718.113	32408
718.229	31351
718.346	30641
718.462	31047
718.579	32596
718.695	35792
718.812	35198
718.928	32314
719.045	31723
719.161	30264
719.277	29435
719.394	29698
719.510	32224
719.626	30516
719.743	34636
719.859	31857
719.975	31564
720.092	35732
720.208	51724
720.324	35381
720.440	30503
720.557	31372
720.673	33431
720.789	39514
720.905	55242
721.021	38335
721.137	29312
721.253	29779
721.369	29194
721.486	31170
721.602	32614
721.718	29836
721.834	27244
721.950	27903
722.066	27665
722.181	26747
722.297	27673
722.413	27289
722.529	27189
722.645	27082
722.761	27052
722.877	27029
722.993	26042
723.108	27572
723.224	25993
723.340	27021
723.456	25931
723.571	25198
723.687	24601
723.803	25431
723.918	24136
724.034	24418
724.150	25324
724.265	25594
724.381	31071
724.497	36865
724.612	24222
724.728	23797
724.843	23081
724.959	24132
725.074	29057
725.190	35019
725.305	23722
725.421	24086
725.536	22403
725.651	22106
725.767	23007
725.882	22239
725.997	21894
726.113	21937
726.228	22023
726.343	22986
726.459	20463
726.574	22807
726.689	21714
726.804	20852
726.920	22568
727.035	22855
727.150	21897
727.265	21238
727.380	21673
727.495	22430
727.610	20033
727.725	23462
727.841	24651
727.956	39025
728.071	37681
728.186	22306
728.301	18732
728.416	21608
728.531	19811
728.645	19138
728.760	20377
728.875	20756
728.990	19953
729.105	19092
729.220	19455
729.335	19385
729.449	20174
729.564	18889
729.679	19408
729.794	19924
729.908	18943
730.023	20381
730.138	18278
730.253	18997
730.367	18482
730.482	18770
730.596	17804
730.711	19063
730.826	18422
730.940	18771
731.055	18220
731.169	18348
731.284	17006
731.398	18445
731.513	18870
731.627	18489
731.742	18288
731.856	19732
731.970	17729
732.085	18012
732.199	18514
732.313	17958
732.428	20281
732.542	25879
732.656	22133
732.771	18944
732.885	17010
732.999	16798
733.113	16508
733.227	17713
733.342	16923
733.456	16691
733.570	16798
733.684	16364
733.798	17422
733.912	17049
734.026	15791
734.140	16323
734.254	16250
734.368	19178
734.482	23407
734.596	16548
734.710	16767
734.824	16291
734.938	15734
735.052	15575
735.166	16546
735.280	17161
735.393	17354
735.507	16203
735.621	16571
735.735	21427
735.849	16974
735.962	16705
736.076	16092
736.190	16577
736.303	16580
736.417	20407
736.531	15980
736.644	16507
736.758	14344
736.872	15161
736.985	15217
737.099	16174
737.212	14022
737.326	16400
737.439	16099
737.553	15140
737.666	15180
737.780	15141
737.893	16428
738.007	15819
738.120	15175
738.233	15097
738.347	14998
738.460	15354
738.573	15184
738.687	14881
738.800	16470
738.913	15721
739.026	15318
739.140	16367
739.253	15388
739.366	16099
739.479	14839
739.592	15240
739.705	13694
739.818	15527
739.932	14410
740.045	15402
740.158	15015
740.271	14902
740.384	15267
740.497	14979
740.610	14117
740.723	15327
740.836	15730
740.949	15207
741.062	16084
741.174	16261
741.287	14871
741.400	13811
741.513	14420
741.626	14765
741.739	14572
741.851	15303
741.964	13989
742.077	14230
742.189	14466
742.302	13702
742.415	14667
742.527	14648
742.640	14459
742.753	14346
742.865	14208
742.978	13506
743.090	14104
743.203	15054
743.316	14842
743.428	14526
743.541	15352
743.653	14403
743.766	13899
743.878	14527
743.990	14582
744.103	15752
744.215	13724
744.327	14733
744.440	15105
744.552	15812
744.664	14336
744.777	13485
744.889	13438
745.001	14290
745.113	14264
745.226	13811
745.338	14791
745.450	14653
745.562	14055
745.674	14138
745.786	13829
745.898	14962
746.010	14387
746.122	14785
746.234	14404
746.347	13793
746.459	14506
746.570	14519
746.682	13674
746.794	14591
746.906	14628
747.018	14698
747.130	15000
747.242	14494
747.354	13713
747.466	15670
747.577	13544
747.689	15013
747.801	14026
747.913	14033
748.024	13663
748.136	13955
748.248	13691
748.359	14141
748.471	13548
748.583	14802
748.694	15071
748.806	17834
748.918	14630
749.029	14359
749.141	14842
749.252	14323
749.364	13816
749.475	17142
749.587	15940
749.698	15086
749.809	14508
749.921	15132
750.032	14049
750.144	14154
750.255	13685
750.366	13911
750.478	14403
750.589	15387
750.700	14095
750.811	15074
750.923	15276
751.034	16519
751.145	17861
751.256	15224
751.367	14407
751.479	15690
751.590	15331
751.701	16077
751.812	14982
751.923	15200
752.034	15314
752.145	15112
752.256	14823
752.367	14658
752.478	14722
752.589	14882
752.700	14866
752.811	15366
752.922	15544
753.032	15228
753.143	15547
753.254	14545
753.365	14836
753.476	15608
753.586	15200
753.697	15844
753.808	16027
753.919	15525
754.029	15582
754.140	15298
754.251	15137
754.361	15381
754.472	15854
754.582	15980
754.693	16928
754.804	16666
754.914	16243
755.025	15465
755.135	16589
755.246	17082
755.356	16553
755.466	16322
755.577	16792
755.687	17035
755.798	16903
755.908	17503
756.018	16864
756.129	17712
756.239	17038
756.349	16741
756.460	17613
756.570	17857
756.680	17393
756.790	18619
756.900	18063
757.011	19105
757.121	19026
757.231	19038
757.341	18804
757.451	19153
757.561	18422
757.671	19353
757.781	18995
757.891	20837
758.001	20051
758.111	20312
758.221	20110
758.331	21027
758.441	20674
758.551	22107
758.661	21126
758.771	21761
758.880	22454
758.990	23451
759.100	23325
759.210	24500
759.320	23491
759.429	23686
759.539	23312
759.649	25533
759.758	25304
759.868	26819
759.978	25055
760.087	26495
760.197	26885
760.307	27339
760.416	27697
760.526	27703
760.635	29532
760.745	29492
760.854	30409
760.964	31585
761.073	32086
761.182	32565
761.292	32802
761.401	35497
761.511	34483
761.620	35924
761.729	36693
761.839	38671
761.948	39337
762.057	40312
762.166	40299
762.276	41543
762.385	42869
762.494	44869
762.603	46901
762.712	49800
762.822	51285
762.931	53094
763.040	54832
763.149	57835
763.258	59203
763.367	63203
763.476	66121
763.585	69054
763.694	72148
763.803	76587
763.912	81941
764.021	85822
764.130	91507
764.238	97052
764.347	104960
764.456	112577
764.565	122305
764.674	131746
764.783	144152
764.891	159612
765.000	180783
765.109	202153
765.217	229007
765.326	263509
765.435	307109
765.543	361326
765.652	435062
765.761	536947
765.869	668945
765.978	850625
766.086	1079542
766.195	1329486
766.303	1460358
766.412	1141336
766.520	975429
766.629	1357359
766.737	1337401
766.846	1114992
766.954	882464
767.062	694248
767.171	550068
767.279	443695
767.387	359154
767.496	302331
767.604	260442
767.712	227216
767.820	202621
767.928	186557
768.037	170894
768.145	159694
768.253	154988
768.361	151417
768.469	148888
768.577	151709
768.685	159254
768.793	170126
768.901	185944
769.009	211471
769.117	250076
769.225	308349
769.333	397956
769.441	544723
769.549	772817
769.657	1105987
769.765	1336801
769.873	1015465
769.981	1168606
770.088	1165020
770.196	872595
770.304	635819
770.412	477207
770.519	372123
770.627	298104
770.735	247395
770.842	209633
770.950	182483
771.058	158092
771.165	140404
771.273	126602
771.380	113301
771.488	104463
771.595	96385
771.703	89498
771.810	82983
771.918	76265
772.025	71659
772.133	67397
772.240	63800
772.348	61276
772.455	58629
772.562	55363
772.670	53377
772.777	50334
772.884	48172
772.991	47058
773.099	45176
773.206	43373
773.313	41495
773.420	41314
773.528	38285
773.635	36970
773.742	37141
773.849	35242
773.956	33909
774.063	32930
774.170	32636
774.277	33175
774.384	31861
774.491	29983
774.598	30473
774.705	29820
774.812	29530
774.919	28962
775.026	28213
775.133	26966
775.239	26715
775.346	26598
775.453	25962
775.560	24588
775.667	25097
775.773	23891
775.880	25082
775.987	23676
776.093	23379
776.200	21812
776.307	22227
776.413	22524
776.520	20462
776.627	20639
776.733	21833
776.840	19402
776.946	21056
777.053	18834
777.159	20365
777.266	18850
777.372	20051
777.478	18485
777.585	19267
777.691	17666
777.798	18366
777.904	17808
778.010	20629
778.117	18850
778.223	18060
778.329	17546
778.435	17038
778.542	16365
778.648	15955
778.754	16624
778.860	16940
778.966	16293
779.072	16173
779.178	16573
779.284	15979
779.391	17244
779.497	18241
779.603	23821
779.708	31747
779.815	61135
779.920	181303
780.026	430320
780.132	129365
780.238	32512
780.344	22009
780.450	19083
780.556	16048
780.661	15054
780.767	15056
780.873	13140
780.979	14303
781.085	12957
781.190	13149
781.296	12335
781.402	12499
781.507	12900
781.613	12370
781.719	11882
781.824	11714
781.930	11833
782.035	12043
782.141	11961
782.246	11756
782.352	11500
782.457	11832
782.563	10776
782.668	11971
782.773	12483
782.879	11462
782.984	11346
783.090	12223
783.195	12817
783.300	11555
783.405	10078
783.511	10705
783.616	10183
783.721	11490
783.826	11206
783.932	10097
784.037	10290
784.142	10644
784.247	10500
784.352	10695
784.457	10158
784.562	9887
784.667	9508
784.772	9743
784.877	10051
784.982	11341
785.087	10212
785.192	9590
785.297	9818
785.402	10216
785.507	9252
785.611	10035
785.716	8684
785.821	9092
785.926	9367
786.031	9020
786.135	9266
786.240	9590
786.345	9043
786.450	9072
786.554	8324
786.659	9377
786.763	8019
786.868	9223
786.973	9450
787.077	8513
787.182	9013
787.286	10451
787.391	8358
787.495	9211
787.600	8150
787.704	8084
787.809	7379
787.913	7615
788.017	7895
788.122	8360
788.226	8537
788.330	8788
788.435	8823
788.539	8323
788.643	7230
788.747	9018
788.852	7573
788.956	8000
789.060	7832
789.164	8345
789.268	6384
789.372	7880
789.476	6813
789.580	7689
789.684	7734
789.788	8320
789.892	6616
789.996	8660
790.100	7745
790.204	8551
790.308	7946
790.412	7763
790.516	8267
790.620	8479
790.724	7936
790.828	7114
790.931	7377
791.035	8799
791.139	7857
791.242	7534
791.346	8351
791.450	7956
791.554	7805
791.657	6462
791.761	7555
791.864	8289
791.968	7759
792.072	7259
792.175	6898
792.279	6838
792.382	7296
792.486	7145
792.589	7293
792.693	7794
792.796	6631
792.899	7319
793.003	7218
793.106	5945
793.209	7307
793.313	7789
793.416	5660
793.519	7265
793.623	7333
793.726	8529
793.829	7416
793.932	7405
794.035	7046
794.138	8658
794.242	8576
794.345	10520
794.448	16714
794.551	30955
794.654	97070
794.757	261891
794.860	82248
794.963	16410
795.066	10403
795.169	9332
795.272	7527
795.375	8110
795.477	7497
795.580	7301
795.683	5928
795.786	7310
795.889	4969
795.991	7677
796.094	6996
796.197	6538
796.300	6402
796.402	6766
796.505	5672
796.608	6792
796.710	6137
796.813	5941
796.915	5361
797.018	6759
797.120	6470
797.223	4992
797.326	6391
797.428	6236
797.530	5926
797.633	6115
797.735	6338
797.838	6920
797.940	6661
798.042	6099
798.145	6139
798.247	7081
798.349	5051
798.452	6533
798.554	4690
798.656	5108
798.758	5931
798.860	6334
798.962	5288
799.065	5539
799.167	5120
799.269	6202
799.371	5468
799.473	6315
799.575	4583
799.677	6198
799.779	6957
799.881	5648
799.983	6137
800.085	5770
800.187	5179
800.289	5285
800.390	4458
800.492	4696
800.594	6087
800.696	5556
800.798	5840
800.899	5013
801.001	4881
801.103	4844
801.205	4583
801.306	4674
801.408	5441
801.509	5352
801.611	5230
801.713	5445
801.814	4194
801.916	4356
802.017	4385
802.119	4133
802.220	4742
802.322	4207
802.423	6174
802.525	4926
802.626	5007
802.727	5271
802.829	5485
802.930	3972
803.031	6141
803.133	5136
803.234	4138
803.335	4318
803.436	4069
803.538	5183
803.639	4248
803.740	5851
803.841	4291
803.942	5340
804.043	5481
804.144	4304
804.245	5237
804.346	4265
804.447	3227
804.548	5578
804.649	5272
804.750	4296
804.851	4319
804.952	4265
805.053	3836
805.154	4067
805.255	5297
805.355	4395
805.456	4383
805.557	3501
805.658	3970
805.758	5021
805.859	4159
805.960	4322
806.061	3771
806.161	5262
806.262	4551
806.362	3881
806.463	3544
806.564	5096
806.664	3638
806.765	5045
806.865	5644
806.966	4381
807.066	4650
807.166	4809
807.267	4781
807.367	3582
807.468	4713
807.568	3785
807.668	4361
807.769	4810
807.869	3832
807.969	3680
808.069	4093
808.170	4760
808.270	4023
808.370	4573
808.470	3192
808.570	4346
808.670	3741
808.770	4993
808.870	3958
808.970	4161
809.070	3699
809.170	3827
809.271	4568
809.370	3721
809.470	3893
809.570	4376
809.670	3371
809.770	3950
809.870	4004
809.970	4125
810.070	3664
810.169	4615
810.269	3274
810.369	4600
810.469	4298
810.568	4710
810.668	3317
810.768	3419
810.867	3053
810.967	4459
811.066	4085
811.166	3824
811.265	4665
811.365	4549
811.464	3522
811.564	4902
811.663	4567
811.763	2426
811.862	4127
811.962	4239
812.061	5003
812.160	4328
812.260	4491
812.359	5239
812.458	5668
812.557	10350
812.657	13612
812.756	9288
812.855	4384
812.954	4935
813.053	4952
813.153	5304
813.252	4415
813.351	4885
813.450	4145
813.549	4072
813.648	4601
813.747	4075
813.846	5601
813.945	4138
814.044	4836
814.143	5010
814.242	4928
814.341	4695
814.439	4579
814.538	5766
814.637	4723
814.736	4751
814.835	5640
814.933	4768
815.032	6069
815.131	5913
815.229	5005
815.328	5886
815.427	5425
815.525	6647
815.624	6272
815.722	5751
815.821	6907
815.919	6626
816.018	6890
816.116	7937
816.215	7008
816.313	7315
816.412	7947
816.510	8527
816.609	9552
816.707	10538
816.805	9121
816.904	10768
817.002	12287
817.100	12703
817.198	14779
817.296	16841
817.395	18224
817.493	23481
817.591	26489
817.689	33980
817.787	43887
817.885	63246
817.983	99581
818.081	175034
818.179	327310
818.277	597134
818.375	632367
818.473	383133
818.571	205809
818.669	129179
818.767	102490
818.865	96485
818.963	103975
819.061	131198
819.158	187960
819.256	302974
819.354	510640
819.452	740618
819.549	669162
819.647	461642
819.745	275463
819.842	171076
819.940	115715
820.038	83405
820.135	64084
820.233	51631
820.330	40833
820.428	33977
820.525	29916
820.623	27165
820.720	22262
820.818	21674
820.915	18150
821.012	17692
821.110	13911
821.207	14680
821.304	12760
821.402	12151
821.499	12317
821.596	11398
821.693	9861
821.791	10414
821.888	9984
821.985	9176
822.082	9396
822.179	7974
822.276	7209
822.373	7460
822.470	6579
822.567	7643
822.664	6768
822.761	7632
822.858	5428
822.955	6928
823.052	5766
823.149	5958
823.246	4918
823.343	5622
823.440	6033
823.536	5018
823.633	4044
823.730	4484
823.827	5301
823.923	5033
824.020	5105
824.117	4871
824.213	4013
824.310	4684
824.407	3766
824.503	5026
824.600	3372
824.696	4306
824.793	4499
824.889	3649
824.986	3182
825.082	3992
825.179	4411
825.275	3620
825.371	2505
825.468	4994
825.564	2838
825.660	4250
825.757	3411
825.853	4887
825.949	3146
826.045	3979
826.142	2868
826.238	3070
826.334	3795
826.430	2871
826.526	4110
826.622	3807
826.718	3269
826.814	3640
826.910	3566
827.006	3743
827.102	2623
827.198	3105
827.294	2113
827.390	2888
827.486	2976
827.582	2259
827.678	2075
827.774	3559
827.869	2156
827.965	3781
828.061	2301
828.157	2920
828.252	3230
828.348	2608
828.444	3493
828.539	1547
828.635	2779
828.731	3278
828.826	2359
828.922	3624
829.017	2550
829.113	2852
829.208	2334
829.304	2421
829.399	3015
829.495	2857
829.590	3078
829.685	3346
829.781	2814
829.876	3087
829.971	2578
830.066	2982
830.162	2793
830.257	2120
830.352	2310
830.447	3325
830.543	2070
830.638	1297
830.733	3476
830.828	2889
830.923	2539
831.018	2419
831.113	2693
831.208	2213
831.303	2709
831.398	2539
831.493	1650
831.588	2857
831.683	1530
831.778	3237
831.873	2656
831.967	3315
832.062	1385
832.157	2168
832.252	3563
832.346	2502
832.441	2773
832.536	3556
832.631	4549
832.725	5199
832.820	2346
832.914	1933
833.009	2027
833.104	2417
833.198	3587
833.293	2024
833.387	2361
833.482	1848
833.576	1888
833.670	2228
833.765	2902
833.859	1525
833.954	2342
834.048	2457
834.142	2205
834.237	2544
834.331	2007
834.425	2275
834.519	1558
834.613	1917
834.708	1346
834.802	2422
834.896	1455
834.990	2346
835.084	2071
835.178	2145
835.272	1805
835.366	2349
835.460	2845
835.554	2471
835.648	1721
835.742	1851
835.836	1979
835.930	1501
836.024	1837
836.117	2669
836.211	2041
836.305	2966
836.399	3051
836.493	2018
836.586	3083
836.680	2764
836.774	1778
836.867	3946
836.961	1343
837.055	1576
837.148	1988
837.242	1828
837.335	1622
837.429	1446
837.522	2015
837.616	2556
837.709	3213
837.803	3228
837.896	2867
837.989	1698
838.083	2907
838.176	4284
838.269	4393
838.363	3545
838.456	2247
838.549	2961
838.642	2592
838.735	6079
838.829	3687
838.922	1365
839.015	1642
839.108	1686
839.201	2515
839.294	2537
839.387	1343
839.480	1894
839.573	1462
839.666	2690
839.759	1218
839.852	2331
839.945	2040
840.038	2023
840.131	1638
840.223	1865
840.316	2958
840.409	2130
840.502	860
840.594	2992
840.687	620
840.780	2246
840.873	1639
840.965	1645
841.058	2588
841.150	3859
841.243	2307
841.336	2667
841.428	1730
841.521	1459
841.613	762
841.706	2569
841.798	2073
841.890	1867
841.983	921
842.075	3145
842.167	2104
842.260	2395
842.352	1692
842.444	3124
842.537	2768
842.629	6482
842.721	3031
842.813	2232
842.905	1442
842.997	2899
843.090	2235
843.182	3080
843.274	3905
843.366	7335
843.458	14014
843.550	11424
843.642	2978
843.734	1387
843.826	2853
843.918	2141
844.009	1763
844.101	1548
844.193	2188
844.285	2372
844.377	2738
844.469	2830
844.560	1586
844.652	2230
844.744	1590
844.835	2566
844.927	1967
845.019	2488
845.110	1592
845.202	2586
845.293	2331
845.385	1914
845.476	2005
845.568	2961
845.659	1644
845.751	2063
845.842	2610
845.934	1235
846.025	1205
846.116	2133
846.208	1240
846.299	2033
846.390	1953
846.482	2782
846.573	2015
846.664	2820
846.755	2189
846.846	3192
846.937	790
847.029	2400
847.120	1715
847.211	2437
847.302	2212
847.393	1034
847.484	2280
847.575	1574
847.666	1523
847.757	1834
847.847	1406
847.938	2231
848.029	1141
848.120	1433
848.211	1080
848.302	2710
848.392	1739
848.483	2368
848.574	1703
848.664	2085
848.755	1504
848.846	2113
848.936	1705
849.027	2207
849.118	2416
849.208	1513
849.299	1603
849.389	1961
849.480	2062
849.570	2094
849.661	2378
849.751	2686
849.841	1297
849.932	2100
850.022	1304
850.112	2035
850.203	1430
850.293	1089
850.383	461
850.474	1320
850.564	1918
850.654	1484
850.744	1801
850.834	2060
850.924	1293
851.014	2429
851.104	2354
851.194	1938
851.284	2387
851.374	2255
851.464	2438
851.554	1787
851.644	2040
851.734	3490
851.824	5172
851.914	8136
852.004	14385
852.094	20412
852.183	6705
852.273	2255
852.363	1949
852.452	2264
852.542	1836
852.632	1871
852.721	996
852.811	1314
852.901	1520
852.990	1776
853.080	1727
853.169	1479
853.259	1175
853.348	1483
853.438	779
853.527	1888
853.617	1824
853.706	2320
853.795	1384
853.885	3344
853.974	3004
854.063	4412
854.152	5648
854.242	4588
854.331	1414
854.420	1429
854.509	924
854.598	1550
854.687	1831
854.777	1642
854.866	936
854.955	1838
855.044	1812
855.133	1389
855.222	646
855.311	1406
855.400	991
855.488	1089
855.577	954
855.666	1831
855.755	2511
855.844	2804
855.933	3005
856.021	2548
856.110	1847
856.199	1368
856.288	1105
856.376	1529
856.465	755
856.554	1994
856.642	1021
856.731	1780
856.819	1867
856.908	1785
856.996	1489
857.085	1137
857.173	1103
857.262	1380
857.350	1609
857.438	1547
857.527	1295
857.615	1128
857.703	1679
857.792	1184
857.880	653
857.968	433
858.056	1090
858.145	1723
858.233	1466
858.321	932
858.409	2384
858.497	1091
858.585	219
858.673	1457
858.761	966
858.849	1378
858.937	1280
859.025	2112
859.113	1533
859.201	-317
859.289	1551
859.377	1316
859.465	1116
859.552	2073
859.640	577
859.728	1453
859.816	1376
859.903	1438
859.991	1117
860.079	710
860.166	1168
860.254	1362
860.342	700
860.429	571
860.517	864
860.604	1209
860.692	828
860.779	161
860.867	604
860.954	1910
861.042	1264
861.129	1741
861.216	868
861.304	1517
861.391	626
861.478	1142
861.565	1014
861.653	1449
861.740	392
861.827	1217
861.914	1567
862.001	1398
862.089	415
862.176	1005
862.263	883
862.350	1105
862.437	717
862.524	995
862.611	800
862.698	1959
862.785	892
862.871	1052
862.958	-80
863.045	1575
863.132	1177
863.219	1387
863.306	-432
863.392	1310
863.479	740
863.566	1071
863.652	1633
863.739	799
863.826	1157
863.912	1940
863.999	269
864.086	1150
864.172	182
864.259	1552
864.345	909
864.432	1398
864.518	952
864.604	1486
864.691	-540
864.777	1156
864.863	1058
864.950	1285
865.036	62
865.122	159
865.209	998
865.295	831
865.381	368
865.467	1017
865.553	1584
865.639	1015
865.726	1701
865.812	1855
865.898	2005
865.984	3105
866.070	4223
866.156	5681
866.242	1578
866.328	1658
866.414	747
866.499	1353
866.585	1085
866.671	1260
866.757	521
866.843	997
866.928	923
867.014	503
867.100	1440
867.186	681
867.271	1120
867.357	937
867.442	1720
867.528	1669
867.614	793
867.699	971
867.785	1343
867.870	1076
867.956	717
868.041	1668
868.127	962
868.212	1095
868.297	509
868.383	701
868.468	1642
868.553	2471
868.639	2859
868.724	4664
868.809	5612
868.894	2672
868.979	1118
869.065	884
869.150	762
869.235	1089
869.320	54
869.405	1277
869.490	-137
869.575	505
869.660	525
869.745	1069
869.830	189
869.915	417
870.000	573
870.085	686
870.169	620
870.254	883
870.339	590
870.424	554
870.509	557
870.593	368
870.678	842
870.763	457
870.847	837
870.932	76
871.016	597
871.101	423
871.186	963
871.270	867
871.355	749
871.439	1651
871.523	495
871.608	712
871.692	463
871.777	722
871.861	1019
871.945	627
872.030	436
872.114	-82
872.198	163
872.282	610
872.367	583
872.451	782
872.535	-403
872.619	204
872.703	-20
872.787	790
872.871	571
872.955	552
873.039	708
873.123	194
873.207	705
873.291	22
873.375	99
873.459	401
873.543	-409
873.627	531
873.711	1104
873.794	220
873.878	-293
873.962	735
874.045	339
874.129	678
874.137	675
874.213	642
874.245	623
874.296	596
874.352	269
874.380	110
874.460	649
874.464	671
874.547	616
874.568	744
874.631	1130
874.676	379
874.714	-245
874.784	633
874.798	802
874.881	1195
874.892	1053
874.965	71
874.999	-34
875.048	-170
875.107	-100
875.131	-80
875.215	-88
875.215	-88
875.298	42
875.323	129
875.381	339
875.430	541
875.465	712
875.538	530
875.548	489
875.631	432
875.646	347
875.714	-3
875.753	17
875.798	22
875.861	-71
875.881	-86
875.964	405
875.968	368
876.047	-235
876.076	32
876.130	450
876.183	381
876.213	349
876.291	53
876.296	37
876.379	437
876.398	540
876.462	887
876.506	469
876.545	41
876.613	627
876.628	769
876.711	1077
876.721	998
876.794	370
876.828	395
876.877	424
876.935	136
876.960	18
877.043	-51
877.043	-46
877.125	1020
877.150	803
877.208	406
877.258	495
877.291	509
877.365	427
877.374	424
877.456	550
877.472	568
877.539	551
877.579	626
877.622	710
877.687	344
877.704	260
877.787	1140
877.794	1072
877.869	314
877.901	326
877.952	299
878.008	345
878.034	400
878.115	274
878.117	270
878.199	262
878.222	284
878.282	420
878.329	607
878.364	649
878.437	870
878.447	915
878.529	-188
878.544	-198
878.611	-266
878.651	-486
878.694	-634
878.758	294
878.776	533
878.858	32
878.865	52
878.941	263
878.972	267
879.023	183
879.078	11
879.105	16
879.185	685
879.187	697
879.269	258
879.292	232
879.351	99
879.399	335
879.433	493
879.506	357
879.516	347
879.598	425
879.613	424
879.680	225
879.720	355
879.762	581
879.827	17
879.844	-100
879.926	268
879.933	269
880.007	108
880.040	69
880.089	-33
880.147	-246
880.171	-189
880.253	964
880.254	966
880.335	703
880.360	698
880.417	1260
880.467	1623
880.499	1875
880.574	2985
880.580	2984
880.662	1612
880.680	1364
880.744	680
880.787	249
880.825	51
880.893	208
880.907	208
880.989	283
881.000	224
881.070	196
881.106	-9
881.152	-410
881.213	-245
881.233	-232
881.315	-785
881.319	-772
881.396	-294
881.426	-375
881.478	-443
881.532	-28
881.559	137
881.639	-189
881.641	-198
881.722	164
881.745	77
881.803	166
881.852	431
881.885	258
881.958	-138
881.966	-146
882.047	-121
882.064	-79
882.129	203
882.171	42
882.210	116
882.277	1210
882.291	1343
882.372	778
882.383	709
882.454	-58
882.489	-186
882.535	-88
882.596	53
882.616	43
882.697	145
882.702	115
882.778	220
882.808	550
882.859	628
882.914	252
882.940	239
883.020	437
883.021	434
883.102	177
883.127	-28
883.183	-97
883.233	90
883.264	79
883.339	170
883.345	193
883.426	-196
883.445	-12
883.507	462
883.551	226
883.587	28
883.657	234
883.668	310
883.749	365
883.763	438
883.830	592
883.869	491
883.910	180
883.975	110
883.991	129
884.072	-327
884.081	-345
884.152	-126
884.187	-111
884.233	-179
884.292	65
884.314	88
884.394	-245
884.398	-241
884.475	235
884.504	272
884.555	178
884.610	121
884.636	32
884.716	18
884.716	18
884.797	48
884.821	-27
884.877	-163
884.927	-81
884.958	-74
885.033	-343
885.038	-340
885.118	128
885.139	189
885.199	283
885.244	395
885.279	280
885.350	-152
885.359	-172
885.439	221
885.456	97
885.520	-351
885.561	-126
885.600	227
885.667	380
885.680	386
885.760	714
885.773	766
885.840	475
885.878	290
885.920	264
885.984	-285
886.000	-396
886.080	71
886.089	46
886.160	123
886.195	306
886.240	296
886.300	164
886.320	115
886.400	281
886.406	266
886.480	152
886.511	227
886.560	356
886.616	302
886.640	382
886.720	843
886.722	850
886.800	401
886.827	286
886.879	317
886.932	257
886.959	167
887.038	82
887.039	79
887.119	-283
887.143	-331
887.198	-15
887.248	192
887.278	190
887.354	311
887.358	319
887.437	384
887.459	434
887.517	184
887.564	-97
887.596	-58
887.669	45
887.676	31
887.755	-90
887.774	-80
887.835	104
887.880	128
887.914	104
887.985	204
887.994	238
888.073	452
888.090	487
888.153	583
888.195	708
888.232	446
888.300	8
888.311	56
888.391	256
888.405	319
888.470	200
888.510	75
888.549	188
888.615	489
888.628	384
888.708	-369
888.720	-468
888.787	277
888.825	657
888.866	466
888.930	244
888.945	213
889.024	16
889.035	-6
889.103	-43
889.140	-72
889.182	-6
889.245	127
889.261	295
889.340	1072
889.349	1166
889.419	507
889.454	167
889.498	148
889.559	139
889.577	171
889.656	321
889.664	341
889.735	34
889.768	-110
889.814	-244
889.873	-410
889.978	227
890.083	458
890.187	356
890.292	557
890.397	-106
890.501	286
890.606	-233
890.710	142
890.815	264
890.919	-282
891.024	-496
891.128	407
891.233	482
891.337	432
891.442	292
891.546	661
891.650	95
891.755	189
891.859	755
891.963	431
892.068	498
892.172	-332
892.276	95
892.380	288
892.484	273
892.589	664
892.693	211
892.797	-696
892.901	149
893.005	374
893.109	-117
893.213	1231
893.317	-205
893.421	679
893.525	281
893.629	390
893.733	652
893.837	-461
893.941	220
894.045	1059
894.148	1201
894.252	274
894.356	70
894.460	633
894.564	253
894.667	564
894.771	16
894.875	-433
894.978	446
895.082	-67
895.186	660
895.289	867
895.393	176
895.496	-106
895.600	204
895.703	520
895.807	647
895.910	393
896.014	4
896.117	680
896.221	401
896.324	-175
896.427	249
896.531	490
896.634	332
896.737	858
896.840	316
896.944	-536
897.047	572
897.150	-100
897.253	-135
897.356	533
897.460	-92
897.563	-231
897.666	174
897.769	674
897.872	696
897.975	-476
898.078	318
898.181	-219
898.284	-599
898.387	981
898.490	215
898.593	303
898.695	292
898.798	-141
898.901	-296
899.004	-419
899.107	269
899.209	276
899.312	353
899.415	774
899.518	164
899.620	133
899.723	573
899.826	408
899.928	1090
900.031	634
900.133	420
900.236	-538
900.338	-307
900.441	-191
900.543	998
900.646	103
900.748	419
900.851	-548
900.953	-224
901.055	1406
901.158	576
901.260	231
901.362	-185
901.465	-240
901.567	81
901.669	201
901.771	195
901.873	-12
901.976	694
902.078	1080
902.180	-354
902.282	275
902.384	103
902.486	74
902.588	-250
902.690	857
902.792	513
902.894	260
902.996	-183
903.098	-94
903.200	-120
903.302	155
903.404	375
903.505	-71
903.607	358
903.709	394
903.811	265
903.913	-290
904.014	-678
904.116	333
904.218	148
904.319	-229
904.421	549
904.523	-267
904.624	-146
904.726	92
904.827	754
904.929	368
905.030	-554
905.132	868
905.233	-643
905.335	83
905.436	711
905.537	474
905.639	372
905.740	-163
905.841	6
905.943	281
906.044	-587
906.145	-64
906.247	585
906.348	-140
906.449	-47
906.550	-169
906.651	461
906.752	441
906.854	382
906.955	-115
907.056	132
907.157	352
907.258	221
907.359	-228
907.460	218
907.561	357
907.662	322
907.762	255
907.863	-180
907.964	508
908.065	529
908.166	107
908.267	235
908.367	-434
908.468	-43
908.569	499
908.670	238
908.770	776
908.871	30
908.971	-74
909.072	886
909.173	102
909.273	-6
909.374	266
909.474	33
909.575	38
909.675	-205
909.776	414
909.876	107
909.977	23
910.077	786
910.177	-174
910.278	135
910.378	229
910.478	-252
910.579	-415
910.679	-61
910.779	192
910.879	595
910.980	-89
911.080	90
911.180	-372
911.280	-311
911.380	-698
911.480	-695
911.580	-228
911.680	-134
911.780	622
911.880	314
911.980	165
912.080	-270
912.180	-64
912.280	-477
912.380	-85
912.480	-333
912.580	-55
912.679	-603
912.779	784
912.879	-151
912.979	292
913.078	-1
913.178	-412
913.278	-161
913.377	409
913.477	137
913.577	0
913.676	758
913.776	-59
913.875	89
913.975	319
914.074	399
914.174	703
914.273	-457
914.373	-362
914.472	-367
914.572	-191
914.671	-318
914.770	336
914.870	-417
914.969	115
915.068	-343
915.167	-115
915.267	2
915.366	-437
915.465	-90
915.564	-228
915.663	-280
915.763	-117
915.862	-404
915.961	170
916.060	-836
916.159	-17
916.258	113
916.357	258
916.456	-289
916.555	3
916.654	43
916.752	-52
916.851	-239
916.950	665
917.049	15
917.148	89
917.247	-56
917.345	-194
917.444	-1248
917.543	642
917.642	-266
917.740	-362
917.839	112
917.937	537
918.036	283
918.135	-24
918.233	-112
918.332	-145
918.430	476
918.529	-154
918.627	-95
918.726	56
918.824	624
918.923	-735
919.021	-11
919.119	-632
919.218	138
919.316	-244
919.414	358
919.512	355
919.611	-610
919.709	-234
919.807	165
919.905	-22
920.003	-41
920.102	-851
920.200	-550
920.298	302
920.396	-456
920.494	272
920.592	367
920.690	-184
920.788	-203
920.886	66
920.984	-351
921.082	-454
921.180	502
921.277	-58
921.375	-26
921.473	-357
921.571	191
921.669	-881
921.766	607
921.864	298
921.962	-473
922.060	-336
922.157	-310
922.255	-186
922.352	-515
922.450	341
922.548	104
922.645	-952
922.743	-474
922.840	-382
922.938	-452
923.035	249
923.133	-354
923.230	251
923.327	-575
923.425	87
923.522	143
923.619	-441
923.717	-416
923.814	-431
923.911	-77
924.008	517
924.106	-485
924.203	-1449
924.300	-267
924.397	-357
924.494	-216
924.591	329
924.688	-71
924.786	113
924.883	598
924.979	-168
925.077	501
925.173	215
925.270	-205
925.367	-303
925.464	239
925.561	109
925.658	-283
925.755	-670
925.852	-84
925.948	-160
926.045	569
926.142	-435
926.239	447
926.335	-598
926.432	839
926.529	-738
926.625	-246
926.722	-342
926.818	-833
926.915	481
927.011	-696
927.108	13
927.204	-701
927.301	397
927.397	-806
927.494	-246
927.590	437
927.687	-92
927.783	17
927.879	-305
927.976	-534
928.072	79
928.168	-670
928.264	-1019
928.361	-774
928.457	-657
928.553	-1019
928.649	-41
928.745	-149
928.841	-453
928.937	-806
929.033	375
929.129	-361
929.225	-124
929.321	-187
929.417	-1025
929.513	-642
929.609	-739
929.705	-439
929.801	-590
929.897	-650
929.993	-280
930.089	-637
930.184	-136
930.280	390
930.376	-1105
930.471	-484
930.567	349
930.663	-1133
930.758	-659
930.854	-185
930.950	-900
931.045	446
931.141	-60
931.236	307
931.332	-352
931.427	-1175
931.523	-652
931.618	171
931.714	-740
931.809	239
931.905	-118
932.000	-538
932.095	-527
932.191	-216
932.286	-1128
932.381	-217
932.476	-228
932.572	-741
932.667	243
932.762	-423
932.857	-767
932.952	-219
933.047	-149
933.142	-452
933.237	-397
933.332	-226
933.427	-896
933.522	316
933.617	-357
933.712	-204
933.807	-17
933.902	-950
933.997	-607
934.092	-213
934.187	-82
934.282	-173
934.376	-598
934.471	-563
934.566	-794
934.661	-606
934.755	-258
934.850	-650
934.945	-128
935.039	-107
935.134	302
935.228	434
935.323	-634
935.417	-248
935.512	-796
935.606	-546
935.701	-261
935.795	-325
935.890	145
935.984	18
936.079	-319
936.173	31
936.267	-582
936.362	-485
936.456	-827
936.550	-660
936.644	-719
936.738	361
936.833	-339
936.927	-185
937.021	-274
937.115	-498
937.209	-630
937.303	145
937.397	-239
937.491	-1031
937.585	-88
937.679	-241
937.773	-731
937.867	-790
937.961	-651
938.055	-532
938.149	-166
938.243	217
938.337	76
938.430	-59
938.524	-524
938.618	-513
938.712	268
938.805	-539
938.899	-371
938.993	-785
939.086	-805
939.180	-90
939.274	-211
939.367	-504
939.461	-201
939.554	-538
939.648	-451
939.741	-283
939.835	-660
939.928	639
940.022	-758
940.115	-698
940.208	218
940.302	-551
940.395	242
940.488	-556
940.582	-317
940.675	-550
940.768	-429
940.861	-1212
940.954	302
941.048	-802
941.141	-308
941.234	-766
941.327	-448
941.420	420
941.513	-661
941.606	-98
941.699	125
941.792	61
941.885	-1346
941.978	-719
942.071	-297
942.164	-883
942.257	-273
942.349	-674
942.442	-476
942.535	-461
942.628	94
942.721	-85
942.813	-753
942.906	54
942.999	-244
943.091	-192
943.184	-846
943.277	-451
943.369	258
943.462	-593
943.554	-249
943.647	-253
943.739	-215
943.832	-407
943.924	100
944.017	-207
944.109	-788
944.201	-890
944.294	-204
944.386	144
944.478	107
944.571	71
944.663	-530
944.755	-272
944.847	-568
944.940	-341
945.032	-1031
945.124	-786
945.216	20
945.308	-240
945.400	-66
945.492	312
945.584	-372
945.676	-264
945.768	-974
945.860	-499
945.952	-893
946.044	403
946.136	-651
946.228	-331
946.320	-215
946.412	-113
946.503	-259
946.595	-332
946.687	-632
946.779	-1014
946.870	-103
946.962	-724
947.054	53
947.145	-281
947.237	-309
947.329	-398
947.420	-564
947.512	-461
947.603	66
947.695	-211
947.786	-806
947.878	-152
947.969	-587
948.061	-698
948.152	-762
948.243	103
948.335	510
948.426	-595
948.517	234
948.609	-220
948.700	-473
948.791	-56
948.882	-547
948.973	-415
949.065	135
949.156	-319
949.247	-1059
949.338	-370
949.429	-425
949.520	-19
949.611	-946
949.702	-206
949.793	-345
949.884	-293
949.975	-186
950.066	-797
950.157	-1094
950.247	-621
950.338	-796
950.429	-410
950.520	-733
950.611	-209
950.701	14
950.792	-1291
950.883	-343
950.973	-727
951.064	-781
951.155	-901
951.245	70
951.336	-448
951.427	-594
951.517	-195
951.608	-28
951.698	-772
951.788	-276
951.879	-774
951.969	-740
952.060	-1697
952.150	-463
952.240	6
952.331	-1435
952.421	127
952.511	-384
952.602	-634
952.692	6
952.782	-393
952.872	-462
952.962	-670
953.052	-440
953.143	-1061
953.233	261
953.323	-708
953.413	-363
953.503	300
953.593	-636
953.683	-1113
953.773	-1079
953.863	-835
953.953	-64
954.042	-468
954.132	-1085
954.222	-503
954.312	-988
954.402	-265
954.492	-860
954.581	-704
954.671	15
954.761	-932
954.850	534
954.940	-741
955.030	191
955.119	-378
955.209	-431
955.298	-929
955.388	-1372
955.477	-1300
955.567	-846
955.656	55
955.746	127
955.835	112
955.925	-1601
956.014	-1346
956.103	-874
956.193	-250
956.282	-392
956.371	-371
956.461	-481
956.550	-1475
956.639	-416
956.728	-209
956.817	2
956.906	-1249
956.995	335
957.085	-799
957.174	-870
957.263	-1113
957.352	-1564
957.441	-244
957.530	-449
957.619	-768
957.708	-1211
957.796	-247
957.885	-156
957.974	-1124
958.063	-1148
958.152	-802
958.241	-688
958.329	-896
958.418	-1103
958.507	-1276
958.596	-203
958.684	-1511
958.773	-281
958.861	-772
958.950	-8
959.039	-262
959.127	-1437
959.216	371
959.304	-529
959.393	-513
959.481	-446
959.570	-929
959.658	-493
959.746	-267
959.835	-1276
959.923	-138
960.011	-37
960.100	-767
960.188	-4
960.276	-611
960.365	-801
960.453	-931
960.541	-479
960.629	-893
960.717	-1341
960.805	-954
960.893	-299
960.981	-1206
961.069	65
961.158	-564
961.245	23
961.333	177
961.421	-795
961.509	-519
961.597	-756
961.685	-434
961.773	-615
961.861	-1082
961.949	-242
962.036	-1152
962.124	-274
962.212	-687
962.299	-186
962.387	-584
962.475	-1024
962.562	-1303
962.650	-564
962.738	-978
962.825	-926
962.913	-424
963.000	-335
963.088	8
963.175	-199
963.263	-999
963.350	-1067
963.438	-595
963.525	-1597
963.612	-496
963.700	-50
963.787	2369
963.874	1070
963.962	-396
964.049	-902
964.136	-832
964.223	-850
964.310	47
964.398	-77
964.485	-1176
964.572	-836
964.659	115
964.746	-567
964.833	-857
964.920	-609
965.007	-705
965.094	-413
965.181	-781
965.268	-1095
965.355	-1303
965.441	-1050
965.528	-282
965.615	-1299
965.702	-743
965.789	-242
965.875	-579
965.962	-1277
966.049	-1499
966.136	-1004
966.222	-744
966.309	-1127
966.395	-1285
966.482	-671
966.569	-709
966.655	-1487
966.742	-1370
966.828	-524
966.915	-959
967.001	-404
967.087	-787
967.174	-1134
967.260	-1309
967.347	-375
967.433	-1002
967.519	1228
967.605	252
967.692	-1178
967.778	-671
967.864	-1300
967.950	-732
968.036	-685
968.123	-320
968.209	-510
968.295	-1062
968.381	437
968.467	-405
968.553	-1876
968.639	-404
968.725	-1319
968.811	-345
968.897	-524
968.983	-654
969.069	-1247
969.154	0
969.240	-314
969.326	-841
969.412	-1281
969.497	-1402
969.583	-1168
969.669	-1072
969.755	-974
969.840	-411
969.926	-206
970.012	-705
970.097	-350
970.183	-1026
970.268	-913
970.354	-858
970.439	-1170
970.525	904
970.610	-604
970.696	-962
970.781	-1178
970.866	-1826
970.952	-1378
971.037	-1225
971.122	-1268
971.208	145
971.293	-1239
971.378	-1673
971.463	-1833
971.549	-380
971.634	-166
971.719	-678
971.804	-1234
971.889	-298
971.974	-1601
972.059	-1015
972.144	-1124
972.229	-535
972.314	-1352
972.399	-1098
972.484	-1592
972.569	-885
972.654	-1558
972.739	-135
972.824	-466
972.908	-430
972.993	-986
973.078	-768
973.163	-630
973.247	-572
973.332	-1996
973.417	310
973.501	-1343
973.586	-564
973.671	-1206
973.755	-1439
973.840	-71
973.924	-1132
974.009	-1074
974.093	-1357
974.178	-253
974.262	-551
974.346	-1183
974.431	-1092
974.515	-1726
974.600	-994
974.684	-1081
974.768	-1373
974.852	-259
974.937	-2185
975.021	-958
975.105	-1367
975.189	-1298
975.273	-1101
975.358	-1235
975.442	-891
975.526	-308
975.610	-833
975.694	-1367
975.778	-1425
975.862	-1353
975.946	-1881
976.030	-471
976.114	-1082
976.198	-1260
976.281	-1300
976.365	-519
976.449	-992
976.533	-627
976.617	-1168
976.700	-1221
976.784	-1533
976.868	-1383
976.951	-591
977.035	-487
977.119	-440
977.202	-2002
977.286	-1254
977.369	-1591
977.453	-461
977.536	-1060
977.620	-1822
977.703	-1004
977.787	-1627
977.870	-630
977.953	-694
978.037	-1817
978.120	-610
978.203	-1101
978.287	-739
978.370	-819
978.453	-2042
978.536	-1219
978.620	-771
978.703	-1301
978.786	-591
978.869	-1250
978.952	-1794
979.035	-439
979.118	-896
979.201	-1809
979.284	-1756
979.367	-1700
979.450	-1598
979.533	-1235
979.616	-1508
979.699	-1260
979.782	-1195
979.865	-858
979.948	-1153
980.030	-1297
980.113	-765
980.196	-1671
980.279	-1068
980.361	-1506
980.444	-963
980.526	-731
980.609	-1199
980.692	-1459
980.774	-1194
980.857	-2328
980.939	-351
981.022	-1353
981.104	-2548
981.187	-1660
981.269	-1068
981.352	-709
981.434	-2039
981.516	-1832
981.599	259
981.681	-748
981.763	-1652
981.846	-1682
981.928	-1024
982.010	-942
982.092	-1498
982.174	-873
982.256	-1359
982.339	-1135
982.421	-1892
982.503	-1590
982.585	-1822
982.667	-1279
982.749	-809
982.831	-1677
982.913	-1313
982.995	-181
983.077	-1720
983.158	-827
983.240	-1608
983.322	-570
983.404	-1943
983.486	-1367
983.568	-729
983.649	-1531
983.731	-1679
983.813	-2184
983.894	-1177
983.976	-1825
984.058	-1882
984.139	-343
984.221	-1724
984.302	-1057
984.384	-1294
984.465	-1725
984.547	-1006
984.628	-1423
984.710	-747
984.791	-2202
984.872	-1360
984.954	-848
985.035	-980
985.116	-1668
985.198	-1683
985.279	-959
985.360	-1450
985.441	-1072
985.522	-909
985.604	-797
985.685	-2421
985.766	-704
985.847	-241
985.928	-2130
986.009	-1638
986.090	-1133
986.171	-1170
986.252	-1009
986.333	-402
986.414	-535
986.495	-2133
986.576	-1490
986.656	-964
986.737	-971
986.818	-2025
986.899	-1856
986.980	-1430
987.060	-987
987.141	-1733
987.222	-2091
987.302	-1111
987.383	-571
987.464	-1436
987.544	-611
987.625	-1073
987.705	-1563
987.786	-1813
987.866	-2540
987.947	-1855
988.027	-925
988.108	-2058
988.188	-665
988.268	-1263
988.349	-1110
988.429	-2014
988.509	-1516
988.589	-2182
988.670	-2400
988.750	-708
988.830	-1276
988.910	-1402
988.990	-1573
989.070	-1067
989.151	-1328
989.231	-1974
989.311	-1410
989.391	-1143
989.471	-1321
989.551	-1705
989.631	-1885
989.711	-1569
989.791	-1392
989.870	-1989
989.950	-1160
990.030	-1645
990.110	-2166
990.190	-1650
990.269	-1179
990.349	-1633
990.429	-1290
990.509	-929
990.588	-1764
990.668	-1079
990.747	-1345
990.827	-1372
990.907	-1594
990.986	-1498
991.066	-1247
991.145	-1140
991.225	-803
991.304	-1384
991.383	-1188
991.463	-1799
991.542	-1097
991.622	-2567
991.701	-1579
991.780	-1762
991.859	-1703
991.939	-1373
992.018	-1550
992.097	-1622
992.176	-1700
992.256	-2591
992.335	-1681
992.414	-2072
992.493	-1770
992.572	-1711
992.651	-955
992.730	-1880
992.809	-1663
992.888	-1871
992.967	-1443
993.046	-1584
993.125	-2256
993.203	-1281
993.282	-1573
993.361	-1998
993.440	-1708
993.519	-1852
993.597	-1218
993.676	-2463
993.755	-932
993.834	-2486
993.912	-2243
993.991	-682
994.069	-1781
994.148	-1465
994.226	-1705
994.305	-1237
994.384	-2027
994.462	-861
994.540	-1890
994.619	-1929
994.697	-1411
994.776	-1514
994.854	-1413
994.932	-1927
995.011	-889
995.089	-1635
995.167	-1011
995.245	-1654
995.324	-1428
995.402	-1230
995.480	-2002
995.558	-1313
995.636	-2002
995.714	-1203
995.792	-1127
995.870	-1367
995.948	-1497
996.026	-1509
996.104	-2718
996.182	-1369
996.260	-2033
996.338	-1171
996.416	-1990
996.494	-1577
996.572	-438
996.649	-1285
996.727	-2029
996.805	-1857
996.883	-1606
996.960	-1786
997.038	-1671
997.116	-1200
997.193	-1640
997.271	-1310
997.348	-1556
997.426	-1250
997.504	-1990
997.581	-1908
997.658	-1354
997.736	-2911
997.813	-2075
997.891	-1615
997.968	-1464
998.046	-1624
998.123	-1935
998.200	-849
998.277	-2709
998.355	-854
998.432	-2172
998.509	-1536
998.586	-2091
998.663	-2356
998.741	-1948
998.818	-1415
998.895	-2502
998.972	-682
999.049	-1516
999.126	-2319
999.203	-524
999.280	-1391
999.357	-2036
999.434	-2126
999.511	-1533
999.587	-906
999.664	-2477
999.741	-784
999.818	-808
999.895	-1800
999.971	-1625
1000.048	-2084
1000.125	-989
1000.202	-1986
1000.278	-1433
1000.355	-1375
1000.431	-1534
1000.508	-2295
1000.584	-1434
1000.661	-699
1000.738	-2073
1000.814	-1918
1000.890	-956
1000.967	-2636
1001.043	-679
1001.120	-2443
1001.196	-1328
1001.272	-2245
1001.349	-1805
1001.425	-1690
1001.501	-1318
1001.577	-1800
1001.654	-1355
1001.730	-1853
1001.806	-1959
1001.882	-2506
1001.958	-807
1002.034	-1119
1002.110	-1010
1002.186	-2157
1002.262	-1889
1002.338	-2472
1002.414	-1750
1002.490	-1473
1002.566	-1539
1002.642	-2116
1002.718	-1231
1002.794	-1936
1002.870	-1588
1002.945	-2531
1003.021	-2404
1003.097	-2529
1003.173	-1833
1003.248	-1824
1003.324	-2011
1003.400	-1240
1003.475	-1909
1003.551	-1542
1003.626	-1286
1003.702	-2213
1003.777	-2038
1003.853	-1661
1003.928	-1732
1004.004	-1639
1004.079	-1577
1004.155	-1193
1004.230	-3225
1004.305	-1433
1004.381	-2102
1004.456	-1840
1004.531	-1782
1004.607	-1543
1004.682	-1630
1004.757	-1332
1004.832	-1758
1004.907	-1773
1004.982	-1158
1005.057	-1568
1005.133	-2155
1005.208	-1446
1005.283	-1556
1005.358	-1087
1005.433	-2116
1005.508	-940
1005.583	-2151
1005.657	-2572
1005.732	-1162
1005.807	-1994
1005.882	-2098
1005.957	-1421
1006.032	-1661
1006.106	-1610
1006.181	-1509
1006.256	-2082
1006.331	-2362
1006.405	-2137
1006.480	-1325
1006.554	-1652
1006.629	-1462
1006.704	-2209
1006.778	-1958
1006.853	-1297
1006.927	-1646
1007.002	-2293
1007.076	-1620
1007.150	-2263
1007.225	-1734
1007.299	-1503
1007.373	-2552
1007.448	-1118
1007.522	-572
1007.596	-2082
1007.671	-2563
1007.745	-1541
1007.819	-2226
1007.893	-1042
1007.967	-1866
1008.041	-2189
1008.115	-417
1008.190	-2259
1008.264	-1657
1008.338	-3309
1008.412	-1750
1008.486	-2018
1008.560	-1611
1008.633	-2542
1008.707	-2331
1008.781	-1870
1008.855	-2087
1008.929	-1478
1009.003	-1757
1009.076	-2075
1009.150	-1645
1009.224	-1511
1009.298	-1643
1009.371	-1674
1009.445	-1508
1009.519	-1802
1009.592	-1711
1009.666	-1382
1009.739	-1765
1009.813	-3154
1009.886	-690
1009.960	-2449
1010.033	-2207
1010.107	-1396
1010.180	-2794
1010.253	-2329
1010.327	-2093
1010.400	-2000
1010.473	-1659
1010.547	-416
1010.620	-1989
1010.693	-1995
1010.766	-1999
1010.840	-1371
1010.913	-1428
1010.986	-1646
1011.059	-2219
1011.132	-1892
1011.205	-1027
1011.278	-2047
1011.351	-1363
1011.424	-2250
1011.497	-2136
1011.570	-1343
1011.643	-1287
1011.716	-1981
1011.789	-1889
1011.862	-1623
1011.934	-1853
1012.007	-2391
1012.080	-1382
1012.153	-1276
1012.225	-1827
1012.298	-2023
1012.371	-1787
1012.443	-1821
1012.516	-2889
1012.588	-2104
1012.661	-1976
1012.733	-1387
1012.806	-1527
1012.879	-1669
1012.951	-903
1013.023	-1598
1013.096	-1581
1013.168	-2387
1013.241	-1369
1013.313	-1942
1013.385	-2010
1013.458	-1803
1013.530	-772
1013.602	-2475
1013.674	-1103
1013.746	-1638
1013.819	-2696
1013.891	-1550
1013.963	-2933
1014.035	-2449
1014.107	-2034
1014.179	-1494
1014.251	-2925
1014.323	-1099
1014.395	-1661
1014.467	-1398
1014.539	-2074
1014.611	-2130
1014.683	-1970
1014.754	-1671
1014.826	-2315
1014.898	-1638
1014.970	-2163
1015.042	-989
1015.113	-410
1015.185	-1992
1015.257	-2216
1015.328	-1551
1015.400	-2485
1015.471	-1142
1015.543	-3287
1015.615	-1686
1015.686	-1970
1015.757	-1872
1015.829	-1392
1015.901	-1788
1015.972	-1547
1016.043	-2744
1016.115	-1801
1016.186	-1588
1016.257	-2752
1016.328	-2002
1016.400	-1907
1016.471	-2281
1016.542	-1808
1016.613	-1745
1016.685	-1830
1016.756	-1726
1016.827	-2217
1016.898	-2102
1016.969	-1671
1017.040	-1879
1017.111	-2174
1017.182	-2380
1017.253	-1724
1017.324	-2266
1017.395	-1552
1017.466	-1905
1017.537	-2175
1017.608	-1889
1017.678	-2023
1017.749	-2456
1017.820	-1990
1017.891	-2214
1017.961	-2449
1018.032	-1804
1018.103	-1658
1018.173	-1975
1018.244	-1519
1018.315	-1899
1018.385	-1668
1018.456	-1865
1018.526	-2663
1018.597	-2023
1018.667	-2096
1018.738	-2638
1018.808	-2039
1018.878	-2515
1018.949	-1746
1019.019	-2284
1019.089	-1859
1019.160	-1964
1019.230	-2788
1019.300	-1436
1019.371	-2507
1019.441	-2126
1019.511	-1679
1019.581	-2409
1019.651	-1930
1019.721	-2185
1019.791	-1167
1019.861	-1430
1019.931	-1775
1020.001	-2039
1020.071	-1888
1020.141	-3216
1020.211	-2473
1020.281	-1894
1020.351	-2228
1020.421	-1354
1020.491	-1974
1020.560	-1606
1020.630	-2070
1020.700	-1785
1020.770	-2314
1020.839	-1602
1020.909	-2299
1020.979	-2545
1021.048	-2187
1021.118	-1867
1021.187	-1862
1021.257	-1951
1021.326	-1970
1021.396	-1413
1021.465	-2310
1021.535	-2257
1021.604	-2082
1021.674	-2024
1021.743	-2484
1021.812	-2085
1021.882	-1846
1021.951	-1776
1022.020	-2594
1022.089	-1861
1022.159	-2322
1022.228	-2200
1022.297	-1460
1022.366	-2229
1022.435	-1708
1022.504	-1824
1022.573	-1969
1022.642	-2037
1022.711	-2641
1022.781	-1643
1022.849	-1955
1022.918	-2526
1022.987	-1657
1023.056	-2524
1023.125	-1965
1023.194	-1753
1023.263	-1077
1023.331	-2204
1023.400	-1970
1023.469	-1641
1023.538	-1487
1023.606	-2028
1023.675	-2556
1023.744	-2203
1023.812	-1355
1023.881	-1534
1023.949	-1778
1024.018	-2071
1024.086	-2108
1024.155	-2350
1024.223	-2209
1024.292	-2331
1024.360	-2250
1024.429	-1572
1024.497	-2594
1024.565	-1338
1024.634	-2421
1024.702	-2267
1024.770	-2045
1024.838	-2352
1024.907	-1737
1024.975	-2299
1025.043	-1745
1025.111	-2077
1025.179	-2169
1025.247	-1639
1025.315	-2035
1025.383	-1297
1025.451	-1749
1025.519	-2243
1025.587	-1774
1025.655	-1497
1025.723	-2158
1025.791	-2506
1025.859	-2398
1025.927	-1758
1025.995	-975
1026.062	-1665
1026.130	-2607
1026.198	-1674
1026.266	-2049
1026.333	-2194
1026.401	-1532
1026.469	-2373
1026.536	-1877
1026.604	-2367
1026.671	-2420
1026.739	-2473
1026.806	-1352
1026.874	-2579
1026.941	-1828
1027.009	-1767
1027.076	-2347
1027.144	-1021
1027.211	-2025
1027.278	-2721
1027.345	-1789
1027.413	-1625
1027.480	-1941
1027.547	-1278
1027.614	-2903
1027.682	-1276
1027.749	-1512
1027.816	-1808
1027.883	-1600
1027.950	-2109
1028.017	-2857
1028.084	-2502
1028.151	-2413
1028.218	-1429
1028.285	-2267
1028.352	-1570
1028.419	-2283
1028.486	-1308
1028.553	-1346
1028.619	-2750
1028.686	-2222
1028.753	-1915
1028.820	-2614
1028.886	-1595
1028.953	-2378
1029.020	-2466
1029.086	-2612
1029.153	-1676
1029.220	-2100
1029.286	-2444
1029.353	-2236
1029.419	-2500
1029.486	-2131
1029.552	-2995
1029.619	-2224
1029.685	-2379
1029.751	-2465
1029.818	-1854
1029.884	-1678
1029.951	-1184
1030.017	-1412
1030.083	-1898
1030.149	-1638
1030.216	-2370
1030.282	-2332
1030.348	-2174
1030.414	-3401
1030.480	-2433
1030.546	-1955
1030.612	-1463
1030.678	-2388
1030.744	-1955
1030.810	-2152
1030.876	-2055
1030.942	-2571
1031.008	-2718
1031.074	-3070
1031.140	-2761
1031.206	-2592
1031.272	-2805
1031.337	-2043
1031.403	-2256
1031.469	-1888
1031.534	-2599
1031.600	-2022
1031.666	-2615
1031.731	-2134
1031.797	-2039
1031.863	-1629
1031.928	-2398
1031.994	-2213
1032.059	-2547
1032.125	-2283
1032.190	-2321
1032.256	-2757
1032.321	-2724
1032.386	-2250
1032.452	-1981
1032.517	-2007
1032.582	-2401
1032.647	-2134
1032.713	-2404
1032.778	-1790
1032.843	-3151
1032.908	-2225
1032.974	-2391
1033.039	-2444
1033.104	-2088
1033.169	-2763
1033.234	-1884
1033.299	-1918
1033.364	-1183
1033.429	-2098
1033.494	-2269
1033.559	-2203
1033.624	-2581
1033.688	-2526
1033.753	-2528
1033.818	-2917
1033.883	-3007
1033.948	-1981
1034.013	-2552
1034.077	-2275
1034.142	-1850
1034.207	-2229
1034.271	-1792
1034.336	-1753
1034.400	-1770
1034.465	-2631
1034.530	-1754
1034.594	-2400
1034.658	-2979
1034.723	-2452
1034.787	-2665
1034.852	-2202
1034.916	-2162
1034.981	-1950
1035.045	-2592
1035.109	-2497
1035.173	-1978
1035.238	-2570
1035.302	-3180
1035.366	-2127
1035.430	-2220
1035.495	-2420
1035.559	-2690
1035.623	-1561
1035.687	-2636
1035.751	-2347
1035.815	-2130
1035.879	-2701
1035.943	-2322
1036.007	-3150
1036.071	-2055
1036.135	-2594
1036.198	-2730
1036.262	-2001
1036.326	-1881
1036.390	-2207
1036.454	-2157
1036.517	-1611
1036.581	-2917
1036.645	-2472
1036.709	-1950
1036.772	-2421
1036.836	-3259
1036.900	-2302
1036.963	-2338
1037.026	-1807
1037.090	-2689
1037.154	-2345
1037.217	-2468
1037.280	-2717
1037.344	-2302
1037.407	-2154
1037.471	-2947
1037.534	-2422
1037.597	-1781
1037.661	-2938
1037.724	-3000
1037.787	-2519
1037.850	-2443
1037.913	-2924
1037.977	-1731
1038.040	-2473
1038.103	-2472
1038.166	-2580
1038.229	-2632
1038.292	-2644
1038.355	-2676
1038.418	-2740
1038.481	-2096
1038.544	-2625
1038.607	-3244
1038.670	-2814
1038.732	-2448
1038.795	-2854
1038.858	-2391
1038.921	-2090
1038.984	-2746
1039.046	-1875
1039.109	-3185
1039.172	-1954
1039.234	-2644
1039.297	-2230
1039.360	-2555
1039.422	-2224
1039.485	-2995
1039.547	-3625
1039.610	-2400
1039.672	-2384
1039.734	-2527
1039.797	-3012
1039.859	-1991
1039.922	-2523
1039.984	-3143
1040.046	-2072
1040.109	-2756
1040.171	-3162
1040.233	-2076
1040.295	-2636
1040.358	-3271
1040.420	-2508
1040.482	-2458
1040.544	-1950
1040.606	-2752
1040.668	-2409
1040.730	-2528
1040.792	-3604
1040.854	-2778
1040.916	-3000
1040.978	-2351
1041.040	-2959
1041.102	-2273
1041.164	-2306
1041.225	-2346
1041.287	-2418
1041.349	-2440
1041.411	-2581
1041.472	-2910
1041.534	-2535
1041.596	-2579
1041.657	-2374
1041.719	-3122
1041.781	-3096
1041.842	-2235
1041.904	-2611
1041.965	-2121
1042.027	-2695
1042.088	-2235
1042.150	-2164
1042.211	-1978
1042.272	-2728
1042.334	-3000
1042.395	-2459
1042.456	-2386
1042.518	-2893
1042.579	-2184
1042.640	-2095
1042.701	-2595
1042.763	-3203
1042.824	-2385
1042.885	-3223
1042.946	-3277
1043.007	-3268
1043.068	-2242
1043.129	-2469
1043.190	-3312
1043.251	-2113
1043.312	-2560
1043.373	-2500
1043.434	-2867
1043.495	-2269
1043.556	-2194
1043.616	-2451
1043.677	-3131
1043.738	-2507
1043.799	-2269
1043.859	-2145
1043.920	-1850
1043.981	-2867
1044.041	-2683
1044.102	-2573
1044.162	-2045
1044.223	-3266
1044.284	-2733
1044.344	-3037
1044.405	-2580
1044.465	-1636
1044.525	-3169
1044.586	-2703
1044.646	-1882
1044.707	-3044
1044.767	-3163
1044.827	-2505
1044.887	-2361
1044.948	-2060
1045.008	-1711
1045.068	-1973
1045.128	-2125
1045.188	-2824
1045.249	-2688
1045.309	-1780
1045.369	-2081
1045.429	-2615
1045.489	-2101
1045.549	-2821
1045.609	-1931
1045.669	-3380
1045.729	-1995
1045.789	-2259
1045.848	-2821
1045.908	-1969
1045.968	-2105
1046.028	-1639
1046.088	-2247
1046.147	-1541
1046.207	-2824
1046.267	-1885
1046.326	-1765
1046.386	-1978
1046.446	-2002
1046.505	-1869
1046.565	-1368
1046.624	-1569
1046.684	-1770
1046.743	-1419
1046.803	-1526
1046.862	-1584
1046.922	0
