'Start Wavelength	183.907
'End Wavelength	1046.922
'Gate Delay	5.000
'Gate Width (ms)	1.050
'Laser Output Level	0.000
'X Position	0.000
'Y Position	0.000
'Z Position	0.000
'Grid Point Number	1.000
'Shot Number	100.000
183.907	667.000
183.977	218.000
184.047	403
184.116	1801
184.186	-289
184.256	106
184.325	45
184.395	74
184.465	1044
184.534	339
184.604	-144
184.674	974
184.743	-351
184.813	1107
184.883	-34
184.952	825
185.022	575
185.092	-86
185.161	109
185.231	613
185.301	586
185.370	970
185.440	452
185.509	636
185.579	558
185.649	447
185.718	807
185.788	100
185.857	-460
185.927	384
185.996	320
186.066	193
186.136	186
186.205	231
186.275	1002
186.344	706
186.414	104
186.483	165
186.553	1814
186.622	1897
186.692	822
186.761	167
186.831	674
186.900	338
186.970	1283
187.039	1465
187.109	1466
187.178	1256
187.248	1421
187.317	1167
187.387	1317
187.456	876
187.526	1610
187.595	904
187.664	854
187.734	936
187.803	2141
187.873	2033
187.942	2429
188.012	1224
188.081	742
188.150	1672
188.220	1729
188.289	2120
188.358	1715
188.428	1805
188.497	460
188.567	1676
188.636	1194
188.705	952
188.775	982
188.844	568
188.913	1637
188.983	678
189.052	1315
189.121	270
189.191	336
189.260	1767
189.329	1401
189.399	2148
189.468	955
189.537	1062
189.606	1139
189.676	1242
189.745	1583
189.814	1649
189.883	467
189.953	541
190.022	1622
190.091	3898
190.161	5611
190.230	2475
190.299	1922
190.368	1269
190.437	137
190.507	1627
190.576	1851
190.645	1092
190.714	1752
190.783	509
190.853	1997
190.922	1651
190.991	1364
191.060	1382
191.129	851
191.198	1486
191.268	711
191.337	441
191.406	805
191.475	981
191.544	1831
191.613	1856
191.682	1070
191.752	1064
191.821	872
191.890	1047
191.959	1466
192.028	844
192.097	1268
192.166	2658
192.235	785
192.304	1839
192.373	731
192.442	1302
192.511	649
192.580	1108
192.650	1436
192.719	1881
192.788	2101
192.857	1191
192.926	1749
192.995	2189
193.064	2058
193.133	3342
193.202	4415
193.271	3552
193.340	3628
193.409	4312
193.478	3794
193.547	4667
193.615	6503
193.684	6221
193.753	4359
193.822	2970
193.891	1963
193.960	2396
194.029	2362
194.098	1504
194.167	1256
194.236	2107
194.305	1187
194.374	1956
194.443	2220
194.512	3407
194.580	1895
194.649	2780
194.718	2838
194.787	2049
194.856	1686
194.925	2640
194.994	2460
195.062	2774
195.131	2749
195.200	2092
195.269	4302
195.338	2710
195.407	2074
195.475	1980
195.544	2966
195.613	2326
195.682	1932
195.751	3132
195.819	2541
195.888	2745
195.957	3189
196.026	3409
196.094	3249
196.163	3461
196.232	3561
196.301	2789
196.369	2606
196.438	3497
196.507	2051
196.576	2339
196.644	1689
196.713	1645
196.782	1314
196.850	2080
196.919	2742
196.988	2873
197.056	1150
197.125	1921
197.194	2570
197.262	2199
197.331	1419
197.400	2368
197.468	1763
197.537	2235
197.606	2178
197.674	3747
197.743	5792
197.812	2677
197.880	5757
197.949	5027
198.017	5248
198.086	4724
198.155	2964
198.223	3411
198.292	6133
198.360	3708
198.429	2469
198.497	2616
198.566	3696
198.635	6932
198.703	3677
198.772	2824
198.840	7398
198.909	7967
198.977	3384
199.046	3249
199.114	3030
199.183	2703
199.251	2253
199.320	1784
199.388	2316
199.457	2906
199.525	1355
199.594	2866
199.662	1969
199.731	2702
199.799	2809
199.867	2981
199.936	1948
200.004	2740
200.073	2476
200.141	1784
200.210	2269
200.278	2523
200.346	2782
200.415	3407
200.483	4020
200.552	3882
200.620	2919
200.688	2960
200.757	2000
200.825	2665
200.893	2423
200.962	2476
201.030	2019
201.098	2609
201.167	3399
201.235	2508
201.303	3061
201.372	3489
201.440	3398
201.508	2788
201.577	2759
201.645	3113
201.713	1973
201.781	2874
201.850	4100
201.918	3655
201.986	3663
202.055	2833
202.123	2840
202.191	2985
202.259	3350
202.327	2769
202.396	2489
202.464	2675
202.532	4340
202.600	10527
202.669	7679
202.737	4096
202.805	3544
202.873	3019
202.941	2840
203.009	3468
203.078	3042
203.146	3910
203.214	2599
203.282	3196
203.350	3279
203.418	2481
203.487	3729
203.555	2556
203.623	3081
203.691	2973
203.759	2511
203.827	2922
203.895	3450
203.963	3744
204.031	3455
204.099	3667
204.168	2582
204.236	4125
204.304	3281
204.372	3299
204.440	3258
204.508	2781
204.576	2267
204.644	3229
204.712	2601
204.780	3939
204.848	3051
204.916	2997
204.984	2839
205.052	3668
205.120	3540
205.188	3327
205.256	2817
205.324	2926
205.392	3921
205.460	3720
205.528	3077
205.596	3378
205.664	3480
205.732	3271
205.799	8154
205.867	12754
205.935	5213
206.003	5005
206.071	2504
206.139	3536
206.207	4142
206.275	3693
206.343	3470
206.411	4071
206.478	3716
206.546	3348
206.614	3845
206.682	3717
206.750	3055
206.818	5115
206.885	5288
206.953	2682
207.021	4393
207.089	3604
207.157	2804
207.225	3583
207.292	4314
207.360	4281
207.428	3846
207.496	3300
207.563	3880
207.631	4386
207.699	3393
207.767	3926
207.834	3664
207.902	4354
207.970	4103
208.038	4005
208.105	4102
208.173	4590
208.241	4779
208.309	5967
208.376	5087
208.444	7980
208.512	5442
208.579	3649
208.647	5744
208.715	5623
208.782	5276
208.850	4160
208.918	3449
208.985	4763
209.053	5015
209.120	5147
209.188	4187
209.256	4371
209.323	4022
209.391	5890
209.459	5495
209.526	3822
209.594	3914
209.661	4542
209.729	4666
209.796	5026
209.864	5439
209.932	3654
209.999	5049
210.067	5159
210.134	5544
210.202	5118
210.269	7269
210.337	6509
210.404	4412
210.472	5058
210.539	5005
210.607	5479
210.674	6454
210.742	5467
210.809	4991
210.877	5440
210.944	6344
211.012	4683
211.079	6584
211.146	4634
211.214	5110
211.281	6651
211.349	7033
211.416	6059
211.484	6113
211.551	5051
211.618	5858
211.686	4978
211.753	4464
211.821	5846
211.888	5818
211.955	5814
212.023	5936
212.090	5830
212.157	6452
212.225	6123
212.292	9194
212.359	15229
212.427	30761
212.494	19125
212.561	9480
212.629	7817
212.696	6213
212.763	7116
212.831	5951
212.898	6630
212.965	5572
213.032	6323
213.100	6587
213.167	5416
213.234	6989
213.301	5809
213.369	5800
213.436	5467
213.503	4972
213.570	6877
213.638	6636
213.705	5668
213.772	5362
213.839	6292
213.906	7312
213.973	6542
214.041	5627
214.108	6403
214.175	6712
214.242	6329
214.309	5410
214.376	6230
214.444	6100
214.511	7293
214.578	6287
214.645	7471
214.712	7844
214.779	7793
214.846	6160
214.913	7077
214.980	8151
215.048	8228
215.115	9633
215.182	8747
215.249	7587
215.316	6773
215.383	7466
215.450	6679
215.517	5591
215.584	6546
215.651	5296
215.718	5623
215.785	7197
215.852	6487
215.919	7343
215.986	7824
216.053	6267
216.120	5616
216.187	7393
216.254	7201
216.321	6405
216.388	7300
216.455	7930
216.522	7327
216.589	8986
216.656	12821
216.722	12827
216.789	10211
216.856	9527
216.923	9093
216.990	8986
217.057	8453
217.124	10151
217.191	9763
217.258	10847
217.324	12984
217.391	11868
217.458	10756
217.525	9376
217.592	8770
217.659	7699
217.725	8649
217.792	10629
217.859	11070
217.926	6699
217.993	6081
218.059	7252
218.126	6726
218.193	6306
218.260	5660
218.327	5444
218.393	5793
218.460	5099
218.527	5141
218.594	6974
218.660	10498
218.727	11478
218.794	6360
218.860	6605
218.927	5182
218.994	5510
219.061	5353
219.127	6323
219.194	9160
219.261	6713
219.327	5394
219.394	5712
219.461	4473
219.527	5562
219.594	7418
219.661	6509
219.727	5105
219.794	5844
219.860	5094
219.927	6353
219.994	9302
220.060	15063
220.127	12542
220.193	9423
220.260	9847
220.326	12595
220.393	16077
220.460	19422
220.526	15289
220.593	11385
220.659	11233
220.726	13064
220.792	21138
220.859	22604
220.925	26095
220.992	29652
221.058	28755
221.125	27572
221.191	22022
221.258	11844
221.324	10032
221.391	9078
221.457	7573
221.524	7387
221.590	9536
221.657	21387
221.723	19033
221.789	15049
221.856	15551
221.922	9663
221.989	8749
222.055	6738
222.121	6416
222.188	9723
222.254	7912
222.321	5057
222.387	5418
222.453	5840
222.520	4936
222.586	4837
222.652	5937
222.719	5595
222.785	5807
222.851	5002
222.918	4888
222.984	5031
223.050	5011
223.116	4070
223.183	5721
223.249	4513
223.315	5017
223.382	5254
223.448	4043
223.514	4223
223.580	4516
223.647	4354
223.713	3873
223.779	4677
223.845	4932
223.911	5640
223.978	4424
224.044	4947
224.110	5236
224.176	5073
224.242	4805
224.309	3509
224.375	4532
224.441	4310
224.507	3874
224.573	3860
224.639	5911
224.705	3042
224.772	4218
224.838	4029
224.904	5671
224.970	4522
225.036	4521
225.102	4247
225.168	6671
225.234	4885
225.300	4699
225.366	4433
225.432	4884
225.499	4663
225.565	5487
225.631	6387
225.697	6801
225.763	7935
225.829	8874
225.895	8823
225.961	13250
226.027	11864
226.093	10838
226.159	13296
226.225	19769
226.291	34678
226.357	48354
226.423	31764
226.489	21167
226.554	15588
226.620	13326
226.686	17318
226.752	24993
226.818	35252
226.884	61084
226.950	56270
227.016	30907
227.082	19759
227.148	14647
227.214	13952
227.279	11490
227.345	10464
227.411	10408
227.477	10802
227.543	20992
227.609	24036
227.674	14574
227.740	9954
227.806	9205
227.872	7635
227.938	7518
228.003	10636
228.069	8029
228.135	5991
228.201	6296
228.267	6058
228.332	6953
228.398	9481
228.464	7906
228.530	4711
228.595	5792
228.661	5019
228.727	9136
228.792	9027
228.858	6371
228.924	5358
228.990	7983
229.055	6162
229.121	8615
229.187	5246
229.252	7594
229.318	5507
229.384	5609
229.449	7641
229.515	4167
229.581	3737
229.646	6987
229.712	6427
229.777	12197
229.843	15287
229.909	10691
229.974	11672
230.040	11380
230.105	8605
230.171	9348
230.236	10341
230.302	14927
230.368	13116
230.433	7653
230.499	8891
230.564	9436
230.630	7055
230.695	7451
230.761	7304
230.826	5688
230.892	10965
230.957	6915
231.023	5044
231.088	6329
231.154	6754
231.219	6985
231.284	8972
231.350	10859
231.415	6497
231.481	6144
231.546	5906
231.612	6113
231.677	5115
231.742	4957
231.808	6968
231.873	5305
231.939	2906
232.004	10361
232.069	10906
232.135	5919
232.200	6446
232.265	6238
232.331	4964
232.396	5128
232.461	4538
232.527	4557
232.592	4533
232.657	5290
232.723	7995
232.788	7236
232.853	5590
232.918	4361
232.984	4903
233.049	4321
233.114	6917
233.179	8216
233.245	9639
233.310	11787
233.375	4863
233.440	5796
233.506	4529
233.571	4510
233.636	5163
233.701	5103
233.766	7597
233.832	9949
233.897	5462
233.962	6584
234.027	7947
234.092	7461
234.157	6144
234.222	7268
234.288	8994
234.353	19703
234.418	18697
234.483	14058
234.548	11206
234.613	10068
234.678	9512
234.743	9391
234.808	20849
234.873	15626
234.938	10244
235.004	9056
235.069	7817
235.134	6925
235.199	7351
235.264	6637
235.329	5327
235.394	7050
235.459	8194
235.524	7440
235.589	7522
235.654	6872
235.719	6289
235.784	7040
235.849	8485
235.913	13331
235.978	13153
236.043	15170
236.108	8376
236.173	7178
236.238	9909
236.303	7097
236.368	7755
236.433	11206
236.498	17063
236.563	16252
236.627	28029
236.692	78123
236.757	78198
236.822	35826
236.887	23849
236.952	21086
237.017	17368
237.081	18349
237.146	22485
237.211	43781
237.276	81493
237.341	120105
237.405	75371
237.470	34476
237.535	22419
237.600	16674
237.664	14215
237.729	12048
237.794	14001
237.859	26674
237.923	19424
237.988	12204
238.053	13353
238.118	13521
238.182	26640
238.247	26520
238.312	14092
238.376	11893
238.441	9408
238.506	9983
238.570	6367
238.635	8358
238.700	6196
238.764	7007
238.829	12930
238.893	16802
238.958	11214
239.023	11102
239.087	8337
239.152	8636
239.216	7255
239.281	8246
239.346	6916
239.410	7192
239.475	7485
239.539	23046
239.604	22624
239.668	10428
239.733	9117
239.797	14080
239.862	33046
239.926	32878
239.991	15496
240.055	10543
240.120	7921
240.184	8877
240.249	6748
240.313	6263
240.378	6711
240.442	14799
240.507	24617
240.571	10427
240.635	11911
240.700	16562
240.764	8864
240.829	6942
240.893	5695
240.957	6741
241.022	13966
241.086	24424
241.151	13867
241.215	6537
241.279	9610
241.344	14746
241.408	11088
241.472	9874
241.537	11113
241.601	10632
241.665	8291
241.730	9039
241.794	10062
241.858	9784
241.922	9578
241.987	9291
242.051	8620
242.115	7908
242.179	9351
242.244	7856
242.308	9535
242.372	8686
242.436	11028
242.501	10710
242.565	7376
242.629	7230
242.693	9254
242.757	7732
242.822	7895
242.886	8813
242.950	9511
243.014	8573
243.078	10151
243.142	11015
243.206	9086
243.271	10190
243.335	9699
243.399	14776
243.463	41150
243.527	106191
243.591	42036
243.655	19405
243.719	11951
243.783	13130
243.847	18262
243.911	23112
243.975	25996
244.040	20929
244.104	12804
244.168	9699
244.232	13499
244.296	19766
244.360	19901
244.424	13117
244.488	10332
244.552	8635
244.615	6693
244.679	8060
244.743	10220
244.807	12145
244.871	7844
244.935	8071
244.999	6244
245.063	8076
245.127	9484
245.191	14069
245.255	15411
245.319	12304
245.383	12304
245.446	10176
245.510	7206
245.574	8810
245.638	8508
245.702	8831
245.766	21554
245.829	15565
245.893	10172
245.957	9479
246.021	11034
246.085	10097
246.149	12125
246.212	27785
246.276	46056
246.340	22640
246.404	14711
246.467	15041
246.531	22177
246.595	15764
246.659	13125
246.722	10673
246.786	16691
246.850	16090
246.913	20664
246.977	11499
247.041	10564
247.104	12234
247.168	11896
247.232	26666
247.295	57061
247.359	32998
247.423	15063
247.486	24354
247.550	16590
247.614	12342
247.677	16847
247.741	12470
247.804	10496
247.868	12164
247.932	23039
247.995	53678
248.059	23728
248.122	13151
248.186	16227
248.249	26334
248.313	83155
248.376	97279
248.440	63732
248.503	26455
248.567	21187
248.630	27205
248.694	38189
248.757	48599
248.821	94577
248.884	63330
248.948	50340
249.011	73582
249.075	105761
249.138	97555
249.202	40332
249.265	25660
249.328	25493
249.392	22541
249.455	20416
249.519	16665
249.582	19951
249.645	29581
249.709	25310
249.772	16493
249.835	16686
249.899	17553
249.962	16876
250.025	15412
250.089	34194
250.152	50011
250.215	25162
250.279	19510
250.342	20231
250.405	18496
250.468	16963
250.532	21810
250.595	32318
250.658	91584
250.721	160788
250.785	70510
250.848	37634
250.911	24663
250.974	22022
251.038	28440
251.101	58239
251.164	32087
251.227	31927
251.290	30462
251.354	40465
251.417	126599
251.480	147639
251.543	103812
251.606	218222
251.669	196367
251.732	87788
251.795	81969
251.859	83363
251.922	150678
251.985	106726
252.048	44240
252.111	33606
252.174	30665
252.237	51650
252.300	110570
252.363	110558
252.426	194541
252.489	100232
252.552	50026
252.615	35701
252.678	36462
252.741	80828
252.804	103451
252.867	195817
252.930	139754
252.993	78947
253.056	45829
253.119	34952
253.182	25910
253.245	39058
253.308	34345
253.371	29321
253.434	28068
253.497	25738
253.559	48382
253.622	37080
253.685	40905
253.748	46059
253.811	23368
253.874	25456
253.937	26215
254.000	21872
254.062	34619
254.125	57758
254.188	46947
254.251	44047
254.314	21055
254.376	34580
254.439	42371
254.502	34660
254.565	35748
254.628	65347
254.690	39430
254.753	22569
254.816	19423
254.878	19945
254.941	36768
255.004	44354
255.067	19066
255.129	20193
255.192	12645
255.255	12257
255.317	15481
255.380	10594
255.443	9474
255.505	8439
255.568	8516
255.631	9752
255.693	11018
255.756	9075
255.819	10045
255.881	8859
255.944	8773
256.006	8468
256.069	9381
256.132	8379
256.194	12149
256.257	22623
256.319	17994
256.382	18517
256.444	14498
256.507	12529
256.569	12962
256.632	12847
256.694	19495
256.757	45759
256.819	135070
256.882	70086
256.944	28397
257.007	22072
257.069	22664
257.132	15237
257.194	13874
257.257	12941
257.319	13913
257.381	16393
257.444	38027
257.506	138694
257.569	182128
257.631	86314
257.693	50034
257.756	26332
257.818	20554
257.880	14377
257.943	13482
258.005	11869
258.067	11867
258.130	11819
258.192	13876
258.254	24389
258.317	18141
258.379	13690
258.441	29777
258.503	32108
258.566	26301
258.628	35883
258.690	13699
258.753	14469
258.815	24565
258.877	17491
258.939	12382
259.001	11583
259.064	12065
259.126	12934
259.188	16415
259.250	12623
259.312	15205
259.375	30983
259.437	24839
259.499	13001
259.561	11796
259.623	12656
259.685	12713
259.747	12082
259.809	25085
259.872	46517
259.934	66432
259.996	73972
260.058	26408
260.120	12648
260.182	11497
260.244	9678
260.306	9322
260.368	10096
260.430	9807
260.492	20136
260.554	35163
260.616	27734
260.678	39572
260.740	55704
260.802	18459
260.864	14474
260.926	11818
260.988	13349
261.050	12497
261.112	26528
261.174	57324
261.236	43370
261.298	17887
261.359	23085
261.421	32090
261.483	14132
261.545	12760
261.607	8954
261.669	9903
261.731	15779
261.793	35998
261.854	22304
261.916	15008
261.978	12779
262.040	14681
262.102	10647
262.164	14270
262.225	13852
262.287	10687
262.349	26352
262.411	23774
262.472	11704
262.534	15040
262.596	30433
262.658	13570
262.719	9613
262.781	12045
262.843	27195
262.904	17020
262.966	13118
263.028	16260
263.090	53501
263.151	151849
263.213	60703
263.275	36738
263.336	17715
263.398	13110
263.459	9715
263.521	11452
263.583	24329
263.644	19839
263.706	10458
263.767	7497
263.829	7929
263.891	6715
263.952	6627
264.014	7423
264.075	12975
264.137	33469
264.198	18603
264.260	8666
264.321	7629
264.383	20138
264.444	52487
264.506	19784
264.567	12737
264.629	19224
264.690	43686
264.752	20088
264.813	13235
264.875	9838
264.936	10151
264.998	9661
265.059	8378
265.120	9885
265.182	17308
265.243	65552
265.305	85242
265.366	23259
265.427	13492
265.489	12453
265.550	8504
265.611	10734
265.673	11496
265.734	9874
265.795	8481
265.857	8914
265.918	9619
265.979	21496
266.040	105296
266.102	115916
266.163	34697
266.224	25093
266.286	16475
266.347	11311
266.408	10358
266.469	10709
266.530	9351
266.592	8565
266.653	16493
266.714	31484
266.775	12002
266.836	8990
266.898	7603
266.959	14789
267.020	11855
267.081	9493
267.142	8799
267.203	7957
267.264	7751
267.326	10298
267.387	8898
267.448	7744
267.509	8417
267.570	8568
267.631	7673
267.692	6721
267.753	8287
267.814	7891
267.875	15338
267.936	36634
267.997	21990
268.058	19108
268.119	12733
268.180	11080
268.241	9461
268.302	8332
268.363	7659
268.424	8281
268.485	9606
268.546	7313
268.607	6684
268.668	6470
268.729	7243
268.790	7564
268.851	9285
268.912	21061
268.972	29247
269.033	16167
269.094	9393
269.155	8635
269.216	7923
269.277	7874
269.338	6831
269.398	7275
269.459	9913
269.520	14049
269.581	15945
269.642	19114
269.702	14349
269.763	12297
269.824	9012
269.885	12033
269.945	20403
270.006	10873
270.067	7096
270.128	7273
270.188	7031
270.249	8013
270.310	6803
270.370	7971
270.431	7518
270.492	6861
270.553	8368
270.613	16976
270.674	34472
270.734	18137
270.795	10055
270.856	13475
270.916	13196
270.977	9350
271.038	11144
271.098	12325
271.159	17236
271.219	19467
271.280	9404
271.340	8648
271.401	9721
271.462	17371
271.522	14108
271.583	9776
271.643	10130
271.704	9807
271.764	12849
271.825	26471
271.885	79909
271.946	120519
272.006	43971
272.066	48250
272.127	92819
272.187	34040
272.248	19421
272.308	19198
272.369	56769
272.429	38798
272.489	25250
272.550	30284
272.610	27869
272.671	23829
272.731	16506
272.791	26946
272.852	19604
272.912	16934
272.972	11015
273.033	11332
273.093	15367
273.153	17762
273.214	13312
273.274	14383
273.334	40932
273.394	89652
273.455	39462
273.515	33562
273.575	77679
273.635	35084
273.696	36749
273.756	79820
273.816	37776
273.876	21404
273.936	29841
273.997	52450
274.057	20492
274.117	17156
274.177	25387
274.237	95229
274.297	90307
274.358	52299
274.418	65357
274.478	55926
274.538	23624
274.598	17831
274.658	39382
274.718	52915
274.778	26975
274.838	15767
274.898	24385
274.958	70311
275.018	77005
275.078	56482
275.138	23486
275.198	14382
275.258	11803
275.318	13997
275.378	25298
275.438	30218
275.498	19679
275.558	32732
275.618	72313
275.678	62373
275.738	36352
275.798	31058
275.858	16977
275.918	11997
275.978	13884
276.038	14374
276.098	12080
276.157	20598
276.217	59890
276.277	31023
276.337	22356
276.397	13998
276.457	14857
276.517	12256
276.576	9615
276.636	10640
276.696	16802
276.756	35726
276.815	29350
276.875	15329
276.935	15493
276.995	15691
277.055	10708
277.114	11792
277.174	14560
277.234	48232
277.293	25262
277.353	14524
277.413	11319
277.472	12137
277.532	13970
277.592	14142
277.651	41598
277.711	88017
277.771	33854
277.830	91811
277.890	87007
277.950	52732
278.009	147076
278.069	66132
278.128	56840
278.188	91970
278.248	42289
278.307	90682
278.367	64687
278.426	21684
278.486	16003
278.545	14229
278.605	12620
278.664	11989
278.724	14567
278.783	30416
278.843	82654
278.902	29610
278.962	18517
279.021	19452
279.081	23906
279.140	25912
279.199	20966
279.259	21367
279.318	21435
279.378	28108
279.437	47172
279.496	141841
279.556	316115
279.615	287263
279.675	95293
279.734	55466
279.793	73835
279.853	120421
279.912	52900
279.971	28129
280.031	27120
280.090	42977
280.149	84483
280.208	64072
280.268	207851
280.327	250355
280.386	74874
280.445	51830
280.505	51192
280.564	25960
280.623	22957
280.682	28051
280.742	45561
280.801	18865
280.860	14799
280.919	13930
280.978	13174
281.037	12100
281.097	10660
281.156	11837
281.215	12538
281.274	15125
281.333	49009
281.392	46540
281.451	13264
281.510	10919
281.569	11118
281.628	9561
281.688	9896
281.747	11800
281.806	11569
281.865	9487
281.924	9047
281.983	9950
282.042	8167
282.101	8353
282.160	8464
282.219	8894
282.278	10569
282.337	30964
282.396	26640
282.454	12244
282.513	14958
282.572	46342
282.631	32926
282.690	13701
282.749	10357
282.808	13333
282.867	12920
282.926	14566
282.985	9623
283.043	8835
283.102	9630
283.161	12002
283.220	22241
283.279	54760
283.338	20750
283.396	13091
283.455	13874
283.514	14456
283.573	20730
283.631	17199
283.690	13170
283.749	12958
283.808	23268
283.866	28609
283.925	13972
283.984	12822
284.043	17783
284.101	19584
284.160	15109
284.219	16488
284.277	17454
284.336	24082
284.395	64162
284.453	63104
284.512	26702
284.570	33771
284.629	31956
284.688	30227
284.746	33000
284.805	39813
284.863	48249
284.922	61888
284.981	77378
285.039	110307
285.098	188659
285.156	358346
285.215	466760
285.273	461313
285.332	410784
285.390	244891
285.449	154009
285.507	108744
285.566	79542
285.624	61452
285.683	47386
285.741	38589
285.799	32510
285.858	28848
285.916	27214
285.975	22144
286.033	19739
286.091	19178
286.150	16242
286.208	15995
286.267	17607
286.325	18295
286.383	24475
286.442	23657
286.500	14945
286.558	12581
286.616	12222
286.675	16488
286.733	15572
286.791	14039
286.850	15181
286.908	19000
286.966	30722
287.024	15374
287.083	12038
287.141	10627
287.199	11797
287.257	17571
287.315	13497
287.374	14129
287.432	31172
287.490	24405
287.548	14797
287.606	12294
287.664	11720
287.723	15577
287.781	20246
287.839	13545
287.897	14495
287.955	18746
288.013	29139
288.071	60972
288.129	183823
288.187	462595
288.245	268823
288.303	93132
288.361	52332
288.419	39120
288.477	27933
288.535	21574
288.593	16978
288.651	15159
288.709	12843
288.767	11011
288.825	11104
288.883	10233
288.941	9553
288.999	9279
289.057	9440
289.115	8326
289.173	8896
289.231	9459
289.289	10560
289.346	9148
289.404	11961
289.462	17825
289.520	19191
289.578	10250
289.636	7419
289.694	7650
289.751	7557
289.809	7487
289.867	8500
289.925	11101
289.983	13449
290.040	9418
290.098	8235
290.156	10707
290.214	11658
290.271	8834
290.329	7891
290.387	7374
290.444	7877
290.502	6062
290.560	6318
290.617	7715
290.675	8076
290.733	7834
290.790	8475
290.848	6576
290.906	7686
290.963	8804
291.021	8071
291.078	7947
291.136	9418
291.194	24293
291.251	59168
291.309	20855
291.366	9532
291.424	9173
291.481	10292
291.539	9024
291.596	10456
291.654	6961
291.711	6805
291.769	8930
291.826	16790
291.884	13151
291.941	8330
291.999	8183
292.056	8114
292.114	10959
292.171	7834
292.228	9836
292.286	11587
292.343	18136
292.401	22888
292.458	15565
292.515	10949
292.573	12986
292.630	13749
292.687	12856
292.745	10883
292.802	14501
292.859	31347
292.917	56214
292.974	38393
293.031	14069
293.089	10527
293.146	9837
293.203	8250
293.260	8292
293.318	10323
293.375	16604
293.432	10239
293.489	9065
293.546	9604
293.604	14887
293.661	33824
293.718	91059
293.775	51965
293.832	25221
293.889	20198
293.947	20642
294.004	15891
294.061	16525
294.118	28001
294.175	55682
294.232	67554
294.289	31631
294.346	17891
294.403	16805
294.460	13741
294.517	12340
294.574	10932
294.631	10481
294.688	14895
294.745	28119
294.802	92780
294.859	110481
294.916	44301
294.973	25858
295.030	21602
295.087	18490
295.144	13381
295.201	12452
295.258	11436
295.315	14514
295.372	34387
295.429	75306
295.486	35777
295.542	22727
295.599	41089
295.656	76122
295.713	52578
295.770	72122
295.827	32819
295.883	17741
295.940	16115
295.997	23324
296.054	23843
296.111	14065
296.167	10586
296.224	9563
296.281	9913
296.338	9930
296.394	10013
296.451	13105
296.508	30172
296.564	63420
296.621	43931
296.678	74879
296.734	122113
296.791	49591
296.848	26099
296.904	27598
296.961	52331
297.018	78864
297.074	64957
297.131	27020
297.187	20157
297.244	28092
297.301	70020
297.357	138793
297.414	56998
297.470	23397
297.527	17382
297.583	15629
297.640	15372
297.696	12827
297.753	10552
297.809	9740
297.866	8016
297.922	8860
297.979	8693
298.035	11695
298.092	17930
298.148	43844
298.204	49618
298.261	25282
298.317	36285
298.374	95440
298.430	64311
298.486	27822
298.543	20976
298.599	19817
298.656	20806
298.712	32670
298.768	74655
298.824	59724
298.881	23409
298.937	14786
298.993	13293
299.050	17591
299.106	15115
299.162	13357
299.218	14527
299.275	12294
299.331	15560
299.387	26644
299.443	80143
299.500	102509
299.556	46523
299.612	22339
299.668	21255
299.724	29626
299.780	34746
299.837	20847
299.893	25896
299.949	71517
300.005	99512
300.061	72731
300.117	123075
300.173	66596
300.229	30905
300.285	33133
300.341	40685
300.397	22933
300.453	15378
300.510	14080
300.566	16393
300.622	21230
300.678	52721
300.734	96228
300.790	78925
300.845	91473
300.901	62770
300.957	84544
301.013	66533
301.069	29019
301.125	20382
301.181	21430
301.237	16611
301.293	12774
301.349	11438
301.405	10587
301.461	10604
301.516	13369
301.572	14273
301.628	26045
301.684	24631
301.740	30674
301.796	54188
301.851	36915
301.907	56987
301.963	64296
302.019	84789
302.074	221123
302.130	237570
302.186	111448
302.242	47066
302.297	32662
302.353	31470
302.409	52914
302.464	51562
302.520	39307
302.576	80878
302.631	102493
302.687	61902
302.743	29412
302.798	18516
302.854	15194
302.910	16124
302.965	18534
303.021	30229
303.076	29937
303.132	35243
303.187	44567
303.243	25680
303.299	15995
303.354	13370
303.410	11936
303.465	12019
303.521	11953
303.576	13350
303.632	16021
303.687	26950
303.743	71462
303.798	69652
303.853	30346
303.909	18305
303.964	17369
304.020	22623
304.075	35709
304.130	30222
304.186	52213
304.241	54769
304.297	44728
304.352	26687
304.358	25695
304.407	17655
304.449	16509
304.463	16134
304.518	16846
304.539	16747
304.573	16602
304.629	16527
304.630	16668
304.684	23868
304.720	43602
304.739	53340
304.794	88776
304.811	76329
304.850	46700
304.902	23170
304.905	21671
304.960	16247
304.992	16357
305.015	16416
305.071	16855
305.083	16317
305.126	14381
305.173	11577
305.181	11134
305.236	9803
305.264	10710
305.292	11650
305.347	13887
305.354	14097
305.402	15559
305.445	16289
305.457	16449
305.512	19419
305.535	20098
305.567	21163
305.622	21272
305.626	21826
305.678	35642
305.716	65088
305.733	75106
305.788	95816
305.807	82045
305.843	58839
305.897	71213
305.898	71292
305.953	79008
305.988	53509
306.008	39784
306.063	25033
306.078	22882
306.118	18079
306.168	13530
306.173	13141
306.228	11676
306.259	10926
306.283	10499
306.338	10040
306.349	10208
306.393	10896
306.440	14119
306.448	14718
306.503	14791
306.530	15616
306.558	19288
306.613	36593
306.620	39456
306.668	56774
306.711	73783
306.723	75388
306.778	63475
306.801	48679
306.833	32265
306.888	17166
306.892	16712
306.943	13784
306.982	12271
306.997	11785
307.052	11953
307.072	11711
307.107	12304
307.162	15280
307.163	15333
307.217	21796
307.253	26476
307.272	27276
307.327	28858
307.343	27110
307.381	23720
307.434	21896
307.436	22466
307.491	40825
307.524	59644
307.546	63434
307.600	65943
307.614	58874
307.655	38532
307.704	22373
307.710	21714
307.765	24766
307.795	29176
307.819	33420
307.874	50280
307.885	50818
307.929	43112
307.975	34721
307.984	35819
308.038	51270
308.065	64704
308.093	106380
308.148	212834
308.156	235740
308.202	334394
308.246	403419
308.257	397803
308.312	238147
308.336	171616
308.366	127177
308.421	82710
308.426	78646
308.475	51290
308.517	38086
308.530	35539
308.585	30398
308.607	29012
308.639	28812
308.694	30470
308.697	30746
308.748	48298
308.787	66663
308.803	65581
308.857	52578
308.877	45092
308.912	40041
308.967	40046
308.967	40126
309.021	56392
309.058	70850
309.076	88930
309.130	155931
309.148	182364
309.185	298057
309.238	488938
309.239	489841
309.293	508102
309.328	470524
309.348	417883
309.402	222956
309.418	173253
309.457	122950
309.508	78946
309.511	77643
309.566	72311
309.598	72163
309.620	80789
309.674	109535
309.688	118140
309.729	112631
309.778	94033
309.783	92145
309.837	67186
309.868	54944
309.892	62711
309.946	88001
309.959	96444
310.001	112814
310.049	126368
310.055	122528
310.109	73805
310.139	45726
310.163	36093
310.218	23235
310.229	21249
310.272	17912
310.319	15703
310.326	15344
310.381	13326
310.409	12410
310.435	12146
310.489	11928
310.499	11975
310.543	12597
310.589	13283
310.598	13188
310.652	12924
310.679	12556
310.706	11511
310.760	9277
310.769	9017
310.814	8502
310.859	7821
310.868	7861
310.923	8319
310.948	8611
310.977	9500
311.031	11407
311.038	11670
311.085	10901
311.128	9883
311.139	9890
311.193	10102
311.218	10212
311.247	9589
311.301	8378
311.308	8249
311.356	8816
311.398	9286
311.410	9109
311.464	8294
311.488	7943
311.518	8352
311.572	9195
311.578	9298
311.626	11370
311.668	13336
311.680	13473
311.734	13780
311.758	13936
311.788	13549
311.842	12882
311.847	12815
311.896	17370
311.937	21400
311.950	20811
312.004	18109
312.027	16856
312.058	14440
312.112	10195
312.117	9778
312.165	9459
312.207	9209
312.297	14426
312.386	11530
312.476	13202
312.566	21715
312.656	11156
312.745	8151
312.835	9832
312.925	10874
313.015	10506
313.104	11066
313.194	8730
313.284	8548
313.374	12961
313.463	10778
313.553	9752
313.643	8508
313.732	8440
313.822	7269
313.912	10315
314.001	11140
314.091	13550
314.180	16409
314.270	14237
314.360	16393
314.449	13399
314.539	9490
314.628	8880
314.718	10698
314.808	13815
314.897	9433
314.987	10505
315.076	12785
315.166	16082
315.255	14863
315.345	14649
315.434	14271
315.524	13390
315.613	15462
315.703	19710
315.792	30370
315.881	81381
315.971	28973
316.060	27963
316.150	40019
316.239	39659
316.328	14960
316.418	10050
316.507	10706
316.597	14457
316.686	13058
316.775	21083
316.865	41860
316.954	10967
317.043	8515
317.133	9903
317.222	8129
317.311	9024
317.400	8294
317.490	14829
317.579	14482
317.668	13103
317.757	20925
317.847	50419
317.936	143106
318.025	54447
318.114	33375
318.203	22296
318.293	28858
318.382	47953
318.471	39246
318.560	55579
318.649	96509
318.738	20661
318.828	17396
318.917	17329
319.006	22743
319.095	56299
319.184	129035
319.273	64757
319.362	32120
319.451	14226
319.540	14191
319.629	31479
319.718	44537
319.807	24833
319.896	53166
319.985	152684
320.074	48767
320.163	17496
320.252	27052
320.341	23066
320.430	19081
320.519	24581
320.608	14291
320.697	13815
320.786	12768
320.875	17502
320.964	23169
321.053	34387
321.142	47793
321.230	45802
321.319	41888
321.408	82317
321.497	35405
321.586	35711
321.675	42972
321.764	38840
321.852	27800
321.941	48703
322.030	31595
322.119	40142
322.207	83295
322.296	61395
322.385	34048
322.474	43221
322.562	102926
322.651	50052
322.740	42124
322.829	54505
322.917	57347
323.006	33155
323.095	27510
323.183	23821
323.272	36692
323.361	61938
323.449	160278
323.538	55183
323.626	120124
323.715	66435
323.804	33938
323.892	108299
323.981	52290
324.069	22052
324.158	60751
324.246	50894
324.335	22053
324.424	29314
324.512	12946
324.601	17306
324.689	29142
324.778	44425
324.866	40000
324.954	12989
325.043	14294
325.131	28310
325.220	45370
325.308	50514
325.397	37354
325.485	21387
325.574	10219
325.662	9079
325.750	10292
325.839	9501
325.927	7908
326.015	12330
326.104	20479
326.192	26150
326.280	9338
326.369	10943
326.457	14865
326.545	25371
326.634	11069
326.722	7667
326.810	8547
326.898	8417
326.987	11610
327.075	24594
327.163	24470
327.251	12954
327.340	17575
327.428	19755
327.516	9824
327.604	9679
327.692	11354
327.781	13572
327.869	20290
327.957	14598
328.045	12011
328.133	8406
328.221	10569
328.309	9932
328.397	9120
328.485	12503
328.574	21527
328.662	55320
328.750	29905
328.838	14050
328.926	8632
329.014	9255
329.102	14254
329.190	33890
329.278	19186
329.366	7515
329.454	7213
329.542	7860
329.630	7412
329.718	8494
329.806	11380
329.893	12438
329.981	14738
330.069	31710
330.157	115944
330.245	232257
330.333	97427
330.421	19848
330.509	22826
330.597	67466
330.684	37741
330.772	17507
330.860	22679
330.948	27624
331.036	13163
331.123	7392
331.211	8694
331.299	11983
331.387	27648
331.475	38560
331.562	13360
331.650	8269
331.738	10039
331.825	13706
331.913	8203
332.001	8070
332.089	12205
332.176	24795
332.264	58638
332.352	40500
332.439	13776
332.527	10559
332.614	9734
332.702	13141
332.790	10966
332.877	28109
332.965	52667
333.052	16655
333.140	20681
333.228	39910
333.315	12851
333.403	13710
333.490	35142
333.578	32187
333.665	48330
333.753	20880
333.840	10155
333.928	13913
334.015	38702
334.103	65024
334.190	161901
334.278	38269
334.365	22264
334.452	16547
334.540	12369
334.627	16451
334.715	24188
334.802	49687
334.889	208649
334.977	177159
335.064	30709
335.151	16417
335.239	16125
335.326	24983
335.413	93953
335.501	96102
335.588	17127
335.675	12486
335.762	18655
335.850	28875
335.937	26151
336.024	67095
336.111	216019
336.199	86807
336.286	22465
336.373	13310
336.460	9939
336.547	10069
336.635	12502
336.722	10926
336.809	11615
336.896	20599
336.983	59391
337.070	127212
337.157	161657
337.245	128658
337.332	79973
337.419	14101
337.506	11029
337.593	14685
337.680	51028
337.767	107584
337.854	33978
337.941	36648
338.028	44951
338.115	16496
338.202	21993
338.289	41521
338.376	126953
338.463	40588
338.550	76213
338.637	62481
338.724	28033
338.811	38013
338.898	10880
338.984	9175
339.071	11141
339.158	15055
339.245	33348
339.332	19664
339.419	29910
339.506	24630
339.593	7120
339.679	9471
339.766	7546
339.853	14278
339.940	22922
340.027	8950
340.113	10076
340.200	13774
340.287	10110
340.374	15449
340.460	21953
340.547	11094
340.634	21434
340.720	65060
340.807	31274
340.894	8334
340.980	9201
341.067	8303
341.154	10624
341.240	18281
341.327	30192
341.414	12254
341.500	12037
341.587	9707
341.674	10071
341.760	23308
341.847	24618
341.933	9690
342.020	5357
342.106	6156
342.193	10593
342.279	17911
342.366	14874
342.452	21570
342.539	14420
342.625	35537
342.712	66069
342.798	27266
342.885	11178
342.971	6049
343.058	6401
343.144	7426
343.230	7156
343.317	8716
343.403	7403
343.490	6657
343.576	5440
343.662	8247
343.749	10228
343.835	14347
343.921	32032
344.008	161976
344.094	273018
344.180	56536
344.267	31203
344.353	94333
344.439	79698
344.525	32301
344.612	13982
344.698	12690
344.784	7604
344.870	7748
344.957	9244
345.043	13604
345.129	12370
345.215	22235
345.301	12182
345.387	9203
345.474	6369
345.560	6476
345.646	9148
345.732	8823
345.818	10034
345.904	8874
345.990	10514
346.076	11622
346.162	19834
346.249	10379
346.335	7555
346.421	12446
346.507	47688
346.593	118030
346.679	25544
346.765	11230
346.851	10193
346.937	9020
347.023	8183
347.108	10605
347.194	8321
347.280	9055
347.366	14541
347.452	51602
347.538	151406
347.624	105874
347.710	75083
347.796	14466
347.882	9032
347.967	8932
348.053	11531
348.139	9329
348.225	8026
348.311	7934
348.397	7260
348.482	11609
348.568	10905
348.654	8632
348.740	13726
348.825	14150
348.911	21392
348.997	82922
349.083	121692
349.168	20408
349.254	10467
349.340	9805
349.425	7212
349.511	12637
349.597	13890
349.682	32712
349.768	86485
349.854	33861
349.939	8964
350.025	8185
350.110	6791
350.196	7417
350.282	6120
350.367	7291
350.453	15410
350.538	15128
350.624	12220
350.709	10729
350.795	6869
350.880	8058
350.966	9723
351.051	14166
351.137	11590
351.222	11421
351.308	34933
351.393	68750
351.479	17884
351.564	8240
351.649	8829
351.735	6721
351.820	6471
351.906	9120
351.991	14833
352.076	56671
352.162	60046
352.247	14362
352.332	11682
352.418	21428
352.503	33220
352.588	110267
352.673	69722
352.759	19296
352.844	10291
352.929	13029
353.014	15761
353.100	12614
353.185	20730
353.270	29304
353.355	22930
353.441	9029
353.526	12794
353.611	26255
353.696	24856
353.781	15949
353.866	7835
353.952	11950
354.037	27045
354.122	51451
354.207	41982
354.292	15860
354.377	7913
354.462	8279
354.547	11705
354.632	12000
354.717	17709
354.802	21849
354.887	9994
354.972	7869
355.057	6428
355.142	7213
355.227	10519
355.312	18509
355.397	39179
355.482	78801
355.567	34854
355.652	29567
355.737	36981
355.822	105796
355.907	66169
355.991	13590
356.076	8571
356.161	9329
356.246	8179
356.331	11557
356.416	34428
356.501	168661
356.585	137187
356.670	22374
356.755	17603
356.840	31736
356.924	138152
357.009	355955
357.094	111141
357.179	29861
357.263	19215
357.348	21082
357.433	19324
357.517	18696
357.602	14299
357.687	13338
357.771	22343
357.856	40793
357.941	30870
358.025	110202
358.110	340248
358.195	131258
358.279	25314
358.364	24300
358.448	80929
358.533	180988
358.617	123145
358.702	121917
358.787	40791
358.871	26970
358.956	20192
359.040	8837
359.125	7511
359.209	10393
359.294	23044
359.378	31073
359.462	21580
359.547	13788
359.631	10654
359.716	7580
359.800	10157
359.885	14931
359.969	9992
360.053	9840
360.138	10451
360.222	16258
360.306	26070
360.391	20186
360.475	35554
360.559	63040
360.644	66830
360.728	48761
360.812	107590
360.896	222828
360.981	89728
361.065	43425
361.149	15338
361.233	15282
361.318	12822
361.402	15086
361.486	13172
361.570	11668
361.654	15724
361.739	43833
361.823	173007
361.907	205473
361.991	36955
362.075	29058
362.159	51387
362.243	38571
362.327	45247
362.411	51660
362.495	26233
362.580	15043
362.664	12477
362.748	13608
362.832	19256
362.916	37199
363.000	106673
363.084	246964
363.168	259882
363.252	58480
363.336	25557
363.420	40856
363.503	132527
363.587	119951
363.671	25162
363.755	20791
363.839	26237
363.923	17037
364.007	32047
364.091	35198
364.175	66646
364.258	204635
364.342	159761
364.426	184042
364.510	91214
364.594	43443
364.677	64866
364.761	216338
364.845	124018
364.929	48210
365.013	34682
365.096	33255
365.180	35570
365.264	67360
365.347	183382
365.431	67844
365.515	20895
365.598	13088
365.682	13481
365.766	24539
365.849	24217
365.933	16185
366.017	19354
366.100	15584
366.184	8304
366.267	11080
366.351	9920
366.435	8738
366.518	7057
366.602	8504
366.685	9652
366.769	12778
366.852	21461
366.936	32025
367.019	18513
367.103	19396
367.186	27412
367.270	11100
367.353	6738
367.436	10194
367.520	8548
367.603	13682
367.687	19314
367.770	30532
367.853	22914
367.937	77261
368.020	96408
368.104	23660
368.187	26103
368.270	36024
368.353	29170
368.437	42576
368.520	91113
368.603	54927
368.687	87878
368.770	123537
368.853	30642
368.936	32753
369.020	28536
369.103	12957
369.186	9563
369.269	12802
369.352	23781
369.436	28288
369.519	19007
369.602	10510
369.685	12705
369.768	13341
369.851	10529
369.934	8662
370.018	14017
370.101	26400
370.184	20515
370.267	17409
370.350	28878
370.433	47573
370.516	126987
370.599	130460
370.682	48006
370.765	75381
370.848	97332
370.931	160025
371.014	53751
371.097	15294
371.180	11933
371.263	10281
371.346	8002
371.429	10137
371.511	11896
371.594	21122
371.677	30204
371.760	33807
371.843	38613
371.926	165267
372.009	278004
372.091	83452
372.174	81663
372.257	156772
372.340	56215
372.423	49242
372.505	48138
372.588	26630
372.671	66457
372.754	164961
372.836	72093
372.919	70686
373.002	105245
373.085	34500
373.167	34511
373.250	83066
373.332	163486
373.415	225552
373.498	371708
373.580	135349
373.663	229272
373.746	237051
373.828	52670
373.911	27263
373.993	36543
374.076	117348
374.159	89572
374.241	57527
374.324	142005
374.406	83607
374.489	152272
374.571	331723
374.654	117192
374.736	83945
374.819	223949
374.901	300239
374.983	253866
375.066	45425
375.148	27563
375.231	106865
375.313	155635
375.395	54395
375.478	16331
375.560	14853
375.643	22600
375.725	82743
375.807	266937
375.890	176776
375.972	80214
376.054	47602
376.136	73394
376.219	37477
376.301	97758
376.383	219062
376.465	73858
376.548	52463
376.630	78653
376.712	192275
376.794	70668
376.877	12614
376.959	9447
377.041	13123
377.123	27781
377.205	26188
377.287	8263
377.369	9308
377.452	9758
377.534	9534
377.616	9889
377.698	8814
377.780	8362
377.862	10619
377.944	10097
378.026	7611
378.108	8623
378.190	7952
378.272	8358
378.354	7129
378.436	7568
378.518	19545
378.600	50144
378.682	47791
378.764	102359
378.846	64211
378.928	24506
379.010	31083
379.091	15725
379.173	10583
379.255	9305
379.337	17597
379.419	60872
379.501	134624
379.583	44593
379.664	18280
379.746	41210
379.828	104627
379.910	133073
379.991	97485
380.073	18366
380.155	14764
380.237	10683
380.318	9307
380.400	10878
380.482	24791
380.564	32897
380.645	34921
380.727	29838
380.809	17912
380.890	14013
380.972	12621
381.053	11915
381.135	16466
381.217	45104
381.298	99279
381.380	44787
381.461	55188
381.543	209509
381.624	198900
381.706	37138
381.787	24643
381.869	30078
381.951	110061
382.032	310523
382.113	158639
382.195	39155
382.276	34412
382.358	82625
382.439	185125
382.521	205878
382.602	277563
382.684	137411
382.765	261695
382.846	291350
382.928	398353
383.009	202448
383.090	200630
383.172	634476
383.253	754326
383.334	272451
383.416	276705
383.497	128817
383.578	83200
383.659	175785
383.741	592531
383.822	1142861
383.903	516479
383.984	230121
384.066	325441
384.147	172373
384.228	44870
384.309	35087
384.390	27538
384.471	22241
384.553	23531
384.634	30158
384.715	28860
384.796	18682
384.877	31714
384.958	101230
385.039	99410
385.120	35044
385.201	20571
385.282	24942
385.363	25857
385.444	25369
385.525	53548
385.606	150288
385.687	104052
385.768	30635
385.849	47716
385.930	172535
386.011	229271
386.092	56171
386.173	18859
386.254	15810
386.335	17414
386.416	22655
386.496	71141
386.577	89778
386.658	33996
386.739	22589
386.820	21806
386.901	17755
386.981	17091
387.062	15405
387.143	34827
387.224	102885
387.304	77810
387.385	30860
387.466	24317
387.547	27314
387.627	22740
387.708	54838
387.789	191070
387.869	189180
387.950	46632
388.031	14194
388.111	15389
388.192	34305
388.273	45715
388.353	25353
388.434	18825
388.514	48869
388.595	178384
388.676	189828
388.756	89128
388.837	88330
388.917	45198
388.998	13335
389.078	13909
389.159	12256
389.239	12600
389.320	20329
389.400	18462
389.480	50980
389.561	106910
389.641	43603
389.722	21986
389.802	31313
389.883	57755
389.963	127826
390.043	66983
390.124	26195
390.204	46556
390.284	109139
390.365	63651
390.445	93936
390.525	199113
390.605	151073
390.686	50906
390.766	19884
390.846	13381
390.927	11205
391.007	11397
391.087	14957
391.167	15826
391.247	12137
391.328	22465
391.408	30102
391.488	20772
391.568	10574
391.648	18028
391.728	22183
391.808	21476
391.888	27115
391.969	69170
392.049	89325
392.129	40620
392.209	61861
392.289	121306
392.369	62123
392.449	53846
392.529	33156
392.609	30728
392.689	51196
392.769	131287
392.849	94663
392.929	88431
393.009	181409
393.089	131070
393.169	152325
393.248	473811
393.328	1269452
393.408	1164902
393.488	342016
393.568	111924
393.648	58590
393.728	40073
393.807	30036
393.887	27443
393.967	25596
394.047	30023
394.127	35712
394.206	64059
394.286	233297
394.366	756379
394.446	660733
394.525	150587
394.605	46950
394.685	44641
394.764	84095
394.844	126679
394.924	77907
395.003	28410
395.083	21099
395.163	20307
395.242	19228
395.322	19348
395.402	15113
395.481	25923
395.561	68245
395.640	145057
395.720	120222
395.799	159213
395.879	110032
395.958	96245
396.038	334479
396.117	975095
396.197	895899
396.276	264884
396.356	99612
396.435	73558
396.515	54567
396.594	70979
396.673	139125
396.753	481015
396.832	1137625
396.912	749316
396.991	187087
397.070	61359
397.150	35403
397.229	30681
397.308	48470
397.388	67132
397.467	29980
397.546	17136
397.625	14032
397.705	20411
397.784	19329
397.863	13073
397.942	11051
398.022	16225
398.101	56684
398.180	124365
398.259	53582
398.338	18837
398.417	13404
398.497	11366
398.576	12019
398.655	9545
398.734	9713
398.813	13570
398.892	53630
398.971	135156
399.050	53694
399.129	10413
399.208	7756
399.287	8236
399.366	6605
399.445	8097
399.524	8316
399.603	8975
399.682	18791
399.761	56100
399.840	151956
399.919	90864
399.998	14264
400.077	6905
400.156	6894
400.235	10790
400.313	7349
400.392	15695
400.471	60598
400.550	74349
400.629	20184
400.708	12321
400.786	13585
400.865	34093
400.944	30875
401.023	15260
401.102	5525
401.180	6153
401.259	6841
401.338	9690
401.416	13155
401.495	10132
401.574	8764
401.652	9301
401.731	12333
401.810	10987
401.888	6977
401.967	6206
402.046	8555
402.124	12787
402.203	13667
402.281	9980
402.360	16382
402.438	39981
402.517	22709
402.596	10487
402.674	9377
402.753	7437
402.831	6951
402.910	13792
402.988	57386
403.066	141717
403.145	64269
403.223	55777
403.302	116965
403.380	82546
403.459	77602
403.537	28037
403.615	12059
403.694	5201
403.772	6235
403.850	5780
403.929	5360
404.007	7641
404.085	17414
404.164	16790
404.242	8106
404.320	13389
404.398	24251
404.477	72756
404.555	256439
404.633	171661
404.711	27574
404.789	10266
404.868	9468
404.946	6697
405.024	4953
405.102	5457
405.180	4826
405.258	4804
405.336	5550
405.415	8067
405.493	15733
405.571	13697
405.649	5500
405.727	7290
405.805	10911
405.883	9934
405.961	11968
406.039	12901
406.117	7352
406.195	16830
406.273	77719
406.351	212962
406.429	98317
406.507	18519
406.585	8258
406.663	9661
406.740	10894
406.818	10151
406.896	5846
406.974	9283
407.052	28722
407.130	139663
407.208	146840
407.285	26877
407.363	7148
407.441	7179
407.519	6883
407.596	10002
407.674	18811
407.752	40380
407.830	41399
407.907	21436
407.985	9233
408.063	6268
408.141	5784
408.218	12622
408.296	12565
408.373	9902
408.451	9548
408.529	9153
408.606	5376
408.684	5087
408.762	4804
408.839	5183
408.917	5284
408.994	6551
409.072	5946
409.149	7679
409.227	11269
409.304	14834
409.382	12753
409.459	14933
409.537	19736
409.614	17201
409.692	12882
409.769	13887
409.846	20295
409.924	25599
410.001	17630
410.079	12146
410.156	10149
410.233	9608
410.311	7959
410.388	7583
410.465	9616
410.543	8561
410.620	7398
410.697	10127
410.775	8760
410.852	6431
410.929	10829
411.006	12958
411.083	10015
411.161	20430
411.238	17387
411.315	10732
411.392	6658
411.469	11151
411.547	10493
411.624	6679
411.701	6652
411.778	9995
411.855	16891
411.932	10032
412.009	6050
412.086	6330
412.163	8319
412.240	9344
412.317	11268
412.394	8917
412.471	4578
412.548	5829
412.625	5889
412.702	10490
412.779	15765
412.856	9471
412.933	4674
413.010	6041
413.087	15295
413.164	57296
413.241	59788
413.318	16057
413.395	12198
413.471	16098
413.548	7113
413.625	7412
413.702	8930
413.779	6667
413.855	3402
413.932	3252
414.009	3789
414.086	5002
414.162	5617
414.239	13555
414.316	57495
414.393	99284
414.469	28225
414.546	5284
414.623	4481
414.699	5440
414.776	6667
414.853	4866
414.929	6152
415.006	6002
415.082	7053
415.159	5692
415.236	4929
415.312	6876
415.389	12769
415.465	14620
415.542	8365
415.618	7344
415.695	10891
415.771	8128
415.848	7154
415.924	6702
416.000	6086
416.077	5395
416.153	2685
416.230	2539
416.306	4170
416.383	4347
416.459	4966
416.535	3375
416.612	2513
416.688	4539
416.764	3992
416.841	4564
416.917	4730
416.993	5855
417.069	7666
417.146	10411
417.222	11168
417.298	7361
417.374	4766
417.451	6913
417.527	8331
417.603	8641
417.679	6619
417.755	6175
417.831	3616
417.908	3793
417.984	3312
418.060	5522
418.136	16548
418.212	16417
418.288	6553
418.364	5425
418.440	5704
418.516	10231
418.592	14064
418.668	25061
418.744	31703
418.820	20717
418.896	6592
418.972	4567
419.048	6194
419.124	16479
419.200	10869
419.276	5129
419.352	3177
419.428	4238
419.504	6100
419.579	7944
419.655	5782
419.731	9334
419.807	24106
419.883	39035
419.959	21880
420.034	9865
420.110	24656
420.186	71300
420.262	41066
420.337	11019
420.413	9223
420.489	6147
420.565	5908
420.640	5910
420.716	7064
420.792	5293
420.867	7049
420.943	7129
421.019	12067
421.094	9679
421.170	6200
421.245	6615
421.321	7521
421.397	8972
421.472	13375
421.548	24877
421.623	19405
421.699	13013
421.774	13006
421.850	14170
421.925	20460
422.001	19223
422.076	18936
422.152	23855
422.227	35366
422.302	44533
422.378	68534
422.453	131845
422.529	314200
422.604	672833
422.679	852323
422.755	586390
422.830	233092
422.905	102844
422.981	59679
423.056	40248
423.131	30229
423.207	24554
423.282	23742
423.357	30744
423.432	21560
423.508	24987
423.583	40690
423.658	25311
423.733	14395
423.808	15503
423.883	15376
423.959	14677
424.034	13208
424.109	10699
424.184	8044
424.259	6743
424.334	6777
424.409	6750
424.484	6656
424.559	7417
424.634	6664
424.709	10534
424.784	10516
424.859	8027
424.934	16697
425.009	54805
425.084	73063
425.159	23317
425.234	7331
425.309	6261
425.384	13927
425.459	16229
425.534	7220
425.609	6762
425.683	4856
425.758	5217
425.833	6356
425.908	10427
425.983	36541
426.058	74694
426.132	27498
426.207	8678
426.282	13497
426.357	10614
426.431	5098
426.506	6041
426.581	6086
426.655	6573
426.730	4917
426.805	5594
426.879	6933
426.954	7554
427.029	19251
427.103	94486
427.178	177702
427.253	62211
427.327	11308
427.402	15933
427.476	24799
427.551	10943
427.625	7173
427.700	6844
427.774	5244
427.849	7973
427.923	5216
427.998	6588
428.072	8283
428.147	22138
428.221	92925
428.296	200137
428.370	76671
428.444	15930
428.519	18373
428.593	31819
428.667	25802
428.742	32705
428.816	43361
428.890	152444
428.965	168731
429.039	50023
429.113	32751
429.188	12887
429.262	6737
429.336	17079
429.410	38138
429.485	24384
429.559	26963
429.633	18526
429.707	10789
429.781	39462
429.855	164312
429.930	182422
430.004	98512
430.078	139733
430.152	141027
430.226	275858
430.300	201851
430.374	32544
430.448	17645
430.522	60058
430.596	128343
430.670	92124
430.744	249600
430.818	254928
430.892	46959
430.966	11184
431.040	6562
431.114	4829
431.188	4457
431.262	5018
431.336	6194
431.410	19149
431.484	38651
431.557	19833
431.631	6833
431.705	11725
431.779	61054
431.853	183888
431.927	91857
432.000	13243
432.074	6366
432.148	8283
432.222	6032
432.295	4469
432.369	5541
432.443	16181
432.516	91064
432.590	174350
432.664	51513
432.737	8840
432.811	3890
432.885	3196
432.958	3180
433.032	3398
433.106	2272
433.179	4291
433.253	3221
433.326	3272
433.400	2930
433.473	3953
433.547	2419
433.620	4935
433.694	10011
433.767	8120
433.841	3698
433.914	3005
433.988	3051
434.061	3539
434.134	3338
434.208	2965
434.281	2199
434.355	3128
434.428	3965
434.501	3429
434.575	2391
434.648	4120
434.721	3101
434.795	2833
434.868	1682
434.941	3224
435.014	2928
435.088	4240
435.161	6384
435.234	11765
435.307	11633
435.381	7227
435.454	7002
435.527	10844
435.600	10508
435.673	8273
435.746	5962
435.819	6042
435.892	5047
435.966	4326
436.039	4539
436.112	4354
436.185	2514
436.258	2795
436.331	1593
436.404	2994
436.477	2143
436.550	2357
436.623	2926
436.696	2648
436.769	3907
436.842	4127
436.915	5202
436.987	6825
437.060	3594
437.133	3255
437.206	2570
437.279	4217
437.352	3407
437.425	3570
437.498	4969
437.570	13554
437.643	9370
437.716	4259
437.789	4215
437.861	12238
437.934	21544
438.007	9670
438.080	3679
438.152	6620
438.225	18381
438.298	122025
438.370	242521
438.443	82899
438.516	20591
438.588	6720
438.661	2982
438.734	4431
438.806	5914
438.879	6935
438.951	9079
439.024	11714
439.096	4761
439.169	3473
439.241	3099
439.314	4098
439.386	6486
439.459	11466
439.531	13910
439.604	6515
439.676	3530
439.749	3608
439.821	2670
439.893	3688
439.966	4644
440.038	6020
440.110	5539
440.183	4341
440.255	4292
440.327	10160
440.400	55485
440.472	166845
440.544	83519
440.617	13832
440.689	10691
440.761	15092
440.833	18364
440.905	11005
440.978	3428
441.050	3147
441.122	3545
441.194	3911
441.266	3951
441.338	5480
441.411	13370
441.483	61038
441.555	63833
441.627	15828
441.699	9972
441.771	8533
441.843	4907
441.915	3437
441.987	3457
442.059	4307
442.131	6492
442.203	9929
442.275	10693
442.347	12313
442.419	25805
442.491	119718
442.563	196417
442.635	69181
442.706	43195
442.778	26509
442.850	7695
442.922	5551
442.994	7612
443.066	11677
443.137	9124
443.209	9294
443.281	14757
443.353	37118
443.425	153102
443.496	401419
443.568	311613
443.640	98270
443.711	21504
443.783	11630
443.855	7375
443.926	5949
443.998	6509
444.070	8331
444.141	7605
444.213	11174
444.285	12426
444.356	11402
444.428	8799
444.499	4776
444.571	4174
444.642	4968
444.714	6694
444.785	11086
444.857	14495
444.928	25688
445.000	14299
445.071	20306
445.143	21282
445.214	17382
445.285	33008
445.357	93065
445.428	309250
445.500	516471
445.571	301072
445.642	146492
445.714	60831
445.785	41717
445.856	15466
445.928	15255
445.999	11652
446.070	9752
446.141	11375
446.213	12667
446.284	7467
446.355	7824
446.426	5912
446.497	6450
446.569	10636
446.640	14681
446.711	10001
446.782	4981
446.853	8305
446.924	8485
446.995	6099
447.066	6979
447.138	10346
447.209	6096
447.280	2797
447.351	2793
447.422	3065
447.493	5828
447.564	6840
447.635	9260
447.706	4945
447.777	3223
447.847	2624
447.918	3805
447.989	6454
448.060	9533
448.131	18391
448.202	15285
448.273	10750
448.344	5583
448.414	3419
448.485	4226
448.556	3465
448.627	2926
448.698	3104
448.768	2871
448.839	4101
448.910	10173
448.981	8320
449.051	4821
449.122	3060
449.193	3517
449.263	3762
449.334	3881
449.405	6993
449.475	15372
449.546	10280
449.616	12283
449.687	8685
449.758	4555
449.828	4540
449.899	4320
449.969	4001
450.040	3902
450.110	5353
450.181	5855
450.251	5033
450.322	4330
450.392	3942
450.463	3709
450.533	3106
450.604	4298
450.674	3590
450.744	3977
450.815	3904
450.885	4081
450.955	4133
451.026	4108
451.096	3322
451.166	5528
451.237	14950
451.307	25523
451.377	9010
451.447	3929
451.518	2555
451.588	4022
451.658	5196
451.728	9480
451.799	30888
451.869	24445
451.939	6050
452.009	4202
452.079	3751
452.149	5242
452.219	11842
452.289	32621
452.360	18095
452.430	6421
452.500	6803
452.570	8504
452.640	13140
452.710	35559
452.780	38563
452.850	27831
452.920	22231
452.990	8913
453.060	6789
453.129	9884
453.199	13078
453.269	49327
453.339	71052
453.409	92833
453.479	120499
453.549	156108
453.619	148183
453.688	46038
453.758	10713
453.828	6726
453.898	5080
453.968	4811
454.037	4499
454.087	4428
454.107	4366
454.168	3943
454.177	3845
454.247	3777
454.249	3798
454.316	3506
454.330	4312
454.386	7169
454.411	11929
454.456	19075
454.492	19598
454.525	19993
454.574	11210
454.595	7486
454.655	5003
454.665	4664
454.734	7619
454.736	7877
454.804	13504
454.817	17629
454.873	31987
454.898	30749
454.943	27680
454.979	18708
455.013	11235
455.060	7872
455.082	7026
455.141	10421
455.152	10629
455.221	27075
455.222	27385
455.291	33597
455.303	30567
455.360	17540
455.384	17718
455.430	18796
455.465	19663
455.499	19577
455.546	26040
455.569	27785
455.627	16849
455.638	15124
455.707	5731
455.708	5769
455.777	6268
455.789	6209
455.846	5738
455.869	5644
455.916	5356
455.950	5511
455.985	5564
456.031	5408
456.054	5278
456.112	5180
456.124	5170
456.193	4841
456.193	4801
456.262	6077
456.274	6530
456.332	8059
456.355	8224
456.401	7944
456.436	6968
456.470	5995
456.516	5025
456.540	4607
456.597	4902
456.609	4967
456.678	4985
456.678	4956
456.747	4565
456.759	4534
456.817	4392
456.840	4746
456.886	5292
456.920	5357
456.955	5643
457.001	6052
457.024	6346
457.082	8100
457.093	8363
457.162	10321
457.163	10377
457.232	11435
457.243	10851
457.301	7547
457.324	6530
457.370	5573
457.405	6165
457.439	6630
457.485	6537
457.508	6645
457.566	7872
457.577	8216
457.646	10308
457.647	10391
457.715	19591
457.727	21428
457.784	33077
457.808	41254
457.853	51328
457.889	55609
457.922	50461
457.969	34653
457.991	36400
458.050	49999
458.060	52556
458.129	86262
458.130	87095
458.198	74212
458.211	66887
458.267	35257
458.292	24610
458.336	19133
458.372	18568
458.405	26268
458.453	39733
458.474	50535
458.533	89625
458.543	92783
458.611	136448
458.614	136992
458.680	72720
458.694	57070
458.749	27857
458.775	19594
458.818	14132
458.855	12265
458.887	11193
458.936	9969
458.955	9661
459.016	9623
459.024	9682
459.093	10290
459.097	10309
459.162	10543
459.177	10967
459.230	12511
459.257	13115
459.299	13369
459.338	13606
459.368	13968
459.418	14666
459.437	13958
459.499	11267
459.505	11208
459.574	10547
459.579	10569
459.643	10436
459.659	10132
459.711	9973
459.740	10586
459.780	11710
459.820	12561
459.849	12737
459.900	13336
459.917	13527
459.981	13989
459.986	13942
460.054	13797
460.061	13739
460.123	15140
460.141	16023
460.191	19488
460.222	21189
460.260	22832
460.302	25726
460.328	24228
460.382	18937
460.397	18399
460.462	16157
460.465	16186
460.534	18240
460.543	18506
460.602	34629
460.623	41183
460.671	58636
460.703	75176
460.739	70794
460.783	54128
460.808	42941
460.864	14265
460.876	12740
460.944	10999
460.945	10979
461.013	12333
461.024	12472
461.081	12404
461.104	12822
461.150	12734
461.184	11568
461.218	11154
461.264	11389
461.286	11388
461.345	11143
461.355	11073
461.423	10881
461.425	10874
461.491	11868
461.505	12265
461.559	21269
461.585	25195
461.628	38418
461.665	52206
461.696	57197
461.745	67174
461.764	58489
461.825	18423
461.832	17609
461.901	14130
461.905	14121
461.969	12828
461.985	12285
462.037	11908
462.065	11861
462.105	12953
462.145	14265
462.173	19962
462.225	31063
462.241	33868
462.305	46899
462.310	45699
462.378	24475
462.385	21695
462.446	15383
462.465	14240
462.514	13931
462.545	13982
462.582	13454
462.625	12647
462.650	12529
462.705	11982
462.718	12268
462.785	14447
462.786	14544
462.854	19427
462.865	20422
462.922	25132
462.945	26856
462.990	20561
463.025	14676
463.058	13081
463.104	11444
463.126	11558
463.184	12129
463.194	12272
463.262	13097
463.264	13137
463.330	13422
463.344	13379
463.398	14484
463.424	15048
463.466	15043
463.504	15190
463.533	15613
463.583	15835
463.601	16141
463.663	17281
463.669	17745
463.737	23566
463.743	24064
463.805	34276
463.823	37227
463.873	53826
463.903	64610
463.940	67934
463.982	71639
464.008	57687
464.062	24144
464.076	22248
464.142	14292
464.144	14284
464.211	14473
464.221	14601
464.279	15279
464.301	15513
464.347	16651
464.381	17563
464.414	19129
464.461	20954
464.482	21712
464.540	24232
464.550	23712
464.617	19076
464.620	18907
464.685	21629
464.699	22194
464.753	26460
464.779	28711
464.820	31131
464.859	33077
464.888	32230
464.938	30461
464.956	30409
465.018	30015
465.023	29665
465.091	24827
465.098	24255
465.158	24204
465.177	24301
465.226	24827
465.257	24973
465.293	26003
465.336	27236
465.361	29389
465.416	34169
465.428	36099
465.495	46383
465.496	46597
465.563	69078
465.575	73036
465.631	86761
465.654	92519
465.698	60366
465.734	32285
465.765	29157
465.813	24883
465.833	24658
465.893	24617
465.900	24779
465.968	25875
465.972	25914
466.035	26724
466.052	26845
466.102	27227
466.131	27416
466.170	27591
466.210	27659
466.237	28275
466.290	29375
466.304	29787
466.369	31301
466.372	31450
466.439	34342
466.449	34695
466.506	37516
466.528	38512
466.573	49478
466.607	57575
466.641	78448
466.687	107336
466.708	117364
466.766	145003
466.775	135225
466.842	58918
466.845	55197
466.909	45279
466.925	42944
466.977	40838
467.004	39660
467.044	40992
467.083	42213
467.111	45118
467.163	50337
467.178	51328
467.242	55017
467.245	54883
467.312	49951
467.321	49206
467.379	47071
467.400	46156
467.446	47588
467.480	48459
467.559	44265
467.638	39351
467.717	40178
467.796	43709
467.875	47881
467.955	44974
468.034	58469
468.113	118656
468.192	167519
468.271	54775
468.350	42644
468.429	48234
468.508	49867
468.588	40447
468.667	36212
468.746	37109
468.825	34471
468.904	30946
468.983	36778
469.062	52370
469.141	60489
469.220	31311
469.299	30557
469.378	35796
469.456	41218
469.535	37685
469.614	36417
469.693	36625
469.772	45535
469.851	58998
469.930	44750
470.009	35061
470.088	36271
470.166	43774
470.245	61317
470.324	75698
470.403	56395
470.482	42075
470.560	35419
470.639	35809
470.718	41296
470.797	34278
470.875	38718
470.954	49056
471.033	52530
471.111	26908
471.190	27544
471.269	25377
471.347	27200
471.426	28576
471.505	33149
471.583	36194
471.662	33282
471.740	29509
471.819	30470
471.898	28069
471.976	28847
472.055	28824
472.133	31684
472.212	39385
472.290	39880
472.369	29253
472.447	26210
472.526	25806
472.604	27816
472.683	29929
472.761	33045
472.839	28931
472.918	27847
472.996	28022
473.075	31301
473.153	31003
473.231	25769
473.310	32009
473.388	31227
473.466	29013
473.545	34055
473.623	44554
473.701	43587
473.780	30063
473.858	28250
473.936	30747
474.014	28429
474.093	30638
474.171	42728
474.249	55337
474.327	40046
474.405	26748
474.484	26380
474.562	27076
474.640	27755
474.718	29108
474.796	31113
474.874	27309
474.952	25680
475.030	27643
475.108	29601
475.187	34555
475.265	36867
475.343	52334
475.421	57375
475.499	31117
475.577	29969
475.655	35371
475.733	63633
475.811	107237
475.889	96766
475.966	66441
476.044	28341
476.122	38479
476.200	49014
476.278	37869
476.356	25216
476.434	27689
476.512	34742
476.590	47081
476.667	40221
476.745	24571
476.823	27201
476.901	25684
476.979	26057
477.056	25688
477.134	26047
477.212	26145
477.290	25620
477.367	23301
477.445	22345
477.523	22825
477.601	23092
477.678	24251
477.756	27345
477.834	30096
477.911	23358
477.989	24507
478.066	24564
478.144	28234
478.222	34280
478.299	59476
478.377	52343
478.454	22972
478.532	21975
478.609	24242
478.687	26859
478.764	22966
478.842	22866
478.919	26109
478.997	24015
479.074	21047
479.152	25365
479.229	31400
479.307	21522
479.384	18393
479.461	19559
479.539	21185
479.616	25740
479.694	22939
479.771	24141
479.848	25673
479.926	32242
480.003	35699
480.080	21326
480.157	19669
480.235	20362
480.312	20808
480.389	24026
480.467	38532
480.544	45345
480.621	25919
480.698	25394
480.775	29252
480.853	27325
480.930	23084
481.007	23882
481.084	25779
481.161	27480
481.238	26772
481.315	19768
481.392	20247
481.470	22065
481.547	21456
481.624	21654
481.701	21823
481.778	22660
481.855	25938
481.932	36566
482.009	61935
482.086	43362
482.163	27443
482.240	41758
482.317	74576
482.393	54671
482.470	24806
482.547	23823
482.624	23545
482.701	24499
482.778	23361
482.855	21021
482.932	20375
483.009	20186
483.085	24590
483.162	29098
483.239	28423
483.316	24004
483.393	23501
483.469	21687
483.546	25869
483.623	27746
483.699	22086
483.776	23011
483.853	27548
483.930	37180
484.006	91447
484.083	151431
484.160	88445
484.236	126022
484.313	98991
484.389	72800
484.466	66477
484.543	64455
484.619	66993
484.696	68924
484.772	70560
484.849	69996
484.925	59784
485.002	58451
485.078	62896
485.155	65011
485.231	56480
485.308	55032
485.384	57004
485.461	65819
485.537	103205
485.614	118845
485.690	58883
485.766	52500
485.843	57302
485.919	80358
485.995	82953
486.072	50460
486.148	49554
486.224	49981
486.301	51870
486.377	59986
486.453	61410
486.530	58768
486.606	73905
486.682	84112
486.758	96403
486.835	106294
486.911	87948
486.987	132753
487.063	150414
487.139	192258
487.215	133810
487.292	71424
487.368	61977
487.444	71086
487.520	87056
487.596	87350
487.672	132572
487.748	341607
487.824	516621
487.900	203033
487.976	83977
488.052	73207
488.128	83628
488.204	67501
488.280	55170
488.356	63021
488.432	115992
488.508	172172
488.584	69451
488.660	52389
488.736	51681
488.812	54709
488.888	69226
488.964	88311
489.039	178598
489.115	274315
489.191	159357
489.267	54128
489.343	49859
489.418	43502
489.494	42958
489.570	40434
489.646	45095
489.722	43107
489.797	44594
489.873	64941
489.949	127446
490.024	109970
490.100	43240
490.176	42823
490.251	51851
490.327	67922
490.403	43402
490.478	40111
490.554	34708
490.629	36793
490.705	35840
490.781	40098
490.856	38467
490.932	44403
491.007	43875
491.083	42884
491.158	39393
491.234	51930
491.309	97900
491.385	100954
491.460	42127
491.536	43077
491.611	40068
491.686	43893
491.762	59402
491.837	115428
491.913	189448
491.988	263245
492.063	332474
492.139	90451
492.214	55245
492.289	32894
492.365	32778
492.440	39275
492.515	37747
492.590	38120
492.666	31212
492.741	43210
492.816	60229
492.891	35414
492.967	29805
493.042	27066
493.117	28604
493.192	27550
493.267	33517
493.342	54261
493.418	60672
493.493	30825
493.568	25968
493.643	27986
493.718	35641
493.793	52532
493.868	60621
493.943	39415
494.018	31362
494.093	28573
494.168	28392
494.243	25917
494.318	24674
494.393	25332
494.468	25990
494.543	24841
494.618	31300
494.693	27298
494.768	26625
494.842	28482
494.917	24486
494.992	27528
495.067	25341
495.142	24075
495.217	28214
495.292	28625
495.366	35945
495.441	43483
495.516	52338
495.591	71659
495.665	241837
495.740	571875
495.815	225908
495.890	47132
495.964	35304
496.039	37627
496.114	34998
496.188	37488
496.263	38467
496.338	33445
496.412	39199
496.487	44687
496.561	47161
496.636	51612
496.710	40942
496.785	44098
496.860	49731
496.934	43015
497.009	43707
497.083	44472
497.158	50956
497.232	57567
497.307	64085
497.381	56248
497.455	64334
497.530	80976
497.604	63896
497.679	69802
497.753	99477
497.827	129825
497.902	125749
497.976	134428
498.050	239702
498.125	795683
498.199	805149
498.273	187268
498.348	150716
498.422	125184
498.496	116814
498.570	103526
498.645	81878
498.719	76590
498.793	83104
498.867	105743
498.941	128184
499.016	321497
499.090	841172
499.164	299008
499.238	55207
499.312	47477
499.386	58474
499.460	51790
499.534	48274
499.609	58670
499.683	80282
499.757	69947
499.831	139320
499.905	554535
499.979	512034
500.053	89148
500.127	89441
500.201	69571
500.275	45651
500.349	44181
500.422	51343
500.496	72198
500.570	145335
500.644	323020
500.718	577772
500.792	133281
500.866	42047
500.940	52586
501.013	44233
501.087	44864
501.161	80562
501.235	97415
501.309	180645
501.382	512746
501.456	437673
501.530	104180
501.603	169322
501.677	68753
501.751	33829
501.825	39160
501.898	72662
501.972	208807
502.046	129685
502.119	41698
502.193	94675
502.266	224036
502.340	106909
502.413	97405
502.487	190606
502.561	110057
502.634	40247
502.708	34028
502.781	29235
502.855	24893
502.928	22952
503.002	23481
503.075	22689
503.149	25280
503.222	26617
503.295	29407
503.369	35706
503.442	46175
503.516	148862
503.589	378551
503.662	243372
503.736	80591
503.809	178441
503.882	149872
503.956	217830
504.029	216235
504.102	200643
504.175	266593
504.249	106717
504.322	56013
504.395	41275
504.468	29275
504.542	28223
504.615	23751
504.688	21455
504.761	20463
504.834	26911
504.907	35015
504.980	58027
505.053	29855
505.127	38974
505.200	40430
505.273	35628
505.346	24856
505.419	20183
505.492	19779
505.565	16338
505.638	15807
505.711	17668
505.784	16910
505.857	16061
505.930	18319
506.003	17549
506.076	21915
506.149	28129
506.221	33547
506.294	31303
506.367	77693
506.440	273479
506.513	139779
506.586	35503
506.659	22391
506.731	19956
506.804	25166
506.877	38018
506.950	25273
507.022	18740
507.095	24726
507.168	31763
507.241	20683
507.313	17074
507.386	20739
507.459	30067
507.531	19286
507.604	16474
507.677	17469
507.749	14805
507.822	24237
507.894	49451
507.967	60125
508.040	34721
508.112	29263
508.185	26739
508.257	26059
508.330	41190
508.402	27294
508.475	25086
508.547	27094
508.620	26571
508.692	41547
508.765	27119
508.837	21630
508.909	21261
508.982	22011
509.054	25641
509.127	22147
509.199	20462
509.271	19317
509.344	19870
509.416	18638
509.488	20251
509.560	20375
509.633	23161
509.705	26327
509.777	24231
509.849	35955
509.922	26134
509.994	20334
510.066	21606
510.138	24307
510.210	48604
510.283	44934
510.355	36358
510.427	31474
510.499	29753
510.571	28203
510.643	29468
510.715	48237
510.787	42502
510.859	29497
510.931	34442
511.003	48201
511.076	42017
511.148	26040
511.219	25708
511.291	41365
511.363	47157
511.435	25707
511.507	22826
511.579	24222
511.651	25216
511.723	23658
511.795	23251
511.867	23539
511.939	28428
512.010	54843
512.082	45380
512.154	25842
512.226	26605
512.298	41243
512.369	60622
512.441	45920
512.513	44160
512.585	34798
512.656	36827
512.728	39265
512.800	30422
512.871	29145
512.943	29062
513.015	26130
513.086	29960
513.158	31812
513.230	33898
513.301	46297
513.373	49874
513.444	31894
513.516	28081
513.588	29241
513.659	31818
513.731	38783
513.802	34459
513.874	68920
513.945	118375
514.016	43256
514.088	27854
514.159	31571
514.231	41780
514.302	56244
514.374	40331
514.445	37671
514.516	67588
514.588	51873
514.659	37268
514.730	64111
514.802	53117
514.873	48800
514.944	49461
515.016	41649
515.087	44083
515.158	53288
515.229	66703
515.301	52333
515.372	69977
515.443	49945
515.514	37023
515.585	29754
515.656	30409
515.728	29309
515.799	27797
515.870	30369
515.941	30269
516.012	32994
516.083	42547
516.154	47421
516.225	58024
516.296	57706
516.367	54389
516.438	64149
516.509	79467
516.580	111607
516.651	344338
516.722	1214166
516.793	500537
516.864	116981
516.935	107438
517.006	120093
517.077	160197
517.148	349628
517.219	1302551
517.289	1906933
517.360	495982
517.431	149421
517.502	58861
517.573	53272
517.643	51521
517.714	55813
517.785	59989
517.856	63834
517.926	80473
517.997	93630
518.068	121162
518.138	156675
518.209	231398
518.280	835940
518.350	2662239
518.421	1118108
518.492	162975
518.562	92907
518.633	85299
518.703	86463
518.774	142519
518.845	319157
518.915	304615
518.986	113783
519.056	79219
519.127	112369
519.197	156765
519.268	316743
519.338	190040
519.408	59372
519.479	72073
519.549	50504
519.620	36601
519.690	29271
519.760	30373
519.831	32375
519.901	32403
519.971	26997
520.042	29192
520.112	33439
520.182	39428
520.253	43421
520.323	29499
520.393	36459
520.463	50897
520.534	38553
520.604	66205
520.674	39001
520.744	39445
520.814	77637
520.885	70512
520.955	94284
521.025	343663
521.095	131057
521.165	31582
521.235	30023
521.305	27026
521.375	24867
521.445	28295
521.515	37871
521.585	45374
521.655	41073
521.725	34490
521.795	30760
521.865	24193
521.935	37622
522.005	32127
522.075	24137
522.145	26979
522.215	29473
522.285	40057
522.355	51743
522.424	94990
522.494	83168
522.564	46685
522.634	90790
522.704	271125
522.774	97675
522.843	30740
522.913	27442
522.983	36859
523.053	28328
523.122	29258
523.192	40283
523.262	142076
523.331	131381
523.401	31141
523.471	21031
523.540	23802
523.610	19013
523.680	18560
523.749	20585
523.819	25757
523.888	25751
523.958	20166
524.027	21248
524.097	23607
524.166	22043
524.236	25372
524.305	24385
524.375	20157
524.444	20844
524.514	23587
524.583	22759
524.653	27837
524.722	31139
524.791	21887
524.861	22526
524.930	20895
524.999	22518
525.069	31408
525.138	26043
525.207	31078
525.277	24090
525.346	24259
525.415	23312
525.484	25636
525.554	30210
525.623	30749
525.692	29674
525.761	34945
525.830	39743
525.900	49269
525.969	70779
526.038	113301
526.107	225865
526.176	650022
526.245	530975
526.314	178877
526.383	338766
526.452	453615
526.522	737118
526.591	729429
526.660	210179
526.729	115985
526.797	115051
526.867	214055
526.935	857863
527.004	1554069
527.073	852970
527.142	103190
527.211	47379
527.280	42026
527.349	39153
527.418	23130
527.487	24061
527.555	20899
527.624	19027
527.693	17798
527.762	20265
527.831	17395
527.899	19671
527.968	19739
528.037	19824
528.106	24336
528.174	45029
528.243	35006
528.312	49491
528.380	64149
528.449	23505
528.518	17809
528.586	13714
528.655	15576
528.723	14137
528.792	15553
528.861	16776
528.929	15418
528.998	14736
529.066	13933
529.135	14842
529.203	14062
529.272	14133
529.340	17163
529.409	17550
529.477	15549
529.545	20592
529.614	24260
529.682	24331
529.751	28325
529.819	28816
529.887	22787
529.956	18022
530.024	18919
530.092	15302
530.161	20566
530.229	34513
530.297	20574
530.365	17183
530.434	15948
530.502	14722
530.570	15616
530.638	14449
530.707	17777
530.775	19181
530.843	14416
530.911	16343
530.979	15389
531.047	15396
531.115	17555
531.183	15651
531.252	16520
531.320	16205
531.388	15269
531.456	16410
531.524	13836
531.592	17080
531.660	19429
531.728	15853
531.796	16919
531.864	16710
531.932	17650
532.000	17951
532.067	19474
532.135	20720
532.203	24212
532.271	24618
532.339	42104
532.407	112195
532.475	64649
532.542	34531
532.610	36145
532.678	49049
532.746	203019
532.814	490255
532.881	115457
532.949	28185
533.017	22490
533.084	19722
533.152	18958
533.220	18678
533.287	22494
533.355	18256
533.423	18566
533.490	17183
533.558	18067
533.625	19647
533.693	22312
533.761	21163
533.828	22195
533.896	20864
533.963	38956
534.031	46388
534.098	70421
534.166	32547
534.233	20249
534.300	22221
534.368	22489
534.435	23019
534.503	24096
534.570	26798
534.637	29168
534.705	32167
534.772	36967
534.840	64267
534.907	289023
534.974	360938
535.041	53138
535.109	32126
535.176	22070
535.243	21147
535.310	21815
535.378	19337
535.445	18916
535.512	19686
535.579	19582
535.646	18438
535.714	20818
535.781	25435
535.848	24985
535.915	24445
535.982	21654
536.049	20766
536.116	23866
536.183	21154
536.250	22478
536.317	22556
536.384	26131
536.451	38774
536.518	38630
536.585	29860
536.652	35127
536.719	49760
536.786	40646
536.853	33922
536.920	46530
536.987	68190
537.053	68142
537.120	257189
537.187	204299
537.254	31636
537.321	25666
537.388	24458
537.454	21436
537.521	20314
537.588	21104
537.654	24741
537.721	29651
537.788	28111
537.855	23826
537.921	24003
537.988	24715
538.055	24548
538.121	23248
538.188	25999
538.254	38319
538.321	68836
538.388	42025
538.454	26263
538.521	24775
538.587	22850
538.654	21628
538.720	21345
538.787	21976
538.853	23316
538.920	28815
538.986	29373
539.053	25409
539.119	26022
539.185	25792
539.252	31398
539.318	46082
539.385	37437
539.451	34787
539.517	33763
539.583	35972
539.650	78925
539.716	193882
539.782	55903
539.849	28029
539.915	27019
539.981	28920
540.047	31664
540.114	30330
540.180	30343
540.246	31785
540.312	40707
540.378	71285
540.444	67720
540.510	81376
540.576	215942
540.643	64886
540.709	27466
540.775	26527
540.841	25974
540.907	32394
540.973	46574
541.039	43358
541.105	45403
541.171	30054
541.237	26980
541.303	28863
541.369	32048
541.435	38674
541.500	61388
541.566	40006
541.632	24096
541.698	23486
541.764	24962
541.830	23237
541.896	23270
541.961	25532
542.027	26040
542.093	26291
542.159	28019
542.224	29868
542.290	41801
542.356	63629
542.421	66288
542.487	35657
542.553	28502
542.618	32319
542.684	27753
542.750	29219
542.815	34355
542.881	54059
542.947	187076
543.012	128015
543.078	29013
543.143	27143
543.209	27591
543.274	29020
543.340	32155
543.405	75873
543.471	113198
543.536	32748
543.602	26526
543.667	23791
543.732	24011
543.798	23643
543.863	26253
543.928	24053
543.994	22996
544.059	23732
544.124	24707
544.190	25166
544.255	26569
544.320	28279
544.386	28806
544.451	37489
544.516	41981
544.581	42736
544.646	120799
544.712	175942
544.777	42601
544.842	33053
544.907	33479
544.972	31050
545.037	30656
545.102	32508
545.168	32844
545.233	34506
545.298	36563
545.363	40501
545.428	44788
545.493	74134
545.558	153647
545.623	63999
545.688	34950
545.753	33717
545.818	32533
545.883	35513
545.947	35359
546.012	37239
546.077	37621
546.142	37580
546.207	38424
546.272	46189
546.337	47996
546.401	41248
546.466	40172
546.531	40252
546.596	42577
546.661	43575
546.725	43166
546.790	41056
546.855	44473
546.919	46462
546.984	51557
547.049	55998
547.113	63711
547.178	63521
547.243	71135
547.307	80724
547.372	90689
547.436	93975
547.501	87145
547.565	93718
547.630	94742
547.695	92303
547.759	96527
547.823	90821
547.888	84676
547.952	87367
548.017	91372
548.081	96452
548.146	106471
548.210	102032
548.274	98411
548.339	98305
548.403	90140
548.468	85142
548.532	83940
548.596	84497
548.660	85554
548.725	94158
548.789	106409
548.853	104785
548.917	95536
548.982	104682
549.046	96278
549.110	78331
549.174	78432
549.238	89078
549.303	94342
549.367	98493
549.431	94826
549.495	89433
549.559	89941
549.623	101773
549.687	114558
549.751	128107
549.815	131487
549.879	130434
549.943	122434
550.007	130214
550.071	131209
550.135	129379
550.199	115635
550.263	110456
550.327	108789
550.391	118552
550.455	120998
550.519	124106
550.582	133373
550.646	162463
550.710	163862
550.774	146758
550.838	148109
550.901	154318
550.965	161297
551.029	170580
551.093	183550
551.156	208247
551.220	270285
551.284	295275
551.347	205586
551.411	232120
551.475	231600
551.538	162498
551.602	148794
551.666	140664
551.729	129741
551.793	127182
551.856	124303
551.920	123096
551.983	122282
552.047	120826
552.110	120615
552.174	121974
552.237	126653
552.301	118503
552.364	112868
552.428	110442
552.491	113277
552.554	117459
552.618	117786
552.681	122794
552.745	123444
552.808	156182
552.871	188234
552.934	143917
552.998	122201
553.061	118199
553.124	111850
553.187	109731
553.251	113820
553.314	113542
553.377	111681
553.440	121510
553.503	134968
553.567	144371
553.630	120220
553.693	117475
553.756	120097
553.819	115940
553.882	113041
553.945	112042
554.008	110971
554.071	111388
554.134	113784
554.197	107469
554.260	104305
554.323	109634
554.386	109674
554.449	113334
554.512	112084
554.575	107897
554.638	108090
554.701	106207
554.764	103481
554.827	101303
554.889	97691
554.952	93389
555.015	91421
555.078	92928
555.141	94161
555.203	92105
555.266	91857
555.329	94260
555.391	88022
555.454	90864
555.517	88113
555.580	83399
555.642	79814
555.705	79743
555.768	79626
555.830	78616
555.893	73179
555.955	71550
556.018	71773
556.080	71752
556.143	73043
556.206	72564
556.268	73625
556.330	74053
556.393	71227
556.455	70452
556.518	80921
556.580	80245
556.643	63030
556.705	62442
556.767	60116
556.830	62108
556.892	65748
556.955	81958
557.017	66991
557.079	59205
557.142	58062
557.204	63713
557.266	93421
557.328	79603
557.391	53040
557.453	51080
557.515	52170
557.577	58400
557.639	60816
557.701	52703
557.764	52914
557.826	55818
557.888	58783
557.950	63089
558.012	65635
558.074	82398
558.136	185800
558.198	450247
558.260	163219
558.322	72539
558.384	72930
558.446	80930
558.508	92373
558.570	112367
558.632	155033
558.694	204920
558.756	247932
558.818	758046
558.880	1765754
558.942	587997
559.003	484439
559.065	238398
559.127	102559
559.189	99895
559.251	104591
559.312	147762
559.374	366974
559.436	1217554
559.498	581374
559.559	120733
559.621	97516
559.683	108678
559.744	178054
559.806	590652
559.868	855335
559.929	176730
559.991	103830
560.052	153858
560.114	428478
560.176	266854
560.237	247231
560.299	397584
560.360	95772
560.422	48269
560.483	41155
560.545	38051
560.606	37838
560.667	36106
560.729	34514
560.790	32960
560.852	33793
560.913	32578
560.974	32621
561.036	31383
561.097	33410
561.158	32553
561.220	34050
561.281	32733
561.342	34755
561.403	38224
561.465	45825
561.526	95451
561.587	115708
561.648	41927
561.709	33111
561.771	31673
561.832	31544
561.893	30712
561.954	29430
562.015	30806
562.076	29974
562.137	30515
562.198	30910
562.259	30511
562.320	31348
562.381	34993
562.442	45081
562.503	38125
562.564	31084
562.625	28770
562.686	28995
562.747	32751
562.808	30853
562.869	30561
562.930	35253
562.991	33427
563.051	31113
563.112	29572
563.173	29658
563.234	28852
563.294	29608
563.355	28599
563.416	29789
563.477	28842
563.537	29849
563.598	31334
563.659	29894
563.720	29856
563.780	30841
563.841	31150
563.901	30026
563.962	29500
564.023	28593
564.083	30064
564.144	30204
564.204	30185
564.265	29869
564.325	34139
564.386	56031
564.446	50324
564.507	30446
564.567	27836
564.628	29157
564.688	29086
564.749	28950
564.809	33081
564.869	36067
564.930	29928
564.990	28713
565.050	27980
565.111	28690
565.171	29467
565.231	30087
565.292	29050
565.352	27632
565.412	30357
565.472	29705
565.532	32269
565.593	30496
565.653	28594
565.713	30865
565.773	32948
565.833	37342
565.893	44574
565.953	32494
566.013	31287
566.074	33839
566.134	40607
566.194	57382
566.254	57769
566.314	42093
566.374	35022
566.434	36691
566.494	36893
566.554	36108
566.614	38191
566.673	39454
566.733	42463
566.793	43774
566.853	44976
566.913	45332
566.973	46132
567.033	47895
567.092	47475
567.152	45069
567.212	47128
567.272	46735
567.331	50120
567.391	51254
567.451	53924
567.511	61728
567.570	60581
567.630	49841
567.690	47525
567.749	48985
567.809	52461
567.868	58757
567.928	64607
567.988	74434
568.047	84794
568.107	104376
568.166	139297
568.226	218396
568.285	304329
568.345	261352
568.404	209134
568.464	179362
568.523	165644
568.582	165719
568.642	182528
568.701	223839
568.761	326090
568.820	510763
568.879	495128
568.939	369158
568.998	274700
569.057	210115
569.116	168033
569.176	134155
569.235	113263
569.294	96876
569.353	85032
569.413	74360
569.472	68630
569.531	60855
569.590	55826
569.649	53472
569.708	49293
569.767	47490
569.827	51489
569.886	44104
569.945	39659
570.004	39658
570.063	38922
570.122	40240
570.181	40034
570.240	41231
570.299	40974
570.358	40350
570.417	35302
570.475	32150
570.534	33893
570.593	35068
570.652	35270
570.711	34520
570.770	31939
570.829	34880
570.887	33847
570.946	34961
571.005	31063
571.064	30949
571.122	32700
571.181	34572
571.240	29444
571.299	26786
571.357	29535
571.416	29070
571.475	33045
571.533	32690
571.592	27907
571.650	29897
571.709	28172
571.768	29331
571.826	28676
571.885	27555
571.943	26451
572.002	26352
572.060	26376
572.119	24319
572.177	25446
572.236	23235
572.294	24016
572.352	25149
572.411	24328
572.469	24326
572.528	24114
572.586	24493
572.644	27652
572.703	33953
572.761	26670
572.819	24228
572.877	22864
572.936	21689
572.994	22103
573.052	22351
573.110	24148
573.169	24104
573.227	23053
573.285	21523
573.343	22218
573.401	23417
573.459	21901
573.517	21384
573.576	23012
573.634	23242
573.692	24152
573.750	23239
573.808	22912
573.866	23472
573.924	28007
573.982	26718
574.040	23974
574.098	21511
574.155	21846
574.213	20994
574.271	21582
574.329	22578
574.387	20986
574.445	20270
574.503	20209
574.560	19576
574.618	19905
574.676	20287
574.734	19343
574.792	20441
574.849	20914
574.907	18926
574.965	18447
575.022	18494
575.080	18691
575.138	19125
575.195	20821
575.253	19785
575.311	21781
575.368	20483
575.426	18219
575.483	19315
575.541	19536
575.598	19375
575.656	20213
575.713	20123
575.771	19690
575.828	19625
575.886	19816
575.943	20237
576.001	21350
576.058	21303
576.115	20950
576.173	22892
576.230	26973
576.287	29375
576.345	25148
576.402	21301
576.459	21048
576.517	21645
576.574	23069
576.631	23419
576.688	22129
576.746	20913
576.803	20636
576.860	19191
576.917	20443
576.974	19052
577.031	20290
577.089	19957
577.146	20708
577.203	20794
577.260	21418
577.317	22276
577.374	23470
577.431	21565
577.488	21889
577.545	19672
577.602	19733
577.659	19799
577.716	18652
577.773	19064
577.830	18509
577.886	19850
577.943	19457
578.000	19389
578.057	20682
578.114	20109
578.171	19311
578.227	20059
578.284	19658
578.341	20357
578.398	20031
578.454	20295
578.511	23812
578.568	24665
578.625	22451
578.681	20198
578.738	18910
578.794	19851
578.851	20327
578.908	20283
578.964	22315
579.021	22078
579.077	20095
579.134	19747
579.190	20696
579.247	19323
579.303	20015
579.360	18855
579.416	19913
579.473	18500
579.529	19570
579.586	20409
579.642	19187
579.698	19504
579.755	20220
579.811	20245
579.867	20127
579.924	18895
579.980	19564
580.036	20573
580.093	20586
580.149	21166
580.205	20849
580.261	20522
580.317	22071
580.374	22809
580.430	25735
580.486	23007
580.542	21129
580.598	21446
580.619	21536
580.654	21719
580.692	22372
580.710	22739
580.765	22029
580.767	22035
580.823	21730
580.838	21949
580.879	22631
580.911	22191
580.935	21902
580.984	21327
580.991	21280
581.047	21185
581.057	21402
581.103	22494
581.130	22978
581.159	23505
581.203	21923
581.215	21542
581.270	22025
581.276	22025
581.326	22197
581.349	22218
581.382	22306
581.422	21267
581.438	20840
581.494	23571
581.494	23545
581.550	22803
581.567	22880
581.606	23024
581.640	23006
581.661	23081
581.713	23221
581.717	23250
581.773	21608
581.786	21705
581.829	22028
581.859	22482
581.885	22914
581.932	22937
581.940	22954
581.996	23141
582.004	23242
582.052	23813
582.077	23156
582.107	22524
582.150	22929
582.163	23028
582.219	22954
582.223	22985
582.274	23588
582.296	23541
582.330	23497
582.368	23715
582.386	23845
582.441	23128
582.441	23135
582.497	22988
582.514	23005
582.552	23461
582.587	23488
582.608	23337
582.659	22480
582.663	22432
582.719	23896
582.732	23346
582.774	21722
582.805	22626
582.830	23313
582.877	23231
582.885	23195
582.941	23731
582.950	23639
582.996	23363
583.023	23746
583.052	24342
583.095	23815
583.107	23600
583.162	24352
583.168	24404
583.218	24772
583.240	24314
583.273	23790
583.313	24107
583.328	24215
583.384	23829
583.385	23847
583.439	24370
583.458	24135
583.494	23619
583.531	24050
583.549	24331
583.603	23984
583.605	23966
583.660	24673
583.676	24529
583.715	24274
583.748	24248
583.770	24223
583.820	24773
583.825	24810
583.881	25079
583.893	24934
583.936	24483
583.965	24594
583.991	24698
584.038	25120
584.046	25185
584.101	25630
584.110	25585
584.156	25273
584.183	25180
584.211	25027
584.255	25369
584.266	25492
584.321	24776
584.328	24945
584.376	26415
584.400	26525
584.431	26497
584.472	26458
584.486	26325
584.541	26573
584.545	26582
584.596	27023
584.617	27032
584.651	27256
584.689	28561
584.706	29019
584.761	28981
584.762	28996
584.816	29321
584.834	29443
584.871	29852
584.906	30264
584.926	30408
584.978	31357
584.980	31388
585.035	33210
585.051	33593
585.090	34622
585.123	35487
585.145	35995
585.195	38270
585.200	38484
585.254	41379
585.267	42012
585.309	43843
585.340	46503
585.364	48732
585.412	52427
585.419	52984
585.473	58168
585.484	60168
585.528	69974
585.556	81505
585.583	99112
585.628	147952
585.637	162559
585.692	327576
585.700	356706
585.747	475611
585.772	382176
585.801	239347
585.845	104826
585.856	83025
585.910	57646
585.917	55892
585.965	49632
585.989	47574
586.019	45118
586.061	43970
586.074	43794
586.128	43655
586.133	43801
586.183	45526
586.205	45747
586.237	45238
586.277	44707
586.292	44678
586.346	45146
586.349	45218
586.401	45684
586.421	45906
586.455	47100
586.493	49355
586.509	50993
586.564	58563
586.565	58971
586.618	78070
586.637	78458
586.672	69794
586.709	60095
586.727	57325
586.781	56872
586.781	56825
586.835	54877
586.853	54330
586.889	54015
586.925	54256
586.944	54409
586.996	55805
586.998	55802
587.052	58828
587.068	59419
587.106	60493
587.140	61125
587.161	61544
587.212	63436
587.215	63478
587.269	66814
587.284	67411
587.323	68544
587.356	69757
587.377	70692
587.427	74556
587.431	74787
587.485	77982
587.499	79187
587.539	81851
587.571	84439
587.593	86646
587.643	90939
587.648	91242
587.702	97552
587.715	99118
587.755	103905
587.786	108177
587.810	111192
587.858	117576
587.864	118332
587.917	129340
587.930	132189
587.971	141860
588.001	149024
588.025	154568
588.073	168079
588.079	169766
588.133	188984
588.145	193703
588.187	212056
588.217	227178
588.241	240044
588.288	268722
588.295	272714
588.348	314042
588.360	323663
588.402	361025
588.431	392443
588.456	423041
588.503	487148
588.510	496759
588.564	592946
588.575	616758
588.617	724944
588.646	812659
588.671	912384
588.718	1131228
588.725	1176214
588.778	1574341
588.789	1661243
588.832	2087113
588.861	2351712
588.886	2465522
588.932	2476072
588.939	2441181
588.993	2146046
589.004	2165105
589.047	2398906
589.075	2426595
589.100	2216481
589.147	1689152
589.154	1635335
589.207	1269033
589.218	1207105
589.261	1102462
589.290	1060044
589.314	1079171
589.361	1161335
589.368	1193171
589.421	1519000
589.433	1598360
589.475	2005484
589.504	2249052
589.528	2283579
589.576	2190802
589.582	2161913
589.635	2131646
589.647	2087806
589.689	1638764
589.718	1273384
589.742	1073658
589.790	730411
589.795	706252
589.849	530334
589.861	496016
589.902	422392
589.932	374043
589.955	341661
590.004	281255
590.009	276543
590.062	239269
590.075	231411
590.115	210076
590.146	195526
590.168	186372
590.218	168902
590.222	167346
590.275	152914
590.289	149623
590.328	140634
590.360	134326
590.381	129975
590.431	120593
590.435	119852
590.488	112000
590.503	110146
590.541	105944
590.574	102868
590.594	100305
590.645	94505
590.647	94161
590.700	89707
590.716	88735
590.753	86325
590.787	84102
590.806	82840
590.859	80183
590.859	80004
590.912	77004
590.930	76198
590.965	74581
591.001	73254
591.018	72723
591.071	71440
591.072	71530
591.124	68895
591.143	68033
591.177	66649
591.214	65453
591.230	65388
591.283	65721
591.285	65818
591.336	65110
591.356	64936
591.389	63935
591.427	62751
591.442	61747
591.495	58382
591.498	58229
591.547	57474
591.569	57199
591.600	56020
591.640	54641
591.653	54513
591.706	54470
591.711	54534
591.759	56123
591.782	57106
591.811	56949
591.853	56824
591.864	56306
591.917	53738
591.924	53440
591.969	52542
591.995	52216
592.022	51779
592.066	51257
592.075	51633
592.127	54348
592.137	54933
592.180	56417
592.208	57358
592.233	54734
592.279	49794
592.285	49758
592.338	50169
592.350	50330
592.390	48620
592.421	47426
592.443	47267
592.491	47136
592.495	47126
592.548	47866
592.562	48134
592.600	47326
592.633	46739
592.653	46033
592.704	44130
592.705	44392
592.775	45046
592.846	45405
592.916	46943
592.987	48709
593.058	47532
593.128	44484
593.199	43900
593.270	43268
593.341	44355
593.411	44241
593.482	46175
593.553	44007
593.623	44411
593.694	45186
593.764	46486
593.835	44133
593.906	42720
593.976	43790
594.047	46016
594.117	50613
594.188	50057
594.258	44185
594.329	43883
594.399	44886
594.470	44647
594.540	45960
594.611	46892
594.681	45372
594.751	45764
594.822	47905
594.892	48952
594.963	49712
595.033	48992
595.103	49951
595.174	54123
595.244	63514
595.314	68810
595.384	51697
595.455	51177
595.525	52047
595.595	54314
595.665	53066
595.736	53204
595.806	53790
595.876	53195
595.946	53130
596.016	53937
596.087	55716
596.157	56291
596.227	56506
596.297	58095
596.367	61718
596.437	66013
596.507	72465
596.577	76956
596.647	65896
596.717	64878
596.787	65545
596.857	65572
596.927	65973
596.997	65932
597.067	66714
597.137	67212
597.207	67766
597.277	68620
597.347	66537
597.417	64776
597.487	65967
597.557	66476
597.626	67896
597.696	70698
597.766	74174
597.836	77788
597.906	63520
597.975	62010
598.045	61987
598.115	62935
598.185	66562
598.254	73500
598.324	78716
598.394	80469
598.464	78044
598.533	75590
598.603	70069
598.672	70208
598.742	70807
598.812	71141
598.881	70524
598.951	71473
599.020	69924
599.090	74160
599.159	74731
599.229	71638
599.299	70003
599.368	71921
599.437	70949
599.507	65801
599.576	64794
599.646	64408
599.715	63885
599.785	62754
599.854	63850
599.924	65442
599.993	62915
600.062	62193
600.132	64285
600.201	68525
600.270	77050
600.340	77161
600.409	73969
600.478	74885
600.547	75598
600.617	70719
600.686	60855
600.755	56989
600.824	55906
600.894	52601
600.963	52764
601.032	51307
601.101	49960
601.170	48510
601.239	49051
601.308	50153
601.378	49401
601.447	48812
601.516	47302
601.585	50718
601.654	53502
601.723	50531
601.792	50510
601.861	52065
601.930	55479
601.999	56676
602.068	54034
602.137	57807
602.206	56989
602.275	57922
602.343	59670
602.412	60459
602.481	54852
602.550	55572
602.619	56634
602.688	57979
602.756	56799
602.825	56498
602.894	57238
602.963	58822
603.032	60792
603.100	59920
603.169	60083
603.238	59610
603.307	59873
603.375	60996
603.444	61617
603.513	61887
603.581	62038
603.650	62907
603.719	61694
603.787	63189
603.856	65284
603.924	66795
603.993	68535
604.061	69721
604.130	72628
604.198	74978
604.267	74182
604.335	75757
604.404	76484
604.472	76738
604.541	77269
604.609	78775
604.678	77450
604.746	79229
604.815	80980
604.883	81532
604.951	80988
605.020	82831
605.088	84315
605.156	85557
605.225	86556
605.293	85522
605.361	87064
605.429	88330
605.498	89667
605.566	94634
605.634	95778
605.702	99088
605.771	101428
605.839	101370
605.907	98899
605.975	95299
606.043	94873
606.111	92978
606.180	93819
606.248	93175
606.316	93190
606.384	93947
606.452	98732
606.520	103492
606.588	99214
606.656	97428
606.724	95204
606.792	89884
606.860	80498
606.928	74649
606.996	72976
607.064	71177
607.132	72383
607.200	77556
607.267	80027
607.335	80961
607.403	82056
607.471	79190
607.539	77824
607.607	78340
607.674	70013
607.742	71293
607.810	70851
607.878	70275
607.946	71334
608.013	74097
608.081	76966
608.149	76627
608.216	77141
608.284	80607
608.352	78477
608.419	81042
608.487	84573
608.555	78784
608.622	79483
608.690	83701
608.757	90871
608.825	91865
608.893	92677
608.960	90852
609.028	90110
609.095	91355
609.163	82704
609.230	75236
609.298	70104
609.365	72561
609.432	79504
609.500	86601
609.567	96986
609.635	108536
609.702	115783
609.769	108328
609.837	88943
609.904	78978
609.971	82679
610.039	98162
610.106	135902
610.173	259075
610.241	580318
610.308	510313
610.375	279715
610.442	109752
610.509	87042
610.577	82359
610.644	81423
610.711	83419
610.778	83086
610.845	87196
610.912	90901
610.980	94204
611.047	92768
611.114	92831
611.181	88475
611.248	88791
611.315	93996
611.382	96260
611.449	97326
611.516	99778
611.583	99145
611.650	100045
611.717	101291
611.784	104624
611.851	111445
611.918	121393
611.984	142998
612.051	209265
612.118	427368
612.185	1008306
612.252	541096
612.319	155614
612.386	127251
612.452	119783
612.519	116193
612.586	120305
612.653	115376
612.719	115786
612.786	109670
612.853	102432
612.919	100664
612.986	103205
613.053	96142
613.120	90638
613.186	87528
613.253	90226
613.319	88661
613.386	89471
613.453	92823
613.519	94621
613.586	100676
613.652	113791
613.719	105260
613.785	100829
613.852	92006
613.918	90860
613.985	94192
614.051	98171
614.118	101000
614.184	96112
614.250	91108
614.317	92517
614.383	92117
614.449	93882
614.516	92643
614.582	94957
614.648	90996
614.715	90863
614.781	90806
614.847	90694
614.914	90562
614.980	87907
615.046	89390
615.112	91975
615.179	93358
615.245	97536
615.311	103404
615.377	127751
615.443	128502
615.509	103622
615.575	100587
615.642	98603
615.708	103834
615.774	109976
615.840	121416
615.906	139305
615.972	190101
616.038	322215
616.104	582495
616.170	1271169
616.236	915644
616.302	219631
616.368	164488
616.434	124286
616.500	117287
616.565	130220
616.631	151774
616.697	126361
616.763	134714
616.829	199106
616.895	328901
616.961	286871
617.026	133773
617.092	102042
617.158	98941
617.224	95584
617.289	88568
617.355	85634
617.421	85574
617.487	85304
617.552	80039
617.618	80785
617.684	78236
617.749	82425
617.815	77764
617.880	76625
617.946	76739
618.012	78445
618.077	78973
618.143	75747
618.208	77055
618.274	83085
618.339	82777
618.405	69390
618.470	71434
618.536	71640
618.601	71593
618.667	68038
618.732	64017
618.798	63702
618.863	63905
618.928	62937
618.994	65686
619.059	69422
619.124	78751
619.190	67701
619.255	63512
619.320	63738
619.386	63773
619.451	61824
619.516	61263
619.581	62747
619.647	62325
619.712	63043
619.777	60527
619.842	61964
619.907	62456
619.972	63966
620.038	63236
620.103	61069
620.168	59714
620.233	61494
620.298	61622
620.363	62679
620.428	63469
620.493	65158
620.558	65835
620.623	65680
620.688	65403
620.753	64648
620.818	65501
620.883	66387
620.948	65980
621.013	66231
621.078	64688
621.143	65181
621.207	68127
621.272	66886
621.337	67894
621.402	67076
621.467	73145
621.532	73272
621.596	68591
621.661	65551
621.726	62948
621.791	64166
621.855	66080
621.920	67779
621.985	66959
622.049	71308
622.114	70490
622.179	68812
622.243	69772
622.308	70981
622.373	73971
622.437	72345
622.502	67304
622.566	67960
622.631	67081
622.695	69735
622.760	69718
622.824	68190
622.889	69140
622.953	74233
623.018	88956
623.082	84583
623.147	71697
623.211	71140
623.276	70860
623.340	66472
623.404	64578
623.469	65105
623.533	65414
623.597	63320
623.662	62667
623.726	59278
623.790	57690
623.854	57040
623.919	57828
623.983	58566
624.047	58601
624.111	58728
624.176	60661
624.240	61216
624.304	65212
624.368	60262
624.432	59609
624.496	61576
624.560	66611
624.625	67729
624.689	63538
624.753	64214
624.817	60517
624.881	60226
624.945	55183
625.009	55165
625.073	57475
625.137	60071
625.201	67745
625.265	65558
625.329	58117
625.393	60091
625.456	59110
625.520	60671
625.584	63596
625.648	69846
625.712	84477
625.776	132556
625.839	136932
625.903	69847
625.967	54982
626.031	73075
626.095	95579
626.158	57874
626.222	44105
626.286	44189
626.349	42120
626.413	39045
626.477	42956
626.540	40787
626.604	40143
626.668	39910
626.731	39301
626.795	39345
626.858	40341
626.922	38807
626.986	38294
627.049	38059
627.113	39363
627.176	38725
627.240	36373
627.303	37855
627.366	37017
627.430	37700
627.493	37705
627.557	37089
627.620	38457
627.684	37379
627.747	37337
627.810	33785
627.874	33832
627.937	31146
628.000	35453
628.064	32869
628.127	29217
628.190	30731
628.253	29602
628.317	28289
628.380	28016
628.443	27335
628.506	28029
628.569	26538
628.632	24563
628.696	26037
628.759	25491
628.822	24062
628.885	23713
628.948	25719
629.011	25482
629.074	25115
629.137	22733
629.200	22895
629.263	24436
629.326	21354
629.389	21851
629.452	22642
629.515	22674
629.578	23201
629.641	23280
629.704	22945
629.767	23058
629.830	22182
629.892	21449
629.955	21553
630.018	24021
630.081	24411
630.144	28454
630.207	23282
630.269	24587
630.332	23009
630.395	21505
630.458	20615
630.520	18497
630.583	21164
630.646	19586
630.708	19766
630.771	18913
630.834	21313
630.896	19777
630.959	20249
631.021	19397
631.084	19792
631.146	21522
631.209	23587
631.272	18369
631.334	20238
631.397	19042
631.459	20437
631.522	20808
631.584	21032
631.646	22955
631.709	24176
631.771	26840
631.834	22853
631.896	20785
631.958	18538
632.021	20504
632.083	19080
632.145	20218
632.208	18596
632.270	19372
632.332	17799
632.395	17165
632.457	19084
632.519	18000
632.581	19543
632.643	17350
632.706	18691
632.768	16628
632.830	18945
632.892	17511
632.954	17841
633.016	19751
633.078	17367
633.141	17713
633.203	17739
633.265	18264
633.327	18035
633.389	17494
633.451	21154
633.513	23009
633.575	22125
633.637	21369
633.698	21810
633.760	19414
633.822	20351
633.884	19162
633.946	19007
634.008	18707
634.070	19418
634.132	20580
634.193	21318
634.255	22985
634.317	22900
634.379	23657
634.441	20937
634.502	19817
634.564	19687
634.626	17844
634.687	18975
634.749	17334
634.811	17153
634.873	15077
634.934	17214
634.996	16904
635.057	17490
635.119	16092
635.181	17835
635.242	18513
635.304	16042
635.365	18697
635.427	17089
635.488	16834
635.550	16750
635.611	18558
635.673	15707
635.734	19966
635.796	18911
635.857	21030
635.918	20509
635.980	22794
636.041	22729
636.102	24162
636.164	24076
636.225	25101
636.286	19329
636.348	17958
636.409	18714
636.470	16597
636.531	17674
636.593	17496
636.654	17677
636.715	16247
636.776	15385
636.838	13785
636.899	16638
636.960	14706
637.021	14206
637.082	15131
637.143	15400
637.204	13306
637.265	13694
637.326	15234
637.387	14526
637.448	12978
637.509	15457
637.570	13895
637.631	15364
637.692	12589
637.753	13102
637.814	14573
637.875	13131
637.936	14177
637.997	13751
638.058	13806
638.119	15182
638.179	13191
638.240	12928
638.301	12840
638.362	12360
638.423	13114
638.483	14385
638.544	11297
638.605	13812
638.666	11323
638.726	13539
638.787	13305
638.848	12456
638.908	11430
638.969	12989
639.030	12297
639.090	10626
639.151	11760
639.211	14765
639.272	18262
639.332	26289
639.393	15932
639.453	13470
639.514	13471
639.574	13087
639.635	11789
639.695	12526
639.756	11573
639.816	13280
639.877	15376
639.937	25507
639.997	28283
640.058	12505
640.118	11164
640.178	13912
640.239	11280
640.299	10729
640.359	11382
640.420	12393
640.480	12764
640.540	14309
640.600	12855
640.661	14010
640.721	12944
640.781	16813
640.841	10833
640.901	13394
640.961	12574
641.021	13564
641.082	14487
641.142	20054
641.202	14733
641.262	10057
641.322	11540
641.382	10748
641.442	11192
641.502	11938
641.562	11824
641.622	12132
641.682	11483
641.742	13070
641.802	12802
641.861	12538
641.921	12467
641.981	14907
642.041	13190
642.101	15805
642.161	11526
642.221	10661
642.280	10488
642.340	10770
642.400	9182
642.460	11715
642.519	11128
642.579	10985
642.639	11675
642.698	8774
642.758	12614
642.818	11373
642.877	10195
642.937	11877
642.997	13976
643.056	18185
643.116	11443
643.175	13568
643.235	10778
643.294	12412
643.354	13019
643.414	14241
643.473	17044
643.532	20348
643.592	27420
643.651	44795
643.711	78628
643.770	154836
643.830	383947
643.889	738402
643.948	148665
644.008	28901
644.067	19570
644.126	15645
644.186	13792
644.245	13352
644.304	10266
644.363	13349
644.423	10563
644.482	10851
644.541	11710
644.600	10748
644.659	14832
644.719	16802
644.778	24493
644.837	40202
644.896	82972
644.955	174622
645.014	53155
645.073	15533
645.132	12173
645.191	12899
645.250	11602
645.309	13247
645.368	12899
645.427	15607
645.486	22408
645.545	35901
645.604	13628
645.663	11998
645.722	11378
645.781	13550
645.840	15372
645.898	17582
645.957	27574
646.016	39373
646.075	72638
646.134	140321
646.192	387483
646.251	498162
646.310	67568
646.369	22148
646.427	18084
646.486	13659
646.545	11760
646.603	11249
646.662	10303
646.721	11052
646.779	10044
646.838	10145
646.896	13416
646.955	16571
647.014	24352
647.072	45421
647.131	112599
647.189	48039
647.248	11305
647.306	9680
647.365	9583
647.423	7386
647.481	10049
647.540	7673
647.598	7850
647.657	8260
647.715	7731
647.773	7204
647.832	7821
647.890	6182
647.948	7557
648.007	7797
648.065	6698
648.123	8011
648.181	8391
648.240	8614
648.298	6244
648.356	7274
648.414	7569
648.472	7892
648.531	7125
648.589	6856
648.647	7175
648.705	7442
648.763	6222
648.821	8007
648.879	8157
648.937	8988
648.995	10961
649.053	13333
649.111	19742
649.169	33000
649.227	56782
649.285	117855
649.343	318223
649.401	133499
649.459	38385
649.516	22297
649.574	11798
649.632	14770
649.690	13710
649.748	14705
649.806	16458
649.863	32060
649.921	80456
649.979	46664
650.037	10471
650.094	6209
650.152	7754
650.210	5637
650.268	6515
650.325	6849
650.383	6377
650.440	6024
650.498	6090
650.556	5852
650.613	5346
650.671	6060
650.728	6317
650.786	6831
650.843	7054
650.901	5612
650.958	5552
651.016	5638
651.073	5473
651.131	4693
651.188	4318
651.246	5761
651.303	4036
651.360	5528
651.418	4853
651.475	5057
651.532	3799
651.590	5390
651.647	4583
651.704	5382
651.762	4300
651.819	5060
651.876	5129
651.933	5367
651.990	5538
652.048	3828
652.105	4679
652.162	4820
652.219	4116
652.276	4453
652.333	4434
652.390	3964
652.448	4891
652.505	5117
652.562	3568
652.619	4595
652.676	4647
652.733	5690
652.790	4226
652.847	3156
652.904	4423
652.961	3482
653.017	3951
653.074	4178
653.131	4918
653.188	4082
653.245	4247
653.302	4920
653.359	4249
653.415	4887
653.472	3969
653.529	4455
653.586	3503
653.642	3945
653.699	4723
653.756	4032
653.813	3581
653.869	4425
653.926	2695
653.983	3817
654.039	3766
654.096	4092
654.152	4592
654.209	3531
654.266	4312
654.322	3308
654.379	5085
654.435	5970
654.492	5418
654.548	8547
654.605	11098
654.661	6277
654.717	4416
654.774	5089
654.830	4947
654.887	4835
654.943	4575
655.000	4714
655.056	5075
655.112	5317
655.168	3558
655.225	3993
655.281	5112
655.337	6844
655.394	9318
655.450	7502
655.506	7197
655.562	10193
655.618	8007
655.675	4561
655.731	4107
655.787	4383
655.843	3873
655.899	3508
655.955	4794
656.011	4638
656.067	3393
656.123	5054
656.179	4359
656.235	5628
656.291	4779
656.347	6277
656.403	3621
656.459	4865
656.515	5430
656.571	4449
656.627	4466
656.683	5001
656.739	4744
656.795	4542
656.850	4966
656.906	6671
656.962	5039
657.018	4179
657.074	4495
657.129	5966
657.185	6500
657.241	12326
657.297	8082
657.352	4871
657.408	3292
657.464	5310
657.519	3466
657.575	3539
657.630	3542
657.686	4373
657.742	3518
657.797	3835
657.853	3990
657.908	5250
657.964	2772
658.019	4753
658.075	4204
658.130	4912
658.186	3298
658.241	4130
658.297	1787
658.352	3582
658.407	3668
658.463	3178
658.518	3097
658.573	3806
658.629	3397
658.684	4185
658.739	3940
658.795	2742
658.850	4281
658.905	3686
658.960	3254
659.016	3380
659.071	4508
659.126	4051
659.181	4374
659.236	8364
659.291	9637
659.346	5241
659.401	3332
659.457	4331
659.512	3326
659.567	3895
659.622	3609
659.677	3530
659.732	2576
659.787	3841
659.842	4374
659.897	5435
659.952	4613
660.007	3686
660.061	3077
660.116	2791
660.171	2851
660.226	4310
660.281	3827
660.336	2594
660.391	3819
660.445	3359
660.500	3701
660.555	3666
660.610	3409
660.664	3721
660.719	2958
660.774	3778
660.828	3187
660.883	3727
660.938	4686
660.992	3085
661.047	3573
661.101	3540
661.156	3241
661.211	3253
661.265	3767
661.320	3553
661.374	3334
661.429	2940
661.483	3561
661.538	2800
661.592	3428
661.647	3093
661.701	3938
661.755	4138
661.810	3727
661.864	3827
661.919	2571
661.973	4354
662.027	3305
662.081	3198
662.136	3637
662.190	4387
662.244	4165
662.299	3057
662.353	3159
662.407	3609
662.461	2916
662.515	4651
662.569	3322
662.624	4108
662.678	3055
662.732	3435
662.786	2623
662.840	4663
662.894	3245
662.948	3401
663.002	3411
663.056	3648
663.110	3248
663.164	3490
663.218	2663
663.272	4184
663.326	3988
663.380	4133
663.434	4368
663.488	3321
663.542	3739
663.595	3777
663.649	3204
663.703	4585
663.757	3802
663.811	3897
663.864	3519
663.918	4354
663.972	3618
664.026	3389
664.079	2953
664.133	3777
664.187	3165
664.240	3452
664.294	3210
664.348	3606
664.401	2792
664.455	4045
664.508	3161
664.562	3693
664.615	3955
664.669	3302
664.722	3683
664.776	3418
664.829	3472
664.883	3221
664.936	3408
664.990	3468
665.043	4255
665.097	4283
665.150	5174
665.203	3613
665.257	3698
665.310	3922
665.363	3791
665.417	3936
665.470	3556
665.523	4418
665.576	3011
665.630	4504
665.683	4046
665.736	4128
665.789	3397
665.842	3528
665.895	3603
665.949	4314
666.002	4169
666.055	4233
666.108	4135
666.161	3977
666.214	4419
666.267	4542
666.320	4961
666.373	4789
666.426	4062
666.479	4199
666.532	5267
666.585	5557
666.638	5635
666.691	5082
666.744	5488
666.796	4591
666.849	4017
666.902	4718
666.955	3094
667.008	4071
667.060	2696
667.113	2640
667.166	3530
667.219	4011
667.271	3306
667.324	4197
667.377	3927
667.430	4012
667.482	3789
667.535	4557
667.587	5049
667.640	3893
667.693	5895
667.745	9030
667.798	8857
667.850	4744
667.903	4450
667.955	4351
668.008	3548
668.060	5835
668.113	4970
668.165	4789
668.218	4717
668.270	5151
668.322	4318
668.375	4114
668.427	5169
668.479	4422
668.532	4409
668.584	5033
668.636	4701
668.689	4807
668.741	3746
668.793	5327
668.845	3791
668.898	5612
668.950	4467
669.002	4792
669.054	4417
669.106	4881
669.158	5135
669.211	4762
669.263	4258
669.315	5344
669.367	5465
669.419	6016
669.471	7026
669.523	6500
669.575	8629
669.627	6931
669.679	5868
669.731	5363
669.783	6944
669.835	7553
669.886	7090
669.938	7017
669.990	6503
670.042	6657
670.094	7905
670.146	8762
670.197	10686
670.249	14533
670.301	18442
670.353	25350
670.404	34808
670.456	53496
670.508	79242
670.560	125229
670.611	206589
670.663	363796
670.715	812610
670.766	1119390
670.818	446023
670.869	102279
670.921	49446
670.972	31668
671.024	23032
671.075	18548
671.127	14639
671.178	12460
671.230	11731
671.281	10654
671.333	10040
671.384	9483
671.436	10789
671.487	11699
671.538	12376
671.590	15175
671.641	20789
671.692	34142
671.744	64180
671.795	39085
671.846	16010
671.897	9924
671.949	8100
672.000	7760
672.051	6209
672.102	7378
672.153	5196
672.204	6629
672.256	5760
672.307	5905
672.358	4766
672.409	5478
672.460	4997
672.511	5051
672.562	4870
672.613	4860
672.664	4606
672.715	5165
672.766	4619
672.817	4969
672.868	4192
672.919	4527
672.970	4423
673.021	5339
673.071	3844
673.122	4031
673.173	4726
673.224	4665
673.275	4563
673.326	4787
673.376	4103
673.427	4294
673.478	3810
673.528	5297
673.579	4871
673.630	4210
673.680	4265
673.731	4574
673.782	3680
673.832	4776
673.883	3840
673.934	4152
673.984	4306
674.035	4645
674.085	4191
674.136	5224
674.186	4480
674.237	4961
674.287	7518
674.338	5504
674.388	3903
674.438	4206
674.489	4409
674.539	5200
674.589	4204
674.640	4593
674.690	4342
674.740	4587
674.791	4331
674.841	5080
674.891	5189
674.942	5010
674.992	4029
675.042	4811
675.092	3867
675.142	4680
675.193	2568
675.243	3687
675.293	4452
675.343	4515
675.393	3783
675.443	4577
675.493	3055
675.543	2733
675.593	3250
675.643	4052
675.693	4191
675.743	4001
675.793	3901
675.843	3360
675.893	4029
675.943	3443
675.993	3983
676.043	3490
676.093	4112
676.142	3969
676.192	3846
676.242	3808
676.292	4142
676.341	3831
676.391	3899
676.441	3990
676.491	2967
676.540	2650
676.590	4117
676.640	3667
676.689	3036
676.739	2654
676.789	2655
676.838	2114
676.888	3338
676.937	4020
676.987	3057
677.037	3093
677.086	2330
677.136	3508
677.185	3130
677.235	1835
677.284	3369
677.333	3273
677.383	2832
677.432	2334
677.482	2832
677.531	3185
677.580	3551
677.630	2436
677.679	2928
677.728	3081
677.778	3191
677.827	3270
677.876	3419
677.925	2479
677.975	2817
678.024	3410
678.073	3246
678.122	3538
678.171	3117
678.220	4118
678.269	4050
678.319	4366
678.368	3588
678.417	3848
678.466	3930
678.515	4236
678.564	3464
678.613	3720
678.662	3962
678.711	3449
678.760	3168
678.809	3609
678.857	3116
678.906	3601
678.955	3121
679.004	4353
679.053	3260
679.102	3756
679.151	3468
679.199	3156
679.248	3684
679.297	3923
679.346	4011
679.394	3322
679.443	3063
679.492	3869
679.540	3187
679.589	3611
679.638	3353
679.686	3453
679.735	2707
679.784	3896
679.832	2943
679.881	2968
679.929	2436
679.978	2220
680.026	2773
680.075	3772
680.123	3232
680.172	3078
680.220	2044
680.268	3319
680.317	2495
680.365	2380
680.414	2384
680.462	2979
680.510	3721
680.559	2597
680.607	2320
680.655	3669
680.703	2551
680.752	2309
680.800	2199
680.848	2758
680.896	2057
680.945	2638
680.993	2977
681.041	2434
681.089	2630
681.137	1889
681.185	2397
681.233	2568
681.258	2468
681.281	2358
681.329	2568
681.377	2488
681.380	2554
681.425	3435
681.473	3166
681.502	3588
681.521	3848
681.569	3351
681.617	2556
681.624	2592
681.665	2687
681.713	3041
681.745	3200
681.761	3252
681.809	3542
681.857	3450
681.867	3458
681.904	3405
681.952	2838
681.989	3486
682.000	3663
682.048	2990
682.096	3278
682.111	3355
682.143	3462
682.191	3476
682.233	3502
682.239	3484
682.286	3628
682.334	2820
682.354	2945
682.382	3084
682.430	3323
682.476	3367
682.477	3354
682.525	2940
682.572	2723
682.598	2838
682.620	2873
682.667	4243
682.715	3653
682.720	3737
682.763	4422
682.810	2807
682.841	3855
682.857	4352
682.905	3459
682.952	3909
682.963	3887
683.000	3763
683.047	4399
683.085	4254
683.095	4189
683.142	3744
683.190	4374
683.206	4197
683.237	3906
683.284	4305
683.328	4567
683.332	4566
683.379	3644
683.426	4051
683.449	3751
683.473	3475
683.521	3396
683.568	4056
683.571	4067
683.615	4029
683.662	4503
683.693	4751
683.709	4846
683.757	3256
683.804	4102
683.814	4174
683.851	4376
683.898	4367
683.936	4543
683.945	4589
683.992	5149
684.039	4248
684.057	4309
684.086	4380
684.133	4260
684.179	5196
684.180	5209
684.227	4875
684.274	4762
684.300	4813
684.321	4827
684.368	4457
684.415	5024
684.422	4938
684.462	4384
684.509	4531
684.543	4681
684.556	4695
684.603	3846
684.649	4602
684.665	4349
684.696	3991
684.743	4991
684.786	5266
684.790	5270
684.837	4387
684.883	4182
684.908	4928
684.930	5588
684.977	4785
685.023	5238
685.029	5211
685.070	4945
685.117	5254
685.150	5524
685.164	5650
685.210	6037
685.257	5305
685.272	5554
685.303	6000
685.350	5313
685.393	5581
685.396	5613
685.443	6477
685.490	7005
685.514	6974
685.536	6669
685.583	6502
685.629	5879
685.636	5855
685.675	5838
685.722	5523
685.757	5613
685.768	5644
685.815	6057
685.861	5833
685.878	5686
685.908	5529
685.954	5486
686.000	5979
686.000	5981
686.047	6127
686.093	6841
686.121	7019
686.139	7048
686.185	6173
686.232	6620
686.242	6510
686.278	6058
686.324	6184
686.363	5818
686.370	5772
686.416	5875
686.463	6392
686.484	6132
686.509	5850
686.555	5614
686.601	5614
686.606	5690
686.647	6389
686.693	5541
686.727	5950
686.739	6107
686.785	6566
686.831	6235
686.848	6575
686.877	7092
686.923	5977
686.969	5959
686.969	5958
687.015	6112
687.061	6008
687.090	6356
687.107	6591
687.153	6095
687.199	6381
687.211	6166
687.245	5608
687.291	6198
687.332	6773
687.336	6836
687.382	6521
687.428	6418
687.453	6189
687.474	5866
687.520	6269
687.565	5973
687.574	5941
687.611	6178
687.657	6242
687.695	6795
687.702	6857
687.748	6971
687.794	7536
687.816	7213
687.839	6872
687.885	7080
687.931	6068
687.937	6167
687.976	6836
688.022	6607
688.058	7070
688.067	7149
688.113	6338
688.158	6902
688.179	6511
688.204	6183
688.249	7094
688.295	6472
688.300	6569
688.340	7302
688.386	7349
688.421	7431
688.431	7412
688.477	6754
688.522	6863
688.542	6843
688.567	6973
688.613	6809
688.658	7070
688.663	7115
688.703	7390
688.749	7655
688.784	7692
688.794	7717
688.839	6940
688.884	7531
688.905	7379
688.930	7142
688.975	7283
689.020	7032
689.026	7034
689.065	7219
689.110	7126
689.146	7279
689.155	7306
689.201	7117
689.246	7392
689.267	7328
689.291	7272
689.336	7445
689.381	7145
689.388	7102
689.426	7000
689.471	6962
689.509	7263
689.516	7336
689.561	7007
689.606	7502
689.630	7405
689.651	7240
689.696	7118
689.741	7368
689.750	7386
689.785	7595
689.830	7358
689.871	7156
689.875	7129
689.920	6953
689.965	6753
689.992	6740
690.010	6904
690.054	7283
690.099	7511
690.112	7570
690.144	7442
690.189	7307
690.233	7069
690.233	7078
690.278	7189
690.323	7511
690.354	7278
690.367	7261
690.412	7782
690.457	7629
690.474	7819
690.501	7814
690.546	7245
690.590	7318
690.595	7258
690.635	7325
690.680	7226
690.716	7539
690.724	7588
690.769	7967
690.813	7950
690.836	7974
690.857	8021
690.902	7769
690.946	7687
690.957	7719
690.991	8160
691.035	8764
691.077	9190
691.080	9208
691.124	9305
691.168	9267
691.198	9256
691.213	9118
691.257	8797
691.301	7914
691.318	7912
691.346	8151
691.390	7970
691.434	7646
691.439	7657
691.478	8058
691.522	8060
691.559	8237
691.567	8320
691.611	8678
691.655	9480
691.680	9309
691.699	8852
691.743	9115
691.787	8131
691.800	7965
691.831	8148
691.875	8038
691.919	8825
691.921	8818
691.964	8768
692.008	8656
692.041	8621
692.052	8652
692.096	8503
692.139	8675
692.162	8771
692.183	8803
692.227	8578
692.271	8385
692.282	8330
692.315	8444
692.359	8758
692.402	8838
692.403	8854
692.447	8637
692.490	8709
692.523	8824
692.534	8927
692.578	8916
692.622	9185
692.643	9213
692.666	9146
692.709	9277
692.753	9014
692.763	8963
692.797	8899
692.840	8608
692.884	9022
692.884	9046
692.928	8981
692.971	9830
693.004	9874
693.015	9697
693.059	9496
693.102	8589
693.124	8474
693.146	8750
693.189	9101
693.233	9244
693.245	9323
693.276	9280
693.320	9292
693.363	8744
693.365	8725
693.407	9200
693.450	9507
693.485	9660
693.493	9675
693.537	9653
693.580	9874
693.605	9780
693.624	9739
693.667	9845
693.710	9887
693.725	9883
693.753	10479
693.797	11211
693.840	12586
693.845	12603
693.883	11815
693.926	11496
693.966	11157
693.970	11125
694.013	10232
694.056	9680
694.086	9193
694.099	9302
694.142	9750
694.185	9870
694.206	10047
694.229	10103
694.272	10076
694.315	10148
694.326	10140
694.358	10801
694.401	11212
694.444	12285
694.446	12290
694.487	11726
694.530	11170
694.566	10708
694.573	10675
694.616	10296
694.659	9890
694.686	9744
694.702	9753
694.745	9413
694.787	9321
694.806	9187
694.830	9336
694.873	9634
694.916	9833
694.926	9909
694.959	9974
695.002	9931
695.044	9765
695.046	9740
695.087	10058
695.130	10212
695.166	10462
695.172	10481
695.215	10348
695.258	10029
695.286	10045
695.301	10124
695.343	10076
695.386	10135
695.406	10004
695.428	9915
695.471	10066
695.514	10003
695.526	10009
695.556	10491
695.599	10965
695.641	11523
695.646	11544
695.684	10964
695.726	10315
695.766	9742
695.769	9773
695.811	9859
695.854	9942
695.886	10078
695.896	10123
695.938	9901
695.981	9975
696.005	9745
696.023	9774
696.065	10447
696.108	10673
696.125	10804
696.150	10748
696.192	10356
696.235	10154
696.245	10064
696.277	10190
696.319	10401
696.361	10619
696.365	10604
696.404	10507
696.446	10484
696.485	10355
696.488	10382
696.530	10417
696.572	10408
696.604	10450
696.614	10509
696.656	10616
696.698	10698
696.724	10702
696.740	10584
696.783	10236
696.825	10048
696.844	9802
696.867	9933
696.909	10353
696.951	10594
696.964	10719
696.992	10935
697.034	10838
697.076	11067
697.083	11064
697.118	11145
697.160	11170
697.202	11105
697.203	11077
697.244	11241
697.286	11446
697.323	11296
697.327	11287
697.369	11169
697.411	11016
697.442	10813
697.453	10841
697.494	10970
697.536	10916
697.562	10975
697.578	11186
697.620	11515
697.661	11892
697.682	12063
697.703	12431
697.744	13110
697.786	13751
697.801	13949
697.828	13795
697.869	13487
697.911	13147
697.921	13031
697.952	12836
697.994	12592
698.035	12303
698.040	12235
698.077	11661
698.118	10954
698.160	10275
698.160	10243
698.201	10839
698.243	11344
698.279	11787
698.284	11819
698.325	11854
698.367	11834
698.399	11794
698.408	11894
698.449	12207
698.491	12540
698.518	12714
698.532	12608
698.573	12188
698.614	11778
698.638	11512
698.656	11713
698.697	12088
698.738	12484
698.757	12645
698.779	12573
698.820	12348
698.862	12125
698.877	12022
698.903	12358
698.944	12817
698.985	13289
698.996	13385
699.026	13073
699.067	12593
699.116	11988
699.235	12134
699.354	11957
699.474	12285
699.593	12870
699.713	12110
699.832	12884
699.951	13564
700.070	12518
700.190	11950
700.309	11776
700.428	12078
700.547	11648
700.667	12594
700.786	13014
700.905	11743
701.024	11733
701.143	11287
701.262	10301
701.381	11183
701.500	12339
701.619	13777
701.738	10846
701.857	11697
701.976	10621
702.095	11108
702.214	12408
702.333	13486
702.452	12121
702.571	11161
702.690	11158
702.809	11031
702.928	10982
703.047	11157
703.165	10656
703.284	11287
703.403	10248
703.522	12036
703.640	11911
703.759	13254
703.878	14516
703.997	11697
704.115	9830
704.234	10615
704.353	10421
704.471	10167
704.590	9674
704.708	10439
704.827	10119
704.946	10054
705.064	10369
705.183	9536
705.301	11742
705.420	13903
705.538	12175
705.656	11010
705.775	10901
705.893	12262
706.012	12641
706.130	12285
706.249	11768
706.367	12417
706.485	11684
706.604	12265
706.722	13092
706.840	14712
706.958	14182
707.077	12032
707.195	11343
707.313	10553
707.431	10432
707.549	10707
707.668	10490
707.786	10720
707.904	9938
708.022	10833
708.140	9661
708.258	11027
708.376	10456
708.494	10856
708.612	12397
708.730	14967
708.848	13764
708.966	13671
709.084	13603
709.202	12848
709.320	11745
709.438	12247
709.556	11989
709.674	10705
709.791	12447
709.909	12484
710.027	12168
710.145	11683
710.263	12347
710.380	12429
710.498	11141
710.616	11732
710.733	11265
710.851	12344
710.969	11985
711.086	10902
711.204	11460
711.322	11234
711.439	11060
711.557	11865
711.674	11168
711.792	12103
711.909	10484
712.027	10769
712.144	10493
712.262	10865
712.379	12638
712.497	16302
712.614	14657
712.732	14157
712.849	12817
712.966	14264
713.084	17382
713.201	13368
713.318	13728
713.436	14748
713.553	13469
713.670	13690
713.787	13708
713.905	14406
714.022	13114
714.139	14188
714.256	16594
714.373	20614
714.490	32951
714.608	85984
714.725	337534
714.842	239670
714.959	22331
715.076	14468
715.193	13042
715.310	13488
715.427	10783
715.544	12410
715.661	11697
715.778	12774
715.895	11930
716.011	12131
716.128	12233
716.245	13283
716.362	15148
716.479	14130
716.596	11904
716.713	11471
716.829	10344
716.946	11901
717.063	10493
717.180	10733
717.296	9506
717.413	11518
717.530	11135
717.646	10675
717.763	10576
717.880	10936
717.996	9525
718.113	10427
718.229	10573
718.346	9604
718.462	10208
718.579	14467
718.695	24249
718.812	15582
718.928	12383
719.045	10370
719.161	9377
719.277	9660
719.394	9896
719.510	10082
719.626	10246
719.743	13338
719.859	15633
719.975	26370
720.092	99080
720.208	162372
720.324	19372
720.440	11320
720.557	13112
720.673	20314
720.789	21425
720.905	33370
721.021	12327
721.137	9701
721.253	8931
721.369	8919
721.486	10584
721.602	12284
721.718	8635
721.834	8264
721.950	8546
722.066	8780
722.181	8534
722.297	9263
722.413	8567
722.529	8355
722.645	7906
722.761	8462
722.877	6762
722.993	7687
723.108	8836
723.224	7957
723.340	7801
723.456	7829
723.571	8509
723.687	7577
723.803	7801
723.918	7489
724.034	8497
724.150	7846
724.265	7770
724.381	15887
724.497	14618
724.612	7536
724.728	8066
724.843	7808
724.959	8301
725.074	15708
725.190	13557
725.305	7976
725.421	7303
725.536	6718
725.651	6648
725.767	7082
725.882	7542
725.997	6258
726.113	7470
726.228	6355
726.343	5568
726.459	5739
726.574	6916
726.689	5928
726.804	5571
726.920	6925
727.035	6502
727.150	6607
727.265	6751
727.380	7435
727.495	6705
727.610	6733
727.725	6279
727.841	5718
727.956	6917
728.071	7274
728.186	6524
728.301	6462
728.416	6230
728.531	5821
728.645	5814
728.760	7644
728.875	7944
728.990	8074
729.105	6707
729.220	7071
729.335	7628
729.449	5978
729.564	5576
729.679	5503
729.794	4828
729.908	6632
730.023	5742
730.138	5303
730.253	5444
730.367	4890
730.482	5336
730.596	5910
730.711	5874
730.826	6734
730.940	5694
731.055	6778
731.169	5162
731.284	5215
731.398	5151
731.513	7097
731.627	6097
731.742	7364
731.856	6456
731.970	7472
732.085	8109
732.199	9800
732.313	15214
732.428	38307
732.542	103007
732.656	44486
732.771	9752
732.885	8043
732.999	8201
733.113	8021
733.227	8020
733.342	7605
733.456	6516
733.570	6611
733.684	5674
733.798	7286
733.912	6159
734.026	6086
734.140	5492
734.254	7664
734.368	10747
734.482	10568
734.596	6027
734.710	6539
734.824	6076
734.938	5911
735.052	5935
735.166	7645
735.280	6539
735.393	6555
735.507	6107
735.621	7762
735.735	10527
735.849	6765
735.962	6239
736.076	6370
736.190	6501
736.303	8321
736.417	8068
736.531	6367
736.644	5202
736.758	5446
736.872	5659
736.985	6043
737.099	5963
737.212	4241
737.326	5052
737.439	5637
737.553	4554
737.666	5886
737.780	4818
737.893	5273
738.007	4936
738.120	4726
738.233	5108
738.347	4963
738.460	5151
738.573	5846
738.687	4682
738.800	6995
738.913	7200
739.026	5739
739.140	5433
739.253	4615
739.366	4538
739.479	4108
739.592	5777
739.705	5399
739.818	4825
739.932	4949
740.045	5293
740.158	5065
740.271	5187
740.384	5142
740.497	5176
740.610	5665
740.723	5437
740.836	6158
740.949	6331
741.062	9009
741.174	6845
741.287	5197
741.400	4914
741.513	5688
741.626	6430
741.739	5658
741.851	5283
741.964	5640
742.077	4128
742.189	5238
742.302	7573
742.415	6695
742.527	4866
742.640	5041
742.753	5096
742.865	5184
742.978	4847
743.090	4133
743.203	4405
743.316	4671
743.428	4532
743.541	4909
743.653	4135
743.766	4949
743.878	4283
743.990	4976
744.103	6525
744.215	7271
744.327	4585
744.440	7335
744.552	9634
744.664	4600
744.777	3693
744.889	3520
745.001	4238
745.113	4561
745.226	2681
745.338	4679
745.450	4220
745.562	3608
745.674	4033
745.786	3777
745.898	3133
746.010	3383
746.122	3580
746.234	3834
746.347	4146
746.459	4910
746.570	3064
746.682	5779
746.794	7687
746.906	5503
747.018	3415
747.130	5104
747.242	2722
747.354	3541
747.466	2822
747.577	4253
747.689	3443
747.801	4028
747.913	2165
748.024	2464
748.136	2846
748.248	3752
748.359	3023
748.471	3069
748.583	3299
748.694	4014
748.806	3913
748.918	3663
749.029	3776
749.141	5414
749.252	4127
749.364	5482
749.475	10242
749.587	5010
749.698	3007
749.809	3723
749.921	3306
750.032	3684
750.144	3652
750.255	2211
750.366	2868
750.478	3264
750.589	3486
750.700	4168
750.811	4755
750.923	5382
751.034	12853
751.145	10178
751.256	2728
751.367	3013
751.479	3616
751.590	2738
751.701	2218
751.812	3407
751.923	3238
752.034	2766
752.145	2609
752.256	3168
752.367	2198
752.478	3288
752.589	2937
752.700	3284
752.811	2232
752.922	3271
753.032	3107
753.143	3843
753.254	2469
753.365	3189
753.476	3087
753.586	3124
753.697	3732
753.808	2757
753.919	2132
754.029	2321
754.140	2589
754.251	2378
754.361	2294
754.472	3067
754.582	3286
754.693	3293
754.804	2772
754.914	3262
755.025	2935
755.135	2623
755.246	2754
755.356	2449
755.466	3243
755.577	3482
755.687	2016
755.798	2681
755.908	2646
756.018	2556
756.129	2277
756.239	3745
756.349	2476
756.460	2550
756.570	3336
756.680	2789
756.790	2967
756.900	3607
757.011	1866
757.121	2840
757.231	2915
757.341	3185
757.451	2558
757.561	2416
757.671	2454
757.781	1241
757.891	2882
758.001	2677
758.111	2755
758.221	3607
758.331	4254
758.441	5037
758.551	5212
758.661	4682
758.771	3050
758.880	3490
758.990	2117
759.100	3394
759.210	2399
759.320	3076
759.429	1363
759.539	3356
759.649	2476
759.758	3548
759.868	4236
759.978	2726
760.087	3219
760.197	4202
760.307	3350
760.416	2666
760.526	2270
760.635	3462
760.745	3125
760.854	3719
760.964	3801
761.073	3571
761.182	4085
761.292	3775
761.401	3521
761.511	2965
761.620	2681
761.729	2796
761.839	2575
761.948	3518
762.057	3662
762.166	3202
762.276	1670
762.385	4149
762.494	3257
762.603	3137
762.712	3094
762.822	2592
762.931	2910
763.040	2365
763.149	1989
763.258	2820
763.367	3105
763.476	3561
763.585	2070
763.694	3413
763.803	2656
763.912	3577
764.021	3416
764.130	3096
764.238	3706
764.347	2896
764.456	2458
764.565	3836
764.674	3250
764.783	2176
764.891	2933
765.000	4376
765.109	3627
765.217	4002
765.326	4705
765.435	6662
765.543	5567
765.652	5459
765.761	6836
765.869	10531
765.978	14938
766.086	28085
766.195	61157
766.303	181702
766.412	505081
766.520	307881
766.629	57853
766.737	23415
766.846	14240
766.954	10337
767.062	9304
767.171	7243
767.279	5589
767.387	5615
767.496	4359
767.604	5252
767.712	4337
767.820	4718
767.928	4243
768.037	3565
768.145	4088
768.253	4453
768.361	3717
768.469	4714
768.577	3448
768.685	4467
768.793	4384
768.901	4487
769.009	4845
769.117	4659
769.225	5735
769.333	8183
769.441	12589
769.549	24550
769.657	63958
769.765	230674
769.873	374302
769.981	81466
770.088	17698
770.196	9802
770.304	8105
770.412	7513
770.519	5478
770.627	5603
770.735	3840
770.842	5127
770.950	4671
771.058	3751
771.165	4818
771.273	4520
771.380	4228
771.488	4962
771.595	4294
771.703	3955
771.810	4326
771.918	3918
772.025	4319
772.133	5180
772.240	3094
772.348	4913
772.455	4274
772.562	4007
772.670	3489
772.777	4262
772.884	3808
772.991	4255
773.099	3593
773.206	3744
773.313	4340
773.420	4182
773.528	3615
773.635	3188
773.742	3705
773.849	3823
773.956	3326
774.063	3546
774.170	3132
774.277	3749
774.384	2942
774.491	3839
774.598	4018
774.705	4241
774.812	4964
774.919	4456
775.026	3930
775.133	3507
775.239	3831
775.346	2823
775.453	3437
775.560	3195
775.667	4411
775.773	2910
775.880	4105
775.987	3679
776.093	3301
776.200	3989
776.307	3548
776.413	3928
776.520	2855
776.627	3468
776.733	3040
776.840	1888
776.946	5839
777.053	6326
777.159	12059
777.266	6951
777.372	10835
777.478	9420
777.585	5325
777.691	3602
777.798	3410
777.904	4327
778.010	5914
778.117	4772
778.223	3614
778.329	2795
778.435	2807
778.542	4923
778.648	2363
778.754	2210
778.860	3098
778.966	3615
779.072	3410
779.178	3992
779.284	3189
779.391	2707
779.497	1659
779.603	4113
779.708	2361
779.815	5146
779.920	9194
780.026	10438
780.132	3616
780.238	2737
780.344	2674
780.450	3471
780.556	3027
780.661	3230
780.767	2967
780.873	2646
780.979	3184
781.085	2352
781.190	2841
781.296	2517
781.402	2088
781.507	2263
781.613	2410
781.719	2016
781.824	2165
781.930	3157
782.035	2468
782.141	2938
782.246	2655
782.352	2630
782.457	2332
782.563	1930
782.668	2336
782.773	2764
782.879	2280
782.984	3369
783.090	3956
783.195	6460
783.300	3184
783.405	2958
783.511	3123
783.616	3338
783.721	2970
783.826	3607
783.932	3495
784.037	2453
784.142	2264
784.247	2600
784.352	2460
784.457	2738
784.562	3178
784.667	2659
784.772	1710
784.877	1872
784.982	2436
785.087	2047
785.192	2946
785.297	2240
785.402	2054
785.507	2839
785.611	2105
785.716	3053
785.821	2189
785.926	1695
786.031	2164
786.135	2737
786.240	2357
786.345	1736
786.450	2797
786.554	2576
786.659	1285
786.763	825
786.868	2158
786.973	3154
787.077	1204
787.182	1485
787.286	1993
787.391	1808
787.495	602
787.600	1565
787.704	1817
787.809	2508
787.913	1593
788.017	2498
788.122	2390
788.226	1801
788.330	1437
788.435	1933
788.539	1378
788.643	1519
788.747	1776
788.852	1650
788.956	1275
789.060	2611
789.164	2076
789.268	1208
789.372	1813
789.476	1444
789.580	1373
789.684	1805
789.788	1839
789.892	1705
789.996	2091
790.100	1385
790.204	1330
790.308	2118
790.412	698
790.516	2117
790.620	1753
790.724	1792
790.828	1535
790.931	933
791.035	2911
791.139	1587
791.242	236
791.346	2956
791.450	1304
791.554	1830
791.657	542
791.761	2733
791.864	2461
791.968	1505
792.072	1913
792.175	1125
792.279	1220
792.382	2441
792.486	1559
792.589	1308
792.693	1427
792.796	486
792.899	2409
793.003	2011
793.106	748
793.209	1465
793.313	2887
793.416	-15
793.519	2573
793.623	4272
793.726	4743
793.829	2093
793.932	1074
794.035	1114
794.138	2137
794.242	2344
794.345	1744
794.448	2601
794.551	4517
794.654	6121
794.757	5500
794.860	2779
794.963	1544
795.066	1278
795.169	2893
795.272	687
795.375	1486
795.477	741
795.580	1524
795.683	-64
795.786	564
795.889	284
795.991	1976
796.094	2995
796.197	236
796.300	2250
796.402	1292
796.505	1595
796.608	698
796.710	2379
796.813	1139
796.915	980
797.018	1153
797.120	1229
797.223	327
797.326	2127
797.428	414
797.530	938
797.633	798
797.735	2011
797.838	3023
797.940	2459
798.042	-215
798.145	921
798.247	1164
798.349	58
798.452	1510
798.554	953
798.656	-129
798.758	2224
798.860	782
798.962	752
799.065	818
799.167	637
799.269	2528
799.371	1297
799.473	1573
799.575	1241
799.677	799
799.779	4378
799.881	2823
799.983	3304
800.085	787
800.187	798
800.289	446
800.390	1223
800.492	1011
800.594	1724
800.696	-93
800.798	1278
800.899	527
801.001	1387
801.103	887
801.205	236
801.306	1232
801.408	1306
801.509	728
801.611	1376
801.713	370
801.814	504
801.916	688
802.017	1346
802.119	252
802.220	922
802.322	-969
802.423	3086
802.525	-548
802.626	1641
802.727	1801
802.829	1535
802.930	-1194
803.031	2464
803.133	1073
803.234	1145
803.335	743
803.436	332
803.538	709
803.639	-124
803.740	804
803.841	539
803.942	932
804.043	1841
804.144	268
804.245	1511
804.346	702
804.447	535
804.548	3321
804.649	3477
804.750	222
804.851	115
804.952	151
805.053	570
805.154	-727
805.255	1460
805.355	996
805.456	1338
805.557	-379
805.658	-126
805.758	710
805.859	1092
805.960	1214
806.061	-303
806.161	124
806.262	228
806.362	353
806.463	484
806.564	1269
806.664	858
806.765	1168
806.865	662
806.966	819
807.066	665
807.166	974
807.267	1179
807.367	-172
807.468	1302
807.568	-78
807.668	1572
807.769	807
807.869	299
807.969	462
808.069	688
808.170	886
808.270	1250
808.370	1148
808.470	2215
808.570	492
808.670	253
808.770	695
808.870	1122
808.970	890
809.070	920
809.170	-403
809.271	2310
809.370	-154
809.470	995
809.570	-89
809.670	-235
809.770	209
809.870	1347
809.970	219
810.070	190
810.169	1254
810.269	-446
810.369	1683
810.469	677
810.568	328
810.668	452
810.768	-344
810.867	512
810.967	-694
811.066	543
811.166	903
811.265	2094
811.365	-905
811.464	839
811.564	78
811.663	1397
811.763	-565
811.862	1114
811.962	1712
812.061	699
812.160	30
812.260	1650
812.359	2717
812.458	6556
812.557	18743
812.657	23538
812.756	6252
812.855	1696
812.954	921
813.053	1159
813.153	816
813.252	226
813.351	573
813.450	1039
813.549	212
813.648	379
813.747	1572
813.846	1171
813.945	-644
814.044	1189
814.143	931
814.242	2293
814.341	-180
814.439	1297
814.538	1630
814.637	719
814.736	1087
814.835	1892
814.933	622
815.032	1048
815.131	1275
815.229	2438
815.328	3284
815.427	2412
815.525	1876
815.624	2222
815.722	1678
815.821	2627
815.919	2721
816.018	1656
816.116	3057
816.215	1860
816.313	2500
816.412	3438
816.510	3395
816.609	4587
816.707	2323
816.805	3626
816.904	2738
817.002	4677
817.100	4811
817.198	5242
817.296	4741
817.395	5723
817.493	7344
817.591	8528
817.689	12854
817.787	16039
817.885	25732
817.983	47650
818.081	102945
818.179	246695
818.277	517184
818.375	337376
818.473	97750
818.571	43966
818.669	30751
818.767	28716
818.865	27861
818.963	34018
819.061	51437
819.158	91893
819.256	192243
819.354	438873
819.452	731370
819.549	396157
819.647	132176
819.745	61958
819.842	37855
819.940	27008
820.038	18596
820.135	14823
820.233	13108
820.330	10292
820.428	7234
820.525	8688
820.623	6579
820.720	5115
820.818	5893
820.915	5083
821.012	4983
821.110	3778
821.207	5521
821.304	3369
821.402	3943
821.499	6079
821.596	6483
821.693	5305
821.791	3979
821.888	4843
821.985	7848
822.082	4843
822.179	4166
822.276	3953
822.373	3066
822.470	2167
822.567	2583
822.664	1261
822.761	2581
822.858	2058
822.955	1849
823.052	2509
823.149	1780
823.246	1890
823.343	1602
823.440	2973
823.536	1685
823.633	1665
823.730	1654
823.827	2003
823.923	1748
824.020	2727
824.117	2673
824.213	1813
824.310	2695
824.407	1816
824.503	2149
824.600	2184
824.696	1474
824.793	2674
824.889	1188
824.986	714
825.082	504
825.179	1665
825.275	2232
825.371	1296
825.468	2417
825.564	132
825.660	1987
825.757	2052
825.853	1985
825.949	455
826.045	801
826.142	710
826.238	628
826.334	1468
826.430	146
826.526	1646
826.622	-340
826.718	1546
826.814	328
826.910	1926
827.006	216
827.102	723
827.198	1220
827.294	1040
827.390	862
827.486	1435
827.582	-938
827.678	481
827.774	581
827.869	-138
827.965	1485
828.061	693
828.157	1155
828.252	1426
828.348	-289
828.444	1688
828.539	796
828.635	1361
828.731	906
828.826	439
828.922	996
829.017	1287
829.113	238
829.208	124
829.304	316
829.399	2415
829.495	631
829.590	1870
829.685	388
829.781	1440
829.876	424
829.971	1111
830.066	318
830.162	819
830.257	807
830.352	318
830.447	944
830.543	1110
830.638	-166
830.733	1525
830.828	288
830.923	1960
831.018	297
831.113	1162
831.208	-459
831.303	1391
831.398	565
831.493	1116
831.588	939
831.683	317
831.778	573
831.873	452
831.967	1410
832.062	418
832.157	-374
832.252	1420
832.346	600
832.441	1609
832.536	3523
832.631	6914
832.725	3592
832.820	1322
832.914	1010
833.009	1723
833.104	1672
833.198	2261
833.293	727
833.387	1105
833.482	1511
833.576	-2
833.670	742
833.765	1047
833.859	515
833.954	1318
834.048	511
834.142	592
834.237	668
834.331	717
834.425	890
834.519	248
834.613	921
834.708	409
834.802	829
834.896	-242
834.990	468
835.084	1788
835.178	42
835.272	1278
835.366	114
835.460	1666
835.554	686
835.648	350
835.742	541
835.836	953
835.930	-169
836.024	515
836.117	1242
836.211	1264
836.305	1822
836.399	2127
836.493	-850
836.586	2427
836.680	-268
836.774	1102
836.867	1595
836.961	60
837.055	-603
837.148	542
837.242	564
837.335	731
837.429	858
837.522	1121
837.616	470
837.709	2327
837.803	943
837.896	766
837.989	-195
838.083	1567
838.176	2927
838.269	1084
838.363	1149
838.456	1208
838.549	2564
838.642	3882
838.735	6211
838.829	3105
838.922	94
839.015	307
839.108	-391
839.201	890
839.294	700
839.387	789
839.480	146
839.573	1534
839.666	1685
839.759	722
839.852	174
839.945	39
840.038	128
840.131	477
840.223	137
840.316	2328
840.409	536
840.502	100
840.594	1236
840.687	-424
840.780	819
840.873	154
840.965	624
841.058	1547
841.150	2624
841.243	203
841.336	1245
841.428	1259
841.521	64
841.613	15
841.706	896
841.798	361
841.890	-298
841.983	-711
842.075	682
842.167	1046
842.260	34
842.352	1579
842.444	963
842.537	3042
842.629	2636
842.721	507
842.813	185
842.905	71
842.997	852
843.090	503
843.182	1808
843.274	2656
843.366	8572
843.458	12722
843.550	6211
843.642	1255
843.734	847
843.826	992
843.918	971
844.009	1372
844.101	275
844.193	899
844.285	477
844.377	1024
844.469	1579
844.560	2735
844.652	2227
844.744	1237
844.835	1347
844.927	986
845.019	565
845.110	749
845.202	441
845.293	201
845.385	505
845.476	1033
845.568	1089
845.659	600
845.751	1349
845.842	116
845.934	-1120
846.025	-132
846.116	331
846.208	-297
846.299	135
846.390	488
846.482	-428
846.573	1099
846.664	1881
846.755	2185
846.846	852
846.937	-78
847.029	-608
847.120	387
847.211	331
847.302	1657
847.393	-648
847.484	991
847.575	-254
847.666	126
847.757	70
847.847	302
847.938	770
848.029	506
848.120	-733
848.211	874
848.302	-137
848.392	-198
848.483	331
848.574	319
848.664	131
848.755	622
848.846	819
848.936	172
849.027	-27
849.118	-2
849.208	-351
849.299	1312
849.389	3047
849.480	6503
849.570	10159
849.661	22567
849.751	30305
849.841	8099
849.932	866
850.022	79
850.112	389
850.203	3
850.293	-333
850.383	-284
850.474	-1049
850.564	-309
850.654	259
850.744	1074
850.834	644
850.924	624
851.014	715
851.104	1190
851.194	407
851.284	1954
851.374	1041
851.464	-525
851.554	219
851.644	1239
851.734	762
851.824	507
851.914	443
852.004	937
852.094	-544
852.183	166
852.273	224
852.363	48
852.452	218
852.542	-353
852.632	-785
852.721	690
852.811	-709
852.901	1090
852.990	445
853.080	977
853.169	437
853.259	962
853.348	1267
853.438	2043
853.527	2183
853.617	4471
853.706	9295
853.795	16785
853.885	39266
853.974	70674
854.063	136959
854.152	176354
854.242	50873
854.331	9127
854.420	3830
854.509	3118
854.598	2241
854.687	1985
854.777	1386
854.866	1544
854.955	1527
855.044	525
855.133	475
855.222	924
855.311	-266
855.400	953
855.488	-263
855.577	315
855.666	380
855.755	1233
855.844	437
855.933	-46
856.021	180
856.110	1445
856.199	-433
856.288	-283
856.376	-40
856.465	376
856.554	116
856.642	92
856.731	622
856.819	486
856.908	-52
856.996	710
857.085	-43
857.173	88
857.262	-601
857.350	611
857.438	-179
857.527	898
857.615	-85
857.703	683
857.792	26
857.880	479
857.968	231
858.056	401
858.145	27
858.233	270
858.321	177
858.409	1000
858.497	-209
858.585	-971
858.673	568
858.761	-937
858.849	-64
858.937	173
859.025	331
859.113	369
859.201	357
859.289	1863
859.377	381
859.465	710
859.552	448
859.640	-355
859.728	164
859.816	459
859.903	690
859.991	958
860.079	140
860.166	202
860.254	-1084
860.342	618
860.429	-353
860.517	313
860.604	-180
860.692	915
860.779	-491
860.867	-156
860.954	106
861.042	714
861.129	638
861.216	249
861.304	4
861.391	650
861.478	-483
861.565	317
861.653	220
861.740	166
861.827	33
861.914	433
862.001	-9
862.089	583
862.176	344
862.263	755
862.350	135
862.437	776
862.524	-446
862.611	297
862.698	378
862.785	1361
862.871	1349
862.958	10
863.045	354
863.132	1246
863.219	-478
863.306	-539
863.392	34
863.479	-230
863.566	166
863.652	578
863.739	-10
863.826	14
863.912	319
863.999	-99
864.086	-221
864.172	1459
864.259	-10
864.345	655
864.432	469
864.518	-191
864.604	-466
864.691	82
864.777	1022
864.863	1393
864.950	1783
865.036	1848
865.122	3504
865.209	3556
865.295	3300
865.381	2919
865.467	3137
865.553	5035
865.639	5914
865.726	10423
865.812	19789
865.898	36954
865.984	53487
866.070	107087
866.156	88013
866.242	19283
866.328	5648
866.414	3288
866.499	3639
866.585	2538
866.671	3069
866.757	2876
866.843	1539
866.928	2355
867.014	1769
867.100	2294
867.186	2750
867.271	3634
867.357	2695
867.442	2866
867.528	1673
867.614	2843
867.699	2838
867.785	3619
867.870	3344
867.956	4867
868.041	3183
868.127	2345
868.212	3539
868.297	2898
868.383	2898
868.468	3787
868.553	4781
868.639	5166
868.724	10309
868.809	7653
868.894	2269
868.979	1618
869.065	1483
869.150	664
869.235	1405
869.320	1575
869.405	1533
869.490	1555
869.575	1032
869.660	1975
869.745	1617
869.830	1114
869.915	764
870.000	1362
870.085	1256
870.169	2318
870.254	1991
870.339	1089
870.424	919
870.509	1615
870.593	778
870.678	1873
870.763	2053
870.847	1114
870.932	1436
871.016	2596
871.101	1039
871.186	2561
871.270	1415
871.355	1089
871.439	693
871.523	1593
871.608	956
871.692	1707
871.777	1417
871.861	2470
871.945	628
872.030	1315
872.114	2007
872.198	654
872.282	791
872.367	583
872.451	1041
872.535	1519
872.619	1050
872.703	1167
872.787	1477
872.871	1750
872.955	203
873.039	252
873.123	1279
873.207	1469
873.291	620
873.375	1127
873.459	1179
873.543	1791
873.627	640
873.711	1145
873.794	509
873.878	721
873.962	-263
874.045	113
874.129	722
874.137	746
874.213	990
874.245	1307
874.296	1817
874.352	1321
874.380	1080
874.460	427
874.464	400
874.547	993
874.568	1030
874.631	1151
874.676	1032
874.714	919
874.784	1316
874.798	1399
874.881	1463
874.892	1393
874.965	909
874.999	1156
875.048	1486
875.107	1183
875.131	1059
875.215	1812
875.215	1811
875.298	318
875.323	586
875.381	1274
875.430	1475
875.465	1584
875.538	1887
875.548	1923
875.631	479
875.646	572
875.714	1101
875.753	912
875.798	665
875.861	1344
875.881	1574
875.964	524
875.968	554
876.047	997
876.076	1093
876.130	1302
876.183	1658
876.213	1886
876.291	2142
876.296	2150
876.379	1039
876.398	1069
876.462	1202
876.506	1292
876.545	1353
876.613	1079
876.628	1058
876.711	1631
876.721	1636
876.794	1489
876.828	1201
876.877	862
876.935	994
876.960	1063
877.043	1559
877.043	1558
877.125	1422
877.150	1882
877.208	2961
877.258	2148
877.291	1574
877.365	2403
877.374	2526
877.456	1969
877.472	2035
877.539	2206
877.579	2622
877.622	3118
877.687	2703
877.704	2548
877.787	2465
877.794	2419
877.869	2041
877.901	2281
877.952	2553
878.008	2127
878.034	2011
878.115	1823
878.117	1824
878.199	1880
878.222	1904
878.282	1996
878.329	2507
878.364	2706
878.437	2702
878.447	2735
878.529	1606
878.544	1678
878.611	1911
878.651	1739
878.694	1736
878.758	2177
878.776	2285
878.858	2066
878.865	2077
878.941	1804
878.972	1693
879.023	1849
879.078	1851
879.105	1939
879.185	3150
879.187	3168
879.269	2814
879.292	2531
879.351	1973
879.399	1940
879.433	1886
879.506	2680
879.516	2779
879.598	2207
879.613	2140
879.680	1952
879.720	2060
879.762	2283
879.827	2304
879.844	2259
879.926	2274
879.933	2317
880.007	3118
880.040	3147
880.089	3133
880.147	4261
880.171	4901
880.253	7979
880.254	7987
880.335	9851
880.360	10564
880.417	14457
880.467	21484
880.499	26309
880.574	30385
880.580	29636
880.662	11393
880.680	8792
880.744	4534
880.787	2838
880.825	2611
880.893	2392
880.907	2305
880.989	2396
881.000	2398
881.070	3096
881.106	3060
881.152	2518
881.213	2200
881.233	2261
881.315	2862
881.319	2840
881.396	2409
881.426	2413
881.478	2600
881.532	2499
881.559	2307
881.639	2394
881.641	2406
881.722	2443
881.745	2372
881.803	2610
881.852	2990
881.885	3006
881.958	2933
881.966	2982
882.047	3230
882.064	3361
882.129	3679
882.171	3857
882.210	4905
882.277	6992
882.291	6946
882.372	4658
882.383	4494
882.454	3682
882.489	3193
882.535	3078
882.596	3317
882.616	3394
882.697	2626
882.702	2636
882.778	2517
882.808	2290
882.859	2422
882.914	2593
882.940	2588
883.020	2516
883.021	2528
883.102	3190
883.127	3346
883.183	3519
883.233	3347
883.264	2970
883.339	2422
883.345	2432
883.426	2246
883.445	2203
883.507	2376
883.551	2784
883.587	3067
883.657	3180
883.668	3283
883.749	4095
883.763	4120
883.830	2739
883.869	2310
883.910	2412
883.975	2015
883.991	2048
884.072	2806
884.081	2823
884.152	3189
884.187	3564
884.233	3759
884.292	3721
884.314	3510
884.394	2322
884.398	2279
884.475	2122
884.504	2032
884.555	2155
884.610	1914
884.636	2062
884.716	3244
884.716	3265
884.797	4241
884.821	4530
884.877	3794
884.927	2914
884.958	2730
885.033	2630
885.038	2655
885.118	2573
885.139	2603
885.199	2566
885.244	2574
885.279	3083
885.350	4017
885.359	4025
885.439	3916
885.456	3853
885.520	3727
885.561	3609
885.600	3225
885.667	2993
885.680	3151
885.760	3386
885.773	3472
885.840	3592
885.878	3565
885.920	3515
885.984	3391
886.000	3371
886.080	3334
886.089	3322
886.160	3785
886.195	3911
886.240	3895
886.300	3917
886.320	3951
886.400	3858
886.406	3867
886.480	3907
886.511	3787
886.560	4268
886.616	4803
886.640	4793
886.720	4400
886.722	4382
886.800	3756
886.827	3489
886.879	3513
886.932	3483
886.959	3768
887.038	4441
887.039	4454
887.119	4210
887.143	4132
887.198	4304
887.248	4370
887.278	4286
887.354	3796
887.358	3815
887.437	4266
887.459	4284
887.517	4292
887.564	4431
887.596	4331
887.669	3851
887.676	3820
887.755	3387
887.774	3272
887.835	3398
887.880	3509
887.914	3910
887.985	4529
887.994	4560
888.073	4808
888.090	4827
888.153	4785
888.195	4717
888.232	4417
888.300	3899
888.311	3921
888.391	3978
888.405	3966
888.470	3845
888.510	3741
888.549	3755
888.615	3809
888.628	4007
888.708	5084
888.720	5232
888.787	4297
888.825	3738
888.866	3282
888.930	2547
888.945	2791
889.024	4068
889.035	4225
889.103	4865
889.140	5154
889.182	4954
889.245	4673
889.261	4807
889.340	5365
889.349	5410
889.419	4381
889.454	3848
889.498	4180
889.559	4602
889.577	4745
889.656	5336
889.664	5379
889.735	5056
889.768	4884
889.814	4849
889.873	4765
889.978	4840
890.083	4716
890.187	5569
890.292	4033
890.397	4013
890.501	4417
890.606	3731
890.710	5122
890.815	5716
890.919	5300
891.024	4567
891.128	3856
891.233	4020
891.337	5155
891.442	4277
891.546	4154
891.650	3841
891.755	4058
891.859	5733
891.963	5142
892.068	4943
892.172	4538
892.276	3924
892.380	4726
892.484	4637
892.589	4722
892.693	4086
892.797	3787
892.901	4605
893.005	3808
893.109	5430
893.213	4496
893.317	4372
893.421	3783
893.525	2401
893.629	3597
893.733	4298
893.837	4169
893.941	4235
894.045	4892
894.148	3160
894.252	3612
894.356	4856
894.460	5090
894.564	4469
894.667	4188
894.771	4050
894.875	3675
894.978	3727
895.082	3991
895.186	4544
895.289	4603
895.393	3996
895.496	3718
895.600	3969
895.703	3332
895.807	4124
895.910	3570
896.014	4414
896.117	3841
896.221	4317
896.324	4357
896.427	3636
896.531	2758
896.634	4515
896.737	4205
896.840	4092
896.944	3631
897.047	4759
897.150	3785
897.253	3966
897.356	3992
897.460	3524
897.563	3099
897.666	4188
897.769	3395
897.872	3565
897.975	3419
898.078	4225
898.181	3502
898.284	3885
898.387	3790
898.490	3862
898.593	3790
898.695	3294
898.798	3980
898.901	4697
899.004	4192
899.107	4091
899.209	4407
899.312	4777
899.415	3218
899.518	3558
899.620	3312
899.723	3558
899.826	5824
899.928	7257
900.031	4156
900.133	3539
900.236	3568
900.338	3611
900.441	2644
900.543	3979
900.646	4048
900.748	4129
900.851	4370
900.953	3013
901.055	3471
901.158	3936
901.260	4027
901.362	3522
901.465	3569
901.567	3546
901.669	3330
901.771	4234
901.873	3406
901.976	4647
902.078	3621
902.180	3536
902.282	2779
902.384	4292
902.486	3776
902.588	4290
902.690	4056
902.792	2926
902.894	3748
902.996	3714
903.098	3428
903.200	2934
903.302	3255
903.404	3935
903.505	3003
903.607	3674
903.709	4644
903.811	4206
903.913	3149
904.014	3394
904.116	3563
904.218	3092
904.319	4218
904.421	4841
904.523	3275
904.624	3742
904.726	3215
904.827	3066
904.929	2813
905.030	3923
905.132	3861
905.233	3429
905.335	2891
905.436	2717
905.537	3446
905.639	3510
905.740	3870
905.841	3940
905.943	3630
906.044	3160
906.145	3040
906.247	3457
906.348	3146
906.449	3892
906.550	2805
906.651	3003
906.752	3598
906.854	3079
906.955	3585
907.056	3176
907.157	3784
907.258	3469
907.359	2292
907.460	2883
907.561	2763
907.662	3489
907.762	3420
907.863	3828
907.964	4026
908.065	4251
908.166	1959
908.267	3191
908.367	3525
908.468	3708
908.569	3803
908.670	4819
908.770	4707
908.871	4612
908.971	4585
909.072	4385
909.173	3283
909.273	3273
909.374	3840
909.474	3155
909.575	3307
909.675	3074
909.776	3803
909.876	3262
909.977	3778
910.077	3916
910.177	3074
910.278	3366
910.378	3456
910.478	4164
910.579	3733
910.679	3312
910.779	3689
910.879	3923
910.980	3746
911.080	3600
911.180	3643
911.280	3167
911.380	3150
911.480	3365
911.580	3182
911.680	3797
911.780	4485
911.880	3781
911.980	2893
912.080	3170
912.180	3517
912.280	3160
912.380	3195
912.480	2947
912.580	2889
912.679	3093
912.779	3654
912.879	3619
912.979	2850
913.078	2843
913.178	2681
913.278	2866
913.377	3323
913.477	3076
913.577	3181
913.676	3971
913.776	2514
913.875	2790
913.975	3257
914.074	3422
914.174	3653
914.273	2406
914.373	4115
914.472	2554
914.572	2970
914.671	3455
914.770	3540
914.870	3123
914.969	2666
915.068	2825
915.167	3278
915.267	2860
915.366	3953
915.465	3667
915.564	3193
915.663	3292
915.763	2982
915.862	3851
915.961	3593
916.060	2630
916.159	2245
916.258	3109
916.357	2786
916.456	3676
916.555	2700
916.654	4232
916.752	3557
916.851	3161
916.950	3239
917.049	2550
917.148	2714
917.247	3094
917.345	2726
917.444	2735
917.543	3609
917.642	3434
917.740	3162
917.839	3708
917.937	3944
918.036	4647
918.135	3064
918.233	2153
918.332	2667
918.430	3269
918.529	1847
918.627	3634
918.726	4008
918.824	2807
918.923	3144
919.021	2628
919.119	1674
919.218	2430
919.316	2982
919.414	3214
919.512	3615
919.611	3866
919.709	3512
919.807	3723
919.905	4534
920.003	3822
920.102	4195
920.200	4618
920.298	5357
920.396	3270
920.494	3313
920.592	2882
920.690	3983
920.788	3714
920.886	3578
920.984	5233
921.082	5083
921.180	4839
921.277	5090
921.375	4169
921.473	5719
921.571	6071
921.669	4640
921.766	4711
921.864	5861
921.962	5085
922.060	5139
922.157	5581
922.255	6577
922.352	4637
922.450	5918
922.548	5742
922.645	6122
922.743	7454
922.840	9772
922.938	10378
923.035	9825
923.133	10655
923.230	10148
923.327	13442
923.425	11604
923.522	12549
923.619	11663
923.717	9520
923.814	10426
923.911	9505
924.008	10949
924.106	9626
924.203	9431
924.300	9801
924.397	9761
924.494	10347
924.591	10286
924.688	9576
924.786	9196
924.883	10393
924.979	9735
925.077	8761
925.173	9108
925.270	9748
925.367	10031
925.464	10326
925.561	10744
925.658	10342
925.755	10402
925.852	10973
925.948	9542
926.045	8707
926.142	9544
926.239	8989
926.335	8419
926.432	10037
926.529	8860
926.625	9749
926.722	8322
926.818	8620
926.915	9494
927.011	8458
927.108	8578
927.204	8802
927.301	7714
927.397	9586
927.494	9567
927.590	7657
927.687	7825
927.783	9322
927.879	9357
927.976	8360
928.072	8863
928.168	9108
928.264	8284
928.361	8314
928.457	9939
928.553	8132
928.649	8670
928.745	8069
928.841	6932
928.937	8591
929.033	8112
929.129	8045
929.225	9493
929.321	7621
929.417	7819
929.513	9161
929.609	7406
929.705	7938
929.801	8778
929.897	6946
929.993	7607
930.089	7922
930.184	6776
930.280	8278
930.376	9581
930.471	6988
930.567	6674
930.663	7571
930.758	7565
930.854	7307
930.950	7943
931.045	6696
931.141	7988
931.236	9548
931.332	7439
931.427	7000
931.523	8533
931.618	7003
931.714	5724
931.809	7404
931.905	7400
932.000	6937
932.095	6880
932.191	8469
932.286	8423
932.381	7692
932.476	6074
932.572	7027
932.667	5967
932.762	6271
932.857	7444
932.952	8320
933.047	5959
933.142	5798
933.237	7570
933.332	7314
933.427	8078
933.522	5623
933.617	6674
933.712	6411
933.807	7129
933.902	7646
933.997	6888
934.092	6044
934.187	6321
934.282	7294
934.376	6889
934.471	6277
934.566	6560
934.661	7099
934.755	6980
934.850	7340
934.945	5864
935.039	6194
935.134	5681
935.228	7371
935.323	8219
935.417	5818
935.512	4717
935.606	5350
935.701	6157
935.795	6394
935.890	6065
935.984	5695
936.079	4968
936.173	5888
936.267	6006
936.362	5547
936.456	6828
936.550	7755
936.644	6127
936.738	5369
936.833	4614
936.927	5459
937.021	5196
937.115	5993
937.209	6052
937.303	5798
937.397	4552
937.491	6382
937.585	6715
937.679	5374
937.773	5694
937.867	4252
937.961	5714
938.055	6461
938.149	5665
938.243	4794
938.337	5004
938.430	4978
938.524	6725
938.618	6322
938.712	4665
938.805	5188
938.899	5692
938.993	6825
939.086	4552
939.180	4484
939.274	5376
939.367	6165
939.461	5334
939.554	5461
939.648	5094
939.741	4101
939.835	5665
939.928	6326
940.022	6633
940.115	5512
940.208	5984
940.302	6381
940.395	6752
940.488	4214
940.582	5196
940.675	4229
940.768	5050
940.861	6530
940.954	5229
941.048	4285
941.141	5029
941.234	5607
941.327	7184
941.420	7946
941.513	7155
941.606	3976
941.699	5734
941.792	6234
941.885	5237
941.978	4785
942.071	4551
942.164	4278
942.257	3979
942.349	4347
942.442	5609
942.535	3971
942.628	4016
942.721	4662
942.813	4133
942.906	5077
942.999	4635
943.091	3660
943.184	4960
943.277	3689
943.369	4376
943.462	3550
943.554	5095
943.647	4351
943.739	5707
943.832	4870
943.924	3630
944.017	3666
944.109	3280
944.201	3876
944.294	4815
944.386	3749
944.478	4270
944.571	4203
944.663	3956
944.755	4034
944.847	3965
944.940	4682
945.032	2802
945.124	3704
945.216	5880
945.308	4437
945.400	4231
945.492	3987
945.584	5215
945.676	4376
945.768	4394
945.860	4962
945.952	4284
946.044	4292
946.136	3227
946.228	3729
946.320	3022
946.412	4772
946.503	3807
946.595	5389
946.687	3286
946.779	3315
946.870	4027
946.962	3769
947.054	5029
947.145	4422
947.237	3833
947.329	3778
947.420	4072
947.512	3292
947.603	2521
947.695	4198
947.786	2316
947.878	3610
947.969	3665
948.061	3811
948.152	3232
948.243	2566
948.335	3153
948.426	3220
948.517	3349
948.609	3478
948.700	3145
948.791	3469
948.882	3247
948.973	2972
949.065	3911
949.156	3830
949.247	2939
949.338	3774
949.429	2765
949.520	3474
949.611	2846
949.702	4357
949.793	3023
949.884	3810
949.975	2412
950.066	3006
950.157	3097
950.247	3670
950.338	2777
950.429	3367
950.520	2408
950.611	4124
950.701	4062
950.792	4493
950.883	4158
950.973	4106
951.064	4283
951.155	4000
951.245	3446
951.336	3856
951.427	3518
951.517	4366
951.608	3779
951.698	2801
951.788	2948
951.879	2505
951.969	2678
952.060	2374
952.150	3034
952.240	4739
952.331	2262
952.421	4271
952.511	2443
952.602	2960
952.692	2404
952.782	2774
952.872	2751
952.962	3109
953.052	2827
953.143	2563
953.233	3195
953.323	3304
953.413	2659
953.503	4049
953.593	3012
953.683	2874
953.773	2363
953.863	3385
953.953	2672
954.042	3801
954.132	3202
954.222	3286
954.312	2955
954.402	3258
954.492	3901
954.581	5931
954.671	2216
954.761	3244
954.850	3440
954.940	1868
955.030	2024
955.119	2451
955.209	2279
955.298	2412
955.388	3441
955.477	3425
955.567	1601
955.656	3368
955.746	2561
955.835	2838
955.925	2097
956.014	3319
956.103	3692
956.193	3775
956.282	2835
956.371	2653
956.461	3126
956.550	2415
956.639	2393
956.728	2476
956.817	3030
956.906	2907
956.995	3877
957.085	2090
957.174	2910
957.263	2323
957.352	2809
957.441	1935
957.530	1874
957.619	2220
957.708	2851
957.796	1898
957.885	2562
957.974	2897
958.063	2553
958.152	1111
958.241	2085
958.329	1806
958.418	2400
958.507	2097
958.596	3655
958.684	1795
958.773	3222
958.861	2539
958.950	2630
959.039	2515
959.127	2824
959.216	2711
959.304	2534
959.393	2552
959.481	2512
959.570	2032
959.658	1799
959.746	2345
959.835	4069
959.923	7137
960.011	3032
960.100	3066
960.188	2561
960.276	2106
960.365	2462
960.453	1865
960.541	1970
960.629	1908
960.717	1968
960.805	1761
960.893	2516
960.981	2880
961.069	3810
961.158	2818
961.245	3276
961.333	3197
961.421	1926
961.509	2169
961.597	2394
961.685	1934
961.773	2226
961.861	2379
961.949	2846
962.036	1224
962.124	2299
962.212	1713
962.299	2353
962.387	785
962.475	1997
962.562	1643
962.650	2696
962.738	2868
962.825	2161
962.913	1745
963.000	2166
963.088	2573
963.175	2155
963.263	2480
963.350	2215
963.438	3916
963.525	3358
963.612	6621
963.700	12320
963.787	23790
963.874	10559
963.962	2573
964.049	2299
964.136	1712
964.223	1330
964.310	2857
964.398	1605
964.485	2565
964.572	2836
964.659	4724
964.746	4057
964.833	1520
964.920	2471
965.007	2083
965.094	3055
965.181	2211
965.268	2027
965.355	2046
965.441	1737
965.528	973
965.615	2149
965.702	1915
965.789	1077
965.875	2312
965.962	1950
966.049	2266
966.136	2496
966.222	2751
966.309	3224
966.395	2332
966.482	2606
966.569	2104
966.655	2747
966.742	2133
966.828	1958
966.915	1759
967.001	2010
967.087	1437
967.174	1603
967.260	3280
967.347	4181
967.433	10443
967.519	16236
967.605	5329
967.692	1581
967.778	1066
967.864	2012
967.950	1704
968.036	1997
968.123	2274
968.209	1697
968.295	321
968.381	3164
968.467	1893
968.553	968
968.639	3000
968.725	2419
968.811	5723
968.897	4010
968.983	2102
969.069	823
969.154	1425
969.240	2591
969.326	1363
969.412	1223
969.497	1139
969.583	2197
969.669	2687
969.755	2424
969.840	1698
969.926	4084
970.012	4205
970.097	5122
970.183	4481
970.268	2235
970.354	3837
970.439	5086
970.525	10785
970.610	3219
970.696	2342
970.781	1537
970.866	154
970.952	1681
971.037	2358
971.122	1762
971.208	2039
971.293	2077
971.378	855
971.463	1287
971.549	3019
971.634	1340
971.719	1410
971.804	2470
971.889	3264
971.974	2197
972.059	1470
972.144	1117
972.229	1956
972.314	1824
972.399	1751
972.484	1741
972.569	2985
972.654	2337
972.739	5956
972.824	5380
972.908	1858
972.993	993
973.078	1579
973.163	1578
973.247	1812
973.332	401
973.417	2325
973.501	838
973.586	1598
973.671	1802
973.755	2045
973.840	2648
973.924	2735
974.009	2294
974.093	3184
974.178	4117
974.262	4957
974.346	4530
974.431	2362
974.515	1773
974.600	1634
974.684	1626
974.768	974
974.852	1860
974.937	476
975.021	2173
975.105	1936
975.189	1267
975.273	2388
975.358	1039
975.442	666
975.526	1776
975.610	1168
975.694	985
975.778	2382
975.862	1496
975.946	109
976.030	1773
976.114	1206
976.198	907
976.281	1706
976.365	1909
976.449	545
976.533	1825
976.617	510
976.700	2219
976.784	1185
976.868	1600
976.951	2925
977.035	2270
977.119	344
977.202	1144
977.286	2088
977.369	2641
977.453	2748
977.536	3106
977.620	1571
977.703	1963
977.787	845
977.870	2268
977.953	2987
978.037	1483
978.120	3560
978.203	4478
978.287	4881
978.370	2968
978.453	1690
978.536	1001
978.620	3411
978.703	3685
978.786	2907
978.869	200
978.952	711
979.035	1558
979.118	1831
979.201	442
979.284	1315
979.367	1663
979.450	1725
979.533	1004
979.616	910
979.699	1246
979.782	1359
979.865	1971
979.948	1051
980.030	1108
980.113	581
980.196	423
980.279	1635
980.361	1281
980.444	1448
980.526	2454
980.609	2755
980.692	2550
980.774	2167
980.857	1246
980.939	2820
981.022	1570
981.104	2094
981.187	1351
981.269	2730
981.352	1922
981.434	1088
981.516	1372
981.599	2736
981.681	1950
981.763	1234
981.846	1760
981.928	1417
982.010	1227
982.092	-228
982.174	1635
982.256	1242
982.339	1606
982.421	1325
982.503	1673
982.585	592
982.667	1510
982.749	1661
982.831	1430
982.913	-187
982.995	2102
983.077	1107
983.158	2677
983.240	1222
983.322	1915
983.404	3715
983.486	1345
983.568	2127
983.649	1269
983.731	2414
983.813	1248
983.894	2763
983.976	771
984.058	1810
984.139	2429
984.221	273
984.302	1770
984.384	1467
984.465	910
984.547	1725
984.628	1177
984.710	2704
984.791	1742
984.872	656
984.954	1807
985.035	2349
985.116	1883
985.198	625
985.279	2928
985.360	1243
985.441	899
985.522	1834
985.604	1776
985.685	47
985.766	2182
985.847	3583
985.928	1237
986.009	1521
986.090	1833
986.171	2997
986.252	788
986.333	1180
986.414	1003
986.495	1357
986.576	2040
986.656	1656
986.737	1310
986.818	2228
986.899	800
986.980	1061
987.060	2424
987.141	1467
987.222	1497
987.302	2245
987.383	2842
987.464	1139
987.544	2331
987.625	2098
987.705	2839
987.786	2768
987.866	2391
987.947	2325
988.027	1908
988.108	870
988.188	2667
988.268	1896
988.349	2283
988.429	1560
988.509	2710
988.589	1365
988.670	-129
988.750	2732
988.830	1247
988.910	2442
988.990	1797
989.070	1578
989.151	1458
989.231	1729
989.311	1705
989.391	1975
989.471	1695
989.551	1720
989.631	1562
989.711	2551
989.791	1489
989.870	1116
989.950	2541
990.030	623
990.110	1022
990.190	772
990.269	701
990.349	1781
990.429	1578
990.509	1743
990.588	829
990.668	2306
990.747	1868
990.827	322
990.907	1577
990.986	1235
991.066	1290
991.145	922
991.225	1273
991.304	1682
991.383	1752
991.463	885
991.542	1458
991.622	1295
991.701	665
991.780	993
991.859	639
991.939	666
992.018	1829
992.097	1786
992.176	1335
992.256	1533
992.335	501
992.414	1659
992.493	1098
992.572	448
992.651	1922
992.730	1018
992.809	-219
992.888	964
992.967	1051
993.046	1137
993.125	359
993.203	523
993.282	1775
993.361	328
993.440	1141
993.519	-442
993.597	1457
993.676	170
993.755	1467
993.834	1482
993.912	14
993.991	1241
994.069	174
994.148	907
994.226	856
994.305	1042
994.384	38
994.462	1755
994.540	558
994.619	657
994.697	900
994.776	1405
994.854	1210
994.932	457
995.011	709
995.089	464
995.167	485
995.245	738
995.324	-382
995.402	1062
995.480	-216
995.558	1516
995.636	39
995.714	353
995.792	1335
995.870	-616
995.948	1016
996.026	1245
996.104	-1218
996.182	1008
996.260	485
996.338	836
996.416	-864
996.494	600
996.572	1260
996.649	80
996.727	-267
996.805	1521
996.883	-389
996.960	208
997.038	289
997.116	336
997.193	-155
997.271	693
997.348	-380
997.426	-8
997.504	236
997.581	1492
997.658	408
997.736	-351
997.813	-847
997.891	1799
997.968	-907
998.046	1003
998.123	589
998.200	906
998.277	157
998.355	285
998.432	-1292
998.509	58
998.586	502
998.663	592
998.741	193
998.818	-358
998.895	-342
998.972	1027
999.049	215
999.126	-174
999.203	44
999.280	571
999.357	271
999.434	26
999.511	66
999.587	266
999.664	-393
999.741	771
999.818	423
999.895	-954
999.971	65
1000.048	-199
1000.125	309
1000.202	28
1000.278	782
1000.355	409
1000.431	-966
1000.508	-843
1000.584	239
1000.661	553
1000.738	-420
1000.814	-187
1000.890	466
1000.967	-211
1001.043	248
1001.120	-1439
1001.196	-372
1001.272	92
1001.349	568
1001.425	964
1001.501	30
1001.577	-818
1001.654	467
1001.730	-557
1001.806	-200
1001.882	-188
1001.958	-12
1002.034	385
1002.110	-169
1002.186	-368
1002.262	-171
1002.338	-1064
1002.414	282
1002.490	779
1002.566	-72
1002.642	-868
1002.718	346
1002.794	-498
1002.870	-474
1002.945	-529
1003.021	-694
1003.097	-321
1003.173	-429
1003.248	-711
1003.324	-354
1003.400	658
1003.475	-415
1003.551	124
1003.626	64
1003.702	-1588
1003.777	-756
1003.853	-383
1003.928	-475
1004.004	-548
1004.079	37
1004.155	-253
1004.230	-1555
1004.305	363
1004.381	-1198
1004.456	-563
1004.531	-227
1004.607	-1076
1004.682	-711
1004.757	-794
1004.832	-927
1004.907	-98
1004.982	-840
1005.057	-614
1005.133	-419
1005.208	-273
1005.283	217
1005.358	-384
1005.433	-1055
1005.508	-260
1005.583	-1088
1005.657	-967
1005.732	-445
1005.807	-881
1005.882	-806
1005.957	-229
1006.032	-56
1006.106	-595
1006.181	-519
1006.256	-435
1006.331	-1525
1006.405	-1226
1006.480	-784
1006.554	-338
1006.629	-569
1006.704	-616
1006.778	-642
1006.853	-552
1006.927	-336
1007.002	-1338
1007.076	-999
1007.150	-60
1007.225	-251
1007.299	259
1007.373	-866
1007.448	-400
1007.522	176
1007.596	-449
1007.671	-1398
1007.745	-786
1007.819	-359
1007.893	-1782
1007.967	-439
1008.041	-1640
1008.115	-396
1008.190	-984
1008.264	-300
1008.338	-1659
1008.412	-119
1008.486	-742
1008.560	-1167
1008.633	-259
1008.707	-812
1008.781	49
1008.855	-580
1008.929	-501
1009.003	-687
1009.076	-920
1009.150	-1338
1009.224	-324
1009.298	-495
1009.371	-1731
1009.445	-217
1009.519	-915
1009.592	-1556
1009.666	-1032
1009.739	-823
1009.813	-1574
1009.886	679
1009.960	-1198
1010.033	-608
1010.107	-597
1010.180	-2045
1010.253	-1011
1010.327	-1689
1010.400	-47
1010.473	-1108
1010.547	-552
1010.620	-379
1010.693	-241
1010.766	-1168
1010.840	-694
1010.913	-1180
1010.986	-850
1011.059	-984
1011.132	-1423
1011.205	-450
1011.278	-540
1011.351	-881
1011.424	-117
1011.497	-1880
1011.570	-1484
1011.643	-1257
1011.716	-1935
1011.789	-1820
1011.862	-1058
1011.934	-815
1012.007	-1817
1012.080	-1056
1012.153	-628
1012.225	-751
1012.298	-1694
1012.371	-1297
1012.443	-230
1012.516	-1698
1012.588	-797
1012.661	-669
1012.733	-302
1012.806	-1163
1012.879	-1207
1012.951	-1543
1013.023	-1144
1013.096	-325
1013.168	-1612
1013.241	-633
1013.313	-854
1013.385	-1683
1013.458	-1732
1013.530	-509
1013.602	-1126
1013.674	-565
1013.746	-1608
1013.819	-981
1013.891	-929
1013.963	-1688
1014.035	-1210
1014.107	-1305
1014.179	-621
1014.251	-1148
1014.323	-923
1014.395	-1433
1014.467	-975
1014.539	-1092
1014.611	-1438
1014.683	-1825
1014.754	-676
1014.826	-1178
1014.898	-1096
1014.970	-1758
1015.042	-412
1015.113	-658
1015.185	-1136
1015.257	-1964
1015.328	-762
1015.400	-1168
1015.471	-1211
1015.543	-1997
1015.615	-1258
1015.686	-899
1015.757	-892
1015.829	-893
1015.901	-1763
1015.972	-1045
1016.043	-1406
1016.115	-1216
1016.186	-540
1016.257	-1345
1016.328	-1445
1016.400	-615
1016.471	-2196
1016.542	-1653
1016.613	-1597
1016.685	-1017
1016.756	-1547
1016.827	-775
1016.898	-1997
1016.969	-439
1017.040	-1818
1017.111	-1926
1017.182	-1733
1017.253	-1085
1017.324	-590
1017.395	-230
1017.466	-175
1017.537	-1700
1017.608	-540
1017.678	-1256
1017.749	-746
1017.820	-1986
1017.891	-1444
1017.961	-1346
1018.032	-1374
1018.103	-913
1018.173	-1533
1018.244	-1386
1018.315	-1273
1018.385	-1385
1018.456	-1695
1018.526	-1593
1018.597	-756
1018.667	-184
1018.738	-1979
1018.808	-1662
1018.878	-1743
1018.949	-1354
1019.019	-1273
1019.089	-727
1019.160	-1603
1019.230	-2282
1019.300	-1303
1019.371	-1369
1019.441	-447
1019.511	-469
1019.581	-1713
1019.651	-1910
1019.721	-1618
1019.791	-1959
1019.861	-1019
1019.931	-813
1020.001	-1546
1020.071	-1755
1020.141	-1620
1020.211	-1302
1020.281	-1131
1020.351	-977
1020.421	-1006
1020.491	-1682
1020.560	-1998
1020.630	-1775
1020.700	-2084
1020.770	-2156
1020.839	-1045
1020.909	-1239
1020.979	-1220
1021.048	-1929
1021.118	-1073
1021.187	-1190
1021.257	-1474
1021.326	-615
1021.396	-1430
1021.465	-462
1021.535	-1268
1021.604	-2619
1021.674	-1260
1021.743	-1385
1021.812	-1411
1021.882	-1814
1021.951	-1109
1022.020	-1650
1022.089	-1484
1022.159	-1658
1022.228	-699
1022.297	-1907
1022.366	-1915
1022.435	-1710
1022.504	-1367
1022.573	-1409
1022.642	-2327
1022.711	-1937
1022.781	-1638
1022.849	-867
1022.918	-1425
1022.987	-1597
1023.056	-1536
1023.125	-1430
1023.194	-1155
1023.263	-1660
1023.331	-1639
1023.400	-1439
1023.469	-1785
1023.538	-882
1023.606	-2427
1023.675	-1360
1023.744	-2052
1023.812	-1388
1023.881	-1844
1023.949	-1628
1024.018	-1837
1024.086	-1761
1024.155	-1942
1024.223	-1899
1024.292	-1462
1024.360	-1459
1024.429	-1741
1024.497	-1326
1024.565	-1578
1024.634	-2120
1024.702	-1517
1024.770	-1109
1024.838	-1472
1024.907	-1805
1024.975	-1918
1025.043	-1392
1025.111	-1437
1025.179	-1354
1025.247	-1345
1025.315	-1188
1025.383	-1467
1025.451	-1369
1025.519	-1286
1025.587	-2094
1025.655	-981
1025.723	-1905
1025.791	-1378
1025.859	-1242
1025.927	-845
1025.995	-913
1026.062	-2340
1026.130	-2014
1026.198	-1278
1026.266	-1586
1026.333	-775
1026.401	-881
1026.469	-1000
1026.536	-1419
1026.604	-1745
1026.671	-2133
1026.739	-1320
1026.806	-2038
1026.874	-1366
1026.941	-1033
1027.009	-1983
1027.076	-1760
1027.144	-1527
1027.211	-1732
1027.278	-1229
1027.345	-1942
1027.413	-1119
1027.480	-1680
1027.547	-1391
1027.614	-1892
1027.682	-1668
1027.749	-1011
1027.816	-1736
1027.883	-1242
1027.950	-1361
1028.017	-2325
1028.084	-1109
1028.151	-2716
1028.218	-1978
1028.285	-2642
1028.352	-1226
1028.419	-2072
1028.486	-2018
1028.553	-759
1028.619	-1943
1028.686	-1158
1028.753	-1882
1028.820	-1620
1028.886	-1996
1028.953	-1846
1029.020	-1040
1029.086	-1508
1029.153	-2363
1029.220	-1719
1029.286	-2143
1029.353	-1325
1029.419	-1981
1029.486	-788
1029.552	-1396
1029.619	-2342
1029.685	-1306
1029.751	-1962
1029.818	-891
1029.884	-1925
1029.951	-1191
1030.017	-2090
1030.083	-1462
1030.149	-1945
1030.216	-2946
1030.282	-1474
1030.348	-1319
1030.414	-2193
1030.480	-1743
1030.546	-1487
1030.612	-1764
1030.678	-2352
1030.744	-1470
1030.810	-2741
1030.876	-1243
1030.942	-2504
1031.008	-1582
1031.074	-2354
1031.140	-1711
1031.206	-573
1031.272	-2230
1031.337	-1326
1031.403	-386
1031.469	-1432
1031.534	-1318
1031.600	-1025
1031.666	-1975
1031.731	-1655
1031.797	-2013
1031.863	-1658
1031.928	-1566
1031.994	-985
1032.059	-1930
1032.125	-1674
1032.190	-2390
1032.256	-1506
1032.321	-1494
1032.386	-1815
1032.452	-1948
1032.517	-1758
1032.582	-2148
1032.647	-1924
1032.713	-2227
1032.778	-1542
1032.843	-1686
1032.908	-1937
1032.974	-1353
1033.039	-1552
1033.104	-1102
1033.169	-2102
1033.234	-1299
1033.299	-200
1033.364	-822
1033.429	-1439
1033.494	-739
1033.559	-1321
1033.624	-1316
1033.688	-1341
1033.753	-2699
1033.818	-936
1033.883	-933
1033.948	-1329
1034.013	-930
1034.077	-1103
1034.142	320
1034.207	707
1034.271	2785
1034.336	4305
1034.400	2418
1034.465	1077
1034.530	844
1034.594	-744
1034.658	-1344
1034.723	-1255
1034.787	-2393
1034.852	-355
1034.916	-2212
1034.981	-1428
1035.045	-1630
1035.109	-2693
1035.173	-1735
1035.238	-1947
1035.302	-1535
1035.366	-1957
1035.430	-1857
1035.495	-1657
1035.559	-1924
1035.623	-1238
1035.687	-1841
1035.751	-1408
1035.815	-1402
1035.879	-2141
1035.943	-1464
1036.007	-2197
1036.071	-1836
1036.135	-1604
1036.198	-726
1036.262	-1760
1036.326	-1334
1036.390	-1472
1036.454	-1394
1036.517	-372
1036.581	-184
1036.645	642
1036.709	127
1036.772	-1845
1036.836	-1009
1036.900	-1759
1036.963	-1114
1037.026	-1928
1037.090	-1349
1037.154	-1557
1037.217	-1439
1037.280	-1857
1037.344	-1307
1037.407	-1320
1037.471	-1690
1037.534	-559
1037.597	-1240
1037.661	-2063
1037.724	-1513
1037.787	-1365
1037.850	-1539
1037.913	-1811
1037.977	-1725
1038.040	-1365
1038.103	-1968
1038.166	-1580
1038.229	-1530
1038.292	-1369
1038.355	-1554
1038.418	-1574
1038.481	-1433
1038.544	-1918
1038.607	-1658
1038.670	-2437
1038.732	-1957
1038.795	-2486
1038.858	-1868
1038.921	-1597
1038.984	-867
1039.046	-1654
1039.109	-2255
1039.172	-1634
1039.234	-1493
1039.297	-1437
1039.360	-1579
1039.422	-2587
1039.485	-1212
1039.547	-2084
1039.610	-974
1039.672	-2226
1039.734	-1517
1039.797	-2037
1039.859	-1281
1039.922	-2233
1039.984	-1677
1040.046	-2161
1040.109	-1520
1040.171	-2355
1040.233	-1836
1040.295	-2233
1040.358	-1216
1040.420	-1445
1040.482	-1281
1040.544	-2242
1040.606	-1892
1040.668	-2085
1040.730	-1040
1040.792	-1691
1040.854	-2174
1040.916	-718
1040.978	-1862
1041.040	-1803
1041.102	-2358
1041.164	-1430
1041.225	-2414
1041.287	-2651
1041.349	-1233
1041.411	-1865
1041.472	-1430
1041.534	-2399
1041.596	-1942
1041.657	-1836
1041.719	-2058
1041.781	-1712
1041.842	-1317
1041.904	-1833
1041.965	-1768
1042.027	-1437
1042.088	-1875
1042.150	-1602
1042.211	-1310
1042.272	-1263
1042.334	-2452
1042.395	-1926
1042.456	-2113
1042.518	-2267
1042.579	-518
1042.640	-1112
1042.701	-1930
1042.763	-2264
1042.824	-2052
1042.885	-2307
1042.946	-1732
1043.007	-1907
1043.068	-2048
1043.129	-1771
1043.190	-2204
1043.251	-984
1043.312	-1715
1043.373	-2559
1043.434	-1391
1043.495	-1655
1043.556	-904
1043.616	-1383
1043.677	-1681
1043.738	-1519
1043.799	-1891
1043.859	-1214
1043.920	-2319
1043.981	-1670
1044.041	-2178
1044.102	-1319
1044.162	-1767
1044.223	-2152
1044.284	-727
1044.344	-2244
1044.405	-2484
1044.465	-2110
1044.525	-830
1044.586	-941
1044.646	-1629
1044.707	-1330
1044.767	-1182
1044.827	-1221
1044.887	-1134
1044.948	-1385
1045.008	-821
1045.068	-2074
1045.128	-1445
1045.188	-1724
1045.249	-1125
1045.309	-1744
1045.369	-1983
1045.429	-779
1045.489	-1232
1045.549	-1799
1045.609	-1441
1045.669	-1256
1045.729	-2157
1045.789	-1236
1045.848	-1653
1045.908	-1122
1045.968	-934
1046.028	-1543
1046.088	-822
1046.147	-1451
1046.207	-853
1046.267	-1744
1046.326	-1125
1046.386	-1195
1046.446	-745
1046.505	-994
1046.565	-338
1046.624	-932
1046.684	312
1046.743	-853
1046.803	-657
1046.862	-795
1046.922	0
