'Start Wavelength	183.907
'End Wavelength	1046.922
'Gate Delay	5.000
'Gate Width (ms)	1.050
'Laser Output Level	0.000
'X Position	0.000
'Y Position	0.000
'Z Position	0.000
'Grid Point Number	1.000
'Shot Number	100.000
183.907	148.000
183.977	240.000
184.047	443
184.116	390
184.186	929
184.256	-20
184.325	523
184.395	146
184.465	239
184.534	308
184.604	887
184.674	639
184.743	289
184.813	169
184.883	931
184.952	421
185.022	235
185.092	1524
185.161	937
185.231	1203
185.301	1290
185.370	698
185.440	-148
185.509	-620
185.579	132
185.649	451
185.718	315
185.788	1186
185.857	337
185.927	-430
185.996	251
186.066	284
186.136	99
186.205	-139
186.275	665
186.344	115
186.414	338
186.483	-47
186.553	824
186.622	1758
186.692	126
186.761	485
186.831	-256
186.900	432
186.970	681
187.039	989
187.109	2088
187.178	1422
187.248	647
187.317	2171
187.387	420
187.456	1028
187.526	3197
187.595	2332
187.664	733
187.734	1573
187.803	1825
187.873	1377
187.942	2209
188.012	679
188.081	1323
188.150	1987
188.220	2651
188.289	2378
188.358	670
188.428	589
188.497	872
188.567	406
188.636	982
188.705	1348
188.775	1596
188.844	878
188.913	1578
188.983	1222
189.052	1524
189.121	895
189.191	2035
189.260	4525
189.329	4305
189.399	3709
189.468	2336
189.537	1167
189.606	2288
189.676	1785
189.745	1870
189.814	1934
189.883	2431
189.953	2855
190.022	5804
190.091	17043
190.161	22903
190.230	7379
190.299	3012
190.368	3011
190.437	2734
190.507	2617
190.576	2644
190.645	1292
190.714	1897
190.783	1222
190.853	2640
190.922	2057
190.991	2275
191.060	2231
191.129	1131
191.198	2126
191.268	1077
191.337	1631
191.406	1646
191.475	1214
191.544	120
191.613	1505
191.682	740
191.752	1070
191.821	2007
191.890	1359
191.959	1543
192.028	1698
192.097	1633
192.166	1393
192.235	784
192.304	967
192.373	756
192.442	581
192.511	911
192.580	776
192.650	1380
192.719	1246
192.788	1656
192.857	2221
192.926	2094
192.995	1964
193.064	4097
193.133	4970
193.202	5198
193.271	4721
193.340	3230
193.409	4090
193.478	4701
193.547	5770
193.615	8292
193.684	8573
193.753	4686
193.822	3449
193.891	2525
193.960	2700
194.029	2196
194.098	2239
194.167	1883
194.236	2654
194.305	1904
194.374	1770
194.443	1502
194.512	2029
194.580	2224
194.649	2959
194.718	3096
194.787	2423
194.856	1600
194.925	2583
194.994	1988
195.062	2187
195.131	2748
195.200	2847
195.269	3170
195.338	2620
195.407	2072
195.475	3763
195.544	3169
195.613	3659
195.682	2005
195.751	3423
195.819	3765
195.888	2788
195.957	3800
196.026	3758
196.094	3166
196.163	3720
196.232	3177
196.301	2734
196.369	3493
196.438	3090
196.507	1919
196.576	2904
196.644	2261
196.713	1930
196.782	2803
196.850	2443
196.919	2607
196.988	2984
197.056	2183
197.125	3276
197.194	2654
197.262	2479
197.331	1874
197.400	2942
197.468	3307
197.537	3100
197.606	3852
197.674	8581
197.743	23077
197.812	9239
197.880	20867
197.949	13778
198.017	19067
198.086	12250
198.155	5995
198.223	8770
198.292	25425
198.360	11331
198.429	6401
198.497	6132
198.566	14974
198.635	23680
198.703	7568
198.772	8791
198.840	30826
198.909	30079
198.977	8648
199.046	6927
199.114	5692
199.183	5899
199.251	3945
199.320	3352
199.388	2078
199.457	2840
199.525	3554
199.594	2994
199.662	3639
199.731	3246
199.799	3263
199.867	3021
199.936	3115
200.004	3498
200.073	2879
200.141	2602
200.210	2546
200.278	2582
200.346	3060
200.415	3506
200.483	3295
200.552	2184
200.620	2593
200.688	3624
200.757	3342
200.825	2825
200.893	2769
200.962	2946
201.030	2466
201.098	3501
201.167	3531
201.235	2877
201.303	4059
201.372	3139
201.440	3175
201.508	2492
201.577	3122
201.645	3560
201.713	2872
201.781	2798
201.850	3140
201.918	4335
201.986	3225
202.055	3641
202.123	3733
202.191	3620
202.259	3510
202.327	2971
202.396	3535
202.464	3613
202.532	4543
202.600	13819
202.669	7029
202.737	3840
202.805	3484
202.873	3699
202.941	4458
203.009	2938
203.078	2741
203.146	3586
203.214	2862
203.282	3421
203.350	3890
203.418	3300
203.487	3899
203.555	3416
203.623	2892
203.691	3592
203.759	3673
203.827	3395
203.895	3851
203.963	4242
204.031	3328
204.099	3931
204.168	3412
204.236	4876
204.304	4787
204.372	4073
204.440	4392
204.508	3977
204.576	3666
204.644	4377
204.712	3676
204.780	3993
204.848	4748
204.916	3849
204.984	4260
205.052	4697
205.120	3992
205.188	4134
205.256	3893
205.324	4622
205.392	5123
205.460	6786
205.528	9029
205.596	4717
205.664	5426
205.732	8123
205.799	31090
205.867	49418
205.935	12856
206.003	7497
206.071	6111
206.139	8888
206.207	6029
206.275	5564
206.343	5185
206.411	4340
206.478	4815
206.546	6768
206.614	5849
206.682	4793
206.750	4456
206.818	5793
206.885	6117
206.953	4276
207.021	4661
207.089	4863
207.157	5656
207.225	6407
207.292	5679
207.360	6467
207.428	5809
207.496	5026
207.563	4069
207.631	4917
207.699	4176
207.767	4896
207.834	4795
207.902	5930
207.970	4643
208.038	5396
208.105	5343
208.173	8179
208.241	12088
208.309	8713
208.376	8484
208.444	18651
208.512	12176
208.579	5855
208.647	6736
208.715	6967
208.782	5452
208.850	5706
208.918	5802
208.985	6532
209.053	6140
209.120	5695
209.188	4900
209.256	5628
209.323	5962
209.391	9167
209.459	7453
209.526	7010
209.594	6061
209.661	6445
209.729	6050
209.796	5895
209.864	5733
209.932	5604
209.999	6913
210.067	7480
210.134	6797
210.202	7164
210.269	9231
210.337	8045
210.404	6691
210.472	6377
210.539	6178
210.607	6926
210.674	8472
210.742	6651
210.809	6607
210.877	8364
210.944	8679
211.012	7431
211.079	8326
211.146	7283
211.214	7532
211.281	8751
211.349	8030
211.416	8259
211.484	8662
211.551	7460
211.618	7623
211.686	8014
211.753	7229
211.821	7967
211.888	7259
211.955	8801
212.023	8047
212.090	10292
212.157	10703
212.225	13574
212.292	30801
212.359	67683
212.427	155626
212.494	70319
212.561	25442
212.629	17457
212.696	12663
212.763	11864
212.831	9831
212.898	8934
212.965	8321
213.032	8769
213.100	9404
213.167	8169
213.234	10053
213.301	8187
213.369	7767
213.436	8273
213.503	7984
213.570	9822
213.638	9852
213.705	8196
213.772	6581
213.839	10427
213.906	10094
213.973	10385
214.041	8313
214.108	8362
214.175	8544
214.242	8269
214.309	8464
214.376	8454
214.444	8841
214.511	9677
214.578	8684
214.645	9339
214.712	8520
214.779	8822
214.846	9414
214.913	10979
214.980	10081
215.048	11186
215.115	11517
215.182	10473
215.249	9393
215.316	9310
215.383	8658
215.450	7359
215.517	7562
215.584	7593
215.651	7395
215.718	7851
215.785	9430
215.852	8513
215.919	9078
215.986	9820
216.053	8162
216.120	7501
216.187	10167
216.254	9371
216.321	9481
216.388	10458
216.455	10689
216.522	9175
216.589	11798
216.656	20129
216.722	21027
216.789	13054
216.856	13941
216.923	11517
216.990	11286
217.057	10598
217.124	12676
217.191	12242
217.258	13415
217.324	17299
217.391	17659
217.458	14231
217.525	11353
217.592	11848
217.659	10689
217.725	12782
217.792	19022
217.859	16334
217.926	8946
217.993	8707
218.059	7948
218.126	8217
218.193	7752
218.260	6933
218.327	7954
218.393	8245
218.460	7638
218.527	7182
218.594	10385
218.660	17955
218.727	18301
218.794	8892
218.860	8603
218.927	7431
218.994	7736
219.061	8054
219.127	9634
219.194	15940
219.261	9124
219.327	7440
219.394	8316
219.461	6594
219.527	6932
219.594	13150
219.661	9861
219.727	7102
219.794	7899
219.860	7736
219.927	8919
219.994	11371
220.060	19900
220.127	12964
220.193	10915
220.260	11560
220.326	15392
220.393	22699
220.460	28004
220.526	19434
220.593	14703
220.659	15809
220.726	20556
220.792	60713
220.859	41740
220.925	39355
220.992	51296
221.058	70029
221.125	84171
221.191	65645
221.258	24321
221.324	16146
221.391	13921
221.457	12405
221.524	13104
221.590	22616
221.657	88574
221.723	59613
221.789	54110
221.856	44733
221.922	24758
221.989	15233
222.055	12378
222.121	10914
222.188	11142
222.254	10227
222.321	9275
222.387	8442
222.453	8263
222.520	8332
222.586	7668
222.652	7486
222.719	8416
222.785	8760
222.851	7594
222.918	7413
222.984	7264
223.050	7858
223.116	6793
223.183	8308
223.249	6858
223.315	6688
223.382	6413
223.448	5902
223.514	6213
223.580	5859
223.647	6701
223.713	7310
223.779	6675
223.845	6205
223.911	7108
223.978	6116
224.044	6854
224.110	7188
224.176	7120
224.242	6463
224.309	6590
224.375	6036
224.441	6186
224.507	6503
224.573	5660
224.639	6233
224.705	5334
224.772	6010
224.838	6221
224.904	8559
224.970	6041
225.036	7215
225.102	7097
225.168	7248
225.234	6510
225.300	7119
225.366	7408
225.432	6864
225.499	6621
225.565	7205
225.631	9042
225.697	8996
225.763	10432
225.829	12607
225.895	12745
225.961	22838
226.027	18476
226.093	15876
226.159	17685
226.225	23549
226.291	50220
226.357	77076
226.423	39491
226.489	25081
226.554	17074
226.620	17326
226.686	21075
226.752	29103
226.818	48254
226.884	111261
226.950	90660
227.016	35190
227.082	22672
227.148	17690
227.214	16721
227.279	14338
227.345	11075
227.411	11469
227.477	9529
227.543	13846
227.609	17921
227.674	12276
227.740	9646
227.806	11876
227.872	12360
227.938	10824
228.003	14444
228.069	9042
228.135	8406
228.201	8666
228.267	8204
228.332	9571
228.398	13959
228.464	9797
228.530	7739
228.595	7657
228.661	8779
228.727	14585
228.792	10613
228.858	8485
228.924	10517
228.990	16050
229.055	12676
229.121	14528
229.187	9302
229.252	10164
229.318	8094
229.384	8717
229.449	10122
229.515	7015
229.581	5234
229.646	8215
229.712	9226
229.777	23846
229.843	23999
229.909	16446
229.974	15808
230.040	16125
230.105	15296
230.171	17725
230.236	26880
230.302	43697
230.368	27454
230.433	17206
230.499	15647
230.564	15078
230.630	11838
230.695	10755
230.761	10734
230.826	9904
230.892	15328
230.957	11548
231.023	9027
231.088	11116
231.154	10361
231.219	9649
231.284	15498
231.350	15215
231.415	9690
231.481	8923
231.546	8772
231.612	8708
231.677	7787
231.742	8510
231.808	9411
231.873	7421
231.939	8002
232.004	16301
232.069	15100
232.135	11073
232.200	10020
232.265	9571
232.331	8159
232.396	7907
232.461	7379
232.527	7989
232.592	8703
232.657	8295
232.723	21152
232.788	14739
232.853	8741
232.918	7520
232.984	8077
233.049	8205
233.114	19134
233.179	17243
233.245	28287
233.310	35181
233.375	10890
233.440	10341
233.506	9537
233.571	8682
233.636	8343
233.701	8668
233.766	23026
233.832	27270
233.897	11378
233.962	10279
234.027	11040
234.092	9709
234.157	10207
234.222	11807
234.288	22288
234.353	76257
234.418	56194
234.483	28397
234.548	19988
234.613	16031
234.678	15586
234.743	20030
234.808	69891
234.873	42211
234.938	16514
235.004	14123
235.069	13740
235.134	13296
235.199	12698
235.264	10876
235.329	10742
235.394	12446
235.459	17098
235.524	16036
235.589	12410
235.654	10836
235.719	10439
235.784	11219
235.849	15525
235.913	36114
235.978	38865
236.043	42914
236.108	18063
236.173	16725
236.238	16776
236.303	12510
236.368	12588
236.433	24567
236.498	45187
236.563	26015
236.627	45235
236.692	153977
236.757	117650
236.822	50653
236.887	41900
236.952	30729
237.017	26926
237.081	27023
237.146	32819
237.211	64028
237.276	159257
237.341	262658
237.405	116210
237.470	48288
237.535	39287
237.600	25787
237.664	20828
237.729	18140
237.794	21941
237.859	35630
237.923	33737
237.988	20852
238.053	31454
238.118	34481
238.182	104621
238.247	82181
238.312	39181
238.376	25726
238.441	22823
238.506	19322
238.570	12624
238.635	13113
238.700	11640
238.764	13198
238.829	44110
238.893	51596
238.958	20227
239.023	18496
239.087	13048
239.152	15668
239.216	11330
239.281	11825
239.346	10485
239.410	12774
239.475	18410
239.539	98261
239.604	75905
239.668	20636
239.733	14506
239.797	15132
239.862	25936
239.926	68252
239.991	26012
240.055	13937
240.120	11724
240.184	12047
240.249	11825
240.313	11545
240.378	13871
240.442	55311
240.507	91412
240.571	26612
240.635	44756
240.700	49322
240.764	16903
240.829	12975
240.893	10141
240.957	14905
241.022	52479
241.086	87819
241.151	37809
241.215	15096
241.279	23152
241.344	44781
241.408	20810
241.472	15514
241.537	16464
241.601	15146
241.665	14098
241.730	14812
241.794	16626
241.858	14127
241.922	13617
241.987	14880
242.051	13201
242.115	13283
242.179	12477
242.244	12376
242.308	14753
242.372	16121
242.436	20784
242.501	15349
242.565	13814
242.629	12434
242.693	12887
242.757	11933
242.822	14286
242.886	15217
242.950	15287
243.014	18437
243.078	16342
243.142	15689
243.206	17966
243.271	22406
243.335	24169
243.399	44883
243.463	189072
243.527	414413
243.591	122645
243.655	45610
243.719	29522
243.783	29011
243.847	51086
243.911	64057
243.975	50079
244.040	31003
244.104	19956
244.168	16684
244.232	23460
244.296	39119
244.360	53040
244.424	25712
244.488	22035
244.552	19455
244.615	15625
244.679	13559
244.743	17096
244.807	16882
244.871	11864
244.935	11693
244.999	11228
245.063	13203
245.127	16087
245.191	39585
245.255	35026
245.319	18420
245.383	16654
245.446	15434
245.510	10885
245.574	12348
245.638	13419
245.702	14922
245.766	34532
245.829	20567
245.893	19368
245.957	15134
246.021	14767
246.085	16523
246.149	22879
246.212	47716
246.276	75273
246.340	30016
246.404	21882
246.467	22856
246.531	34550
246.595	22672
246.659	19979
246.722	18544
246.786	20437
246.850	23365
246.913	29293
246.977	16315
247.041	16345
247.104	17938
247.168	17648
247.232	43975
247.295	101472
247.359	42029
247.423	22114
247.486	35874
247.550	21169
247.614	18846
247.677	21404
247.741	16982
247.804	14912
247.868	19576
247.932	41902
247.995	89567
248.059	31897
248.122	18133
248.186	22839
248.249	40857
248.313	161851
248.376	145827
248.440	96772
248.503	35322
248.567	28059
248.630	39601
248.694	49326
248.757	66702
248.821	168059
248.884	78917
248.948	87430
249.011	122763
249.075	200078
249.138	154012
249.202	54760
249.265	41103
249.328	66362
249.392	40318
249.455	30093
249.519	25726
249.582	30200
249.645	44655
249.709	36156
249.772	34133
249.835	30813
249.899	36694
249.962	27652
250.025	28038
250.089	68562
250.152	78728
250.215	39204
250.279	33906
250.342	36548
250.405	36027
250.468	34247
250.532	48763
250.595	95015
250.658	403218
250.721	586666
250.785	187447
250.848	89970
250.911	60821
250.974	53518
251.038	67809
251.101	114252
251.164	66716
251.227	63064
251.290	68287
251.354	132633
251.417	538942
251.480	498290
251.543	383239
251.606	941438
251.669	678917
251.732	254894
251.795	214690
251.859	244991
251.922	597860
251.985	309326
252.048	112490
252.111	80715
252.174	71967
252.237	108332
252.300	227822
252.363	324023
252.426	697254
252.489	270891
252.552	130489
252.615	92543
252.678	89920
252.741	190429
252.804	336167
252.867	737023
252.930	357739
252.993	163070
253.056	93334
253.119	73741
253.182	69303
253.245	144824
253.308	87179
253.371	64578
253.434	56104
253.497	50947
253.559	95734
253.622	61242
253.685	70342
253.748	60910
253.811	36349
253.874	56973
253.937	50417
254.000	33253
254.062	63242
254.125	94524
254.188	70505
254.251	58629
254.314	34489
254.376	58553
254.439	56724
254.502	46074
254.565	64444
254.628	101092
254.690	52759
254.753	30595
254.816	27577
254.878	34902
254.941	73337
255.004	68864
255.067	31320
255.129	26768
255.192	17792
255.255	15607
255.317	19382
255.380	16372
255.443	12352
255.505	13207
255.568	13895
255.631	14085
255.693	13680
255.756	11910
255.819	13064
255.881	11575
255.944	11730
256.006	13810
256.069	13472
256.132	13557
256.194	22718
256.257	74579
256.319	50655
256.382	45983
256.444	21953
256.507	18191
256.569	16651
256.632	20243
256.694	37695
256.757	80924
256.819	214528
256.882	90993
256.944	37698
257.007	27623
257.069	31386
257.132	23251
257.194	18846
257.257	17357
257.319	18175
257.381	23240
257.444	62002
257.506	271867
257.569	244673
257.631	100523
257.693	59597
257.756	39753
257.818	38025
257.880	22144
257.943	18355
258.005	16390
258.067	15215
258.130	15687
258.192	19326
258.254	43182
258.317	26117
258.379	18201
258.441	49278
258.503	47389
258.566	93206
258.628	110075
258.690	27441
258.753	23462
258.815	35474
258.877	22290
258.939	16874
259.001	15971
259.064	15601
259.126	25908
259.188	33551
259.250	21127
259.312	24911
259.375	45345
259.437	30068
259.499	16998
259.561	15943
259.623	17155
259.685	17089
259.747	22883
259.809	92205
259.872	160996
259.934	250604
259.996	168539
260.058	42811
260.120	25624
260.182	20874
260.244	17137
260.306	15369
260.368	15629
260.430	14836
260.492	24572
260.554	41611
260.616	37174
260.678	106096
260.740	146098
260.802	35436
260.864	24383
260.926	21009
260.988	20615
261.050	20174
261.112	41712
261.174	149841
261.236	119631
261.298	35764
261.359	73558
261.421	91820
261.483	26688
261.545	20754
261.607	15180
261.669	17762
261.731	45635
261.793	89144
261.854	31841
261.916	21521
261.978	18232
262.040	21923
262.102	20521
262.164	38649
262.225	26681
262.287	16744
262.349	37569
262.411	28160
262.472	18825
262.534	49999
262.596	96901
262.658	28767
262.719	18649
262.781	30632
262.843	95704
262.904	39337
262.966	31892
263.028	53881
263.090	276845
263.151	604755
263.213	159207
263.275	62795
263.336	36672
263.398	27195
263.459	19718
263.521	18720
263.583	34730
263.644	22410
263.706	13044
263.767	12230
263.829	10685
263.891	9001
263.952	9429
264.014	9235
264.075	15020
264.137	26736
264.198	15531
264.260	9657
264.321	10294
264.383	24420
264.444	44584
264.506	15530
264.567	12884
264.629	22159
264.690	35057
264.752	16171
264.813	12797
264.875	11153
264.936	12121
264.998	10011
265.059	10162
265.120	12035
265.182	20459
265.243	96970
265.305	83873
265.366	22161
265.427	14877
265.489	13428
265.550	10954
265.611	13516
265.673	11508
265.734	9294
265.795	8565
265.857	10265
265.918	13256
265.979	31686
266.040	173013
266.102	122358
266.163	33190
266.224	25699
266.286	15952
266.347	12503
266.408	12729
266.469	16757
266.530	11944
266.592	10075
266.653	21526
266.714	31265
266.775	12051
266.836	8826
266.898	8789
266.959	14762
267.020	9916
267.081	9237
267.142	8723
267.203	8980
267.264	7378
267.326	10442
267.387	8458
267.448	7441
267.509	9114
267.570	8509
267.631	7780
267.692	7906
267.753	10064
267.814	9914
267.875	21803
267.936	42839
267.997	20091
268.058	16900
268.119	11708
268.180	11091
268.241	8974
268.302	9174
268.363	8008
268.424	9933
268.485	13161
268.546	8275
268.607	7061
268.668	7736
268.729	7416
268.790	10588
268.851	11464
268.912	27398
268.972	28429
269.033	16559
269.094	9487
269.155	8697
269.216	9753
269.277	13860
269.338	9605
269.398	9466
269.459	11137
269.520	14999
269.581	18094
269.642	20003
269.702	14565
269.763	13132
269.824	11305
269.885	14868
269.945	19362
270.006	10464
270.067	9481
270.128	9858
270.188	8880
270.249	9327
270.310	8537
270.370	9502
270.431	12981
270.492	9147
270.553	10388
270.613	20640
270.674	39622
270.734	17880
270.795	11949
270.856	15537
270.916	13484
270.977	10735
271.038	12204
271.098	12681
271.159	20064
271.219	20380
271.280	10132
271.340	10520
271.401	17483
271.462	47921
271.522	20182
271.583	13731
271.643	14629
271.704	12007
271.764	15188
271.825	33841
271.885	126140
271.946	163580
272.006	45219
272.066	81723
272.127	135663
272.187	34992
272.248	23460
272.308	28239
272.369	98693
272.429	46892
272.489	33101
272.550	29039
272.610	29403
272.671	23717
272.731	32827
272.791	54038
272.852	22118
272.912	18979
272.972	12592
273.033	13794
273.093	25407
273.153	18927
273.214	13821
273.274	18329
273.334	65120
273.394	119842
273.455	39499
273.515	42902
273.575	93431
273.635	37993
273.696	68891
273.756	132457
273.816	43908
273.876	30331
273.936	98135
273.997	150335
274.057	34380
274.117	25330
274.177	36961
274.237	154677
274.297	135186
274.358	106233
274.418	101326
274.478	62448
274.538	30027
274.598	36519
274.658	139619
274.718	161398
274.778	53182
274.838	32779
274.898	88129
274.958	237783
275.018	160815
275.078	82967
275.138	33851
275.198	22641
275.258	18630
275.318	25848
275.378	35795
275.438	30356
275.498	29660
275.558	116204
275.618	195886
275.678	86021
275.738	43861
275.798	31639
275.858	19844
275.918	13782
275.978	15963
276.038	14420
276.098	12717
276.157	26467
276.217	62003
276.277	29226
276.337	19992
276.397	13105
276.457	15974
276.517	12625
276.576	10487
276.636	11194
276.696	18986
276.756	46435
276.815	30800
276.875	14838
276.935	19038
276.995	14782
277.055	10545
277.114	10876
277.174	18919
277.234	51220
277.293	22348
277.353	13065
277.413	10855
277.472	12451
277.532	12429
277.592	13648
277.651	38501
277.711	58415
277.771	25372
277.830	82134
277.890	60164
277.950	63055
278.009	166665
278.069	52743
278.128	48964
278.188	58767
278.248	31015
278.307	68495
278.367	42671
278.426	20369
278.486	15519
278.545	12806
278.605	11764
278.664	12827
278.724	17031
278.783	53940
278.843	126218
278.902	34162
278.962	21130
279.021	21739
279.081	36802
279.140	31034
279.199	21335
279.259	20896
279.318	22443
279.378	31646
279.437	62081
279.496	210679
279.556	738316
279.615	518196
279.675	121668
279.734	73733
279.793	106252
279.853	140850
279.912	52083
279.971	31389
280.031	27167
280.090	48483
280.149	80631
280.208	99734
280.268	513186
280.327	461810
280.386	100472
280.445	68951
280.505	58266
280.564	33051
280.623	26593
280.682	37186
280.742	46625
280.801	18537
280.860	14638
280.919	13120
280.978	12189
281.037	13482
281.097	11440
281.156	10801
281.215	11914
281.274	18478
281.333	76559
281.392	52695
281.451	16072
281.510	11744
281.569	12099
281.628	11986
281.688	11062
281.747	11288
281.806	11816
281.865	8806
281.924	9356
281.983	9425
282.042	7250
282.101	7557
282.160	7996
282.219	7680
282.278	10672
282.337	32193
282.396	19766
282.454	10641
282.513	14200
282.572	46127
282.631	24348
282.690	10878
282.749	9516
282.808	12908
282.867	12128
282.926	11187
282.985	7968
283.043	7208
283.102	8154
283.161	13519
283.220	32704
283.279	60072
283.338	18204
283.396	12492
283.455	10833
283.514	11633
283.573	18989
283.631	14036
283.690	9416
283.749	10032
283.808	20545
283.866	21470
283.925	9663
283.984	10519
284.043	13561
284.101	14339
284.160	9806
284.219	17372
284.277	12990
284.336	22743
284.395	64915
284.453	50914
284.512	17150
284.570	21385
284.629	18031
284.688	14779
284.746	14455
284.805	15592
284.863	19419
284.922	21726
284.981	24905
285.039	36962
285.098	73903
285.156	213017
285.215	717015
285.273	599371
285.332	199217
285.390	96385
285.449	63893
285.507	44696
285.566	35719
285.624	27964
285.683	20205
285.741	16759
285.799	14439
285.858	16139
285.916	14011
285.975	10532
286.033	10136
286.091	9730
286.150	10506
286.208	10802
286.267	13691
286.325	13098
286.383	16913
286.442	15341
286.500	10305
286.558	10039
286.616	8942
286.675	12505
286.733	11628
286.791	11164
286.850	13476
286.908	18190
286.966	24847
287.024	12691
287.083	11425
287.141	10241
287.199	11244
287.257	16194
287.315	13511
287.374	16642
287.432	30100
287.490	20863
287.548	15351
287.606	15061
287.664	15445
287.723	21789
287.781	26915
287.839	22411
287.897	28773
287.955	43189
288.013	85081
288.071	209089
288.129	727505
288.187	1534215
288.245	727871
288.303	255170
288.361	145289
288.419	108263
288.477	76279
288.535	54130
288.593	39328
288.651	28191
288.709	21526
288.767	19903
288.825	16647
288.883	15400
288.941	14490
288.999	13827
289.057	12166
289.115	12055
289.173	12270
289.231	12663
289.289	14432
289.346	13735
289.404	12590
289.462	17807
289.520	17434
289.578	10908
289.636	8460
289.694	7773
289.751	8405
289.809	7996
289.867	8409
289.925	10069
289.983	11780
290.040	7788
290.098	7840
290.156	9819
290.214	10095
290.271	8241
290.329	6852
290.387	6146
290.444	5807
290.502	5470
290.560	5471
290.617	7314
290.675	8339
290.733	7308
290.790	8723
290.848	7841
290.906	10471
290.963	9222
291.021	8267
291.078	8797
291.136	9718
291.194	25101
291.251	46608
291.309	13730
291.366	7109
291.424	6392
291.481	6831
291.539	6638
291.596	6439
291.654	4762
291.711	5442
291.769	7615
291.826	15475
291.884	9646
291.941	5919
291.999	6708
292.056	7741
292.114	7259
292.171	6221
292.228	6236
292.286	8416
292.343	17703
292.401	22400
292.458	15693
292.515	10657
292.573	10103
292.630	11582
292.687	13399
292.745	9093
292.802	13174
292.859	28987
292.917	55414
292.974	29320
293.031	11363
293.089	9585
293.146	8081
293.203	7138
293.260	6456
293.318	9289
293.375	10517
293.432	7009
293.489	6352
293.546	8583
293.604	16261
293.661	52716
293.718	123390
293.775	47016
293.832	21494
293.889	15855
293.947	16421
294.004	11676
294.061	13789
294.118	24538
294.175	46354
294.232	44344
294.289	18319
294.346	12649
294.403	13850
294.460	15853
294.517	11986
294.574	8894
294.631	9622
294.688	14603
294.745	38392
294.802	132214
294.859	98841
294.916	36860
294.973	22984
295.030	19491
295.087	15871
295.144	11693
295.201	10554
295.258	10968
295.315	16349
295.372	52003
295.429	95323
295.486	34839
295.542	21268
295.599	40407
295.656	57773
295.713	49370
295.770	74596
295.827	26784
295.883	14920
295.940	13997
295.997	21845
296.054	19142
296.111	9947
296.167	8886
296.224	6453
296.281	6500
296.338	6708
296.394	7477
296.451	13330
296.508	36657
296.564	60829
296.621	43519
296.678	110672
296.734	145188
296.791	43952
296.848	24640
296.904	25803
296.961	48824
297.018	94126
297.074	66557
297.131	26121
297.187	21155
297.244	35406
297.301	119946
297.357	196869
297.414	59677
297.470	24268
297.527	16949
297.583	14659
297.640	13966
297.696	11417
297.753	8769
297.809	7899
297.866	6941
297.922	7068
297.979	7935
298.035	10248
298.092	17752
298.148	51532
298.204	44404
298.261	25711
298.317	48988
298.374	135502
298.430	70187
298.486	36408
298.543	27585
298.599	25153
298.656	29231
298.712	55219
298.768	173788
298.824	126881
298.881	37424
298.937	19971
298.993	16462
299.050	17110
299.106	15046
299.162	11388
299.218	11922
299.275	11200
299.331	15988
299.387	32262
299.443	117222
299.500	101024
299.556	30640
299.612	17097
299.668	14526
299.724	13439
299.780	12143
299.837	13153
299.893	23417
299.949	76295
300.005	82077
300.061	75943
300.117	145391
300.173	63792
300.229	29127
300.285	31929
300.341	31881
300.397	17987
300.453	12228
300.510	10093
300.566	10568
300.622	12305
300.678	23796
300.734	51413
300.790	72450
300.845	104732
300.901	50738
300.957	61710
301.013	47954
301.069	19922
301.125	16266
301.181	15847
301.237	12814
301.293	8673
301.349	8338
301.405	8092
301.461	8210
301.516	10983
301.572	11179
301.628	18743
301.684	17765
301.740	30887
301.796	45919
301.851	30040
301.907	52539
301.963	63238
302.019	123331
302.074	334363
302.130	299815
302.186	117577
302.242	48192
302.297	33271
302.353	33182
302.409	55362
302.464	46322
302.520	41632
302.576	102749
302.631	107029
302.687	49903
302.743	21520
302.798	15279
302.854	12682
302.910	12534
302.965	16591
303.021	26812
303.076	23528
303.132	29352
303.187	31030
303.243	16213
303.299	10187
303.354	9135
303.410	8667
303.465	8337
303.521	7971
303.576	10075
303.632	16511
303.687	33293
303.743	104109
303.798	79573
303.853	28454
303.909	15255
303.964	13352
304.020	19124
304.075	25528
304.130	21660
304.186	38335
304.241	36102
304.297	28959
304.352	15793
304.358	15371
304.407	11946
304.449	10503
304.463	10024
304.518	11278
304.539	11036
304.573	10664
304.629	14593
304.630	14865
304.684	28357
304.720	61699
304.739	78328
304.794	115858
304.811	96392
304.850	48940
304.902	22270
304.905	20654
304.960	15082
304.992	16900
305.015	18162
305.071	15493
305.083	14762
305.126	12075
305.173	8651
305.181	8123
305.236	7611
305.264	8270
305.292	9034
305.347	11448
305.354	11506
305.402	11903
305.445	14026
305.457	14581
305.512	16870
305.535	17225
305.567	17805
305.622	21322
305.626	22200
305.678	44070
305.716	87785
305.733	102998
305.788	112055
305.807	97380
305.843	74115
305.897	107229
305.898	107540
305.953	102309
305.988	65831
306.008	46214
306.063	26181
306.078	23046
306.118	17197
306.168	13057
306.173	12748
306.228	10969
306.259	9971
306.283	9389
306.338	10097
306.349	10343
306.393	11842
306.440	14800
306.448	15190
306.503	15440
306.530	16943
306.558	22707
306.613	50195
306.620	53431
306.668	72461
306.711	88551
306.723	89075
306.778	64925
306.801	48678
306.833	30599
306.888	16362
306.892	15794
306.943	13152
306.982	11943
306.997	11625
307.052	11007
307.072	11473
307.107	14038
307.162	19526
307.163	19636
307.217	32341
307.253	39232
307.272	40372
307.327	42845
307.343	39004
307.381	30477
307.434	27553
307.436	28349
307.491	57836
307.524	83311
307.546	89086
307.600	77746
307.614	68861
307.655	41209
307.704	23847
307.710	23643
307.765	29966
307.795	38856
307.819	49250
307.874	82261
307.885	82524
307.929	62362
307.975	42169
307.984	42605
308.038	60683
308.065	77926
308.093	147312
308.148	319352
308.156	359003
308.202	586538
308.246	722988
308.257	692441
308.312	332872
308.336	204351
308.366	146768
308.421	85827
308.426	80650
308.475	53712
308.517	38325
308.530	36024
308.585	30873
308.607	29470
308.639	30182
308.694	33828
308.697	34390
308.748	69395
308.787	107176
308.803	107522
308.857	79092
308.877	65497
308.912	51991
308.967	43878
308.967	43794
309.021	56806
309.058	69970
309.076	91939
309.130	173976
309.148	207752
309.185	461234
309.238	893076
309.239	896266
309.293	985930
309.328	892397
309.348	741358
309.402	304125
309.418	197562
309.457	131507
309.508	73294
309.511	71813
309.566	57688
309.598	51323
309.620	53145
309.674	61242
309.688	63623
309.729	59248
309.778	49032
309.783	48032
309.837	37537
309.868	33558
309.892	43002
309.946	68797
309.959	76765
310.001	103715
310.049	126854
310.055	122590
310.109	72187
310.139	44735
310.163	36591
310.218	24982
310.229	22972
310.272	19353
310.319	15503
310.326	15299
310.381	14866
310.409	14700
310.435	14299
310.489	13172
310.499	13066
310.543	14356
310.589	15733
310.598	15574
310.652	14816
310.679	13965
310.706	12341
310.760	9285
310.769	8828
310.814	8016
310.859	7453
310.868	7495
310.923	7839
310.948	8115
310.977	9728
311.031	12836
311.038	13267
311.085	12761
311.128	11678
311.139	11365
311.193	10016
311.218	9395
311.247	8804
311.301	7745
311.308	7609
311.356	7917
311.398	8266
311.410	8222
311.464	7864
311.488	7735
311.518	7760
311.572	7782
311.578	7792
311.626	10673
311.668	13169
311.680	13593
311.734	15360
311.758	16100
311.788	15970
311.842	15709
311.847	15651
311.896	17457
311.937	19098
311.950	19097
312.004	18913
312.027	18762
312.058	15763
312.112	10403
312.117	9858
312.165	9251
312.207	8726
312.297	12948
312.386	10869
312.476	11734
312.566	22373
312.656	11822
312.745	7741
312.835	9200
312.925	11210
313.015	10897
313.104	13745
313.194	8057
313.284	9158
313.374	12237
313.463	11555
313.553	7301
313.643	7354
313.732	6406
313.822	6397
313.912	7790
314.001	9303
314.091	10555
314.180	14771
314.270	12192
314.360	16126
314.449	12525
314.539	9034
314.628	7806
314.718	10070
314.808	15226
314.897	7879
314.987	8085
315.076	10370
315.166	14882
315.255	16120
315.345	14183
315.434	16325
315.524	12890
315.613	15254
315.703	15284
315.792	18839
315.881	32449
315.971	18156
316.060	28031
316.150	52908
316.239	55076
316.328	21180
316.418	9257
316.507	9161
316.597	12919
316.686	12722
316.775	25137
316.865	62098
316.954	12898
317.043	7285
317.133	8018
317.222	6892
317.311	7142
317.400	7220
317.490	11605
317.579	13244
317.668	8494
317.757	14104
317.847	24568
317.936	59927
318.025	38005
318.114	20418
318.203	16819
318.293	26102
318.382	58084
318.471	40114
318.560	56240
318.649	110966
318.738	25167
318.828	17956
318.917	19019
319.006	26017
319.095	67019
319.184	138965
319.273	73706
319.362	37041
319.451	14714
319.540	14217
319.629	27835
319.718	47196
319.807	25011
319.896	45386
319.985	179936
320.074	65237
320.163	19977
320.252	37898
320.341	21741
320.430	18304
320.519	23677
320.608	14515
320.697	11416
320.786	11899
320.875	14802
320.964	20095
321.053	31280
321.142	44225
321.230	47034
321.319	34629
321.408	78744
321.497	35258
321.586	33695
321.675	51191
321.764	47101
321.852	28158
321.941	43849
322.030	31833
322.119	33036
322.207	87459
322.296	78309
322.385	35630
322.474	35464
322.562	97115
322.651	53085
322.740	38043
322.829	57650
322.917	77130
323.006	37978
323.095	28254
323.183	27560
323.272	42474
323.361	81160
323.449	284727
323.538	93945
323.626	180086
323.715	117228
323.804	44680
323.892	157901
323.981	83155
324.069	27765
324.158	86665
324.246	83093
324.335	21013
324.424	29466
324.512	12399
324.601	13732
324.689	18902
324.778	32550
324.866	56268
324.954	16524
325.043	14273
325.131	32711
325.220	61259
325.308	74703
325.397	48330
325.485	30352
325.574	8583
325.662	8330
325.750	9574
325.839	8374
325.927	8676
326.015	13298
326.104	28307
326.192	42769
326.280	9527
326.369	9806
326.457	11921
326.545	23266
326.634	11273
326.722	7400
326.810	8901
326.898	7407
326.987	9648
327.075	24614
327.163	30826
327.251	16621
327.340	10116
327.428	11708
327.516	7097
327.604	10725
327.692	11597
327.781	15154
327.869	28653
327.957	16301
328.045	12896
328.133	8474
328.221	14510
328.309	10220
328.397	8167
328.485	11722
328.574	16960
328.662	52870
328.750	40108
328.838	17239
328.926	9209
329.014	6848
329.102	11898
329.190	28932
329.278	21079
329.366	6263
329.454	7039
329.542	6950
329.630	7496
329.718	7852
329.806	11235
329.893	11527
329.981	15231
330.069	30780
330.157	113902
330.245	375825
330.333	198796
330.421	31463
330.509	21779
330.597	62860
330.684	43153
330.772	16072
330.860	22376
330.948	26311
331.036	12738
331.123	6060
331.211	7622
331.299	9864
331.387	20152
331.475	38588
331.562	14624
331.650	7868
331.738	10866
331.825	17026
331.913	7428
332.001	7312
332.089	11892
332.176	29929
332.264	80323
332.352	61700
332.439	14097
332.527	10107
332.614	10115
332.702	16308
332.790	9863
332.877	32269
332.965	70369
333.052	16021
333.140	14388
333.228	30737
333.315	10047
333.403	12071
333.490	42981
333.578	33767
333.665	23913
333.753	15103
333.840	9841
333.928	14807
334.015	48917
334.103	71560
334.190	226776
334.278	54233
334.365	18885
334.452	11559
334.540	9958
334.627	14872
334.715	25463
334.802	56935
334.889	327134
334.977	332257
335.064	32940
335.151	13605
335.239	12815
335.326	19206
335.413	85637
335.501	125139
335.588	18035
335.675	10293
335.762	12255
335.850	21625
335.937	19917
336.024	63316
336.111	304476
336.199	111415
336.286	15784
336.373	8282
336.460	7296
336.547	7662
336.635	11401
336.722	9768
336.809	10339
336.896	17057
336.983	48944
337.070	123304
337.157	212829
337.245	204393
337.332	151163
337.419	17973
337.506	10316
337.593	11851
337.680	33917
337.767	107115
337.854	32317
337.941	36144
338.028	58790
338.115	21607
338.202	20195
338.289	51159
338.376	198668
338.463	58703
338.550	61802
338.637	71425
338.724	33702
338.811	55989
338.898	12417
338.984	7082
339.071	9935
339.158	12278
339.245	31124
339.332	21003
339.419	34668
339.506	34489
339.593	6333
339.679	6530
339.766	6239
339.853	9928
339.940	22828
340.027	8043
340.113	8222
340.200	12492
340.287	9692
340.374	11297
340.460	19698
340.547	8648
340.634	16928
340.720	61244
340.807	38097
340.894	7745
340.980	8667
341.067	7378
341.154	8303
341.240	13225
341.327	30359
341.414	12512
341.500	13827
341.587	7799
341.674	7903
341.760	18858
341.847	22967
341.933	7733
342.020	3639
342.106	4501
342.193	7894
342.279	16088
342.366	12067
342.452	20219
342.539	12276
342.625	26423
342.712	67236
342.798	28504
342.885	11568
342.971	4868
343.058	5807
343.144	6123
343.230	6840
343.317	7186
343.403	7511
343.490	5363
343.576	5320
343.662	6924
343.749	9519
343.835	15287
343.921	34116
344.008	209835
344.094	479148
344.180	97888
344.267	29561
344.353	97464
344.439	106099
344.525	35307
344.612	17570
344.698	15243
344.784	10248
344.870	6461
344.957	7420
345.043	12524
345.129	9261
345.215	18568
345.301	11345
345.387	7442
345.474	5325
345.560	6490
345.646	9915
345.732	8542
345.818	9781
345.904	8773
345.990	9368
346.076	12031
346.162	26481
346.249	10335
346.335	6586
346.421	10001
346.507	43553
346.593	153967
346.679	36710
346.765	9074
346.851	6864
346.937	7777
347.023	6679
347.108	8369
347.194	7678
347.280	8212
347.366	12472
347.452	42434
347.538	195794
347.624	122946
347.710	91944
347.796	16181
347.882	8009
347.967	6917
348.053	10139
348.139	7548
348.225	5606
348.311	6263
348.397	5823
348.482	8072
348.568	9774
348.654	5252
348.740	5110
348.825	6616
348.911	17262
348.997	87316
349.083	183546
349.168	30024
349.254	10092
349.340	7967
349.425	5807
349.511	9349
349.597	12917
349.682	23910
349.768	82416
349.854	40844
349.939	9305
350.025	5836
350.110	6290
350.196	4389
350.282	4530
350.367	6619
350.453	18484
350.538	18480
350.624	10715
350.709	8891
350.795	6423
350.880	6281
350.966	8203
351.051	17681
351.137	13189
351.222	8314
351.308	23672
351.393	65422
351.479	19117
351.564	7378
351.649	6406
351.735	5504
351.820	5120
351.906	6129
351.991	12465
352.076	44745
352.162	65437
352.247	13206
352.332	8848
352.418	18815
352.503	26293
352.588	88900
352.673	74068
352.759	17235
352.844	8439
352.929	9257
353.014	13253
353.100	8214
353.185	10450
353.270	20958
353.355	22962
353.441	8265
353.526	11059
353.611	21362
353.696	24925
353.781	13374
353.866	7410
353.952	7480
354.037	20197
354.122	45530
354.207	41042
354.292	15899
354.377	7490
354.462	6709
354.547	10548
354.632	8917
354.717	10654
354.802	11568
354.887	6225
354.972	5338
355.057	5068
355.142	4938
355.227	8443
355.312	14458
355.397	30796
355.482	74713
355.567	37433
355.652	26804
355.737	31005
355.822	100480
355.907	86386
355.991	12607
356.076	7187
356.161	7103
356.246	7267
356.331	10020
356.416	30356
356.501	211976
356.585	227482
356.670	29773
356.755	16003
356.840	25521
356.924	136607
357.009	534218
357.094	189162
357.179	31883
357.263	20495
357.348	18141
357.433	18360
357.517	16129
357.602	13389
357.687	10654
357.771	18761
357.856	61105
357.941	44990
358.025	123324
358.110	564559
358.195	249342
358.279	30226
358.364	19270
358.448	61391
358.533	173100
358.617	124014
358.702	125456
358.787	46065
358.871	23426
358.956	18998
359.040	7873
359.125	6616
359.209	8678
359.294	27320
359.378	46765
359.462	21097
359.547	10665
359.631	10173
359.716	6757
359.800	6535
359.885	12010
359.969	8703
360.053	7335
360.138	7141
360.222	11704
360.306	23102
360.391	18107
360.475	33533
360.559	73138
360.644	67320
360.728	52719
360.812	110827
360.896	331401
360.981	112023
361.065	44785
361.149	13762
361.233	12624
361.318	9182
361.402	11448
361.486	10813
361.570	9075
361.654	13549
361.739	37586
361.823	205575
361.907	340287
361.991	56162
362.075	22280
362.159	45694
362.243	30633
362.327	19402
362.411	17271
362.495	15636
362.580	9269
362.664	6278
362.748	5586
362.832	6751
362.916	9527
363.000	32736
363.084	182258
363.168	376882
363.252	78981
363.336	21448
363.420	29342
363.503	119938
363.587	149100
363.671	25517
363.755	14597
363.839	21517
363.923	11462
364.007	23314
364.091	28680
364.175	44583
364.258	195584
364.342	99562
364.426	36614
364.510	23446
364.594	24739
364.677	51657
364.761	283922
364.845	200623
364.929	44278
365.013	33022
365.096	26284
365.180	35297
365.264	52215
365.347	217238
365.431	90109
365.515	18870
365.598	10102
365.682	8788
365.766	15704
365.849	19312
365.933	12306
366.017	14156
366.100	10377
366.184	6683
366.267	8822
366.351	6363
366.435	5782
366.518	4856
366.602	4831
366.685	6077
366.769	7532
366.852	14321
366.936	25274
367.019	15278
367.103	10650
367.186	21127
367.270	7265
367.353	4630
367.436	5795
367.520	5516
367.603	7855
367.687	13569
367.770	26349
367.853	17805
367.937	62586
368.020	111438
368.104	25049
368.187	20011
368.270	27744
368.353	25637
368.437	46447
368.520	128026
368.603	65385
368.687	71717
368.770	137652
368.853	33203
368.936	25718
369.020	25308
369.103	10952
369.186	7883
369.269	9327
369.352	17866
369.436	24718
369.519	16797
369.602	8836
369.685	9575
369.768	10722
369.851	8742
369.934	5745
370.018	10232
370.101	23243
370.184	18001
370.267	12081
370.350	24439
370.433	39391
370.516	125521
370.599	150733
370.682	37645
370.765	59136
370.848	83785
370.931	182760
371.014	65312
371.097	11964
371.180	8891
371.263	6146
371.346	4209
371.429	5919
371.511	7498
371.594	14386
371.677	22395
371.760	25205
371.843	29789
371.926	185634
372.009	452485
372.091	119956
372.174	71169
372.257	188907
372.340	71113
372.423	36387
372.505	38865
372.588	19880
372.671	49037
372.754	172634
372.836	86259
372.919	49070
373.002	101054
373.085	32975
373.167	23982
373.250	67927
373.332	176609
373.415	273572
373.498	619503
373.580	202476
373.663	258330
373.746	374344
373.828	71909
373.911	24328
373.993	26700
374.076	101227
374.159	102352
374.241	46971
374.324	134921
374.406	94926
374.489	161573
374.571	472208
374.654	178370
374.736	81916
374.819	288301
374.901	421353
374.983	451983
375.066	71924
375.148	21949
375.231	84883
375.313	168521
375.395	55694
375.478	13895
375.560	10950
375.643	18152
375.725	80787
375.807	375497
375.890	294859
375.972	119671
376.054	55712
376.136	103513
376.219	45931
376.301	94135
376.383	299224
376.465	109055
376.548	50800
376.630	70724
376.712	227048
376.794	104922
376.877	13000
376.959	7137
377.041	8863
377.123	18220
377.205	20626
377.287	5825
377.369	5260
377.452	6603
377.534	6261
377.616	6564
377.698	6618
377.780	4907
377.862	7450
377.944	6283
378.026	4273
378.108	5198
378.190	5742
378.272	5119
378.354	3904
378.436	4431
378.518	10860
378.600	37799
378.682	35305
378.764	89832
378.846	70032
378.928	17669
379.010	23160
379.091	13487
379.173	7253
379.255	5728
379.337	10771
379.419	43851
379.501	133898
379.583	54685
379.664	13259
379.746	30202
379.828	80915
379.910	118661
379.991	107902
380.073	19573
380.155	12177
380.237	8740
380.318	6528
380.400	7542
380.482	18289
380.564	28749
380.645	23838
380.727	22397
380.809	14263
380.890	11078
380.972	7021
381.053	7683
381.135	9631
381.217	28489
381.298	87455
381.380	44179
381.461	42957
381.543	232171
381.624	289589
381.706	47789
381.787	20421
381.869	24687
381.951	113603
382.032	474333
382.113	268934
382.195	41666
382.276	23464
382.358	61310
382.439	203665
382.521	250499
382.602	419363
382.684	161211
382.765	249463
382.846	207777
382.928	167252
383.009	91851
383.090	64747
383.172	250333
383.253	396473
383.334	174669
383.416	300995
383.497	148657
383.578	38047
383.659	61103
383.741	227417
383.822	636655
383.903	323040
383.984	161052
384.066	333220
384.147	203797
384.228	36586
384.309	22858
384.390	16430
384.471	11445
384.553	13297
384.634	20033
384.715	21108
384.796	10807
384.877	16459
384.958	76536
385.039	95791
385.120	29805
385.201	13607
385.282	16855
385.363	16863
385.444	16071
385.525	39025
385.606	164825
385.687	144478
385.768	27912
385.849	35930
385.930	195040
386.011	370871
386.092	90373
386.173	17456
386.254	14132
386.335	12420
386.416	15526
386.496	51740
386.577	84411
386.658	30507
386.739	17223
386.820	15411
386.901	12361
386.981	11692
387.062	8647
387.143	19147
387.224	80885
387.304	75821
387.385	24587
387.466	15632
387.547	19658
387.627	13880
387.708	31907
387.789	159578
387.869	218440
387.950	57637
388.031	10194
388.111	9220
388.192	22207
388.273	35295
388.353	22226
388.434	13596
388.514	37490
388.595	203587
388.676	245975
388.756	90030
388.837	74131
388.917	46969
388.998	10308
389.078	10061
389.159	9197
389.239	8748
389.320	15782
389.400	13784
389.480	32028
389.561	95293
389.641	47703
389.722	15891
389.802	24587
389.883	40383
389.963	125247
390.043	83168
390.124	26377
390.204	34500
390.284	99782
390.365	73008
390.445	136966
390.525	614985
390.605	572433
390.686	103305
390.766	23683
390.846	13007
390.927	9309
391.007	9163
391.087	10958
391.167	9640
391.247	8481
391.328	19886
391.408	24904
391.488	14924
391.568	6241
391.648	11399
391.728	15595
391.808	14576
391.888	17645
391.969	47032
392.049	81399
392.129	32552
392.209	39981
392.289	110056
392.369	58454
392.449	37772
392.529	25087
392.609	18929
392.689	28907
392.769	108117
392.849	92772
392.929	50168
393.009	144191
393.089	105471
393.169	51567
393.248	205286
393.328	1084330
393.408	1164644
393.488	201954
393.568	43248
393.648	23861
393.728	17072
393.807	14398
393.887	15976
393.967	15060
394.047	19688
394.127	27831
394.206	52464
394.286	224438
394.366	1144126
394.446	1264162
394.525	255995
394.605	54412
394.685	34874
394.764	56963
394.844	99226
394.924	72304
395.003	24528
395.083	18180
395.163	16518
395.242	15999
395.322	16711
395.402	13156
395.481	17861
395.561	41827
395.640	110360
395.720	79439
395.799	132737
395.879	118278
395.958	80703
396.038	328717
396.117	1500524
396.197	1677517
396.276	407512
396.356	102085
396.435	59645
396.515	38195
396.594	36359
396.673	59669
396.753	268122
396.832	1016507
396.912	703807
396.991	135354
397.070	31860
397.150	17709
397.229	13215
397.308	11777
397.388	14693
397.467	10297
397.546	8505
397.625	8411
397.705	12809
397.784	13209
397.863	7313
397.942	6053
398.022	7540
398.101	33938
398.180	105581
398.259	54692
398.338	13967
398.417	9335
398.497	6976
398.576	7653
398.655	5657
398.734	5053
398.813	6722
398.892	32113
398.971	124602
399.050	63804
399.129	8119
399.208	4489
399.287	4683
399.366	3817
399.445	5159
399.524	5321
399.603	4751
399.682	12359
399.761	36056
399.840	134752
399.919	108831
399.998	14687
400.077	4726
400.156	3713
400.235	6527
400.313	5575
400.392	8149
400.471	40822
400.550	67716
400.629	19447
400.708	7774
400.786	8235
400.865	20977
400.944	23280
401.023	11470
401.102	2687
401.180	3507
401.259	4523
401.338	5783
401.416	9071
401.495	7426
401.574	6378
401.652	4539
401.731	7760
401.810	6563
401.888	3809
401.967	2331
402.046	3858
402.124	6347
402.203	9640
402.281	5680
402.360	7053
402.438	25699
402.517	19682
402.596	7115
402.674	6089
402.753	3464
402.831	4959
402.910	5148
402.988	18022
403.066	59465
403.145	34739
403.223	18428
403.302	44530
403.380	32791
403.459	29343
403.537	12440
403.615	6205
403.694	2346
403.772	3272
403.850	3035
403.929	3142
404.007	2935
404.085	7953
404.164	8018
404.242	5171
404.320	16349
404.398	58989
404.477	92795
404.555	302171
404.633	270658
404.711	60037
404.789	24081
404.868	7112
404.946	4277
405.024	3906
405.102	3961
405.180	3570
405.258	2555
405.336	4759
405.415	4162
405.493	9613
405.571	8225
405.649	3141
405.727	3192
405.805	7087
405.883	5885
405.961	6947
406.039	8881
406.117	4946
406.195	10759
406.273	57537
406.351	228286
406.429	133429
406.507	18095
406.585	6845
406.663	5871
406.740	8816
406.818	7914
406.896	4706
406.974	5952
407.052	17747
407.130	122159
407.208	179823
407.285	34681
407.363	6396
407.441	5528
407.519	4313
407.596	6143
407.674	17656
407.752	53513
407.830	50520
407.907	16987
407.985	6481
408.063	3689
408.141	3307
408.218	6941
408.296	7254
408.373	4631
408.451	5846
408.529	5674
408.606	2918
408.684	2059
408.762	1404
408.839	1826
408.917	2004
408.994	2247
409.072	3396
409.149	1938
409.227	5361
409.304	4858
409.382	3389
409.459	2401
409.537	4664
409.614	5010
409.692	2581
409.769	2740
409.846	4937
409.924	7547
410.001	6666
410.079	4631
410.156	4434
410.233	6507
410.311	10360
410.388	5220
410.465	5331
410.543	6303
410.620	4326
410.697	4426
410.775	5713
410.852	2495
410.929	6111
411.006	8785
411.083	4848
411.161	14655
411.238	15093
411.315	7094
411.392	3645
411.469	7113
411.547	8100
411.624	5105
411.701	5259
411.778	6473
411.855	14426
411.932	7534
412.009	3754
412.086	2739
412.163	4957
412.240	5144
412.317	8213
412.394	7372
412.471	3849
412.548	3002
412.625	3152
412.702	5745
412.779	12134
412.856	9149
412.933	2533
413.010	4721
413.087	9317
413.164	39029
413.241	56515
413.318	13609
413.395	8695
413.471	12646
413.548	6136
413.625	4110
413.702	4828
413.779	5358
413.855	2128
413.932	1257
414.009	2089
414.086	2012
414.162	2154
414.239	6874
414.316	36137
414.393	86145
414.469	32099
414.546	4674
414.623	2953
414.699	3042
414.776	4387
414.853	2531
414.929	3717
415.006	3431
415.082	4711
415.159	3586
415.236	3634
415.312	3768
415.389	8957
415.465	12629
415.542	6365
415.618	4132
415.695	8240
415.771	5465
415.848	4968
415.924	4070
416.000	3046
416.077	2886
416.153	918
416.230	908
416.306	1947
416.383	3296
416.459	3216
416.535	1131
416.612	1202
416.688	2077
416.764	2293
416.841	1954
416.917	2802
416.993	2552
417.069	3764
417.146	7756
417.222	13034
417.298	6552
417.374	2942
417.451	3905
417.527	5095
417.603	6053
417.679	4596
417.755	3729
417.831	1743
417.908	1991
417.984	2186
418.060	1949
418.136	10215
418.212	14053
418.288	5529
418.364	2654
418.440	3089
418.516	5677
418.592	8918
418.668	17044
418.744	24119
418.820	16841
418.896	5477
418.972	1239
419.048	3485
419.124	10692
419.200	8146
419.276	2416
419.352	864
419.428	1719
419.504	4097
419.579	5682
419.655	3392
419.731	4349
419.807	16247
419.883	29568
419.959	21637
420.034	5822
420.110	12413
420.186	52037
420.262	40861
420.337	6492
420.413	5339
420.489	2988
420.565	2660
420.640	2017
420.716	2375
420.792	1626
420.867	4288
420.943	2198
421.019	6609
421.094	4880
421.170	2794
421.245	1139
421.321	2314
421.397	2773
421.472	8436
421.548	25965
421.623	17373
421.699	4974
421.774	5444
421.850	3741
421.925	8550
422.001	7096
422.076	4287
422.152	4080
422.227	9301
422.302	7199
422.378	9102
422.453	16289
422.529	42114
422.604	228720
422.679	586472
422.755	276127
422.830	45927
422.905	13533
422.981	6919
423.056	4956
423.131	3856
423.207	3842
423.282	5775
423.357	13951
423.432	9428
423.508	8197
423.583	23367
423.658	17907
423.733	5571
423.808	5717
423.883	7668
423.959	6593
424.034	3525
424.109	2503
424.184	1236
424.259	2547
424.334	2022
424.409	654
424.484	1618
424.559	3596
424.634	3163
424.709	4836
424.784	6868
424.859	5178
424.934	7976
425.009	34084
425.084	58871
425.159	21187
425.234	3169
425.309	1696
425.384	11439
425.459	21053
425.534	6904
425.609	3043
425.683	2975
425.758	1902
425.833	3628
425.908	4583
425.983	20458
426.058	60133
426.132	26238
426.207	5005
426.282	7818
426.357	7197
426.431	2513
426.506	2612
426.581	2111
426.655	2605
426.730	3128
426.805	2584
426.879	3942
426.954	3920
427.029	10587
427.103	63379
427.178	177361
427.253	79067
427.327	8875
427.402	9017
427.476	24788
427.551	12177
427.625	4007
427.700	4690
427.774	3062
427.849	3892
427.923	1712
427.998	2078
428.072	2429
428.147	7033
428.221	21805
428.296	46117
428.370	20993
428.444	4522
428.519	8440
428.593	18845
428.667	16802
428.742	19660
428.816	15522
428.890	36061
428.965	53897
429.039	25125
429.113	22188
429.188	8867
429.262	3015
429.336	8111
429.410	26360
429.485	17516
429.559	16349
429.633	12519
429.707	3630
429.781	9394
429.855	47660
429.930	70685
430.004	54837
430.078	94850
430.152	75164
430.226	74809
430.300	71463
430.374	11755
430.448	6152
430.522	30246
430.596	98954
430.670	58790
430.744	110790
430.818	190499
430.892	44821
430.966	7544
431.040	3620
431.114	932
431.188	2215
431.262	3068
431.336	3405
431.410	7782
431.484	25276
431.557	17676
431.631	2250
431.705	2461
431.779	7518
431.853	34051
431.927	23936
432.000	3358
432.074	2248
432.148	4072
432.222	3932
432.295	1941
432.369	2609
432.443	8288
432.516	67578
432.590	181693
432.664	66028
432.737	6830
432.811	1462
432.885	669
432.958	1382
433.032	876
433.106	1291
433.179	280
433.253	1407
433.326	782
433.400	705
433.473	628
433.547	304
433.620	1369
433.694	5558
433.767	6231
433.841	2931
433.914	560
433.988	1286
434.061	1637
434.134	1698
434.208	437
434.281	741
434.355	525
434.428	1546
434.501	1170
434.575	1111
434.648	1645
434.721	1153
434.795	529
434.868	64
434.941	162
435.014	968
435.088	1108
435.161	3121
435.234	5041
435.307	6841
435.381	2554
435.454	481
435.527	1729
435.600	1654
435.673	1155
435.746	623
435.819	1138
435.892	1195
435.966	610
436.039	476
436.112	1370
436.185	417
436.258	370
436.331	-508
436.404	453
436.477	428
436.550	308
436.623	-522
436.696	727
436.769	1784
436.842	1556
436.915	2338
436.987	3672
437.060	1643
437.133	313
437.206	-73
437.279	1365
437.352	983
437.425	633
437.498	2413
437.570	5842
437.643	5455
437.716	1572
437.789	608
437.861	6321
437.934	21215
438.007	9705
438.080	1663
438.152	2977
438.225	12086
438.298	100272
438.370	291709
438.443	115015
438.516	22006
438.588	5293
438.661	1484
438.734	754
438.806	2348
438.879	3801
438.951	6067
439.024	10141
439.096	4037
439.169	1374
439.241	1163
439.314	694
439.386	4589
439.459	8941
439.531	15338
439.604	5744
439.676	1141
439.749	813
439.821	674
439.893	1330
439.966	2043
440.038	2920
440.110	3905
440.183	1635
440.255	1256
440.327	5211
440.400	32054
440.472	144750
440.544	95730
440.617	10672
440.689	7075
440.761	9712
440.833	16375
440.905	9582
440.978	1532
441.050	1105
441.122	1743
441.194	488
441.266	1091
441.338	1056
441.411	4659
441.483	35240
441.555	53065
441.627	10441
441.699	5458
441.771	6319
441.843	2993
441.915	963
441.987	962
442.059	1293
442.131	2530
442.203	4709
442.275	5618
442.347	3559
442.419	2146
442.491	9514
442.563	25037
442.635	15187
442.706	21488
442.778	16273
442.850	2815
442.922	722
442.994	1836
443.066	3504
443.137	3422
443.209	1231
443.281	2093
443.353	6163
443.425	16811
443.496	51708
443.568	44444
443.640	14833
443.711	3950
443.783	1026
443.855	1424
443.926	108
443.998	1014
444.070	2715
444.141	3061
444.213	5432
444.285	6667
444.356	6597
444.428	7099
444.499	1475
444.571	46
444.642	538
444.714	2049
444.785	3860
444.857	5992
444.928	14722
445.000	8475
445.071	9152
445.143	10900
445.214	5163
445.285	6705
445.357	23315
445.428	44784
445.500	97983
445.571	58237
445.642	23424
445.714	17150
445.785	24375
445.856	7715
445.928	6373
445.999	5538
446.070	4777
446.141	4210
446.213	5796
446.284	2751
446.355	3319
446.426	2053
446.497	1506
446.569	4020
446.640	7951
446.711	6155
446.782	2195
446.853	7268
446.924	5768
446.995	3276
447.066	2697
447.138	5733
447.209	2459
447.280	522
447.351	-433
447.422	272
447.493	1864
447.564	4046
447.635	5447
447.706	1582
447.777	115
447.847	903
447.918	496
447.989	2530
448.060	4392
448.131	11134
448.202	8931
448.273	6306
448.344	2822
448.414	1324
448.485	2014
448.556	1662
448.627	-188
448.698	1178
448.768	-116
448.839	1384
448.910	5139
448.981	4968
449.051	1083
449.122	760
449.193	370
449.263	1831
449.334	1686
449.405	2891
449.475	7819
449.546	5570
449.616	6912
449.687	6011
449.758	1744
449.828	1357
449.899	1111
449.969	890
450.040	1717
450.110	4357
450.181	4703
450.251	2245
450.322	975
450.392	1791
450.463	1360
450.533	1039
450.604	670
450.674	554
450.744	279
450.815	1495
450.885	1673
450.955	456
451.026	303
451.096	781
451.166	1184
451.237	5639
451.307	15795
451.377	6044
451.447	247
451.518	1097
451.588	1057
451.658	1299
451.728	2698
451.799	17347
451.869	19159
451.939	3449
452.009	654
452.079	377
452.149	1430
452.219	4265
452.289	19595
452.360	14598
452.430	2356
452.500	2518
452.570	2547
452.640	3405
452.710	10713
452.780	17937
452.850	13437
452.920	13215
452.990	3873
453.060	3023
453.129	4016
453.199	5915
453.269	22776
453.339	54332
453.409	85935
453.479	80408
453.549	112276
453.619	116575
453.688	43542
453.758	7792
453.828	3057
453.898	1639
453.968	1416
454.037	1650
454.087	1523
454.107	1465
454.168	919
454.177	824
454.247	662
454.249	690
454.316	1357
454.330	1383
454.386	1432
454.411	4193
454.456	8683
454.492	11822
454.525	14609
454.574	7462
454.595	4384
454.655	2165
454.665	1820
454.734	2567
454.736	2651
454.804	5301
454.817	7589
454.873	16660
454.898	18998
454.943	22805
454.979	17264
455.013	12267
455.060	7131
455.082	5056
455.141	4220
455.152	4046
455.221	12509
455.222	12712
455.291	27387
455.303	27598
455.360	26481
455.384	39026
455.430	60233
455.465	44839
455.499	30131
455.546	20678
455.569	16526
455.627	11940
455.638	11164
455.707	2874
455.708	2871
455.777	604
455.789	797
455.846	1612
455.869	1325
455.916	820
455.950	1009
455.985	1125
456.031	1125
456.054	1143
456.112	1212
456.124	1221
456.193	796
456.193	785
456.262	1828
456.274	2092
456.332	3183
456.355	4014
456.401	5013
456.436	3724
456.470	2469
456.516	949
456.540	353
456.597	597
456.609	634
456.678	1186
456.678	1182
456.747	157
456.759	225
456.817	552
456.840	536
456.886	506
456.920	465
456.955	406
457.001	992
457.024	1605
457.082	2764
457.093	2944
457.162	4631
457.163	4663
457.232	9191
457.243	8604
457.301	4287
457.324	2773
457.370	993
457.405	911
457.439	756
457.485	658
457.508	733
457.566	872
457.577	879
457.646	1157
457.647	1169
457.715	1984
457.727	2175
457.784	2940
457.808	3109
457.853	3517
457.889	4061
457.922	3848
457.969	2332
457.991	2205
458.050	3879
458.060	4100
458.129	5241
458.130	5278
458.198	5444
458.211	5038
458.267	2692
458.292	2162
458.336	2061
458.372	1606
458.405	1387
458.453	1840
458.474	2474
458.533	4859
458.543	5090
458.611	9323
458.614	9364
458.680	6605
458.694	5520
458.749	2392
458.775	1747
458.818	1237
458.855	984
458.887	882
458.936	1132
458.955	1303
459.016	1861
459.024	1888
459.093	1621
459.097	1613
459.162	1382
459.177	1423
459.230	1838
459.257	2356
459.299	2998
459.338	2688
459.368	2381
459.418	3081
459.437	3151
459.499	2246
459.505	2211
459.574	1223
459.579	1224
459.643	1051
459.659	1045
459.711	916
459.740	975
459.780	1583
459.820	2131
459.849	2208
459.900	1870
459.917	1881
459.981	2804
459.986	2789
460.054	1776
460.061	1681
460.123	1616
460.141	1735
460.191	2232
460.222	2469
460.260	3043
460.302	4084
460.328	3863
460.382	2645
460.397	2570
460.462	1599
460.465	1602
460.534	2786
460.543	2915
460.602	9711
460.623	12519
460.671	19104
460.703	26597
460.739	28506
460.783	27368
460.808	23494
460.864	5177
460.876	3507
460.944	2082
460.945	2066
461.013	2008
461.024	2041
461.081	2315
461.104	2641
461.150	2666
461.184	2313
461.218	2194
461.264	1671
461.286	1464
461.345	1626
461.355	1648
461.423	1741
461.425	1733
461.491	1667
461.505	1757
461.559	4333
461.585	5600
461.628	9477
461.665	13486
461.696	16119
461.745	23313
461.764	21553
461.825	7822
461.832	7395
461.901	2860
461.905	2859
461.969	2423
461.985	2107
462.037	2317
462.065	2479
462.105	2170
462.145	2043
462.173	3872
462.225	7177
462.241	7772
462.305	12278
462.310	12125
462.378	9031
462.385	8186
462.446	3632
462.465	2808
462.514	2406
462.545	2459
462.582	2089
462.625	1787
462.650	2067
462.705	2288
462.718	2228
462.785	2374
462.786	2398
462.854	3843
462.865	4070
462.922	5454
462.945	6314
462.990	5544
463.025	3982
463.058	3084
463.104	1893
463.126	1602
463.184	1235
463.194	1269
463.262	1956
463.264	1966
463.330	2515
463.344	2706
463.398	2928
463.424	2884
463.466	3002
463.504	3307
463.533	3128
463.583	2562
463.601	2787
463.663	3680
463.669	3726
463.737	4312
463.743	4369
463.805	8210
463.823	9329
463.873	13236
463.903	15912
463.940	18323
463.982	21886
464.008	18577
464.062	8746
464.076	7842
464.142	2931
464.144	2867
464.211	1805
464.221	1713
464.279	2443
464.301	2732
464.347	2950
464.381	3211
464.414	3877
464.461	4665
464.482	4875
464.540	5611
464.550	5514
464.617	4641
464.620	4599
464.685	5309
464.699	5462
464.753	6156
464.779	6633
464.820	7428
464.859	8137
464.888	7725
464.938	6701
464.956	6830
465.018	7672
465.023	7617
465.091	6443
465.098	6324
465.158	5754
465.177	5585
465.226	5954
465.257	6120
465.293	6177
465.336	6298
465.361	6716
465.416	7667
465.428	8137
465.495	10695
465.496	10748
465.563	16799
465.575	17903
465.631	22771
465.654	25046
465.698	17558
465.734	10283
465.765	8311
465.813	5541
465.833	5493
465.893	5750
465.900	5717
465.968	5567
465.972	5542
466.035	6757
466.052	7084
466.102	6718
466.131	6472
466.170	6757
466.210	7068
466.237	7282
466.290	7667
466.304	7743
466.369	8064
466.372	8104
466.439	8965
466.449	9058
466.506	9861
466.528	10212
466.573	13099
466.607	15210
466.641	21010
466.687	29039
466.708	32208
466.766	41176
466.775	38795
466.842	20240
466.845	19322
466.909	13515
466.925	12212
466.977	11615
467.004	11334
467.044	11606
467.083	11839
467.111	12283
467.163	13093
467.178	13186
467.242	13497
467.245	13467
467.312	12471
467.321	12323
467.379	11343
467.400	10959
467.446	11530
467.480	11914
467.559	10518
467.638	8468
467.717	9665
467.796	10382
467.875	10946
467.955	9910
468.034	13250
468.113	29481
468.192	43102
468.271	16948
468.350	6949
468.429	8007
468.508	7388
468.588	7685
468.667	6135
468.746	7787
468.825	7579
468.904	6992
468.983	7966
469.062	12203
469.141	14513
469.220	7960
469.299	6959
469.378	7566
469.456	9535
469.535	9184
469.614	7498
469.693	8873
469.772	9898
469.851	13895
469.930	10648
470.009	7554
470.088	7110
470.166	7629
470.245	10266
470.324	11946
470.403	8532
470.482	8261
470.560	6240
470.639	7879
470.718	9589
470.797	8830
470.875	7563
470.954	11362
471.033	12306
471.111	6367
471.190	5057
471.269	5607
471.347	4576
471.426	5888
471.505	6168
471.583	8599
471.662	7161
471.740	7246
471.819	6283
471.898	5945
471.976	6356
472.055	6228
472.133	7183
472.212	9457
472.290	9146
472.369	6997
472.447	5178
472.526	5622
472.604	5700
472.683	6627
472.761	6144
472.839	6032
472.918	6175
472.996	5097
473.075	7161
473.153	6969
473.231	4809
473.310	7229
473.388	7277
473.466	5862
473.545	6922
473.623	11578
473.701	11024
473.780	6841
473.858	4402
473.936	7395
474.014	5216
474.093	7176
474.171	9599
474.249	14790
474.327	11959
474.405	5497
474.484	4920
474.562	6604
474.640	5904
474.718	6943
474.796	7459
474.874	7784
474.952	5386
475.030	6014
475.108	7080
475.187	8721
475.265	8427
475.343	9131
475.421	9914
475.499	6533
475.577	6548
475.655	7041
475.733	15909
475.811	30160
475.889	28094
475.966	24760
476.044	5111
476.122	6068
476.200	7552
476.278	7479
476.356	4337
476.434	6441
476.512	5451
476.590	6984
476.667	7507
476.745	4583
476.823	5086
476.901	5811
476.979	5037
477.056	5111
477.134	5221
477.212	4942
477.290	5825
477.367	4491
477.445	2888
477.523	5154
477.601	3701
477.678	4987
477.756	5491
477.834	8316
477.911	4298
477.989	5470
478.066	4543
478.144	4829
478.222	5516
478.299	8299
478.377	8592
478.454	4594
478.532	4114
478.609	4718
478.687	5416
478.764	4659
478.842	4596
478.919	5705
478.997	5740
479.074	4752
479.152	4562
479.229	8109
479.307	6700
479.384	3773
479.461	3389
479.539	4081
479.616	5603
479.694	4677
479.771	5349
479.848	6443
479.926	7388
480.003	10642
480.080	5345
480.157	3694
480.235	3613
480.312	4998
480.389	4408
480.467	10155
480.544	13430
480.621	6303
480.698	4605
480.775	6568
480.853	5001
480.930	5119
481.007	4002
481.084	5025
481.161	6174
481.238	6663
481.315	4130
481.392	3946
481.470	3122
481.547	3734
481.624	4223
481.701	3763
481.778	3534
481.855	4304
481.932	7807
482.009	14991
482.086	12888
482.163	4360
482.240	5362
482.317	9097
482.393	7938
482.470	4606
482.547	4630
482.624	4344
482.701	3884
482.778	4956
482.855	3039
482.932	3375
483.009	3247
483.085	4482
483.162	6091
483.239	6232
483.316	2705
483.393	3377
483.469	2952
483.546	4785
483.623	5598
483.699	3825
483.776	4112
483.853	5819
483.930	7583
484.006	24203
484.083	42974
484.160	29872
484.236	34611
484.313	29696
484.389	20962
484.466	17420
484.543	16187
484.619	17067
484.696	18127
484.772	17683
484.849	19002
484.925	16837
485.002	15225
485.078	17410
485.155	17448
485.231	15854
485.308	14553
485.384	15553
485.461	18083
485.537	30843
485.614	40126
485.690	19321
485.766	15821
485.843	16273
485.919	21916
485.995	26326
486.072	15134
486.148	13941
486.224	13927
486.301	14191
486.377	17387
486.453	18908
486.530	17307
486.606	21060
486.682	24820
486.758	29088
486.835	33205
486.911	26953
486.987	38289
487.063	50023
487.139	58509
487.215	43364
487.292	21897
487.368	17536
487.444	16566
487.520	20247
487.596	18999
487.672	19133
487.748	29253
487.824	43203
487.900	23441
487.976	15201
488.052	15318
488.128	21283
488.204	18094
488.280	15073
488.356	16540
488.432	31723
488.508	54219
488.584	27675
488.660	14287
488.736	14340
488.812	14320
488.888	17853
488.964	22616
489.039	48819
489.115	85472
489.191	62706
489.267	15525
489.343	13861
489.418	11606
489.494	10932
489.570	9502
489.646	12426
489.722	10615
489.797	11958
489.873	15809
489.949	37641
490.024	43741
490.100	12163
490.176	10706
490.251	14791
490.327	17728
490.403	13085
490.478	10211
490.554	9062
490.629	8546
490.705	9283
490.781	10081
490.856	9936
490.932	11310
491.007	12509
491.083	11838
491.158	11289
491.234	13139
491.309	26566
491.385	35473
491.460	12508
491.536	11771
491.611	10096
491.686	10557
491.762	14706
491.837	30597
491.913	58756
491.988	77735
492.063	117415
492.139	38572
492.214	18698
492.289	9151
492.365	9124
492.440	10341
492.515	10288
492.590	10297
492.666	8090
492.741	10206
492.816	17405
492.891	11934
492.967	8784
493.042	7956
493.117	8321
493.192	10083
493.267	18973
493.342	72805
493.418	130311
493.493	31467
493.568	7985
493.643	6419
493.718	9092
493.793	14476
493.868	19495
493.943	11310
494.018	8008
494.093	6973
494.168	7549
494.243	5979
494.318	6135
494.393	5670
494.468	5908
494.543	5560
494.618	7600
494.693	6891
494.768	6995
494.842	7303
494.917	6023
494.992	6846
495.067	6912
495.142	4802
495.217	6494
495.292	6954
495.366	7509
495.441	10165
495.516	13750
495.591	18362
495.665	63138
495.740	177132
495.815	113633
495.890	13505
495.964	7510
496.039	9391
496.114	8843
496.188	8363
496.263	9480
496.338	9193
496.412	7797
496.487	11201
496.561	13384
496.636	14521
496.710	10947
496.785	10813
496.860	13258
496.934	11104
497.009	11983
497.083	10937
497.158	11186
497.232	13349
497.307	17549
497.381	15346
497.455	18639
497.530	23359
497.604	22858
497.679	21164
497.753	30990
497.827	46827
497.902	48673
497.976	50114
498.050	79984
498.125	288547
498.199	450183
498.273	98650
498.348	63104
498.422	49453
498.496	41201
498.570	36867
498.645	27636
498.719	24129
498.793	24972
498.867	33092
498.941	42636
499.016	101770
499.090	320690
499.164	218988
499.238	18720
499.312	12643
499.386	14843
499.460	14513
499.534	11615
499.609	13180
499.683	20969
499.757	22076
499.831	39859
499.905	178766
499.979	270683
500.053	40812
500.127	30495
500.201	22909
500.275	13985
500.349	10960
500.422	13513
500.496	18560
500.570	39903
500.644	100016
500.718	219022
500.792	92180
500.866	12074
500.940	12695
501.013	13697
501.087	11109
501.161	18984
501.235	27525
501.309	50106
501.382	153399
501.456	208359
501.530	39667
501.603	50299
501.677	32207
501.751	9335
501.825	12296
501.898	18231
501.972	57775
502.046	61640
502.119	10765
502.193	23585
502.266	66663
502.340	53376
502.413	25251
502.487	62018
502.561	44637
502.634	16101
502.708	9161
502.781	8069
502.855	7278
502.928	5687
503.002	4451
503.075	4920
503.149	5825
503.222	6284
503.295	7022
503.369	9074
503.442	11851
503.516	39174
503.589	121958
503.662	112562
503.736	29582
503.809	48720
503.882	58209
503.956	55445
504.029	75640
504.102	27411
504.175	26991
504.249	12740
504.322	7643
504.395	9342
504.468	5773
504.542	4440
504.615	3850
504.688	4534
504.761	3016
504.834	7305
504.907	8300
504.980	15909
505.053	8847
505.127	7100
505.200	12680
505.273	10133
505.346	7506
505.419	4510
505.492	4643
505.565	4861
505.638	6240
505.711	5666
505.784	4132
505.857	2768
505.930	5194
506.003	2841
506.076	5031
506.149	7027
506.221	8678
506.294	8469
506.367	17966
506.440	78955
506.513	77434
506.586	12369
506.659	6334
506.731	4816
506.804	5343
506.877	10070
506.950	7836
507.022	4328
507.095	4382
507.168	10291
507.241	5960
507.313	4573
507.386	3401
507.459	9720
507.531	6130
507.604	3901
507.677	4091
507.749	2207
507.822	6041
507.894	13380
507.967	18311
508.040	10467
508.112	7671
508.185	7211
508.257	5739
508.330	10836
508.402	7648
508.475	6318
508.547	6818
508.620	7181
508.692	11158
508.765	9445
508.837	3496
508.909	5591
508.982	4684
509.054	7384
509.127	6167
509.199	5342
509.271	3363
509.344	4869
509.416	3300
509.488	4267
509.560	4534
509.633	5444
509.705	7647
509.777	7336
509.849	10170
509.922	8303
509.994	5569
510.066	6343
510.138	4824
510.210	13013
510.283	13450
510.355	10971
510.427	8353
510.499	8423
510.571	6601
510.643	7516
510.715	11462
510.787	13474
510.859	8429
510.931	9476
511.003	11360
511.076	12842
511.148	6879
511.219	6338
511.291	10836
511.363	16456
511.435	8116
511.507	5920
511.579	6425
511.651	7047
511.723	6211
511.795	5878
511.867	5767
511.939	7597
512.010	15712
512.082	18679
512.154	7110
512.226	8073
512.298	9291
512.369	17661
512.441	14675
512.513	15550
512.585	11150
512.656	10861
512.728	10025
512.800	9860
512.871	7352
512.943	8803
513.015	6194
513.086	8190
513.158	8117
513.230	8947
513.301	12901
513.373	20579
513.444	9812
513.516	7712
513.588	7024
513.659	8434
513.731	10885
513.802	9915
513.874	18390
513.945	39223
514.016	18222
514.088	8517
514.159	7303
514.231	11578
514.302	15043
514.374	12794
514.445	9337
514.516	20446
514.588	19580
514.659	10116
514.730	15864
514.802	20463
514.873	15211
514.944	19288
515.016	12125
515.087	12611
515.158	13191
515.229	22470
515.301	17073
515.372	28227
515.443	18864
515.514	11108
515.585	8167
515.656	8755
515.728	7450
515.799	5734
515.870	7040
515.941	8613
516.012	6787
516.083	10673
516.154	11666
516.225	18613
516.296	17272
516.367	13183
516.438	12209
516.509	16074
516.580	20262
516.651	50122
516.722	198009
516.793	167329
516.864	27002
516.935	24804
517.006	23196
517.077	28109
517.148	59994
517.219	183761
517.289	426910
517.360	154771
517.431	67375
517.502	13515
517.573	11107
517.643	10577
517.714	12461
517.785	13806
517.856	11429
517.926	16467
517.997	18000
518.068	22274
518.138	29307
518.209	37429
518.280	122467
518.350	561185
518.421	385134
518.492	35519
518.562	16125
518.633	15153
518.703	11172
518.774	15131
518.845	25023
518.915	30531
518.986	15524
519.056	15507
519.127	26884
519.197	45316
519.268	97200
519.338	100007
519.408	18862
519.479	20128
519.549	16546
519.620	11679
519.690	6372
519.760	6901
519.831	7895
519.901	7520
519.971	5715
520.042	6180
520.112	9148
520.182	10693
520.253	12975
520.323	8750
520.393	10510
520.463	20831
520.534	11197
520.604	29206
520.674	17033
520.744	11754
520.814	27351
520.885	36367
520.955	25712
521.025	111682
521.095	84439
521.165	11025
521.235	7150
521.305	6875
521.375	5148
521.445	6802
521.515	9980
521.585	12673
521.655	12578
521.725	10608
521.795	9893
521.865	4840
521.935	9645
522.005	10480
522.075	6513
522.145	6974
522.215	5826
522.285	11605
522.355	14787
522.424	30962
522.494	34174
522.564	16679
522.634	22748
522.704	83909
522.774	50860
522.843	9778
522.913	7395
522.983	10008
523.053	8673
523.122	8039
523.192	9350
523.262	38948
523.331	61440
523.401	12702
523.471	5791
523.540	7329
523.610	4245
523.680	4515
523.749	3320
523.819	6560
523.888	6545
523.958	4486
524.027	4757
524.097	6070
524.166	4112
524.236	4783
524.305	6943
524.375	4954
524.444	3030
524.514	5750
524.583	4241
524.653	6676
524.722	8324
524.791	5543
524.861	4945
524.930	4182
524.999	4127
525.069	7753
525.138	6477
525.207	7786
525.277	6217
525.346	5815
525.415	4356
525.484	5364
525.554	4721
525.623	6021
525.692	4430
525.761	5070
525.830	4603
525.900	4716
525.969	7197
526.038	10133
526.107	11855
526.176	36314
526.245	37956
526.314	19218
526.383	25459
526.452	31580
526.522	44316
526.591	75372
526.660	49249
526.729	25667
526.797	18316
526.867	37234
526.935	194134
527.004	259943
527.073	129346
527.142	15729
527.211	7008
527.280	6907
527.349	9408
527.418	3378
527.487	4503
527.555	2520
527.624	2671
527.693	1661
527.762	3709
527.831	3085
527.899	4055
527.968	3462
528.037	1850
528.106	5669
528.174	11603
528.243	11987
528.312	12920
528.380	25473
528.449	8063
528.518	5379
528.586	1104
528.655	3527
528.723	2193
528.792	2323
528.861	2267
528.929	2092
528.998	2880
529.066	1990
529.135	1411
529.203	1742
529.272	829
529.340	3242
529.409	3838
529.477	2129
529.545	3025
529.614	7326
529.682	4225
529.751	9081
529.819	7587
529.887	6744
529.956	1634
530.024	4123
530.092	1653
530.161	3912
530.229	8978
530.297	4695
530.365	3002
530.434	3017
530.502	877
530.570	2705
530.638	-779
530.707	2790
530.775	3723
530.843	1781
530.911	2322
530.979	2540
531.047	625
531.115	3264
531.183	2336
531.252	2644
531.320	1949
531.388	2279
531.456	3077
531.524	834
531.592	1961
531.660	4516
531.728	2705
531.796	2032
531.864	1816
531.932	2987
532.000	2292
532.067	3581
532.135	2728
532.203	5195
532.271	4914
532.339	11126
532.407	35842
532.475	31553
532.542	9048
532.610	9128
532.678	10502
532.746	43637
532.814	177303
532.881	71053
532.949	7977
533.017	5255
533.084	3718
533.152	2725
533.220	2825
533.287	4261
533.355	2380
533.423	3028
533.490	2262
533.558	3491
533.625	2363
533.693	5199
533.761	3973
533.828	4488
533.896	3327
533.963	11065
534.031	17280
534.098	19958
534.166	11565
534.233	3945
534.300	4073
534.368	5087
534.435	4058
534.503	3948
534.570	3491
534.637	3880
534.705	2788
534.772	3923
534.840	4249
534.907	15973
534.974	27087
535.041	7343
535.109	5905
535.176	4387
535.243	2394
535.310	3601
535.378	3754
535.445	3332
535.512	2458
535.579	2651
535.646	2160
535.714	3767
535.781	4279
535.848	5918
535.915	5441
535.982	5529
536.049	5316
536.116	6792
536.183	4732
536.250	5018
536.317	5263
536.384	6327
536.451	10206
536.518	14712
536.585	6726
536.652	10422
536.719	15953
536.786	14826
536.853	8283
536.920	12732
536.987	24179
537.053	21741
537.120	64918
537.187	100127
537.254	9428
537.321	5028
537.388	4716
537.454	2922
537.521	2506
537.588	2629
537.654	3853
537.721	6710
537.788	5025
537.855	4413
537.921	3906
537.988	4551
538.055	4489
538.121	4976
538.188	4909
538.254	10074
538.321	24433
538.388	21155
538.454	5759
538.521	4392
538.587	3904
538.654	3006
538.720	3195
538.787	3858
538.853	4823
538.920	6770
538.986	7308
539.053	5997
539.119	4471
539.185	5566
539.252	6186
539.318	12406
539.385	10576
539.451	6446
539.517	7002
539.583	8164
539.650	14644
539.716	59803
539.782	26783
539.849	6344
539.915	6057
539.981	5277
540.047	8011
540.114	7869
540.180	6871
540.246	6390
540.312	8873
540.378	22383
540.444	30168
540.510	19004
540.576	65591
540.643	35644
540.709	5229
540.775	5401
540.841	4270
540.907	8520
540.973	14386
541.039	14836
541.105	16912
541.171	9745
541.237	5271
541.303	6564
541.369	7552
541.435	9970
541.500	22375
541.566	17966
541.632	6018
541.698	4495
541.764	5056
541.830	3672
541.896	3850
541.961	5351
542.027	3990
542.093	5734
542.159	5699
542.224	6214
542.290	10612
542.356	20347
542.421	31391
542.487	14230
542.553	5808
542.618	7701
542.684	5755
542.750	5696
542.815	6217
542.881	12149
542.947	48673
543.012	60902
543.078	7690
543.143	5388
543.209	5306
543.274	5186
543.340	6391
543.405	15427
543.471	38372
543.536	12302
543.602	5132
543.667	4432
543.732	5042
543.798	3190
543.863	4521
543.928	3816
543.994	3659
544.059	4892
544.124	4333
544.190	4526
544.255	4298
544.320	5440
544.386	4527
544.451	9843
544.516	12631
544.581	9903
544.646	25886
544.712	68672
544.777	17655
544.842	7627
544.907	6876
544.972	6673
545.037	4815
545.102	6542
545.168	6092
545.233	7396
545.298	7763
545.363	9862
545.428	10815
545.493	18323
545.558	47773
545.623	28753
545.688	6902
545.753	6935
545.818	4819
545.883	6887
545.947	5305
546.012	7290
546.077	6837
546.142	7355
546.207	6250
546.272	10951
546.337	12972
546.401	10230
546.466	6612
546.531	6182
546.596	7259
546.661	8025
546.725	7063
546.790	5484
546.855	5905
546.919	5014
546.984	6231
547.049	6446
547.113	9207
547.178	7198
547.243	9194
547.307	10115
547.372	10120
547.436	13743
547.501	8612
547.565	9122
547.630	11674
547.695	14976
547.759	12845
547.823	12644
547.888	7997
547.952	8664
548.017	8197
548.081	11677
548.146	15541
548.210	14981
548.274	8054
548.339	8065
548.403	8149
548.468	7515
548.532	7685
548.596	8725
548.660	7096
548.725	9368
548.789	10672
548.853	13977
548.917	9227
548.982	12732
549.046	16629
549.110	8408
549.174	7639
549.238	6818
549.303	7775
549.367	10069
549.431	7607
549.495	8852
549.559	7401
549.623	8756
549.687	9193
549.751	15534
549.815	13198
549.879	11471
549.943	7972
550.007	10276
550.071	10143
550.135	13459
550.199	12007
550.263	10483
550.327	11227
550.391	15042
550.455	12958
550.519	11161
550.582	10505
550.646	13791
550.710	17641
550.774	12798
550.838	10347
550.901	11995
550.965	12640
551.029	12651
551.093	15087
551.156	18185
551.220	32614
551.284	49052
551.347	22180
551.411	34132
551.475	59274
551.538	18455
551.602	10745
551.666	10790
551.729	9370
551.793	10851
551.856	9557
551.920	9940
551.983	10039
552.047	9319
552.110	9074
552.174	9145
552.237	9254
552.301	9144
552.364	8202
552.428	8412
552.491	7874
552.554	9327
552.618	9495
552.681	9485
552.745	9535
552.808	15258
552.871	23824
552.934	16185
552.998	10355
553.061	11030
553.124	10435
553.187	10130
553.251	10711
553.314	11240
553.377	10654
553.440	13836
553.503	31234
553.567	80480
553.630	24287
553.693	9854
553.756	8905
553.819	9506
553.882	8194
553.945	8307
554.008	7413
554.071	7693
554.134	8430
554.197	7633
554.260	6961
554.323	10134
554.386	9587
554.449	8464
554.512	8352
554.575	7587
554.638	8491
554.701	8217
554.764	6946
554.827	7413
554.889	6020
554.952	7356
555.015	5807
555.078	6364
555.141	7209
555.203	7461
555.266	6642
555.329	7626
555.391	6159
555.454	7155
555.517	8547
555.580	6914
555.642	5488
555.705	7266
555.768	6580
555.830	7955
555.893	6866
555.955	6292
556.018	5981
556.080	7021
556.143	5765
556.206	6300
556.268	6981
556.330	8772
556.393	7152
556.455	7604
556.518	10365
556.580	16418
556.643	7822
556.705	6005
556.767	5234
556.830	6789
556.892	7369
556.955	15335
557.017	12629
557.079	7831
557.142	5670
557.204	8261
557.266	20546
557.328	23492
557.391	6558
557.453	6025
557.515	5751
557.577	8547
557.639	10062
557.701	6061
557.764	4358
557.826	5365
557.888	5929
557.950	6528
558.012	6038
558.074	6486
558.136	11866
558.198	31541
558.260	18544
558.322	7841
558.384	8468
558.446	9708
558.508	11121
558.570	14712
558.632	24337
558.694	48042
558.756	29213
558.818	54113
558.880	197555
558.942	88163
559.003	34527
559.065	23712
559.127	10057
559.189	9237
559.251	9264
559.312	11938
559.374	23399
559.436	97639
559.498	77612
559.559	11737
559.621	9046
559.683	9173
559.744	13855
559.806	39316
559.868	84998
559.929	23406
559.991	10669
560.052	12983
560.114	29033
560.176	27300
560.237	16921
560.299	37206
560.360	14224
560.422	7075
560.483	6386
560.545	5708
560.606	5552
560.667	5329
560.729	4080
560.790	5393
560.852	4760
560.913	5724
560.974	4501
561.036	4909
561.097	4926
561.158	6212
561.220	6785
561.281	6201
561.342	7017
561.403	8025
561.465	10001
561.526	28183
561.587	56100
561.648	16199
561.709	6574
561.771	6232
561.832	5564
561.893	5516
561.954	5109
562.015	5651
562.076	5678
562.137	5123
562.198	5421
562.259	6986
562.320	5376
562.381	6329
562.442	12304
562.503	11663
562.564	6322
562.625	6663
562.686	4797
562.747	6808
562.808	6908
562.869	5136
562.930	6639
562.991	7096
563.051	6989
563.112	6086
563.173	4981
563.234	5858
563.294	5155
563.355	5979
563.416	6826
563.477	6280
563.537	5504
563.598	6296
563.659	6361
563.720	7614
563.780	6314
563.841	7461
563.901	6361
563.962	5801
564.023	5828
564.083	6364
564.144	6481
564.204	6449
564.265	6135
564.325	7446
564.386	17053
564.446	22701
564.507	7561
564.567	7743
564.628	6893
564.688	6924
564.749	5558
564.809	7761
564.869	9873
564.930	7940
564.990	6429
565.050	6792
565.111	6504
565.171	6622
565.231	5239
565.292	6511
565.352	5171
565.412	6713
565.472	6616
565.532	7497
565.593	7031
565.653	7561
565.713	7214
565.773	8540
565.833	9433
565.893	15526
565.953	9342
566.013	7883
566.074	7431
566.134	10372
566.194	18015
566.254	23530
566.314	15464
566.374	10479
566.434	9330
566.494	11173
566.554	10751
566.614	12127
566.673	11545
566.733	12386
566.793	12645
566.853	14200
566.913	14452
566.973	15675
567.033	15721
567.092	15565
567.152	14378
567.212	13880
567.272	14402
567.331	17276
567.391	16519
567.451	19074
567.511	23990
567.570	26281
567.630	17708
567.690	16618
567.749	16720
567.809	19533
567.868	22648
567.928	26341
567.988	31708
568.047	37685
568.107	47818
568.166	67685
568.226	113196
568.285	185874
568.345	172317
568.404	124575
568.464	99251
568.523	85921
568.582	83539
568.642	92698
568.701	113881
568.761	171870
568.820	301262
568.879	341738
568.939	241472
568.998	163080
569.057	112705
569.116	83681
569.176	63636
569.235	49521
569.294	40025
569.353	34295
569.413	29755
569.472	26837
569.531	22421
569.590	19898
569.649	18258
569.708	17097
569.767	15421
569.827	17736
569.886	16538
569.945	12249
570.004	10106
570.063	12741
570.122	12434
570.181	12677
570.240	11684
570.299	12332
570.358	13083
570.417	10191
570.475	8046
570.534	9640
570.593	10036
570.652	10133
570.711	11684
570.770	8972
570.829	12624
570.887	12091
570.946	10897
571.005	8730
571.064	6747
571.122	7606
571.181	9189
571.240	8082
571.299	5788
571.357	6839
571.416	6793
571.475	7919
571.533	8831
571.592	6682
571.650	6684
571.709	6297
571.768	4502
571.826	5645
571.885	4397
571.943	4917
572.002	4646
572.060	7002
572.119	4649
572.177	4449
572.236	3499
572.294	4232
572.352	4888
572.411	5071
572.469	3931
572.528	4371
572.586	4648
572.644	6698
572.703	9089
572.761	7713
572.819	5074
572.877	4433
572.936	3849
572.994	4596
573.052	3968
573.110	4669
573.169	4578
573.227	4625
573.285	3945
573.343	4755
573.401	4346
573.459	4359
573.517	3819
573.576	4147
573.634	4173
573.692	5138
573.750	4135
573.808	4157
573.866	4027
573.924	6773
573.982	7376
574.040	5447
574.098	3938
574.155	4558
574.213	4506
574.271	3830
574.329	4689
574.387	3782
574.445	3524
574.503	3625
574.560	2934
574.618	3513
574.676	3695
574.734	3318
574.792	3352
574.849	3621
574.907	3122
574.965	3131
575.022	2410
575.080	3490
575.138	4483
575.195	4416
575.253	3873
575.311	5336
575.368	5133
575.426	3342
575.483	3969
575.541	4046
575.598	3493
575.656	4464
575.713	4492
575.771	4470
575.828	3214
575.886	3773
575.943	4044
576.001	4598
576.058	3827
576.115	4850
576.173	5862
576.230	7375
576.287	9335
576.345	7418
576.402	4604
576.459	5360
576.517	3793
576.574	5303
576.631	6239
576.688	6275
576.746	4115
576.803	4665
576.860	3673
576.917	4607
576.974	3720
577.031	3789
577.089	4308
577.146	5279
577.203	4952
577.260	6908
577.317	6032
577.374	7220
577.431	7138
577.488	6178
577.545	4823
577.602	5270
577.659	3827
577.716	6129
577.773	5655
577.830	4841
577.886	3631
577.943	3782
578.000	4554
578.057	5226
578.114	6760
578.171	7274
578.227	7545
578.284	8250
578.341	6207
578.398	5761
578.454	5841
578.511	6752
578.568	7543
578.625	6924
578.681	5390
578.738	4462
578.794	3411
578.851	4448
578.908	4325
578.964	6298
579.021	4545
579.077	5360
579.134	5178
579.190	4101
579.247	3843
579.303	4321
579.360	4316
579.416	4592
579.473	3889
579.529	4446
579.586	3889
579.642	5004
579.698	4347
579.755	5611
579.811	5728
579.867	5489
579.924	4768
579.980	5551
580.036	5935
580.093	7590
580.149	10599
580.205	13307
580.261	8757
580.317	7369
580.374	6790
580.430	9000
580.486	8287
580.542	5893
580.598	4763
580.619	5052
580.654	5552
580.692	5515
580.710	5499
580.765	5144
580.767	5130
580.823	5896
580.838	5575
580.879	4720
580.911	4621
580.935	4548
580.984	4110
580.991	4049
581.047	5399
581.057	5458
581.103	5714
581.130	5711
581.159	5706
581.203	6692
581.215	6946
581.270	6218
581.276	6189
581.326	5834
581.349	5897
581.382	5979
581.422	5878
581.438	5843
581.494	6121
581.494	6128
581.550	6580
581.567	6453
581.606	6229
581.640	6314
581.661	6329
581.713	5662
581.717	5608
581.773	5686
581.786	5667
581.829	5583
581.859	5727
581.885	5870
581.932	5534
581.940	5466
581.996	6121
582.004	5947
582.052	4924
582.077	5640
582.107	6518
582.150	5784
582.163	5537
582.219	6824
582.223	6758
582.274	5971
582.296	6328
582.330	6918
582.368	7030
582.386	7045
582.441	6802
582.441	6799
582.497	6175
582.514	6249
582.552	6642
582.587	7029
582.608	7144
582.659	6905
582.663	6891
582.719	7371
582.732	7462
582.774	7747
582.805	7634
582.830	7560
582.877	8106
582.885	8176
582.941	7880
582.950	7873
582.996	7891
583.023	8282
583.052	8822
583.095	9512
583.107	9753
583.162	10608
583.168	10862
583.218	12689
583.240	11824
583.273	10310
583.313	9920
583.328	9921
583.384	8891
583.385	8900
583.439	8891
583.458	8784
583.494	8708
583.531	8929
583.549	9042
583.603	8811
583.605	8804
583.660	9708
583.676	9731
583.715	10031
583.748	10310
583.770	10326
583.820	9607
583.825	9554
583.881	10192
583.893	10116
583.936	9891
583.965	10024
583.991	10135
584.038	10504
584.046	10580
584.101	11306
584.110	11148
584.156	10568
584.183	10674
584.211	10507
584.255	10433
584.266	10500
584.321	11006
584.328	10969
584.376	10872
584.400	11323
584.431	11837
584.472	11560
584.486	11361
584.541	11657
584.545	11630
584.596	12319
584.617	12833
584.651	13414
584.689	13559
584.706	13594
584.761	13753
584.762	13739
584.816	13335
584.834	13462
584.871	13963
584.906	13958
584.926	14005
584.978	15301
584.980	15357
585.035	15221
585.051	15453
585.090	16318
585.123	16552
585.145	16813
585.195	17509
585.200	17610
585.254	18794
585.267	19335
585.309	21823
585.340	23984
585.364	24976
585.412	23084
585.419	22754
585.473	21874
585.484	21793
585.528	22731
585.556	23449
585.583	25168
585.628	29785
585.637	31666
585.692	47079
585.700	50713
585.747	67438
585.772	62755
585.801	48325
585.845	30272
585.856	27967
585.910	24364
585.917	24054
585.965	24268
585.989	24346
586.019	24563
586.061	24838
586.074	24994
586.128	26100
586.133	26102
586.183	27262
586.205	27976
586.237	28635
586.277	28935
586.292	29020
586.346	28595
586.349	28566
586.401	29385
586.421	29737
586.455	30718
586.493	32032
586.509	33545
586.564	38486
586.565	38648
586.618	52686
586.637	55323
586.672	50984
586.709	42676
586.727	39862
586.781	36164
586.781	36231
586.835	37432
586.853	37764
586.889	38437
586.925	38701
586.944	39170
586.996	41270
586.998	41421
587.052	43306
587.068	43876
587.106	45474
587.140	46881
587.161	47902
587.212	49211
587.215	49383
587.269	52138
587.284	52572
587.323	54675
587.356	56660
587.377	57999
587.427	60781
587.431	61211
587.485	65475
587.499	66362
587.539	69318
587.571	71869
587.593	74160
587.643	78932
587.648	79643
587.702	85685
587.715	87111
587.755	93315
587.786	97483
587.810	101192
587.858	108719
587.864	110083
587.917	122477
587.930	124883
587.971	136688
588.001	145749
588.025	154234
588.073	170625
588.079	173548
588.133	197658
588.145	202591
588.187	226485
588.217	244286
588.241	263209
588.288	299968
588.295	306635
588.348	359452
588.360	370600
588.402	425970
588.431	464851
588.456	506353
588.503	588365
588.510	604830
588.564	734071
588.575	761404
588.617	915270
588.646	1023166
588.671	1169785
588.718	1464838
588.725	1545534
588.778	2189206
588.789	2328282
588.832	3091395
588.861	3636644
588.886	3903848
588.932	4334068
588.939	4328757
588.993	3921869
589.004	3873348
589.047	4115173
589.075	4144890
589.100	3704922
589.147	2789742
589.154	2689698
589.207	1965430
589.218	1823456
589.261	1629260
589.290	1509964
589.314	1552353
589.361	1651974
589.368	1719137
589.421	2288512
589.433	2416771
589.475	3192633
589.504	3762389
589.528	3941388
589.576	4098418
589.582	4095482
589.635	3930674
589.647	3853529
589.689	2937396
589.718	2278978
589.742	1870717
589.790	1115911
589.795	1082037
589.849	772323
589.861	701821
589.902	586877
589.932	502560
589.955	461835
590.004	375024
590.009	370515
590.062	314562
590.075	300222
590.115	270788
590.146	247694
590.168	237712
590.218	213430
590.222	212331
590.275	191016
590.289	184915
590.328	174585
590.360	165566
590.381	160620
590.431	147551
590.435	147308
590.488	135901
590.503	132305
590.541	127033
590.574	122043
590.594	119680
590.645	112115
590.647	112199
590.700	105530
590.716	103039
590.753	98988
590.787	94856
590.806	93967
590.859	90432
590.859	90668
590.912	86909
590.930	85394
590.965	83236
591.001	80678
591.018	80452
591.071	78597
591.072	78312
591.124	75248
591.143	73657
591.177	73266
591.214	72524
591.230	71932
591.283	68964
591.285	68616
591.336	69393
591.356	69319
591.389	67923
591.427	65639
591.442	64988
591.495	61734
591.498	61286
591.547	60538
591.569	59854
591.600	59269
591.640	57994
591.653	58168
591.706	57990
591.711	57778
591.759	56605
591.782	55622
591.811	56712
591.853	57917
591.864	57310
591.917	53003
591.924	52195
591.969	52191
591.995	51880
592.022	51611
592.066	50742
592.075	51051
592.127	51784
592.137	51740
592.180	54407
592.208	55798
592.233	53660
592.279	48963
592.285	49017
592.338	48022
592.350	47623
592.390	46334
592.421	45036
592.443	45267
592.491	45268
592.495	45358
592.548	44217
592.562	43740
592.600	43824
592.633	43584
592.653	43571
592.704	42877
592.705	43118
592.775	42751
592.846	42047
592.916	41980
592.987	43288
593.058	42299
593.128	40294
593.199	38127
593.270	37609
593.341	36695
593.411	37305
593.482	37095
593.553	36268
593.623	34608
593.694	35466
593.764	36533
593.835	35357
593.906	34038
593.976	34207
594.047	34970
594.117	37319
594.188	38695
594.258	33427
594.329	31777
594.399	31400
594.470	32025
594.540	31423
594.611	32356
594.681	31916
594.751	34455
594.822	38010
594.892	41423
594.963	36102
595.033	33448
595.103	32873
595.174	34069
595.244	40405
595.314	51177
595.384	33419
595.455	29562
595.525	29938
595.595	30723
595.665	30079
595.736	29738
595.806	29931
595.876	29422
595.946	29891
596.016	27268
596.087	27972
596.157	28934
596.227	29011
596.297	29126
596.367	30798
596.437	31321
596.507	37077
596.577	46322
596.647	32942
596.717	30081
596.787	29383
596.857	29368
596.927	29108
596.997	28603
597.067	29543
597.137	30326
597.207	30789
597.277	29210
597.347	28918
597.417	29711
597.487	28621
597.557	29883
597.626	30064
597.696	30927
597.766	34869
597.836	42552
597.906	32828
597.975	28270
598.045	26861
598.115	26832
598.185	27871
598.254	30478
598.324	29643
598.394	31572
598.464	30477
598.533	30028
598.603	27789
598.672	28472
598.742	27794
598.812	27985
598.881	27808
598.951	27200
599.020	27277
599.090	26633
599.159	27467
599.229	27034
599.299	25796
599.368	27478
599.437	25469
599.507	25429
599.576	26623
599.646	26584
599.715	27419
599.785	26019
599.854	27175
599.924	28775
599.993	26847
600.062	25601
600.132	24979
600.201	27245
600.270	28548
600.340	28146
600.409	25334
600.478	26804
600.547	26720
600.617	26959
600.686	25233
600.755	24887
600.824	25371
600.894	24993
600.963	22145
601.032	23229
601.101	22867
601.170	22197
601.239	22790
601.308	22702
601.378	21945
601.447	22098
601.516	21010
601.585	22428
601.654	22562
601.723	22524
601.792	21533
601.861	24141
601.930	25999
601.999	26012
602.068	22810
602.137	23129
602.206	23853
602.275	23337
602.343	27094
602.412	28148
602.481	23078
602.550	21940
602.619	22480
602.688	23840
602.756	22121
602.825	20885
602.894	21570
602.963	22276
603.032	21824
603.100	21879
603.169	21862
603.238	22358
603.307	21881
603.375	20749
603.444	21845
603.513	21279
603.581	21759
603.650	22282
603.719	21505
603.787	21171
603.856	22747
603.924	23313
603.993	24381
604.061	22840
604.130	23304
604.198	24606
604.267	22819
604.335	23377
604.404	23652
604.472	23063
604.541	23931
604.609	24607
604.678	23238
604.746	24192
604.815	24292
604.883	24257
604.951	24025
605.020	23854
605.088	24288
605.156	24801
605.225	24284
605.293	24460
605.361	23951
605.429	24744
605.498	25158
605.566	26627
605.634	25993
605.702	26497
605.771	27051
605.839	27855
605.907	26032
605.975	25600
606.043	25246
606.111	26271
606.180	26561
606.248	27271
606.316	29285
606.384	26283
606.452	31089
606.520	33602
606.588	29011
606.656	25358
606.724	26202
606.792	23452
606.860	22686
606.928	21886
606.996	21966
607.064	20304
607.132	20793
607.200	21731
607.267	22292
607.335	22708
607.403	22101
607.471	22081
607.539	21639
607.607	21397
607.674	20343
607.742	21505
607.810	22420
607.878	21968
607.946	20340
608.013	22223
608.081	22706
608.149	22755
608.216	21090
608.284	22461
608.352	21980
608.419	22906
608.487	28128
608.555	24876
608.622	22143
608.690	21787
608.757	24136
608.825	25351
608.893	25958
608.960	28209
609.028	33249
609.095	32068
609.163	25088
609.230	22546
609.298	21977
609.365	20383
609.432	21335
609.500	22275
609.567	23926
609.635	26781
609.702	27993
609.769	27709
609.837	25581
609.904	23570
609.971	21451
610.039	24306
610.106	29405
610.173	46203
610.241	100752
610.308	92640
610.375	53251
610.442	26189
610.509	21294
610.577	21564
610.644	21691
610.711	20971
610.778	22293
610.845	22039
610.912	23515
610.980	25918
611.047	28861
611.114	28184
611.181	23774
611.248	22047
611.315	23310
611.382	23835
611.449	23468
611.516	24659
611.583	24461
611.650	24264
611.717	25012
611.784	24969
611.851	26968
611.918	30869
611.984	33896
612.051	44259
612.118	82924
612.185	205967
612.252	160345
612.319	38284
612.386	30578
612.452	27809
612.519	29168
612.586	35111
612.653	31424
612.719	27808
612.786	26508
612.853	24811
612.919	24367
612.986	25059
613.053	23754
613.120	23240
613.186	21787
613.253	23824
613.319	23312
613.386	23257
613.453	23419
613.519	27633
613.586	29817
613.652	42077
613.719	34474
613.785	33328
613.852	23987
613.918	23692
613.985	27326
614.051	37769
614.118	69933
614.184	80318
614.250	29365
614.317	24983
614.383	23203
614.449	23919
614.516	24385
614.582	24143
614.648	22714
614.715	23294
614.781	23234
614.847	23358
614.914	25127
614.980	25191
615.046	24236
615.112	25522
615.179	28471
615.245	33197
615.311	50310
615.377	97276
615.443	122806
615.509	54846
615.575	35241
615.642	30916
615.708	32452
615.774	36106
615.840	42335
615.906	56918
615.972	98234
616.038	217520
616.104	288769
616.170	326985
616.236	306895
616.302	67476
616.368	43213
616.434	34123
616.500	30782
616.565	32637
616.631	35614
616.697	32165
616.763	32194
616.829	38047
616.895	62303
616.961	64532
617.026	36065
617.092	26596
617.158	24730
617.224	24897
617.289	24059
617.355	24242
617.421	22570
617.487	23695
617.552	22191
617.618	21353
617.684	20909
617.749	23925
617.815	21156
617.880	19924
617.946	20914
618.012	21370
618.077	22017
618.143	20587
618.208	20643
618.274	22963
618.339	22754
618.405	20212
618.470	21690
618.536	21347
618.601	22794
618.667	22482
618.732	20663
618.798	21182
618.863	20401
618.928	19418
618.994	21181
619.059	24235
619.124	31578
619.190	25938
619.255	19741
619.320	20049
619.386	20471
619.451	19710
619.516	18387
619.581	18551
619.647	20067
619.712	20344
619.777	20103
619.842	20085
619.907	21975
619.972	20333
620.038	20392
620.103	19814
620.168	18018
620.233	19296
620.298	18157
620.363	17977
620.428	20319
620.493	19178
620.558	18356
620.623	20109
620.688	18242
620.753	19165
620.818	18997
620.883	19873
620.948	19800
621.013	19596
621.078	19833
621.143	19817
621.207	22242
621.272	21464
621.337	22621
621.402	23348
621.467	27453
621.532	31467
621.596	25097
621.661	23966
621.726	22297
621.791	21383
621.855	21977
621.920	24617
621.985	24831
622.049	26230
622.114	25820
622.179	24279
622.243	23930
622.308	24163
622.373	25091
622.437	25135
622.502	23176
622.566	22847
622.631	22172
622.695	24737
622.760	23506
622.824	23866
622.889	24295
622.953	25034
623.018	36625
623.082	40165
623.147	25516
623.211	24110
623.276	24319
623.340	22686
623.404	22228
623.469	22377
623.533	21443
623.597	22000
623.662	22384
623.726	22157
623.790	21896
623.854	20159
623.919	21305
623.983	21004
624.047	22035
624.111	21637
624.176	21927
624.240	24434
624.304	29054
624.368	23094
624.432	22605
624.496	23354
624.560	24754
624.625	27177
624.689	23588
624.753	22418
624.817	21360
624.881	20866
624.945	20781
625.009	20724
625.073	21461
625.137	23248
625.201	27754
625.265	28521
625.329	21202
625.393	22830
625.456	22490
625.520	22548
625.584	25673
625.648	30007
625.712	39567
625.776	79517
625.839	99669
625.903	48668
625.967	24008
626.031	33698
626.095	56808
626.158	27156
626.222	17833
626.286	17908
626.349	17021
626.413	16834
626.477	18583
626.540	17435
626.604	15990
626.668	17158
626.731	15612
626.795	17576
626.858	18391
626.922	16696
626.986	16467
627.049	15047
627.113	16171
627.176	15526
627.240	16114
627.303	15405
627.366	15187
627.430	16439
627.493	15248
627.557	16186
627.620	16799
627.684	15388
627.747	15319
627.810	14063
627.874	14917
627.937	13820
628.000	16700
628.064	16091
628.127	13937
628.190	13598
628.253	15453
628.317	14086
628.380	14249
628.443	14620
628.506	15221
628.569	13783
628.632	12997
628.696	13432
628.759	12809
628.822	13083
628.885	12073
628.948	12809
629.011	12440
629.074	13052
629.137	12657
629.200	12666
629.263	15361
629.326	12673
629.389	11825
629.452	12046
629.515	13723
629.578	12816
629.641	13754
629.704	13541
629.767	13495
629.830	12193
629.892	11899
629.955	11812
630.018	14455
630.081	13999
630.144	18694
630.207	13792
630.269	14427
630.332	14348
630.395	12945
630.458	12807
630.520	10652
630.583	12338
630.646	11051
630.708	11338
630.771	11055
630.834	11583
630.896	11332
630.959	11257
631.021	10564
631.084	11212
631.146	12107
631.209	13629
631.272	11370
631.334	11651
631.397	10386
631.459	10368
631.522	11084
631.584	11505
631.646	11342
631.709	12042
631.771	15297
631.834	13122
631.896	11714
631.958	9453
632.021	10702
632.083	9418
632.145	11403
632.208	10982
632.270	11052
632.332	9536
632.395	10031
632.457	10892
632.519	9916
632.581	10137
632.643	10068
632.706	10336
632.768	9717
632.830	9836
632.892	10135
632.954	9193
633.016	10558
633.078	9586
633.141	9556
633.203	9550
633.265	9582
633.327	9642
633.389	9182
633.451	12280
633.513	13504
633.575	13972
633.637	13576
633.698	12091
633.760	10495
633.822	10376
633.884	10220
633.946	10010
634.008	9720
634.070	10382
634.132	11372
634.193	10948
634.255	10233
634.317	9964
634.379	11560
634.441	10279
634.502	10841
634.564	13248
634.626	16274
634.687	21360
634.749	14250
634.811	10596
634.873	9476
634.934	8872
634.996	9394
635.057	8975
635.119	8147
635.181	8336
635.242	9207
635.304	7767
635.365	11328
635.427	8830
635.488	9540
635.550	8632
635.611	9683
635.673	7398
635.734	10798
635.796	9208
635.857	10241
635.918	8972
635.980	9641
636.041	9859
636.102	9978
636.164	10124
636.225	9694
636.286	8672
636.348	9980
636.409	8311
636.470	8489
636.531	9134
636.593	9564
636.654	10192
636.715	7714
636.776	8129
636.838	8025
636.899	9278
636.960	9003
637.021	9230
637.082	12940
637.143	13303
637.204	7921
637.265	7264
637.326	8529
637.387	7946
637.448	6832
637.509	7821
637.570	7171
637.631	7504
637.692	7362
637.753	6095
637.814	7415
637.875	7766
637.936	7649
637.997	7271
638.058	8536
638.119	8695
638.179	7855
638.240	6726
638.301	7368
638.362	7385
638.423	7662
638.483	8254
638.544	6601
638.605	7216
638.666	5992
638.726	8355
638.787	7398
638.848	6656
638.908	7241
638.969	7010
639.030	7711
639.090	6238
639.151	7149
639.211	7934
639.272	10464
639.332	16952
639.393	12462
639.453	7390
639.514	6918
639.574	7102
639.635	6555
639.695	7210
639.756	6556
639.816	7768
639.877	8930
639.937	14786
639.997	21812
640.058	9744
640.118	7106
640.178	7152
640.239	6394
640.299	6532
640.359	5691
640.420	6075
640.480	7019
640.540	6375
640.600	6530
640.661	7605
640.721	6800
640.781	9730
640.841	7858
640.901	8314
640.961	7323
641.021	7376
641.082	7980
641.142	13001
641.202	10456
641.262	5918
641.322	6722
641.382	6238
641.442	6348
641.502	6770
641.562	7640
641.622	5834
641.682	6711
641.742	6109
641.802	6819
641.861	8254
641.921	6959
641.981	8590
642.041	8507
642.101	10774
642.161	7643
642.221	6056
642.280	6153
642.340	6020
642.400	5286
642.460	6236
642.519	5886
642.579	6214
642.639	6821
642.698	4508
642.758	7564
642.818	6502
642.877	5890
642.937	6578
642.997	7871
643.056	11985
643.116	7441
643.175	7779
643.235	6018
643.294	6623
643.354	6449
643.414	7337
643.473	6885
643.532	8521
643.592	10179
643.651	13699
643.711	21932
643.770	37781
643.830	83076
643.889	214884
643.948	71931
644.008	12016
644.067	7180
644.126	6429
644.186	6772
644.245	6872
644.304	4597
644.363	7101
644.423	5687
644.482	6516
644.541	5349
644.600	3780
644.659	6304
644.719	6111
644.778	8952
644.837	10368
644.896	16170
644.955	35116
645.014	18491
645.073	7694
645.132	6855
645.191	7642
645.250	5332
645.309	7328
645.368	6546
645.427	7286
645.486	6240
645.545	10530
645.604	6088
645.663	5971
645.722	5507
645.781	6129
645.840	6544
645.898	7829
645.957	9034
646.016	10536
646.075	17772
646.134	32032
646.192	74601
646.251	147796
646.310	29223
646.369	8232
646.427	7457
646.486	5165
646.545	5904
646.603	6345
646.662	5826
646.721	6272
646.779	5266
646.838	4832
646.896	6368
646.955	6983
647.014	7331
647.072	9949
647.131	21143
647.189	15092
647.248	5331
647.306	6180
647.365	5593
647.423	3968
647.481	5769
647.540	3636
647.598	4901
647.657	4059
647.715	4403
647.773	4322
647.832	5756
647.890	4028
647.948	4597
648.007	6140
648.065	4695
648.123	4084
648.181	6710
648.240	6735
648.298	5439
648.356	5029
648.414	6042
648.472	5635
648.531	5570
648.589	4837
648.647	5617
648.705	5039
648.763	5179
648.821	5221
648.879	4769
648.937	5584
648.995	5031
649.053	6225
649.111	7555
649.169	10347
649.227	13943
649.285	23846
649.343	63895
649.401	49621
649.459	24706
649.516	21184
649.574	11935
649.632	23993
649.690	36029
649.748	12604
649.806	9237
649.863	14775
649.921	17608
649.979	13823
650.037	5256
650.094	3772
650.152	4786
650.210	3777
650.268	4608
650.325	4828
650.383	4483
650.440	4048
650.498	4860
650.556	4385
650.613	3774
650.671	3892
650.728	4050
650.786	5361
650.843	4820
650.901	3135
650.958	3791
651.016	4315
651.073	3542
651.131	3778
651.188	3132
651.246	4390
651.303	3017
651.360	3958
651.418	3473
651.475	4643
651.532	2966
651.590	4356
651.647	3106
651.704	4038
651.762	4394
651.819	4872
651.876	3856
651.933	3940
651.990	4821
652.048	3187
652.105	2562
652.162	3641
652.219	3828
652.276	4147
652.333	3319
652.390	2743
652.448	4081
652.505	3856
652.562	4371
652.619	4108
652.676	5657
652.733	7244
652.790	3734
652.847	2595
652.904	4419
652.961	3250
653.017	3154
653.074	4158
653.131	3842
653.188	3234
653.245	3533
653.302	3673
653.359	3092
653.415	3732
653.472	3493
653.529	4591
653.586	3240
653.642	3339
653.699	4172
653.756	3117
653.813	3452
653.869	4405
653.926	1741
653.983	3021
654.039	4108
654.096	4142
654.152	4315
654.209	3436
654.266	4719
654.322	2845
654.379	4246
654.435	3972
654.492	4567
654.548	6005
654.605	9344
654.661	6823
654.717	3740
654.774	4451
654.830	4648
654.887	4882
654.943	4517
655.000	5255
655.056	4407
655.112	4273
655.168	2822
655.225	4689
655.281	5377
655.337	5227
655.394	8626
655.450	8412
655.506	6949
655.562	9180
655.618	10000
655.675	3933
655.731	4802
655.787	4847
655.843	5936
655.899	5252
655.955	6199
656.011	6067
656.067	6789
656.123	6564
656.179	8140
656.235	8683
656.291	7071
656.347	8342
656.403	6711
656.459	6012
656.515	6536
656.571	5785
656.627	5839
656.683	4951
656.739	5690
656.795	4826
656.850	4158
656.906	5198
656.962	4894
657.018	2911
657.074	3861
657.129	3872
657.185	5074
657.241	4949
657.297	4231
657.352	3709
657.408	3475
657.464	5074
657.519	3865
657.575	3366
657.630	3924
657.686	2937
657.742	2702
657.797	3154
657.853	2915
657.908	4195
657.964	2237
658.019	3425
658.075	3379
658.130	3664
658.186	2226
658.241	3567
658.297	2485
658.352	2920
658.407	3193
658.463	2398
658.518	4161
658.573	2927
658.629	2504
658.684	2501
658.739	3846
658.795	2135
658.850	2848
658.905	2640
658.960	2980
659.016	2630
659.071	3016
659.126	3129
659.181	3883
659.236	6420
659.291	8180
659.346	4469
659.401	3835
659.457	3804
659.512	4953
659.567	4738
659.622	3018
659.677	3735
659.732	3145
659.787	3410
659.842	3332
659.897	5850
659.952	3671
660.007	3261
660.061	2499
660.116	2496
660.171	2463
660.226	3064
660.281	3520
660.336	2715
660.391	3771
660.445	2648
660.500	3191
660.555	3528
660.610	1997
660.664	2904
660.719	2128
660.774	3303
660.828	2904
660.883	3264
660.938	3527
660.992	1918
661.047	3415
661.101	1921
661.156	1879
661.211	2677
661.265	2139
661.320	2133
661.374	2978
661.429	3049
661.483	2846
661.538	2376
661.592	2735
661.647	2796
661.701	3488
661.755	3267
661.810	3345
661.864	2633
661.919	2422
661.973	3216
662.027	2342
662.081	2920
662.136	1908
662.190	4080
662.244	3797
662.299	3388
662.353	3957
662.407	3266
662.461	2748
662.515	3684
662.569	2693
662.624	4364
662.678	2503
662.732	3092
662.786	2694
662.840	3576
662.894	2866
662.948	2558
663.002	2517
663.056	3279
663.110	2069
663.164	2533
663.218	3525
663.272	3338
663.326	3836
663.380	3740
663.434	3171
663.488	2748
663.542	2547
663.595	2971
663.649	2644
663.703	2723
663.757	3183
663.811	2188
663.864	2615
663.918	2759
663.972	2510
664.026	3125
664.079	1744
664.133	3684
664.187	2201
664.240	1787
664.294	3103
664.348	3306
664.401	3222
664.455	3933
664.508	3069
664.562	2867
664.615	2921
664.669	2308
664.722	3305
664.776	2918
664.829	2030
664.883	2660
664.936	2806
664.990	3304
665.043	3316
665.097	3014
665.150	3608
665.203	2862
665.257	3017
665.310	3162
665.363	3666
665.417	3949
665.470	3261
665.523	3407
665.576	2845
665.630	2984
665.683	2645
665.736	2981
665.789	2914
665.842	2881
665.895	3952
665.949	3391
666.002	2394
666.055	2571
666.108	3432
666.161	3122
666.214	3906
666.267	3368
666.320	4084
666.373	3620
666.426	3857
666.479	2684
666.532	2832
666.585	4048
666.638	4493
666.691	3951
666.744	4448
666.796	4483
666.849	3414
666.902	3914
666.955	3156
667.008	2194
667.060	2875
667.113	2001
667.166	2741
667.219	2583
667.271	3893
667.324	3226
667.377	2853
667.430	3052
667.482	3572
667.535	3578
667.587	3253
667.640	3918
667.693	4490
667.745	6089
667.798	8391
667.850	4269
667.903	2864
667.955	2774
668.008	2835
668.060	3832
668.113	3775
668.165	3972
668.218	3293
668.270	3813
668.322	3405
668.375	2910
668.427	3360
668.479	3237
668.532	3058
668.584	3695
668.636	3222
668.689	2805
668.741	2805
668.793	3172
668.845	3136
668.898	4012
668.950	3069
669.002	3485
669.054	2667
669.106	3359
669.158	3810
669.211	3568
669.263	4177
669.315	4779
669.367	5431
669.419	4646
669.471	5343
669.523	6265
669.575	9089
669.627	7636
669.679	4664
669.731	5059
669.783	4555
669.835	6315
669.886	5332
669.938	4946
669.990	2739
670.042	3255
670.094	3759
670.146	3715
670.197	4343
670.249	5784
670.301	6569
670.353	8889
670.404	12058
670.456	16785
670.508	26289
670.560	43597
670.611	72304
670.663	124400
670.715	270431
670.766	564817
670.818	211027
670.869	27856
670.921	12641
670.972	9127
671.024	7073
671.075	6067
671.127	5492
671.178	4055
671.230	4233
671.281	4224
671.333	4364
671.384	4161
671.436	4188
671.487	5472
671.538	4014
671.590	5968
671.641	6210
671.692	7167
671.744	10873
671.795	10813
671.846	5318
671.897	3891
671.949	3889
672.000	4363
672.051	4092
672.102	3878
672.153	3175
672.204	3644
672.256	3515
672.307	3054
672.358	3470
672.409	3858
672.460	2909
672.511	3554
672.562	3062
672.613	2964
672.664	3313
672.715	3334
672.766	2622
672.817	2383
672.868	3793
672.919	3019
672.970	2901
673.021	3582
673.071	2874
673.122	3597
673.173	3217
673.224	3487
673.275	2862
673.326	3172
673.376	3467
673.427	2521
673.478	3080
673.528	3651
673.579	2307
673.630	3280
673.680	3150
673.731	2661
673.782	1573
673.832	2608
673.883	3222
673.934	2260
673.984	1717
674.035	3017
674.085	2298
674.136	3149
674.186	2453
674.237	3640
674.287	4983
674.338	4525
674.388	2345
674.438	3389
674.489	2432
674.539	2735
674.589	2518
674.640	3218
674.690	2888
674.740	2454
674.791	2665
674.841	3416
674.891	2541
674.942	2620
674.992	2867
675.042	2841
675.092	2101
675.142	2601
675.193	2670
675.243	2304
675.293	2764
675.343	2580
675.393	2304
675.443	2410
675.493	2311
675.543	1684
675.593	2725
675.643	2986
675.693	2869
675.743	2186
675.793	2935
675.843	1958
675.893	2313
675.943	2724
675.993	2451
676.043	2399
676.093	2419
676.142	2330
676.192	2517
676.242	1760
676.292	1697
676.341	2565
676.391	2081
676.441	2400
676.491	2040
676.540	2166
676.590	3401
676.640	2246
676.689	2449
676.739	1239
676.789	1897
676.838	2377
676.888	2047
676.937	1723
676.987	2035
677.037	1863
677.086	1281
677.136	1934
677.185	1829
677.235	2019
677.284	2204
677.333	2195
677.383	1955
677.432	2040
677.482	1579
677.531	1865
677.580	1749
677.630	1495
677.679	1845
677.728	2958
677.778	2117
677.827	1202
677.876	1977
677.925	2336
677.975	1954
678.024	1964
678.073	906
678.122	2318
678.171	2018
678.220	2385
678.269	1728
678.319	1970
678.368	1812
678.417	2630
678.466	1958
678.515	1734
678.564	2096
678.613	1700
678.662	2093
678.711	2076
678.760	2310
678.809	1941
678.857	2088
678.906	2431
678.955	1449
679.004	2035
679.053	2228
679.102	2199
679.151	1930
679.199	2672
679.248	1276
679.297	1407
679.346	2380
679.394	1738
679.443	1299
679.492	1164
679.540	1752
679.589	2254
679.638	1676
679.686	1744
679.735	2033
679.784	2636
679.832	2090
679.881	2478
679.929	1556
679.978	1015
680.026	686
680.075	2157
680.123	941
680.172	2268
680.220	1145
680.268	1564
680.317	1677
680.365	1139
680.414	1820
680.462	1728
680.510	1548
680.559	2244
680.607	1788
680.655	1773
680.703	1612
680.752	1568
680.800	1141
680.848	1042
680.896	1386
680.945	2005
680.993	1488
681.041	1431
681.089	1614
681.137	1061
681.185	716
681.233	1714
681.258	1540
681.281	1360
681.329	1099
681.377	750
681.380	826
681.425	1967
681.473	2637
681.502	2094
681.521	1687
681.569	2225
681.617	1770
681.624	1794
681.665	1849
681.713	1676
681.745	1692
681.761	1680
681.809	1215
681.857	1427
681.867	1436
681.904	1400
681.952	2188
681.989	2004
682.000	1933
682.048	2213
682.096	1670
682.111	1706
682.143	1733
682.191	1948
682.233	2090
682.239	2101
682.286	1940
682.334	1817
682.354	1850
682.382	1841
682.430	2456
682.476	2243
682.477	2227
682.525	2018
682.572	2258
682.598	2030
682.620	1824
682.667	2280
682.715	2164
682.720	2195
682.763	2314
682.810	1904
682.841	2244
682.857	2398
682.905	2036
682.952	2818
682.963	2582
683.000	1743
683.047	2646
683.085	2961
683.095	3016
683.142	2335
683.190	2949
683.206	2754
683.237	2383
683.284	2474
683.328	2374
683.332	2356
683.379	2513
683.426	2172
683.449	1917
683.473	1638
683.521	2146
683.568	2575
683.571	2582
683.615	2572
683.662	2996
683.693	2846
683.709	2724
683.757	2758
683.804	2789
683.814	2730
683.851	2531
683.898	3105
683.936	2811
683.945	2729
683.992	2753
684.039	2850
684.057	2807
684.086	2689
684.133	3000
684.179	2645
684.180	2622
684.227	3338
684.274	3353
684.300	3441
684.321	3503
684.368	3388
684.415	3548
684.422	3467
684.462	2946
684.509	2859
684.543	2932
684.556	2942
684.603	2834
684.649	3057
684.665	3048
684.696	3085
684.743	2948
684.786	3065
684.790	3071
684.837	3251
684.883	3961
684.908	4078
684.930	4134
684.977	4232
685.023	4378
685.029	4324
685.070	3723
685.117	3390
685.150	3669
685.164	3799
685.210	3900
685.257	4824
685.272	4527
685.303	3877
685.350	3545
685.393	4600
685.396	4687
685.443	4370
685.490	4896
685.514	4745
685.536	4456
685.583	4748
685.629	4172
685.636	4171
685.675	4266
685.722	4182
685.757	4094
685.768	4080
685.815	4483
685.861	3834
685.878	4046
685.908	4363
685.954	4132
686.000	4767
686.000	4776
686.047	4421
686.093	4715
686.121	5407
686.139	5746
686.185	4703
686.232	4911
686.242	4844
686.278	4487
686.324	4466
686.363	4108
686.370	4059
686.416	3729
686.463	4339
686.484	4415
686.509	4599
686.555	4043
686.601	4014
686.606	4088
686.647	4690
686.693	4559
686.727	4405
686.739	4348
686.785	4508
686.831	4474
686.848	4701
686.877	4925
686.923	4199
686.969	4221
686.969	4222
687.015	3910
687.061	4415
687.090	4491
687.107	4455
687.153	4477
687.199	4245
687.211	4280
687.245	4519
687.291	4942
687.332	4756
687.336	4734
687.382	5347
687.428	5296
687.453	5354
687.474	5255
687.520	4776
687.565	4306
687.574	4265
687.611	4336
687.657	4370
687.695	4403
687.702	4454
687.748	4979
687.794	6182
687.816	5858
687.839	5259
687.885	5295
687.931	4801
687.937	4802
687.976	5010
688.022	4990
688.058	4755
688.067	4710
688.113	5210
688.158	4730
688.179	4789
688.204	4834
688.249	5096
688.295	4939
688.300	4970
688.340	5221
688.386	5393
688.421	5097
688.431	5048
688.477	5277
688.522	5385
688.542	5473
688.567	5515
688.613	5539
688.658	5708
688.663	5656
688.703	5260
688.749	5257
688.784	5646
688.794	5717
688.839	5169
688.884	4779
688.905	4754
688.930	4949
688.975	5416
689.020	5253
689.026	5299
689.065	5374
689.110	4819
689.146	4748
689.155	4800
689.201	4681
689.246	5147
689.267	5269
689.291	5296
689.336	5442
689.381	5304
689.388	5303
689.426	5496
689.471	5361
689.509	5734
689.516	5770
689.561	5313
689.606	4902
689.630	4989
689.651	5164
689.696	5552
689.741	5779
689.750	5788
689.785	5773
689.830	5398
689.871	5595
689.875	5621
689.920	5635
689.965	5361
689.992	5188
690.010	5146
690.054	5377
690.099	5525
690.112	5565
690.144	5664
690.189	5609
690.233	5374
690.233	5381
690.278	5780
690.323	5764
690.354	6039
690.367	6159
690.412	6072
690.457	5874
690.474	5844
690.501	5855
690.546	6125
690.590	6331
690.595	6271
690.635	5967
690.680	6314
690.716	6456
690.724	6593
690.769	7253
690.813	8639
690.836	8915
690.857	9429
690.902	10541
690.946	12111
690.957	12503
690.991	16034
691.035	21338
691.077	27178
691.080	27275
691.124	25178
691.168	22684
691.198	21369
691.213	19764
691.257	16281
691.301	12174
691.318	10615
691.346	9918
691.390	8805
691.434	7427
691.439	7325
691.478	7377
691.522	7120
691.559	7095
691.567	7156
691.611	7259
691.655	7223
691.680	7154
691.699	7056
691.743	7818
691.787	7455
691.800	7344
691.831	7161
691.875	7360
691.919	7390
691.921	7375
691.964	7345
692.008	7610
692.041	7492
692.052	7457
692.096	7486
692.139	7034
692.162	7047
692.183	7044
692.227	7031
692.271	7127
692.282	7052
692.315	6979
692.359	6916
692.402	6869
692.403	6885
692.447	7286
692.490	7341
692.523	7733
692.534	7858
692.578	7994
692.622	7934
692.643	8112
692.666	8194
692.709	7677
692.753	7649
692.763	7631
692.797	7642
692.840	7397
692.884	7134
692.884	7149
692.928	7294
692.971	7471
693.004	7526
693.015	7603
693.059	7415
693.102	7630
693.124	7738
693.146	7784
693.189	7774
693.233	7884
693.245	7862
693.276	8018
693.320	8407
693.363	8352
693.365	8355
693.407	9283
693.450	9604
693.485	10138
693.493	10431
693.537	11781
693.580	13358
693.605	14158
693.624	15517
693.667	18480
693.710	21884
693.725	23183
693.753	30333
693.797	41829
693.840	54445
693.845	55490
693.883	52032
693.926	46663
693.966	43424
693.970	42505
694.013	32101
694.056	22257
694.086	15258
694.099	14670
694.142	12872
694.185	11103
694.206	10103
694.229	9876
694.272	9734
694.315	9616
694.326	9553
694.358	9673
694.401	9879
694.444	10081
694.446	10058
694.487	9701
694.530	9546
694.566	9031
694.573	8944
694.616	8596
694.659	8192
694.686	7962
694.702	7969
694.745	7866
694.787	7739
694.806	7803
694.830	7951
694.873	7812
694.916	7789
694.926	7717
694.959	7584
695.002	7488
695.044	7521
695.046	7501
695.087	7623
695.130	7903
695.166	7859
695.172	7921
695.215	8303
695.258	8822
695.286	9085
695.301	8987
695.343	8778
695.386	8253
695.406	8016
695.428	7851
695.471	7661
695.514	7519
695.526	7400
695.556	7426
695.599	7588
695.641	7689
695.646	7680
695.684	7739
695.726	7813
695.766	7777
695.769	7805
695.811	8060
695.854	8177
695.886	8371
695.896	8349
695.938	8004
695.981	7619
696.005	7452
696.023	7475
696.065	7441
696.108	7398
696.125	7373
696.150	7594
696.192	7954
696.235	8276
696.245	8345
696.277	8395
696.319	8387
696.361	8282
696.365	8267
696.404	8356
696.446	8351
696.485	8274
696.488	8310
696.530	8405
696.572	8719
696.604	8914
696.614	8893
696.656	8551
696.698	8280
696.724	8096
696.740	8021
696.783	7805
696.825	7597
696.844	7434
696.867	7596
696.909	7993
696.951	8348
696.964	8436
696.992	8401
697.034	8192
697.076	8067
697.083	8032
697.118	8322
697.160	8574
697.202	8856
697.203	8839
697.244	8921
697.286	8988
697.323	9040
697.327	9052
697.369	8836
697.411	8725
697.442	8612
697.453	8668
697.494	8675
697.536	8911
697.562	8903
697.578	9024
697.620	9350
697.661	9694
697.682	9829
697.703	9757
697.744	9559
697.786	9450
697.801	9342
697.828	9722
697.869	10291
697.911	10889
697.921	10997
697.952	10499
697.994	9890
698.035	9213
698.040	9113
698.077	8979
698.118	8667
698.160	8469
698.160	8444
698.201	8528
698.243	8519
698.279	8562
698.284	8609
698.325	8823
698.367	8971
698.399	9089
698.408	9052
698.449	8766
698.491	8488
698.518	8274
698.532	8358
698.573	8552
698.614	8747
698.638	8825
698.656	8877
698.697	8959
698.738	9030
698.757	9037
698.779	9250
698.820	9620
698.862	9980
698.877	10092
698.903	10248
698.944	10442
698.985	10640
698.996	10667
699.026	10328
699.067	9820
699.116	9189
699.235	9221
699.354	8707
699.474	10080
699.593	11055
699.713	11805
699.832	10163
699.951	11474
700.070	11043
700.190	10687
700.309	11300
700.428	11796
700.547	11520
700.667	10748
700.786	11783
700.905	9499
701.024	9712
701.143	8735
701.262	8946
701.381	9194
701.500	9249
701.619	10378
701.738	9063
701.857	9511
701.976	9161
702.095	9341
702.214	9713
702.333	10104
702.452	9548
702.571	9141
702.690	8787
702.809	8720
702.928	7541
703.047	9263
703.165	8640
703.284	8760
703.403	8114
703.522	10441
703.640	9681
703.759	10862
703.878	14080
703.997	9540
704.115	8953
704.234	8566
704.353	7564
704.471	7600
704.590	8312
704.708	7354
704.827	7939
704.946	7759
705.064	8308
705.183	8614
705.301	9068
705.420	11434
705.538	10921
705.656	9584
705.775	10021
705.893	13857
706.012	16836
706.130	9355
706.249	9708
706.367	10192
706.485	10140
706.604	9335
706.722	10074
706.840	12328
706.958	12173
707.077	9595
707.195	8731
707.313	9924
707.431	8444
707.549	8733
707.668	8731
707.786	8993
707.904	8258
708.022	8328
708.140	8568
708.258	9024
708.376	8992
708.494	8376
708.612	9025
708.730	11540
708.848	12230
708.966	10942
709.084	11366
709.202	10251
709.320	10409
709.438	9380
709.556	10211
709.674	9897
709.791	10790
709.909	9267
710.027	9876
710.145	9644
710.263	10624
710.380	9807
710.498	10068
710.616	9417
710.733	9454
710.851	10108
710.969	9947
711.086	9346
711.204	9478
711.322	10230
711.439	9729
711.557	9613
711.674	9399
711.792	9069
711.909	10084
712.027	9374
712.144	9153
712.262	9006
712.379	10413
712.497	14512
712.614	13046
712.732	11622
712.849	11044
712.966	12141
713.084	14123
713.201	12011
713.318	11406
713.436	10970
713.553	11645
713.670	11096
713.787	11771
713.905	12619
714.022	11222
714.139	9953
714.256	11680
714.373	11428
714.490	12380
714.608	18561
714.725	54907
714.842	65620
714.959	12068
715.076	10519
715.193	9509
715.310	10067
715.427	10165
715.544	8649
715.661	9634
715.778	10495
715.895	11256
716.011	9817
716.128	9735
716.245	10376
716.362	12130
716.479	12784
716.596	11035
716.713	10954
716.829	10636
716.946	9818
717.063	8840
717.180	8963
717.296	10168
717.413	10102
717.530	8946
717.646	9020
717.763	9616
717.880	8123
717.996	8869
718.113	8662
718.229	9214
718.346	8162
718.462	10636
718.579	10531
718.695	17233
718.812	13588
718.928	11558
719.045	10649
719.161	8764
719.277	7910
719.394	9803
719.510	8857
719.626	8527
719.743	9995
719.859	9609
719.975	9340
720.092	17446
720.208	34262
720.324	11855
720.440	8301
720.557	10286
720.673	13862
720.789	18508
720.905	35047
721.021	15901
721.137	7705
721.253	7930
721.369	8794
721.486	9834
721.602	12614
721.718	8319
721.834	6608
721.950	7609
722.066	7563
722.181	7038
722.297	8076
722.413	8385
722.529	8075
722.645	8172
722.761	7581
722.877	6624
722.993	6841
723.108	7861
723.224	6811
723.340	6772
723.456	8387
723.571	7956
723.687	7263
723.803	7356
723.918	6485
724.034	7162
724.150	6484
724.265	8276
724.381	14690
724.497	18740
724.612	6780
724.728	7659
724.843	7299
724.959	9679
725.074	14775
725.190	18911
725.305	7294
725.421	8000
725.536	6011
725.651	6439
725.767	5917
725.882	6784
725.997	6088
726.113	6676
726.228	6745
726.343	6696
726.459	5321
726.574	7344
726.689	5964
726.804	5822
726.920	6050
727.035	5483
727.150	6486
727.265	6518
727.380	7035
727.495	7466
727.610	6802
727.725	6663
727.841	6895
727.956	9866
728.071	9402
728.186	5546
728.301	5507
728.416	6796
728.531	6427
728.645	6070
728.760	8359
728.875	11041
728.990	10653
729.105	7706
729.220	7022
729.335	7194
729.449	6108
729.564	5398
729.679	5100
729.794	5679
729.908	5942
730.023	5713
730.138	4678
730.253	5095
730.367	5397
730.482	4971
730.596	5231
730.711	5508
730.826	4955
730.940	5231
731.055	4981
731.169	4550
731.284	4875
731.398	4781
731.513	6165
731.627	5754
731.742	4913
731.856	6422
731.970	3592
732.085	4653
732.199	4330
732.313	6378
732.428	7304
732.542	16346
732.656	11593
732.771	5182
732.885	4826
732.999	5988
733.113	5074
733.227	4788
733.342	5136
733.456	4113
733.570	4783
733.684	4662
733.798	4886
733.912	4303
734.026	4117
734.140	4664
734.254	4770
734.368	7922
734.482	9428
734.596	4317
734.710	4472
734.824	4313
734.938	4391
735.052	4569
735.166	5295
735.280	5321
735.393	4650
735.507	5180
735.621	6420
735.735	9941
735.849	6252
735.962	5350
736.076	4783
736.190	5433
736.303	6989
736.417	8467
736.531	4467
736.644	5567
736.758	4185
736.872	4566
736.985	4484
737.099	4336
737.212	4072
737.326	4862
737.439	4656
737.553	4128
737.666	4314
737.780	4189
737.893	3695
738.007	4240
738.120	3479
738.233	4340
738.347	4068
738.460	4873
738.573	4730
738.687	4656
738.800	4809
738.913	5767
739.026	3798
739.140	4737
739.253	4456
739.366	4640
739.479	4731
739.592	3970
739.705	4168
739.818	3699
739.932	4158
740.045	4611
740.158	4172
740.271	5462
740.384	5823
740.497	6617
740.610	8964
740.723	6900
740.836	7930
740.949	7303
741.062	6854
741.174	6809
741.287	5252
741.400	5390
741.513	7236
741.626	10341
741.739	7291
741.851	5443
741.964	5224
742.077	5747
742.189	6728
742.302	12931
742.415	12758
742.527	7020
742.640	4941
742.753	5373
742.865	4110
742.978	4848
743.090	3786
743.203	2922
743.316	3561
743.428	3696
743.541	3210
743.653	3410
743.766	3555
743.878	3577
743.990	5349
744.103	8288
744.215	11057
744.327	6546
744.440	4825
744.552	7449
744.664	4751
744.777	4012
744.889	3263
745.001	3133
745.113	2772
745.226	3196
745.338	3190
745.450	3406
745.562	2213
745.674	3109
745.786	2761
745.898	3691
746.010	3184
746.122	3162
746.234	2977
746.347	3118
746.459	3655
746.570	4126
746.682	6212
746.794	15144
746.906	9007
747.018	4205
747.130	2913
747.242	3242
747.354	3454
747.466	3973
747.577	3666
747.689	3966
747.801	2691
747.913	3023
748.024	3123
748.136	2834
748.248	3075
748.359	3295
748.471	2849
748.583	3386
748.694	3092
748.806	3869
748.918	4141
749.029	3894
749.141	3976
749.252	4796
749.364	4115
749.475	7976
749.587	5919
749.698	3544
749.809	3119
749.921	3009
750.032	2828
750.144	2537
750.255	2498
750.366	2800
750.478	3079
750.589	3122
750.700	3024
750.811	3267
750.923	4877
751.034	7496
751.145	8203
751.256	4133
751.367	2857
751.479	3009
751.590	2641
751.701	2458
751.812	3243
751.923	3179
752.034	2065
752.145	3046
752.256	2707
752.367	3123
752.478	2842
752.589	4033
752.700	2619
752.811	2747
752.922	2096
753.032	3419
753.143	3584
753.254	2851
753.365	2259
753.476	2281
753.586	2686
753.697	2849
753.808	3001
753.919	2521
754.029	2730
754.140	2278
754.251	3154
754.361	3277
754.472	2477
754.582	3112
754.693	3112
754.804	3291
754.914	2196
755.025	2405
755.135	2562
755.246	1976
755.356	2597
755.466	3857
755.577	2751
755.687	2610
755.798	2430
755.908	3722
756.018	2479
756.129	2169
756.239	1874
756.349	3442
756.460	2979
756.570	3232
756.680	2625
756.790	3426
756.900	3127
757.011	2881
757.121	3001
757.231	2645
757.341	3758
757.451	3402
757.561	2195
757.671	2681
757.781	2912
757.891	3232
758.001	2993
758.111	3374
758.221	2371
758.331	3494
758.441	2459
758.551	4374
758.661	4362
758.771	3410
758.880	3866
758.990	3249
759.100	3059
759.210	3472
759.320	3107
759.429	2777
759.539	3335
759.649	2869
759.758	3351
759.868	5140
759.978	3440
760.087	4354
760.197	3312
760.307	3616
760.416	3060
760.526	3361
760.635	3675
760.745	4082
760.854	3609
760.964	5144
761.073	3720
761.182	3584
761.292	3354
761.401	5206
761.511	4213
761.620	3717
761.729	4402
761.839	4461
761.948	5581
762.057	4959
762.166	3994
762.276	3422
762.385	5301
762.494	4690
762.603	4428
762.712	4723
762.822	5416
762.931	5138
763.040	4797
763.149	4867
763.258	5122
763.367	6710
763.476	5776
763.585	5966
763.694	6700
763.803	7187
763.912	7537
764.021	7932
764.130	8180
764.238	7961
764.347	7802
764.456	8262
764.565	9411
764.674	9830
764.783	11264
764.891	11715
765.000	13984
765.109	15697
765.217	17690
765.326	22119
765.435	25262
765.543	30402
765.652	36868
765.761	50240
765.869	73051
765.978	115967
766.086	200980
766.195	390432
766.303	876315
766.412	1572055
766.520	1474969
766.629	687549
766.737	277488
766.846	153997
766.954	98772
767.062	70945
767.171	52162
767.279	41293
767.387	32024
767.496	28152
767.604	23619
767.712	21618
767.820	18767
767.928	18101
768.037	17467
768.145	17055
768.253	16547
768.361	14912
768.469	14416
768.577	14596
768.685	15684
768.793	16764
768.901	18701
769.009	21155
769.117	23535
769.225	32039
769.333	47987
769.441	78038
769.549	148269
769.657	331652
769.765	874791
769.873	1368581
769.981	735952
770.088	219239
770.196	101411
770.304	63343
770.412	45703
770.519	33063
770.627	25590
770.735	19606
770.842	17725
770.950	15422
771.058	13500
771.165	12907
771.273	10801
771.380	10094
771.488	10079
771.595	8747
771.703	8246
771.810	7846
771.918	7040
772.025	6742
772.133	6229
772.240	6469
772.348	7088
772.455	6447
772.562	5710
772.670	6600
772.777	5272
772.884	5049
772.991	4445
773.099	4884
773.206	3992
773.313	4909
773.420	4894
773.528	4511
773.635	4353
773.742	4493
773.849	4444
773.956	4427
774.063	3908
774.170	4154
774.277	4033
774.384	4591
774.491	3423
774.598	4256
774.705	4020
774.812	5163
774.919	4173
775.026	3877
775.133	3267
775.239	4122
775.346	3363
775.453	3879
775.560	3713
775.667	3663
775.773	2736
775.880	4318
775.987	3292
776.093	3414
776.200	3501
776.307	3587
776.413	3161
776.520	3755
776.627	3960
776.733	4124
776.840	3329
776.946	6538
777.053	10863
777.159	28949
777.266	18323
777.372	23706
777.478	22422
777.585	12448
777.691	4552
777.798	4129
777.904	3673
778.010	4593
778.117	3761
778.223	3604
778.329	2403
778.435	2499
778.542	2961
778.648	3338
778.754	2467
778.860	2577
778.966	2013
779.072	2600
779.178	2762
779.284	3171
779.391	2421
779.497	2159
779.603	3683
779.708	5968
779.815	12877
779.920	46196
780.026	84476
780.132	11498
780.238	3191
780.344	3634
780.450	3362
780.556	2916
780.661	1994
780.767	3199
780.873	2779
780.979	2970
781.085	2128
781.190	1487
781.296	1299
781.402	1458
781.507	1571
781.613	1513
781.719	1757
781.824	2028
781.930	2538
782.035	2546
782.141	1526
782.246	2582
782.352	1530
782.457	2938
782.563	2647
782.668	2629
782.773	2204
782.879	1710
782.984	2420
783.090	3258
783.195	4135
783.300	3469
783.405	2393
783.511	2173
783.616	2305
783.721	2815
783.826	2718
783.932	2939
784.037	2453
784.142	1994
784.247	2299
784.352	2646
784.457	2242
784.562	1797
784.667	1668
784.772	2665
784.877	2103
784.982	2270
785.087	1338
785.192	2378
785.297	1681
785.402	2435
785.507	2207
785.611	1862
785.716	2481
785.821	2147
785.926	1302
786.031	1745
786.135	1661
786.240	2167
786.345	974
786.450	1221
786.554	1194
786.659	1640
786.763	1358
786.868	2175
786.973	1596
787.077	1542
787.182	998
787.286	1501
787.391	1705
787.495	2190
787.600	1147
787.704	1490
787.809	1823
787.913	1592
788.017	1624
788.122	1613
788.226	1596
788.330	1021
788.435	1570
788.539	1828
788.643	645
788.747	1091
788.852	1763
788.956	1453
789.060	1485
789.164	1538
789.268	506
789.372	1845
789.476	1577
789.580	1104
789.684	455
789.788	1957
789.892	1124
789.996	1038
790.100	1811
790.204	1464
790.308	1908
790.412	1723
790.516	1480
790.620	1898
790.724	1331
790.828	1159
790.931	730
791.035	1978
791.139	1911
791.242	1855
791.346	2342
791.450	2346
791.554	1059
791.657	517
791.761	3149
791.864	3191
791.968	2460
792.072	1765
792.175	1768
792.279	2002
792.382	1912
792.486	1835
792.589	1658
792.693	2055
792.796	1594
792.899	2159
793.003	2024
793.106	706
793.209	1662
793.313	2540
793.416	1284
793.519	1904
793.623	2784
793.726	4210
793.829	2462
793.932	2140
794.035	1881
794.138	2939
794.242	3299
794.345	3813
794.448	5151
794.551	8461
794.654	22439
794.757	40394
794.860	8414
794.963	1912
795.066	1667
795.169	2592
795.272	739
795.375	2495
795.477	571
795.580	1351
795.683	-8
795.786	787
795.889	-302
795.991	2267
796.094	1862
796.197	971
796.300	1963
796.402	50
796.505	573
796.608	801
796.710	816
796.813	587
796.915	718
797.018	1118
797.120	295
797.223	-200
797.326	1769
797.428	1271
797.530	1063
797.633	953
797.735	1247
797.838	2549
797.940	2445
798.042	425
798.145	1353
798.247	698
798.349	-169
798.452	1106
798.554	228
798.656	-91
798.758	1388
798.860	1565
798.962	370
799.065	1011
799.167	-419
799.269	2383
799.371	1510
799.473	1291
799.575	655
799.677	1785
799.779	2643
799.881	1827
799.983	1152
800.085	989
800.187	528
800.289	1157
800.390	752
800.492	776
800.594	1382
800.696	52
800.798	156
800.899	351
801.001	1196
801.103	758
801.205	943
801.306	648
801.408	-270
801.509	628
801.611	67
801.713	1241
801.814	478
801.916	414
802.017	-54
802.119	239
802.220	931
802.322	-227
802.423	2053
802.525	734
802.626	697
802.727	933
802.829	1227
802.930	-437
803.031	1786
803.133	454
803.234	334
803.335	1289
803.436	734
803.538	497
803.639	-18
803.740	650
803.841	517
803.942	966
804.043	1394
804.144	-712
804.245	-81
804.346	388
804.447	403
804.548	1552
804.649	1810
804.750	550
804.851	474
804.952	-403
805.053	-245
805.154	-135
805.255	1013
805.355	-80
805.456	457
805.557	684
805.658	-1038
805.758	1228
805.859	505
805.960	223
806.061	426
806.161	205
806.262	450
806.362	520
806.463	399
806.564	657
806.664	455
806.765	766
806.865	542
806.966	1016
807.066	172
807.166	2090
807.267	1337
807.367	-84
807.468	826
807.568	-1154
807.668	1466
807.769	432
807.869	-232
807.969	724
808.069	767
808.170	1410
808.270	-158
808.370	615
808.470	1021
808.570	253
808.670	636
808.770	-172
808.870	163
808.970	1038
809.070	157
809.170	724
809.271	748
809.370	951
809.470	1255
809.570	137
809.670	0
809.770	884
809.870	912
809.970	531
810.070	-158
810.169	525
810.269	-941
810.369	1079
810.469	-146
810.568	1
810.668	845
810.768	188
810.867	981
810.967	60
811.066	496
811.166	-7
811.265	463
811.365	246
811.464	656
811.564	879
811.663	519
811.763	-732
811.862	461
811.962	1564
812.061	189
812.160	460
812.260	138
812.359	554
812.458	556
812.557	1280
812.657	2125
812.756	1461
812.855	564
812.954	383
813.053	112
813.153	520
813.252	-620
813.351	1141
813.450	-7
813.549	61
813.648	215
813.747	421
813.846	475
813.945	479
814.044	384
814.143	898
814.242	617
814.341	634
814.439	658
814.538	1126
814.637	486
814.736	571
814.835	2409
814.933	-36
815.032	674
815.131	1081
815.229	689
815.328	1461
815.427	561
815.525	1554
815.624	1149
815.722	996
815.821	1316
815.919	1733
816.018	1108
816.116	2201
816.215	1797
816.313	1248
816.412	1566
816.510	1675
816.609	3676
816.707	2538
816.805	1824
816.904	2606
817.002	2619
817.100	3771
817.198	3767
817.296	4765
817.395	5357
817.493	7160
817.591	6888
817.689	12334
817.787	16402
817.885	29174
817.983	54010
818.081	118269
818.179	287690
818.277	716030
818.375	647156
818.473	186253
818.571	67013
818.669	42339
818.767	35760
818.865	36607
818.963	41627
819.061	60339
819.158	105619
819.256	232294
819.354	537695
819.452	1130683
819.549	791818
819.647	237528
819.745	92823
819.842	53384
819.940	36832
820.038	26179
820.135	19084
820.233	15736
820.330	10754
820.428	9605
820.525	8981
820.623	8242
820.720	5873
820.818	6468
820.915	5075
821.012	5467
821.110	3388
821.207	4846
821.304	3706
821.402	4220
821.499	6550
821.596	11645
821.693	7748
821.791	3864
821.888	2768
821.985	5133
822.082	4698
822.179	4159
822.276	4562
822.373	3537
822.470	2165
822.567	1440
822.664	605
822.761	2141
822.858	20
822.955	1194
823.052	1811
823.149	1723
823.246	638
823.343	1754
823.440	1369
823.536	889
823.633	60
823.730	1406
823.827	444
823.923	2049
824.020	1767
824.117	1674
824.213	2966
824.310	3052
824.407	1213
824.503	652
824.600	756
824.696	-115
824.793	1204
824.889	-201
824.986	-104
825.082	96
825.179	-130
825.275	584
825.371	92
825.468	1406
825.564	92
825.660	934
825.757	1126
825.853	1682
825.949	-807
826.045	354
826.142	3
826.238	549
826.334	-329
826.430	-510
826.526	49
826.622	861
826.718	410
826.814	91
826.910	-54
827.006	24
827.102	-313
827.198	441
827.294	-561
827.390	165
827.486	474
827.582	-335
827.678	-604
827.774	495
827.869	-1044
827.965	665
828.061	-221
828.157	125
828.252	339
828.348	-1253
828.444	7
828.539	-1150
828.635	-642
828.731	367
828.826	-1110
828.922	373
829.017	-751
829.113	139
829.208	-746
829.304	-750
829.399	1153
829.495	-169
829.590	7
829.685	-1327
829.781	547
829.876	222
829.971	-981
830.066	142
830.162	-60
830.257	-338
830.352	-942
830.447	1143
830.543	-634
830.638	-342
830.733	-33
830.828	-29
830.923	468
831.018	372
831.113	188
831.208	-546
831.303	-457
831.398	-282
831.493	-184
831.588	286
831.683	-835
831.778	439
831.873	226
831.967	400
832.062	-548
832.157	-1216
832.252	586
832.346	-86
832.441	934
832.536	286
832.631	1936
832.725	1987
832.820	-74
832.914	-144
833.009	-1096
833.104	1218
833.198	663
833.293	-653
833.387	-813
833.482	183
833.576	-516
833.670	876
833.765	-607
833.859	-800
833.954	302
834.048	108
834.142	-445
834.237	161
834.331	-656
834.425	-127
834.519	-540
834.613	667
834.708	-454
834.802	336
834.896	-910
834.990	-427
835.084	-411
835.178	-21
835.272	-41
835.366	532
835.460	-285
835.554	-347
835.648	-681
835.742	-878
835.836	-276
835.930	-1329
836.024	424
836.117	646
836.211	-1025
836.305	890
836.399	524
836.493	-901
836.586	-85
836.680	-660
836.774	-875
836.867	385
836.961	-959
837.055	-386
837.148	-1251
837.242	384
837.335	-620
837.429	-14
837.522	-562
837.616	-325
837.709	455
837.803	276
837.896	-235
837.989	399
838.083	1036
838.176	1521
838.269	820
838.363	803
838.456	-318
838.549	613
838.642	631
838.735	3713
838.829	1408
838.922	-181
839.015	-897
839.108	-914
839.201	-886
839.294	-234
839.387	580
839.480	-800
839.573	-80
839.666	696
839.759	243
839.852	-535
839.945	-514
840.038	-209
840.131	-1168
840.223	-189
840.316	259
840.409	-1096
840.502	-1937
840.594	234
840.687	-686
840.780	150
840.873	-1507
840.965	79
841.058	-52
841.150	813
841.243	661
841.336	420
841.428	-806
841.521	-433
841.613	-1774
841.706	13
841.798	-521
841.890	98
841.983	-764
842.075	237
842.167	-377
842.260	-644
842.352	334
842.444	307
842.537	1680
842.629	2588
842.721	180
842.813	-226
842.905	-1447
842.997	560
843.090	-70
843.182	601
843.274	1640
843.366	4429
843.458	8813
843.550	7111
843.642	372
843.734	136
843.826	138
843.918	983
844.009	293
844.101	557
844.193	155
844.285	383
844.377	1523
844.469	3453
844.560	6524
844.652	6885
844.744	2645
844.835	379
844.927	-209
845.019	-601
845.110	-360
845.202	-341
845.293	-920
845.385	-1276
845.476	-200
845.568	126
845.659	-425
845.751	-68
845.842	-1311
845.934	-248
846.025	-1441
846.116	96
846.208	-748
846.299	-687
846.390	-582
846.482	379
846.573	11
846.664	565
846.755	60
846.846	706
846.937	-848
847.029	57
847.120	-95
847.211	-335
847.302	731
847.393	-1015
847.484	47
847.575	117
847.666	-803
847.757	-1015
847.847	-1139
847.938	496
848.029	-621
848.120	-710
848.211	-1094
848.302	-1307
848.392	-1134
848.483	-272
848.574	-924
848.664	-538
848.755	-611
848.846	-688
848.936	-901
849.027	178
849.118	-963
849.208	-810
849.299	-338
849.389	-511
849.480	524
849.570	1539
849.661	2088
849.751	4855
849.841	888
849.932	-146
850.022	-268
850.112	190
850.203	-456
850.293	59
850.383	-204
850.474	-1039
850.564	-1203
850.654	-35
850.744	-803
850.834	-547
850.924	-267
851.014	-302
851.104	-491
851.194	-246
851.284	166
851.374	-73
851.464	26
851.554	-70
851.644	-199
851.734	1472
851.824	423
851.914	65
852.004	-123
852.094	-175
852.183	-1154
852.273	-986
852.363	-1026
852.452	-850
852.542	-418
852.632	-260
852.721	-1156
852.811	-453
852.901	-658
852.990	-442
853.080	-1060
853.169	-258
853.259	-370
853.348	-1027
853.438	-586
853.527	373
853.617	-326
853.706	1287
853.795	2335
853.885	6689
853.974	12381
854.063	24139
854.152	43159
854.242	17300
854.331	1617
854.420	-497
854.509	-118
854.598	953
854.687	106
854.777	530
854.866	200
854.955	17
855.044	-733
855.133	23
855.222	56
855.311	-760
855.400	44
855.488	564
855.577	-353
855.666	-226
855.755	496
855.844	140
855.933	-258
856.021	19
856.110	0
856.199	-570
856.288	-482
856.376	27
856.465	-576
856.554	-91
856.642	-763
856.731	273
856.819	-509
856.908	-1228
856.996	-797
857.085	-726
857.173	-229
857.262	-526
857.350	-1545
857.438	-625
857.527	-45
857.615	-1327
857.703	20
857.792	-430
857.880	-1420
857.968	-186
858.056	-552
858.145	-697
858.233	-769
858.321	-144
858.409	-290
858.497	-828
858.585	-932
858.673	214
858.761	-984
858.849	-216
858.937	-676
859.025	-204
859.113	-49
859.201	-136
859.289	573
859.377	497
859.465	113
859.552	93
859.640	-1605
859.728	-348
859.816	-941
859.903	-689
859.991	-1616
860.079	-450
860.166	-791
860.254	-745
860.342	-795
860.429	-468
860.517	-1084
860.604	-331
860.692	-1162
860.779	-915
860.867	-732
860.954	-1465
861.042	-793
861.129	197
861.216	-193
861.304	-1259
861.391	-1013
861.478	-797
861.565	-186
861.653	1044
861.740	-812
861.827	-625
861.914	-528
862.001	166
862.089	-668
862.176	-638
862.263	-67
862.350	-792
862.437	-997
862.524	-371
862.611	-232
862.698	820
862.785	1835
862.871	2704
862.958	402
863.045	-142
863.132	-508
863.219	-879
863.306	-1152
863.392	-451
863.479	-1447
863.566	-298
863.652	-579
863.739	-26
863.826	-696
863.912	-569
863.999	-1415
864.086	-393
864.172	-571
864.259	-767
864.345	-787
864.432	-853
864.518	-190
864.604	-786
864.691	-774
864.777	77
864.863	-992
864.950	744
865.036	-750
865.122	-22
865.209	102
865.295	-194
865.381	-446
865.467	-99
865.553	936
865.639	440
865.726	1828
865.812	2903
865.898	5697
865.984	7558
866.070	17162
866.156	20595
866.242	4708
866.328	-169
866.414	-209
866.499	-594
866.585	-315
866.671	-514
866.757	-420
866.843	-235
866.928	-207
867.014	-257
867.100	-200
867.186	83
867.271	-288
867.357	652
867.442	404
867.528	577
867.614	1281
867.699	2018
867.785	2787
867.870	5041
867.956	8339
868.041	5417
868.127	2402
868.212	5014
868.297	3956
868.383	2111
868.468	1532
868.553	2000
868.639	1662
868.724	2955
868.809	3441
868.894	302
868.979	-765
869.065	-543
869.150	-1705
869.235	-299
869.320	-1211
869.405	-1240
869.490	-909
869.575	-783
869.660	-346
869.745	-535
869.830	-727
869.915	-409
870.000	-999
870.085	538
870.169	435
870.254	1100
870.339	-446
870.424	-577
870.509	-699
870.593	-1160
870.678	-665
870.763	-103
870.847	-520
870.932	-73
871.016	779
871.101	1509
871.186	-136
871.270	-250
871.355	-1224
871.439	-495
871.523	78
871.608	-289
871.692	-464
871.777	1070
871.861	166
871.945	-182
872.030	-674
872.114	-212
872.198	-1430
872.282	-745
872.367	-1135
872.451	-1455
872.535	-666
872.619	-723
872.703	-720
872.787	-779
872.871	-322
872.955	-910
873.039	-871
873.123	-258
873.207	-193
873.291	-762
873.375	-716
873.459	-248
873.543	-1035
873.627	-535
873.711	-449
873.794	-479
873.878	-1260
873.962	-697
874.045	228
874.129	484
874.137	394
874.213	-503
874.245	-377
874.296	-175
874.352	-198
874.380	-205
874.460	-457
874.464	-468
874.547	-1427
874.568	-1125
874.631	-235
874.676	-464
874.714	-653
874.784	59
874.798	198
874.881	667
874.892	574
874.965	-71
874.999	304
875.048	850
875.107	403
875.131	197
875.215	293
875.215	293
875.298	120
875.323	-37
875.381	-352
875.430	-558
875.465	-713
875.538	-530
875.548	-507
875.631	-820
875.646	-873
875.714	-1124
875.753	-934
875.798	-702
875.861	-579
875.881	-551
875.964	-160
875.968	-163
876.047	-241
876.076	-231
876.130	-166
876.183	-773
876.213	-1137
876.291	149
876.296	233
876.379	-625
876.398	-429
876.462	307
876.506	-433
876.545	-1077
876.613	-411
876.628	-282
876.711	-540
876.721	-478
876.794	-56
876.828	-372
876.877	-755
876.935	-493
876.960	-365
877.043	248
877.043	249
877.125	405
877.150	345
877.208	432
877.258	533
877.291	507
877.365	607
877.374	621
877.456	643
877.472	610
877.539	409
877.579	475
877.622	581
877.687	-74
877.704	-243
877.787	176
877.794	154
877.869	-143
877.901	-107
877.952	-23
878.008	-146
878.034	-189
878.115	-10
878.117	-3
878.199	358
878.222	225
878.282	-317
878.329	-178
878.364	6
878.437	-305
878.447	-365
878.529	-217
878.544	-272
878.611	-539
878.651	-778
878.694	-800
878.758	174
878.776	321
878.858	-284
878.865	-296
878.941	-270
878.972	-407
879.023	-513
879.078	103
879.105	367
879.185	-191
879.187	-201
879.269	-649
879.292	-624
879.351	-637
879.399	-273
879.433	115
879.506	237
879.516	219
879.598	-603
879.613	-659
879.680	-738
879.720	-442
879.762	-164
879.827	-74
879.844	-57
879.926	-552
879.933	-489
880.007	60
880.040	-33
880.089	-102
880.147	-127
880.171	-87
880.253	253
880.254	255
880.335	950
880.360	980
880.417	1690
880.467	2430
880.499	2759
880.574	4723
880.580	4723
880.662	855
880.680	503
880.744	563
880.787	480
880.825	227
880.893	-447
880.907	-532
880.989	-515
881.000	-454
881.070	-85
881.106	-359
881.152	-502
881.213	-41
881.233	-41
881.315	-577
881.319	-574
881.396	186
881.426	137
881.478	-84
881.532	243
881.559	388
881.639	260
881.641	252
881.722	-109
881.745	-206
881.803	48
881.852	244
881.885	165
881.958	79
881.966	68
882.047	-106
882.064	-111
882.129	261
882.171	477
882.210	680
882.277	1022
882.291	1008
882.372	193
882.383	163
882.454	375
882.489	265
882.535	-69
882.596	-276
882.616	-351
882.697	-189
882.702	-223
882.778	30
882.808	306
882.859	406
882.914	75
882.940	-27
883.020	237
883.021	244
883.102	14
883.127	66
883.183	417
883.233	675
883.264	500
883.339	-158
883.345	-134
883.426	105
883.445	191
883.507	412
883.551	384
883.587	90
883.657	118
883.668	214
883.749	216
883.763	249
883.830	-46
883.869	-164
883.910	-24
883.975	236
883.991	295
884.072	254
884.081	292
884.152	94
884.187	-272
884.233	-145
884.292	350
884.314	410
884.394	389
884.398	386
884.475	-89
884.504	-237
884.555	-352
884.610	-532
884.636	-402
884.716	31
884.716	37
884.797	313
884.821	368
884.877	287
884.927	60
884.958	-3
885.033	320
885.038	341
885.118	68
885.139	108
885.199	179
885.244	123
885.279	218
885.350	334
885.359	319
885.439	117
885.456	99
885.520	522
885.561	806
885.600	632
885.667	261
885.680	269
885.760	252
885.773	231
885.840	322
885.878	523
885.920	565
885.984	229
886.000	120
886.080	-113
886.089	-141
886.160	471
886.195	761
886.240	440
886.300	-86
886.320	90
886.400	976
886.406	1004
886.480	408
886.511	316
886.560	700
886.616	849
886.640	772
886.720	801
886.722	794
886.800	-86
886.827	-443
886.879	-440
886.932	-456
886.959	-135
887.038	1081
887.039	1091
887.119	995
887.143	1017
887.198	1130
887.248	1142
887.278	691
887.354	-533
887.358	-513
887.437	-79
887.459	48
887.517	251
887.564	363
887.596	520
887.669	801
887.676	761
887.755	287
887.774	165
887.835	714
887.880	1059
887.914	836
887.985	450
887.994	384
888.073	-315
888.090	-449
888.153	-91
888.195	115
888.232	480
888.300	1112
888.311	1069
888.391	757
888.405	706
888.470	615
888.510	480
888.549	342
888.615	229
888.628	290
888.708	492
888.720	527
888.787	825
888.825	999
888.866	862
888.930	666
888.945	609
889.024	197
889.035	147
889.103	724
889.140	1015
889.182	920
889.245	813
889.261	909
889.340	1263
889.349	1308
889.419	1167
889.454	1064
889.498	983
889.559	887
889.577	780
889.656	286
889.664	237
889.735	1049
889.768	1427
889.814	1057
889.873	560
889.978	915
890.083	662
890.187	1388
890.292	204
890.397	892
890.501	390
890.606	921
890.710	1008
890.815	1647
890.919	1438
891.024	557
891.128	781
891.233	650
891.337	879
891.442	686
891.546	8
891.650	652
891.755	298
891.859	1822
891.963	575
892.068	1787
892.172	376
892.276	319
892.380	267
892.484	1067
892.589	660
892.693	1569
892.797	597
892.901	956
893.005	397
893.109	66
893.213	660
893.317	1224
893.421	1337
893.525	803
893.629	1441
893.733	1272
893.837	437
893.941	950
894.045	1479
894.148	1425
894.252	152
894.356	1784
894.460	237
894.564	461
894.667	-281
894.771	776
894.875	118
894.978	1411
895.082	1259
895.186	1003
895.289	1017
895.393	994
895.496	795
895.600	708
895.703	734
895.807	332
895.910	1054
896.014	314
896.117	641
896.221	766
896.324	768
896.427	561
896.531	321
896.634	920
896.737	847
896.840	642
896.944	-86
897.047	1328
897.150	780
897.253	1133
897.356	1238
897.460	1296
897.563	121
897.666	708
897.769	-689
897.872	1486
897.975	63
898.078	328
898.181	817
898.284	333
898.387	-16
898.490	89
898.593	907
898.695	817
898.798	578
898.901	851
899.004	-215
899.107	-58
899.209	301
899.312	760
899.415	917
899.518	1020
899.620	335
899.723	1227
899.826	1413
899.928	1293
900.031	172
900.133	-82
900.236	254
900.338	662
900.441	942
900.543	1117
900.646	-37
900.748	723
900.851	395
900.953	1368
901.055	60
901.158	-169
901.260	75
901.362	483
901.465	409
901.567	1016
901.669	1018
901.771	504
901.873	48
901.976	919
902.078	468
902.180	127
902.282	610
902.384	460
902.486	880
902.588	561
902.690	649
902.792	894
902.894	944
902.996	1486
903.098	241
903.200	746
903.302	-134
903.404	1087
903.505	294
903.607	846
903.709	1093
903.811	1040
903.913	-66
904.014	36
904.116	291
904.218	772
904.319	1343
904.421	1446
904.523	3246
904.624	2585
904.726	1746
904.827	1538
904.929	2438
905.030	1879
905.132	648
905.233	282
905.335	756
905.436	153
905.537	-141
905.639	703
905.740	555
905.841	617
905.943	1427
906.044	1265
906.145	1695
906.247	836
906.348	1140
906.449	65
906.550	462
906.651	1342
906.752	223
906.854	705
906.955	125
907.056	655
907.157	134
907.258	340
907.359	87
907.460	1233
907.561	974
907.662	132
907.762	720
907.863	270
907.964	61
908.065	661
908.166	-107
908.267	-83
908.367	-277
908.468	806
908.569	-340
908.670	921
908.770	423
908.871	251
908.971	157
909.072	666
909.173	284
909.273	257
909.374	40
909.474	208
909.575	-41
909.675	448
909.776	-721
909.876	992
909.977	818
910.077	545
910.177	-232
910.278	108
910.378	-24
910.478	459
910.579	-35
910.679	90
910.779	-204
910.879	995
910.980	-172
911.080	134
911.180	-981
911.280	1000
911.380	126
911.480	439
911.580	-519
911.680	551
911.780	633
911.880	31
911.980	-198
912.080	1270
912.180	353
912.280	635
912.380	-191
912.480	31
912.580	164
912.679	128
912.779	-458
912.879	361
912.979	78
913.078	159
913.178	-251
913.278	-177
913.377	-45
913.477	611
913.577	-341
913.676	79
913.776	608
913.875	264
913.975	-633
914.074	-19
914.174	-636
914.273	78
914.373	-257
914.472	-50
914.572	-942
914.671	475
914.770	-352
914.870	-34
914.969	-478
915.068	-458
915.167	-299
915.267	672
915.366	29
915.465	-676
915.564	619
915.663	347
915.763	-209
915.862	133
915.961	172
916.060	-214
916.159	-583
916.258	344
916.357	-501
916.456	42
916.555	367
916.654	207
916.752	-605
916.851	-27
916.950	131
917.049	569
917.148	-258
917.247	323
917.345	-22
917.444	-193
917.543	224
917.642	-120
917.740	182
917.839	453
917.937	576
918.036	743
918.135	-414
918.233	580
918.332	201
918.430	419
918.529	-20
918.627	-244
918.726	46
918.824	555
918.923	612
919.021	-153
919.119	-313
919.218	-295
919.316	524
919.414	73
919.512	-674
919.611	328
919.709	-702
919.807	-597
919.905	-162
920.003	1138
920.102	-705
920.200	-6
920.298	-792
920.396	3
920.494	-383
920.592	-78
920.690	797
920.788	492
920.886	-436
920.984	200
921.082	-1093
921.180	590
921.277	-223
921.375	-350
921.473	62
921.571	-149
921.669	-72
921.766	3
921.864	-334
921.962	-206
922.060	43
922.157	441
922.255	-507
922.352	521
922.450	143
922.548	459
922.645	-22
922.743	-299
922.840	143
922.938	194
923.035	259
923.133	674
923.230	748
923.327	1061
923.425	-294
923.522	528
923.619	-87
923.717	-55
923.814	363
923.911	618
924.008	1056
924.106	873
924.203	-235
924.300	-772
924.397	-392
924.494	1011
924.591	-111
924.688	859
924.786	714
924.883	349
924.979	5
925.077	489
925.173	353
925.270	350
925.367	525
925.464	411
925.561	499
925.658	821
925.755	911
925.852	2246
925.948	1788
926.045	2638
926.142	3876
926.239	4835
926.335	5550
926.432	4741
926.529	4982
926.625	7313
926.722	4876
926.818	2944
926.915	1138
927.011	2019
927.108	655
927.204	956
927.301	223
927.397	396
927.494	263
927.590	563
927.687	20
927.783	651
927.879	-671
927.976	222
928.072	62
928.168	482
928.264	-409
928.361	114
928.457	485
928.553	1082
928.649	548
928.745	-276
928.841	-204
928.937	1127
929.033	-498
929.129	-106
929.225	56
929.321	227
929.417	-311
929.513	654
929.609	-440
929.705	-335
929.801	-1
929.897	327
929.993	-495
930.089	391
930.184	76
930.280	396
930.376	-210
930.471	-89
930.567	-132
930.663	544
930.758	-231
930.854	352
930.950	7
931.045	1140
931.141	-169
931.236	753
931.332	150
931.427	-230
931.523	396
931.618	489
931.714	-1072
931.809	109
931.905	12
932.000	-24
932.095	-87
932.191	-45
932.286	30
932.381	316
932.476	-490
932.572	446
932.667	-267
932.762	559
932.857	77
932.952	71
933.047	276
933.142	204
933.237	-316
933.332	341
933.427	149
933.522	548
933.617	-348
933.712	532
933.807	-81
933.902	-40
933.997	490
934.092	-863
934.187	-89
934.282	-662
934.376	383
934.471	-144
934.566	0
934.661	37
934.755	112
934.850	288
934.945	326
935.039	-15
935.134	104
935.228	216
935.323	-602
935.417	290
935.512	116
935.606	-367
935.701	-76
935.795	22
935.890	-1300
935.984	371
936.079	-961
936.173	141
936.267	-68
936.362	-53
936.456	235
936.550	-350
936.644	381
936.738	259
936.833	413
936.927	-147
937.021	624
937.115	290
937.209	-241
937.303	1047
937.397	-554
937.491	451
937.585	-253
937.679	494
937.773	691
937.867	859
937.961	798
938.055	462
938.149	20
938.243	262
938.337	1104
938.430	1167
938.524	2123
938.618	5469
938.712	6695
938.805	3007
938.899	384
938.993	2389
939.086	2752
939.180	6470
939.274	11697
939.367	7066
939.461	1551
939.554	319
939.648	529
939.741	235
939.835	357
939.928	645
940.022	-97
940.115	106
940.208	472
940.302	431
940.395	-277
940.488	194
940.582	444
940.675	558
940.768	-561
940.861	-5
940.954	136
941.048	685
941.141	728
941.234	2707
941.327	5311
941.420	4093
941.513	1808
941.606	743
941.699	436
941.792	-165
941.885	-299
941.978	213
942.071	-517
942.164	-244
942.257	886
942.349	-39
942.442	862
942.535	365
942.628	-142
942.721	284
942.813	-198
942.906	-120
942.999	123
943.091	-141
943.184	128
943.277	-310
943.369	157
943.462	50
943.554	106
943.647	-359
943.739	-340
943.832	-256
943.924	-61
944.017	64
944.109	-173
944.201	-222
944.294	6
944.386	737
944.478	-97
944.571	132
944.663	384
944.755	-945
944.847	84
944.940	101
945.032	-340
945.124	-482
945.216	113
945.308	-164
945.400	31
945.492	191
945.584	-377
945.676	-341
945.768	-63
945.860	403
945.952	231
946.044	1319
946.136	1020
946.228	548
946.320	-219
946.412	-357
946.503	-106
946.595	289
946.687	-798
946.779	413
946.870	-297
946.962	20
947.054	-456
947.145	23
947.237	605
947.329	107
947.420	-364
947.512	-385
947.603	-1402
947.695	165
947.786	-655
947.878	791
947.969	-409
948.061	-557
948.152	-482
948.243	198
948.335	-561
948.426	-370
948.517	-603
948.609	-283
948.700	-374
948.791	-708
948.882	21
948.973	-17
949.065	-624
949.156	-185
949.247	-184
949.338	66
949.429	-232
949.520	-487
949.611	-176
949.702	-6
949.793	599
949.884	534
949.975	-1137
950.066	-219
950.157	-910
950.247	-1064
950.338	-439
950.429	59
950.520	-146
950.611	211
950.701	-421
950.792	112
950.883	95
950.973	240
951.064	-569
951.155	257
951.245	-536
951.336	137
951.427	-992
951.517	708
951.608	-341
951.698	-401
951.788	-251
951.879	-315
951.969	-718
952.060	-513
952.150	11
952.240	110
952.331	-679
952.421	12
952.511	-1005
952.602	-11
952.692	-437
952.782	3
952.872	-383
952.962	40
953.052	-300
953.143	-1109
953.233	-571
953.323	-151
953.413	-1002
953.503	-1
953.593	-395
953.683	-550
953.773	-904
953.863	-615
953.953	-442
954.042	-765
954.132	-653
954.222	-155
954.312	-1285
954.402	-416
954.492	-384
954.581	997
954.671	-744
954.761	-947
954.850	-11
954.940	238
955.030	100
955.119	-913
955.209	-428
955.298	-670
955.388	-584
955.477	-669
955.567	-1091
955.656	781
955.746	-890
955.835	-87
955.925	-1039
956.014	18
956.103	-937
956.193	-588
956.282	-343
956.371	-498
956.461	-1066
956.550	157
956.639	-379
956.728	-116
956.817	111
956.906	-773
956.995	-394
957.085	-17
957.174	-661
957.263	-903
957.352	-1340
957.441	-466
957.530	-264
957.619	-654
957.708	-722
957.796	-987
957.885	-965
957.974	-339
958.063	-687
958.152	-1024
958.241	-624
958.329	450
958.418	-37
958.507	-227
958.596	-106
958.684	-1057
958.773	221
958.861	-181
958.950	-35
959.039	-877
959.127	123
959.216	-196
959.304	286
959.393	-24
959.481	-608
959.570	-187
959.658	-817
959.746	-826
959.835	-4
959.923	808
960.011	387
960.100	152
960.188	-480
960.276	-1244
960.365	-112
960.453	-90
960.541	-1101
960.629	-293
960.717	-623
960.805	-914
960.893	-1007
960.981	-345
961.069	-447
961.158	-384
961.245	-536
961.333	-488
961.421	-899
961.509	-566
961.597	-1128
961.685	-207
961.773	-698
961.861	-964
961.949	-158
962.036	-693
962.124	-451
962.212	-1058
962.299	-841
962.387	-975
962.475	-384
962.562	-996
962.650	326
962.738	-464
962.825	-357
962.913	-655
963.000	-748
963.088	-1078
963.175	-586
963.263	-366
963.350	62
963.438	-919
963.525	-299
963.612	1243
963.700	1299
963.787	3179
963.874	636
963.962	-478
964.049	-292
964.136	-673
964.223	-783
964.310	-885
964.398	-885
964.485	-532
964.572	-948
964.659	261
964.746	392
964.833	-766
964.920	-489
965.007	-492
965.094	-1180
965.181	-385
965.268	-461
965.355	-550
965.441	-872
965.528	-1184
965.615	-1355
965.702	-783
965.789	-988
965.875	-1238
965.962	-1042
966.049	-982
966.136	-924
966.222	-1100
966.309	-61
966.395	-614
966.482	-852
966.569	-681
966.655	-1751
966.742	-713
966.828	-383
966.915	-1411
967.001	-1049
967.087	-637
967.174	-1072
967.260	87
967.347	348
967.433	1196
967.519	1452
967.605	140
967.692	-267
967.778	-372
967.864	-996
967.950	-843
968.036	-1531
968.123	-1089
968.209	-996
968.295	-1189
968.381	-273
968.467	-503
968.553	-2008
968.639	52
968.725	-1501
968.811	-55
968.897	-775
968.983	-573
969.069	-658
969.154	-115
969.240	-428
969.326	-179
969.412	-1322
969.497	-1001
969.583	-1108
969.669	321
969.755	-467
969.840	-457
969.926	-604
970.012	-1882
970.097	-546
970.183	-1385
970.268	-539
970.354	62
970.439	-374
970.525	442
970.610	-1355
970.696	-292
970.781	-1518
970.866	-1189
970.952	-1002
971.037	-1469
971.122	-814
971.208	-294
971.293	-750
971.378	-1790
971.463	-1314
971.549	-194
971.634	-1213
971.719	-248
971.804	-1126
971.889	-50
971.974	-1228
972.059	-136
972.144	-874
972.229	-1445
972.314	-1164
972.399	-436
972.484	-1462
972.569	-183
972.654	-1083
972.739	233
972.824	-1071
972.908	-388
972.993	-816
973.078	-715
973.163	-1410
973.247	-1219
973.332	-2605
973.417	351
973.501	-1776
973.586	-611
973.671	-669
973.755	-698
973.840	-787
973.924	-607
974.009	-815
974.093	-554
974.178	195
974.262	-693
974.346	-574
974.431	-964
974.515	-880
974.600	-594
974.684	-1135
974.768	-1052
974.852	-334
974.937	-1503
975.021	-673
975.105	-848
975.189	-815
975.273	-572
975.358	-1604
975.442	-887
975.526	-531
975.610	-907
975.694	-305
975.778	-381
975.862	-146
975.946	-2392
976.030	-515
976.114	-1295
976.198	-399
976.281	-920
976.365	-932
976.449	-767
976.533	-846
976.617	-1079
976.700	-1349
976.784	-357
976.868	-810
976.951	-369
977.035	-1781
977.119	-114
977.202	-1037
977.286	-443
977.369	-1134
977.453	-512
977.536	-1623
977.620	-1247
977.703	-1002
977.787	-1314
977.870	-233
977.953	-410
978.037	-1336
978.120	-706
978.203	-710
978.287	-191
978.370	-1149
978.453	-1070
978.536	-815
978.620	158
978.703	-1264
978.786	-1443
978.869	-1217
978.952	-1103
979.035	221
979.118	-719
979.201	-1329
979.284	-476
979.367	-1179
979.450	-322
979.533	-1313
979.616	-1488
979.699	-1167
979.782	-933
979.865	-943
979.948	-1304
980.030	-1967
980.113	-648
980.196	-1610
980.279	-555
980.361	-691
980.444	-972
980.526	-1209
980.609	-1051
980.692	-1842
980.774	-794
980.857	-2157
980.939	-357
981.022	-1417
981.104	-1266
981.187	-1545
981.269	-494
981.352	-1434
981.434	-1260
981.516	-1068
981.599	-17
981.681	-762
981.763	-766
981.846	-1541
981.928	-1072
982.010	-243
982.092	-1347
982.174	-450
982.256	-923
982.339	-523
982.421	-465
982.503	-871
982.585	-1506
982.667	-507
982.749	-586
982.831	-778
982.913	-1172
982.995	-1129
983.077	-554
983.158	-1105
983.240	-1748
983.322	-1319
983.404	-40
983.486	-1509
983.568	-857
983.649	-1395
983.731	-513
983.813	-1112
983.894	-775
983.976	-979
984.058	-1019
984.139	-505
984.221	-2040
984.302	-313
984.384	-694
984.465	-1795
984.547	-750
984.628	-1769
984.710	-840
984.791	-1338
984.872	-1741
984.954	-1154
985.035	-928
985.116	-1852
985.198	-1106
985.279	-198
985.360	-525
985.441	-1580
985.522	-1379
985.604	-1286
985.685	-2607
985.766	-1255
985.847	-82
985.928	-1953
986.009	-996
986.090	-1073
986.171	-232
986.252	-1626
986.333	78
986.414	-1102
986.495	-286
986.576	-1151
986.656	-639
986.737	-965
986.818	-1319
986.899	-1382
986.980	-1407
987.060	-11
987.141	-828
987.222	-607
987.302	-766
987.383	-904
987.464	-1298
987.544	-807
987.625	-1325
987.705	-905
987.786	140
987.866	-1540
987.947	-1242
988.027	-1627
988.108	-1502
988.188	-739
988.268	-695
988.349	-372
988.429	-990
988.509	-1346
988.589	-1397
988.670	-2244
988.750	261
988.830	-2303
988.910	-717
988.990	-2149
989.070	-1104
989.151	-1361
989.231	-1306
989.311	-1212
989.391	-768
989.471	-892
989.551	-1802
989.631	-1258
989.711	-786
989.791	-1122
989.870	-1349
989.950	-1736
990.030	-1319
990.110	-815
990.190	-1464
990.269	-1084
990.349	-964
990.429	-1011
990.509	-1092
990.588	-1357
990.668	-1208
990.747	-1015
990.827	-1252
990.907	-647
990.986	-132
991.066	-1397
991.145	-984
991.225	-1265
991.304	-1167
991.383	-705
991.463	-1689
991.542	-1289
991.622	-1182
991.701	-729
991.780	-1308
991.859	-1083
991.939	-1731
992.018	-778
992.097	-1576
992.176	-1294
992.256	-1729
992.335	-1838
992.414	-824
992.493	-1870
992.572	-672
992.651	-1062
992.730	-724
992.809	-1380
992.888	-1496
992.967	-954
993.046	-529
993.125	-2158
993.203	-1167
993.282	-2195
993.361	-602
993.440	-1431
993.519	-968
993.597	-388
993.676	-2479
993.755	-167
993.834	-1388
993.912	-1840
993.991	186
994.069	-1925
994.148	-963
994.226	-1560
994.305	-1073
994.384	-1645
994.462	-947
994.540	-1725
994.619	-1831
994.697	-1113
994.776	-1194
994.854	-627
994.932	-1492
995.011	-639
995.089	-1755
995.167	-1607
995.245	-1536
995.324	-2079
995.402	-347
995.480	-1380
995.558	-1359
995.636	-1718
995.714	-916
995.792	-942
995.870	-1334
995.948	-1187
996.026	-1315
996.104	-1895
996.182	-1044
996.260	-1953
996.338	-1441
996.416	-2375
996.494	-1124
996.572	-443
996.649	-1576
996.727	-2278
996.805	-657
996.883	-1978
996.960	-1838
997.038	-997
997.116	53
997.193	-1611
997.271	-83
997.348	-1550
997.426	-1263
997.504	-1762
997.581	-285
997.658	-1140
997.736	-2128
997.813	-948
997.891	-694
997.968	-1981
998.046	-1005
998.123	-1130
998.200	-420
998.277	-1545
998.355	-686
998.432	-1977
998.509	-2011
998.586	69
998.663	-1035
998.741	-771
998.818	-1194
998.895	-1644
998.972	-1381
999.049	-912
999.126	-1885
999.203	-1404
999.280	-1430
999.357	-1720
999.434	-1631
999.511	-668
999.587	-1237
999.664	-2360
999.741	-1370
999.818	-1529
999.895	-1434
999.971	-1795
1000.048	-1273
1000.125	-806
1000.202	-1399
1000.278	-1758
1000.355	-665
1000.431	-1389
1000.508	-1730
1000.584	-1578
1000.661	-797
1000.738	-2763
1000.814	-1846
1000.890	-1676
1000.967	-1559
1001.043	-1366
1001.120	-1650
1001.196	-1829
1001.272	-1618
1001.349	-1466
1001.425	-1189
1001.501	-1749
1001.577	-2141
1001.654	-1846
1001.730	-789
1001.806	-657
1001.882	-2155
1001.958	-730
1002.034	-1696
1002.110	-1297
1002.186	-1363
1002.262	-1920
1002.338	-2201
1002.414	-1338
1002.490	-583
1002.566	-1958
1002.642	-1185
1002.718	-157
1002.794	-1131
1002.870	-1909
1002.945	-1207
1003.021	-1363
1003.097	-1295
1003.173	-1096
1003.248	-1700
1003.324	-1368
1003.400	-2175
1003.475	-2519
1003.551	-1734
1003.626	-2006
1003.702	-1782
1003.777	-1949
1003.853	-1828
1003.928	-2029
1004.004	-1205
1004.079	-1652
1004.155	-1214
1004.230	-2044
1004.305	-836
1004.381	-1225
1004.456	-1300
1004.531	-2125
1004.607	-1553
1004.682	-2133
1004.757	-1817
1004.832	-2612
1004.907	-1558
1004.982	-1438
1005.057	-1048
1005.133	-1782
1005.208	-1753
1005.283	-1070
1005.358	-1004
1005.433	-2014
1005.508	-1577
1005.583	-2170
1005.657	-2515
1005.732	-1165
1005.807	-994
1005.882	-2156
1005.957	-1075
1006.032	-1534
1006.106	-1575
1006.181	-2088
1006.256	-1611
1006.331	-1878
1006.405	-1507
1006.480	-1514
1006.554	-1612
1006.629	-1890
1006.704	-2003
1006.778	-1661
1006.853	-1276
1006.927	-1443
1007.002	-1825
1007.076	-1860
1007.150	-1736
1007.225	-1197
1007.299	-886
1007.373	-2719
1007.448	-1569
1007.522	-1228
1007.596	-1261
1007.671	-2141
1007.745	-1158
1007.819	-2442
1007.893	-2178
1007.967	-954
1008.041	-2714
1008.115	-1428
1008.190	-1405
1008.264	-1266
1008.338	-2672
1008.412	-2146
1008.486	-2303
1008.560	-2011
1008.633	-1207
1008.707	-1365
1008.781	-666
1008.855	-2389
1008.929	-1171
1009.003	-1840
1009.076	-1017
1009.150	-1513
1009.224	-1535
1009.298	-1489
1009.371	-2031
1009.445	-1524
1009.519	-1876
1009.592	-2021
1009.666	-1377
1009.739	-1871
1009.813	-2034
1009.886	-1337
1009.960	-2569
1010.033	-1176
1010.107	-702
1010.180	-2418
1010.253	-1340
1010.327	-1687
1010.400	-822
1010.473	-979
1010.547	171
1010.620	-1371
1010.693	-1035
1010.766	-1277
1010.840	-976
1010.913	-565
1010.986	-2115
1011.059	-948
1011.132	-1102
1011.205	61
1011.278	-218
1011.351	-408
1011.424	-8
1011.497	-1465
1011.570	-733
1011.643	-1135
1011.716	-1826
1011.789	-1850
1011.862	-817
1011.934	-1202
1012.007	-1459
1012.080	-2012
1012.153	-1805
1012.225	-770
1012.298	-2049
1012.371	-1915
1012.443	-998
1012.516	-1567
1012.588	-2197
1012.661	-1701
1012.733	-1782
1012.806	-1407
1012.879	-1473
1012.951	-2209
1013.023	-1808
1013.096	-2238
1013.168	-1388
1013.241	-1418
1013.313	-1686
1013.385	-1896
1013.458	-1601
1013.530	-1461
1013.602	-2192
1013.674	-1664
1013.746	-1938
1013.819	-2598
1013.891	-2004
1013.963	-3123
1014.035	-2397
1014.107	-1723
1014.179	-1147
1014.251	-1592
1014.323	-1216
1014.395	-2201
1014.467	-1551
1014.539	-1816
1014.611	-2094
1014.683	-1536
1014.754	-730
1014.826	-2123
1014.898	-2855
1014.970	-2227
1015.042	-1132
1015.113	-2124
1015.185	-1245
1015.257	-2602
1015.328	-1730
1015.400	-1881
1015.471	-2341
1015.543	-1892
1015.615	-922
1015.686	-1900
1015.757	-1481
1015.829	-1790
1015.901	-1914
1015.972	-2299
1016.043	-1876
1016.115	-1345
1016.186	-1306
1016.257	-1764
1016.328	-1517
1016.400	-2474
1016.471	-2368
1016.542	-1952
1016.613	-1552
1016.685	-1410
1016.756	-943
1016.827	-2355
1016.898	-2655
1016.969	-1281
1017.040	-2362
1017.111	-2117
1017.182	-2586
1017.253	-2082
1017.324	-2110
1017.395	-2367
1017.466	-901
1017.537	-2831
1017.608	-1765
1017.678	-2048
1017.749	-2202
1017.820	-1613
1017.891	-1923
1017.961	-2379
1018.032	-1583
1018.103	-1690
1018.173	-1619
1018.244	-2445
1018.315	-2412
1018.385	-2374
1018.456	-2142
1018.526	-2603
1018.597	-2720
1018.667	-1641
1018.738	-2142
1018.808	-1855
1018.878	-2842
1018.949	-2770
1019.019	-1784
1019.089	-2742
1019.160	-2097
1019.230	-2994
1019.300	-1882
1019.371	-2663
1019.441	-1570
1019.511	-1686
1019.581	-1535
1019.651	-2624
1019.721	-1785
1019.791	-1949
1019.861	-2471
1019.931	-1438
1020.001	-2092
1020.071	-1752
1020.141	-2087
1020.211	-1708
1020.281	-1894
1020.351	-1988
1020.421	-1464
1020.491	-1685
1020.560	-2740
1020.630	-2351
1020.700	-1836
1020.770	-2669
1020.839	-1885
1020.909	-2143
1020.979	-2031
1021.048	-2439
1021.118	-2537
1021.187	-2311
1021.257	-2632
1021.326	-2157
1021.396	-2370
1021.465	-1880
1021.535	-2214
1021.604	-2708
1021.674	-1932
1021.743	-1149
1021.812	-2305
1021.882	-2096
1021.951	-2691
1022.020	-2482
1022.089	-2521
1022.159	-2274
1022.228	-1642
1022.297	-2630
1022.366	-1649
1022.435	-1138
1022.504	-1315
1022.573	-2107
1022.642	-1893
1022.711	-2803
1022.781	-1984
1022.849	-2269
1022.918	-2406
1022.987	-2749
1023.056	-2132
1023.125	-1235
1023.194	-2193
1023.263	-2220
1023.331	-1300
1023.400	-2427
1023.469	-2245
1023.538	-2036
1023.606	-2076
1023.675	-2830
1023.744	-2189
1023.812	-2574
1023.881	-2986
1023.949	-1951
1024.018	-2058
1024.086	-2269
1024.155	-2052
1024.223	-2715
1024.292	-1792
1024.360	-1699
1024.429	-2040
1024.497	-3404
1024.565	-2316
1024.634	-2704
1024.702	-1691
1024.770	-2463
1024.838	-2476
1024.907	-2691
1024.975	-2264
1025.043	-2453
1025.111	-2360
1025.179	-1686
1025.247	-2562
1025.315	-2503
1025.383	-2307
1025.451	-2651
1025.519	-1925
1025.587	-1500
1025.655	-2344
1025.723	-2626
1025.791	-2218
1025.859	-1680
1025.927	-2614
1025.995	-2717
1026.062	-752
1026.130	-2409
1026.198	-2836
1026.266	-3126
1026.333	-1297
1026.401	-2119
1026.469	-2338
1026.536	-1556
1026.604	-1992
1026.671	-2051
1026.739	-2244
1026.806	-1916
1026.874	-3146
1026.941	-2512
1027.009	-1859
1027.076	-2306
1027.144	-1730
1027.211	-2726
1027.278	-2563
1027.345	-2021
1027.413	-2223
1027.480	-2294
1027.547	-2169
1027.614	-2568
1027.682	-1808
1027.749	-3185
1027.816	-2851
1027.883	-2328
1027.950	-1599
1028.017	-2102
1028.084	-1766
1028.151	-2650
1028.218	-2231
1028.285	-2093
1028.352	-2258
1028.419	-2771
1028.486	-2626
1028.553	-2609
1028.619	-1919
1028.686	-1870
1028.753	-2038
1028.820	-2708
1028.886	-2038
1028.953	-2510
1029.020	-1837
1029.086	-2444
1029.153	-2717
1029.220	-2473
1029.286	-1490
1029.353	-3135
1029.419	-2459
1029.486	-2038
1029.552	-2145
1029.619	-1536
1029.685	-2008
1029.751	-1630
1029.818	-1863
1029.884	-2619
1029.951	-1626
1030.017	-2394
1030.083	-2169
1030.149	-2359
1030.216	-2276
1030.282	-2510
1030.348	-2333
1030.414	-2443
1030.480	-2122
1030.546	-2431
1030.612	-1988
1030.678	-2027
1030.744	-1925
1030.810	-2943
1030.876	-2247
1030.942	-2643
1031.008	-2017
1031.074	-2404
1031.140	-2305
1031.206	-2328
1031.272	-2756
1031.337	-3050
1031.403	-1305
1031.469	-2814
1031.534	-2783
1031.600	-2414
1031.666	-2337
1031.731	-2290
1031.797	-1903
1031.863	-2500
1031.928	-2585
1031.994	-2491
1032.059	-1586
1032.125	-3000
1032.190	-2313
1032.256	-3024
1032.321	-3049
1032.386	-2803
1032.452	-2673
1032.517	-1776
1032.582	-2739
1032.647	-2538
1032.713	-2111
1032.778	-2594
1032.843	-2778
1032.908	-3041
1032.974	-2508
1033.039	-2398
1033.104	-1500
1033.169	-2656
1033.234	-2502
1033.299	-1886
1033.364	-1958
1033.429	-2151
1033.494	-2179
1033.559	-2882
1033.624	-2279
1033.688	-1855
1033.753	-2312
1033.818	-2375
1033.883	-2184
1033.948	-2294
1034.013	-1993
1034.077	-1610
1034.142	-1368
1034.207	-2324
1034.271	-1603
1034.336	-1169
1034.400	-2271
1034.465	-1641
1034.530	-2302
1034.594	-1867
1034.658	-1759
1034.723	-3167
1034.787	-2751
1034.852	-1858
1034.916	-2198
1034.981	-2391
1035.045	-1431
1035.109	-2291
1035.173	-1881
1035.238	-2939
1035.302	-1900
1035.366	-2781
1035.430	-2325
1035.495	-2957
1035.559	-1659
1035.623	-2180
1035.687	-2226
1035.751	-2848
1035.815	-2342
1035.879	-2479
1035.943	-2106
1036.007	-3361
1036.071	-2303
1036.135	-2028
1036.198	-2241
1036.262	-1944
1036.326	-1302
1036.390	-1851
1036.454	-1314
1036.517	-2356
1036.581	-2557
1036.645	-1917
1036.709	-1592
1036.772	-2135
1036.836	-1581
1036.900	-1304
1036.963	-2381
1037.026	-1502
1037.090	-2612
1037.154	-2258
1037.217	-1431
1037.280	-2600
1037.344	-2409
1037.407	-2900
1037.471	-2453
1037.534	-2453
1037.597	-2609
1037.661	-2380
1037.724	-1265
1037.787	-2815
1037.850	-2115
1037.913	-1565
1037.977	-1885
1038.040	-3206
1038.103	-1869
1038.166	-3049
1038.229	-1523
1038.292	-1959
1038.355	-2239
1038.418	-1802
1038.481	-1151
1038.544	-2212
1038.607	-1582
1038.670	-1867
1038.732	-2002
1038.795	-3156
1038.858	-2270
1038.921	-1981
1038.984	-2370
1039.046	-2972
1039.109	-1979
1039.172	-1849
1039.234	-2114
1039.297	-2687
1039.360	-2587
1039.422	-2516
1039.485	-1861
1039.547	-3197
1039.610	-1854
1039.672	-2447
1039.734	-2103
1039.797	-2650
1039.859	-1863
1039.922	-2568
1039.984	-2723
1040.046	-2505
1040.109	-2461
1040.171	-2483
1040.233	-2164
1040.295	-3422
1040.358	-2259
1040.420	-2001
1040.482	-2781
1040.544	-2658
1040.606	-1801
1040.668	-2271
1040.730	-2797
1040.792	-2269
1040.854	-2247
1040.916	-2717
1040.978	-3071
1041.040	-1649
1041.102	-2125
1041.164	-2109
1041.225	-1969
1041.287	-2208
1041.349	-1812
1041.411	-2851
1041.472	-2268
1041.534	-2111
1041.596	-2764
1041.657	-2348
1041.719	-2801
1041.781	-2294
1041.842	-2310
1041.904	-2548
1041.965	-2801
1042.027	-2007
1042.088	-2060
1042.150	-2741
1042.211	-1323
1042.272	-2615
1042.334	-2271
1042.395	-1641
1042.456	-2151
1042.518	-2789
1042.579	-2159
1042.640	-3298
1042.701	-2214
1042.763	-2267
1042.824	-2565
1042.885	-2872
1042.946	-1888
1043.007	-2441
1043.068	-1831
1043.129	-2079
1043.190	-1751
1043.251	-2108
1043.312	-1872
1043.373	-1866
1043.434	-2099
1043.495	-2929
1043.556	-2085
1043.616	-1966
1043.677	-2703
1043.738	-1967
1043.799	-1957
1043.859	-2037
1043.920	-2333
1043.981	-2012
1044.041	-1412
1044.102	-2225
1044.162	-1936
1044.223	-2785
1044.284	-2362
1044.344	-2533
1044.405	-1654
1044.465	-1516
1044.525	-2739
1044.586	-2442
1044.646	-1222
1044.707	-1282
1044.767	-1528
1044.827	-2290
1044.887	-1910
1044.948	-2582
1045.008	-2127
1045.068	-2359
1045.128	-1744
1045.188	-1939
1045.249	-1941
1045.309	-1874
1045.369	-1984
1045.429	-2427
1045.489	-1547
1045.549	-2528
1045.609	-2174
1045.669	-2466
1045.729	-2500
1045.789	-2081
1045.848	-1631
1045.908	-1785
1045.968	-1423
1046.028	-2072
1046.088	-2109
1046.147	-1439
1046.207	-2407
1046.267	-2107
1046.326	-1752
1046.386	-1682
1046.446	-1713
1046.505	-1401
1046.565	-1327
1046.624	-1307
1046.684	-1102
1046.743	-1069
1046.803	-1384
1046.862	-631
1046.922	0
