'Start Wavelength	183.907
'End Wavelength	1046.922
'Gate Delay	5.000
'Gate Width (ms)	1.050
'Laser Output Level	0.000
'X Position	0.000
'Y Position	0.000
'Z Position	0.000
'Grid Point Number	1.000
'Shot Number	100.000
183.907	79.000
183.977	124.000
184.047	-55
184.116	486
184.186	149
184.256	-123
184.325	-446
184.395	-175
184.465	1247
184.534	-116
184.604	-151
184.674	85
184.743	-186
184.813	-542
184.883	941
184.952	51
185.022	672
185.092	424
185.161	245
185.231	123
185.301	-325
185.370	35
185.440	367
185.509	194
185.579	-770
185.649	-702
185.718	413
185.788	115
185.857	644
185.927	91
185.996	-464
186.066	-255
186.136	-180
186.205	-145
186.275	64
186.344	-1226
186.414	-122
186.483	-586
186.553	940
186.622	842
186.692	-84
186.761	-496
186.831	-433
186.900	-429
186.970	836
187.039	374
187.109	611
187.178	56
187.248	-69
187.317	-18
187.387	-536
187.456	523
187.526	-699
187.595	408
187.664	-195
187.734	264
187.803	-319
187.873	-279
187.942	391
188.012	549
188.081	594
188.150	-133
188.220	454
188.289	581
188.358	239
188.428	748
188.497	-450
188.567	-192
188.636	166
188.705	-371
188.775	-587
188.844	2
188.913	320
188.983	495
189.052	-39
189.121	-801
189.191	-376
189.260	-164
189.329	177
189.399	49
189.468	205
189.537	-351
189.606	-19
189.676	427
189.745	-101
189.814	832
189.883	-148
189.953	-87
190.022	283
190.091	1208
190.161	2158
190.230	636
190.299	-249
190.368	11
190.437	-139
190.507	-105
190.576	-125
190.645	64
190.714	-213
190.783	-1406
190.853	504
190.922	238
190.991	-77
191.060	-333
191.129	-98
191.198	-281
191.268	-34
191.337	54
191.406	837
191.475	181
191.544	-325
191.613	-403
191.682	-9
191.752	174
191.821	-321
191.890	-402
191.959	-71
192.028	421
192.097	-62
192.166	1016
192.235	-802
192.304	736
192.373	-162
192.442	-494
192.511	-633
192.580	-224
192.650	244
192.719	135
192.788	-541
192.857	591
192.926	-244
192.995	-82
193.064	473
193.133	89
193.202	140
193.271	916
193.340	532
193.409	382
193.478	1
193.547	301
193.615	1588
193.684	1732
193.753	979
193.822	531
193.891	314
193.960	689
194.029	-211
194.098	83
194.167	-842
194.236	321
194.305	577
194.374	-574
194.443	-101
194.512	-224
194.580	434
194.649	640
194.718	1218
194.787	168
194.856	-827
194.925	403
194.994	-469
195.062	426
195.131	544
195.200	1178
195.269	540
195.338	170
195.407	-128
195.475	-537
195.544	46
195.613	-332
195.682	213
195.751	1
195.819	452
195.888	-365
195.957	934
196.026	118
196.094	706
196.163	-276
196.232	176
196.301	445
196.369	207
196.438	66
196.507	513
196.576	660
196.644	437
196.713	448
196.782	384
196.850	41
196.919	98
196.988	730
197.056	-76
197.125	-689
197.194	-400
197.262	-38
197.331	282
197.400	99
197.468	103
197.537	583
197.606	-185
197.674	1305
197.743	2224
197.812	984
197.880	1521
197.949	1337
198.017	1748
198.086	1198
198.155	747
198.223	722
198.292	2114
198.360	1055
198.429	322
198.497	-55
198.566	485
198.635	2516
198.703	424
198.772	879
198.840	2261
198.909	2540
198.977	903
199.046	648
199.114	720
199.183	681
199.251	-129
199.320	102
199.388	64
199.457	-76
199.525	556
199.594	170
199.662	616
199.731	51
199.799	-60
199.867	265
199.936	-392
200.004	62
200.073	386
200.141	141
200.210	-489
200.278	-503
200.346	945
200.415	553
200.483	448
200.552	506
200.620	-32
200.688	529
200.757	459
200.825	709
200.893	-85
200.962	188
201.030	244
201.098	743
201.167	22
201.235	-18
201.303	108
201.372	252
201.440	409
201.508	533
201.577	1539
201.645	404
201.713	-63
201.781	208
201.850	470
201.918	189
201.986	-179
202.055	414
202.123	-259
202.191	-232
202.259	693
202.327	16
202.396	430
202.464	404
202.532	469
202.600	4479
202.669	2072
202.737	63
202.805	869
202.873	-403
202.941	621
203.009	630
203.078	-47
203.146	-118
203.214	-104
203.282	-260
203.350	352
203.418	79
203.487	395
203.555	83
203.623	58
203.691	478
203.759	231
203.827	-364
203.895	-884
203.963	76
204.031	-75
204.099	-58
204.168	-158
204.236	487
204.304	242
204.372	412
204.440	430
204.508	522
204.576	-350
204.644	438
204.712	-720
204.780	-238
204.848	-200
204.916	182
204.984	287
205.052	564
205.120	-297
205.188	-94
205.256	-628
205.324	139
205.392	-258
205.460	942
205.528	-85
205.596	1145
205.664	32
205.732	377
205.799	2564
205.867	4243
205.935	-29
206.003	1299
206.071	-124
206.139	157
206.207	1258
206.275	505
206.343	14
206.411	-241
206.478	201
206.546	653
206.614	743
206.682	6
206.750	-182
206.818	693
206.885	1336
206.953	-911
207.021	638
207.089	132
207.157	-118
207.225	709
207.292	1
207.360	-68
207.428	936
207.496	-36
207.563	429
207.631	117
207.699	135
207.767	400
207.834	-489
207.902	632
207.970	-388
208.038	30
208.105	66
208.173	600
208.241	579
208.309	783
208.376	1178
208.444	1508
208.512	775
208.579	-673
208.647	1157
208.715	1182
208.782	-331
208.850	865
208.918	277
208.985	618
209.053	211
209.120	1098
209.188	-23
209.256	26
209.323	-346
209.391	580
209.459	982
209.526	684
209.594	-734
209.661	485
209.729	509
209.796	386
209.864	-304
209.932	-1114
209.999	1526
210.067	124
210.134	109
210.202	-396
210.269	330
210.337	929
210.404	139
210.472	258
210.539	326
210.607	346
210.674	1083
210.742	328
210.809	1056
210.877	924
210.944	498
211.012	-543
211.079	1862
211.146	1028
211.214	603
211.281	1059
211.349	865
211.416	136
211.484	588
211.551	971
211.618	915
211.686	73
211.753	-618
211.821	1141
211.888	-487
211.955	-599
212.023	217
212.090	620
212.157	517
212.225	649
212.292	1286
212.359	4424
212.427	15742
212.494	5606
212.561	1912
212.629	823
212.696	-28
212.763	842
212.831	365
212.898	594
212.965	649
213.032	973
213.100	365
213.167	878
213.234	1511
213.301	843
213.369	688
213.436	938
213.503	-28
213.570	650
213.638	40
213.705	-373
213.772	-604
213.839	904
213.906	2733
213.973	1239
214.041	444
214.108	252
214.175	688
214.242	-31
214.309	-144
214.376	515
214.444	319
214.511	445
214.578	-121
214.645	980
214.712	730
214.779	813
214.846	-632
214.913	1218
214.980	759
215.048	1293
215.115	1922
215.182	560
215.249	552
215.316	139
215.383	1022
215.450	910
215.517	288
215.584	838
215.651	-407
215.718	882
215.785	298
215.852	638
215.919	1348
215.986	236
216.053	366
216.120	-342
216.187	837
216.254	221
216.321	-248
216.388	409
216.455	1140
216.522	608
216.589	332
216.656	2680
216.722	2347
216.789	766
216.856	1810
216.923	1045
216.990	181
217.057	1231
217.124	1471
217.191	1363
217.258	1834
217.324	1720
217.391	3090
217.458	971
217.525	826
217.592	729
217.659	-439
217.725	1082
217.792	1822
217.859	2093
217.926	381
217.993	113
218.059	139
218.126	381
218.193	241
218.260	-611
218.327	270
218.393	629
218.460	-75
218.527	414
218.594	458
218.660	2507
218.727	2531
218.794	38
218.860	645
218.927	548
218.994	-80
219.061	-528
219.127	846
219.194	1841
219.261	823
219.327	243
219.394	415
219.461	-1004
219.527	780
219.594	911
219.661	1222
219.727	-559
219.794	713
219.860	379
219.927	602
219.994	1069
220.060	2715
220.127	2335
220.193	965
220.260	475
220.326	1700
220.393	2278
220.460	3652
220.526	1778
220.593	524
220.659	2216
220.726	683
220.792	6514
220.859	4508
220.925	4052
220.992	8257
221.058	8511
221.125	10614
221.191	7264
221.258	1908
221.324	1094
221.391	1193
221.457	801
221.524	922
221.590	1344
221.657	9788
221.723	6143
221.789	5401
221.856	5088
221.922	1375
221.989	1281
222.055	418
222.121	-883
222.188	2089
222.254	1079
222.321	1056
222.387	-406
222.453	561
222.520	616
222.586	-274
222.652	-58
222.719	57
222.785	715
222.851	-451
222.918	428
222.984	222
223.050	472
223.116	-1337
223.183	786
223.249	511
223.315	63
223.382	476
223.448	-79
223.514	-184
223.580	-331
223.647	-538
223.713	-980
223.779	387
223.845	50
223.911	288
223.978	-603
224.044	264
224.110	-556
224.176	-307
224.242	-746
224.309	-503
224.375	256
224.441	819
224.507	-656
224.573	-565
224.639	1217
224.705	-783
224.772	823
224.838	-454
224.904	347
224.970	137
225.036	-202
225.102	-123
225.168	425
225.234	1208
225.300	409
225.366	6
225.432	789
225.499	564
225.565	431
225.631	-514
225.697	-533
225.763	433
225.829	338
225.895	655
225.961	2164
226.027	1683
226.093	113
226.159	2083
226.225	1721
226.291	5283
226.357	12795
226.423	5616
226.489	2533
226.554	1356
226.620	563
226.686	1584
226.752	3127
226.818	3977
226.884	15264
226.950	15135
227.016	4758
227.082	2301
227.148	1860
227.214	1650
227.279	1083
227.345	-62
227.411	820
227.477	765
227.543	3583
227.609	3303
227.674	1531
227.740	472
227.806	503
227.872	1077
227.938	1117
228.003	1291
228.069	860
228.135	-279
228.201	14
228.267	-36
228.332	723
228.398	402
228.464	170
228.530	257
228.595	318
228.661	-802
228.727	923
228.792	1540
228.858	533
228.924	-778
228.990	1860
229.055	91
229.121	825
229.187	1169
229.252	-519
229.318	368
229.384	486
229.449	970
229.515	-1118
229.581	-1364
229.646	1350
229.712	552
229.777	2671
229.843	2926
229.909	1681
229.974	1022
230.040	1021
230.105	594
230.171	945
230.236	1838
230.302	2496
230.368	1897
230.433	-115
230.499	824
230.564	786
230.630	-111
230.695	-77
230.761	343
230.826	-1046
230.892	2393
230.957	199
231.023	346
231.088	487
231.154	1000
231.219	1326
231.284	396
231.350	1672
231.415	-591
231.481	332
231.546	-241
231.612	378
231.677	-335
231.742	-475
231.808	1102
231.873	-752
231.939	-1272
232.004	2864
232.069	2734
232.135	632
232.200	719
232.265	354
232.331	396
232.396	-47
232.461	80
232.527	103
232.592	231
232.657	429
232.723	2643
232.788	1469
232.853	1537
232.918	279
232.984	193
233.049	546
233.114	747
233.179	1833
233.245	4430
233.310	7488
233.375	463
233.440	503
233.506	-386
233.571	263
233.636	455
233.701	831
233.766	2864
233.832	4505
233.897	622
233.962	306
234.027	2268
234.092	516
234.157	6
234.222	141
234.288	2706
234.353	13405
234.418	11892
234.483	4834
234.548	2518
234.613	1279
234.678	896
234.743	1152
234.808	12498
234.873	8282
234.938	3024
235.004	1287
235.069	710
235.134	652
235.199	1593
235.264	1093
235.329	-425
235.394	1245
235.459	2675
235.524	1143
235.589	1064
235.654	480
235.719	-388
235.784	2220
235.849	1677
235.913	7051
235.978	6121
236.043	8422
236.108	2208
236.173	1353
236.238	3045
236.303	-57
236.368	306
236.433	3058
236.498	7922
236.563	2859
236.627	4410
236.692	21394
236.757	16709
236.822	6013
236.887	4796
236.952	3647
237.017	1691
237.081	4330
237.146	2675
237.211	6461
237.276	19625
237.341	40672
237.405	18757
237.470	6366
237.535	5069
237.600	2763
237.664	2665
237.729	756
237.794	1747
237.859	5292
237.923	4711
237.988	2680
238.053	4978
238.118	4925
238.182	18488
238.247	20014
238.312	6602
238.376	4937
238.441	2388
238.506	3137
238.570	296
238.635	2479
238.700	541
238.764	868
238.829	6328
238.893	9944
238.958	3053
239.023	2059
239.087	767
239.152	784
239.216	580
239.281	608
239.346	1323
239.410	1040
239.475	1748
239.539	18251
239.604	16416
239.668	4049
239.733	1969
239.797	2134
239.862	7642
239.926	14460
239.991	6109
240.055	2588
240.120	1216
240.184	2071
240.249	1207
240.313	1400
240.378	1781
240.442	9118
240.507	19935
240.571	4840
240.635	6785
240.700	9854
240.764	2381
240.829	1853
240.893	708
240.957	1475
241.022	9112
241.086	18502
241.151	7634
241.215	1077
241.279	4039
241.344	7922
241.408	3147
241.472	1113
241.537	1838
241.601	1709
241.665	-125
241.730	395
241.794	1650
241.858	1038
241.922	763
241.987	272
242.051	-33
242.115	-1398
242.179	-393
242.244	325
242.308	1644
242.372	1487
242.436	967
242.501	1199
242.565	-19
242.629	94
242.693	1277
242.757	-405
242.822	616
242.886	1819
242.950	1830
243.014	621
243.078	1076
243.142	1874
243.206	805
243.271	1562
243.335	208
243.399	2567
243.463	11225
243.527	43074
243.591	13233
243.655	4599
243.719	1660
243.783	2719
243.847	3608
243.911	4892
243.975	4992
244.040	3282
244.104	2800
244.168	1405
244.232	2526
244.296	3607
244.360	3807
244.424	2106
244.488	2601
244.552	2127
244.615	-568
244.679	1545
244.743	1332
244.807	981
244.871	983
244.935	1199
244.999	-410
245.063	201
245.127	1902
245.191	3087
245.255	1721
245.319	1671
245.383	811
245.446	1993
245.510	-212
245.574	1176
245.638	1890
245.702	482
245.766	4972
245.829	2695
245.893	1190
245.957	1427
246.021	2606
246.085	1203
246.149	2311
246.212	7378
246.276	12422
246.340	4710
246.404	3413
246.467	3671
246.531	4175
246.595	3708
246.659	3336
246.722	1140
246.786	2438
246.850	3161
246.913	3929
246.977	918
247.041	2223
247.104	1247
247.168	1838
247.232	5952
247.295	17594
247.359	7936
247.423	2583
247.486	5314
247.550	4168
247.614	1821
247.677	2869
247.741	2388
247.804	2133
247.868	2410
247.932	4821
247.995	16160
248.059	5393
248.122	1666
248.186	2442
248.249	5550
248.313	25359
248.376	26847
248.440	16376
248.503	5181
248.567	5598
248.630	5040
248.694	7389
248.757	10113
248.821	28377
248.884	14335
248.948	12364
249.011	19957
249.075	33071
249.138	29085
249.202	9002
249.265	6000
249.328	11277
249.392	5142
249.455	4653
249.519	2282
249.582	3276
249.645	5852
249.709	4315
249.772	3668
249.835	2728
249.899	4201
249.962	4005
250.025	2765
250.089	9242
250.152	13634
250.215	4857
250.279	3849
250.342	4443
250.405	4083
250.468	3032
250.532	4974
250.595	8407
250.658	36512
250.721	71232
250.785	19447
250.848	10769
250.911	5246
250.974	5578
251.038	6876
251.101	17913
251.164	8345
251.227	6972
251.290	6543
251.354	10615
251.417	54946
251.480	57225
251.543	28380
251.606	109732
251.669	79384
251.732	23103
251.795	22935
251.859	25753
251.922	66406
251.985	36718
252.048	11733
252.111	8352
252.174	7257
252.237	13611
252.300	34663
252.363	34359
252.426	89990
252.489	32983
252.552	15426
252.615	8736
252.678	10781
252.741	25196
252.804	33453
252.867	90440
252.930	47804
252.993	22928
253.056	12432
253.119	8133
253.182	6308
253.245	10751
253.308	8808
253.371	7373
253.434	7577
253.497	6778
253.559	15880
253.622	10386
253.685	10582
253.748	11042
253.811	5274
253.874	8848
253.937	7664
254.000	4488
254.062	8935
254.125	17242
254.188	10936
254.251	9443
254.314	4917
254.376	8715
254.439	10407
254.502	7759
254.565	9503
254.628	19705
254.690	8944
254.753	5163
254.816	3971
254.878	4930
254.941	11236
255.004	12909
255.067	4347
255.129	3898
255.192	2051
255.255	1952
255.317	3155
255.380	2422
255.443	1230
255.505	1312
255.568	985
255.631	928
255.693	1652
255.756	1525
255.819	2161
255.881	936
255.944	2083
256.006	2036
256.069	1488
256.132	912
256.194	1989
256.257	13780
256.319	10078
256.382	8286
256.444	4170
256.507	2114
256.569	903
256.632	1379
256.694	4214
256.757	9693
256.819	30511
256.882	10299
256.944	3506
257.007	4060
257.069	3175
257.132	2650
257.194	2490
257.257	866
257.319	1055
257.381	1705
257.444	7025
257.506	35865
257.569	39762
257.631	21452
257.693	11115
257.756	5949
257.818	5545
257.880	2746
257.943	2324
258.005	1135
258.067	1421
258.130	1466
258.192	2369
258.254	6471
258.317	4620
258.379	2167
258.441	6751
258.503	8884
258.566	15963
258.628	26903
258.690	4138
258.753	4191
258.815	5942
258.877	2748
258.939	1762
259.001	1061
259.064	1489
259.126	2061
259.188	6156
259.250	3295
259.312	3594
259.375	12678
259.437	7088
259.499	2790
259.561	1707
259.623	1960
259.685	979
259.747	2724
259.809	15105
259.872	36198
259.934	49351
259.996	42184
260.058	8251
260.120	3586
260.182	2638
260.244	2392
260.306	1810
260.368	2221
260.430	832
260.492	2323
260.554	7892
260.616	8962
260.678	16894
260.740	33996
260.802	7902
260.864	4028
260.926	2210
260.988	2864
261.050	1768
261.112	3909
261.174	26344
261.236	29291
261.298	5996
261.359	13483
261.421	21774
261.483	3827
261.545	3435
261.607	497
261.669	2283
261.731	7135
261.793	20537
261.854	5245
261.916	3874
261.978	2156
262.040	2696
262.102	2540
262.164	5959
262.225	6046
262.287	1767
262.349	5232
262.411	3937
262.472	3831
262.534	7311
262.596	22823
262.658	5460
262.719	1655
262.781	5522
262.843	19833
262.904	8625
262.966	4629
263.028	5405
263.090	29698
263.151	82671
263.213	23130
263.275	8254
263.336	4645
263.398	3438
263.459	1750
263.521	1392
263.583	5328
263.644	3312
263.706	669
263.767	522
263.829	1354
263.891	500
263.952	666
264.014	168
264.075	454
264.137	2214
264.198	2593
264.260	85
264.321	29
264.383	1607
264.444	5255
264.506	365
264.567	381
264.629	1475
264.690	1332
264.752	761
264.813	786
264.875	336
264.936	686
264.998	39
265.059	777
265.120	683
265.182	1194
265.243	11326
265.305	13400
265.366	2855
265.427	1956
265.489	1975
265.550	-221
265.611	1238
265.673	27
265.734	275
265.795	1456
265.857	231
265.918	554
265.979	3369
266.040	23029
266.102	18867
266.163	4319
266.224	2555
266.286	2131
266.347	972
266.408	1587
266.469	2210
266.530	1659
266.592	1026
266.653	3353
266.714	5362
266.775	1872
266.836	576
266.898	490
266.959	425
267.020	658
267.081	1773
267.142	946
267.203	825
267.264	567
267.326	2674
267.387	-122
267.448	858
267.509	1374
267.570	111
267.631	950
267.692	1844
267.753	4974
267.814	656
267.875	3201
267.936	7816
267.997	1219
268.058	1428
268.119	712
268.180	-44
268.241	26
268.302	566
268.363	-4
268.424	1162
268.485	1391
268.546	60
268.607	-78
268.668	-15
268.729	-795
268.790	44
268.851	554
268.912	3080
268.972	4800
269.033	2723
269.094	535
269.155	737
269.216	-141
269.277	1011
269.338	897
269.398	302
269.459	498
269.520	1080
269.581	2250
269.642	2627
269.702	1082
269.763	1025
269.824	271
269.885	1417
269.945	2824
270.006	625
270.067	335
270.128	717
270.188	541
270.249	398
270.310	-372
270.370	730
270.431	1303
270.492	-364
270.553	1166
270.613	1389
270.674	6426
270.734	2200
270.795	657
270.856	1866
270.916	1386
270.977	648
271.038	1766
271.098	1416
271.159	2224
271.219	3328
271.280	1535
271.340	913
271.401	1214
271.462	8810
271.522	3824
271.583	1168
271.643	1263
271.704	1228
271.764	947
271.825	4457
271.885	20774
271.946	34461
272.006	8604
272.066	12463
272.127	28150
272.187	7235
272.248	3796
272.308	3608
272.369	17234
272.429	10505
272.489	5142
272.550	5221
272.610	4439
272.671	4350
272.731	5426
272.791	10770
272.852	3701
272.912	2771
272.972	1577
273.033	1153
273.093	4487
273.153	3605
273.214	2788
273.274	2887
273.334	9571
273.394	25446
273.455	9021
273.515	8084
273.575	19763
273.635	8997
273.696	13451
273.756	29176
273.816	11654
273.876	6136
273.936	17138
273.997	37175
274.057	8133
274.117	4090
274.177	5987
274.237	27564
274.297	30073
274.358	23967
274.418	20280
274.478	13687
274.538	5623
274.598	6607
274.658	26200
274.718	38321
274.778	13452
274.838	6736
274.898	15387
274.958	53393
275.018	34885
275.078	20666
275.138	7303
275.198	4236
275.258	3014
275.318	4276
275.378	6581
275.438	5715
275.498	4912
275.558	20192
275.618	47249
275.678	19915
275.738	8988
275.798	6795
275.858	2864
275.918	2566
275.978	2833
276.038	2353
276.098	821
276.157	3333
276.217	13996
276.277	7198
276.337	3927
276.397	2624
276.457	3344
276.517	1828
276.576	2306
276.636	3942
276.696	5375
276.756	8522
276.815	7966
276.875	2744
276.935	3596
276.995	4324
277.055	2948
277.114	2019
277.174	3035
277.234	10115
277.293	4804
277.353	2330
277.413	1921
277.472	2919
277.532	2799
277.592	5024
277.651	18682
277.711	43649
277.771	13114
277.830	39080
277.890	37060
277.950	25461
278.009	84025
278.069	33631
278.128	28368
278.188	43404
278.248	16394
278.307	44077
278.367	30468
278.426	8654
278.486	5745
278.545	3728
278.605	4061
278.664	3782
278.724	3620
278.783	10278
278.843	29815
278.902	10436
278.962	5973
279.021	7965
279.081	21386
279.140	22357
279.199	8787
279.259	8578
279.318	9055
279.378	13496
279.437	25713
279.496	82914
279.556	300769
279.615	282348
279.675	74830
279.734	40715
279.793	53632
279.853	74389
279.912	25071
279.971	15014
280.031	12320
280.090	17848
280.149	31611
280.208	41179
280.268	197775
280.327	240819
280.386	57942
280.445	30929
280.505	22886
280.564	13397
280.623	9782
280.682	10780
280.742	13255
280.801	5084
280.860	4827
280.919	4204
280.978	3042
281.037	3073
281.097	2852
281.156	4404
281.215	2956
281.274	4199
281.333	15537
281.392	14836
281.451	3765
281.510	2778
281.569	2903
281.628	2889
281.688	2127
281.747	2837
281.806	2567
281.865	1736
281.924	1333
281.983	2337
282.042	740
282.101	1527
282.160	1613
282.219	1446
282.278	2194
282.337	6043
282.396	4878
282.454	1551
282.513	1655
282.572	9528
282.631	6835
282.690	1189
282.749	898
282.808	2364
282.867	2221
282.926	1261
282.985	1079
283.043	1707
283.102	762
283.161	2172
283.220	5118
283.279	13909
283.338	5020
283.396	2465
283.455	2800
283.514	3011
283.573	8293
283.631	7159
283.690	2412
283.749	2612
283.808	4032
283.866	5425
283.925	2048
283.984	2651
284.043	2364
284.101	3624
284.160	2254
284.219	3348
284.277	4161
284.336	8637
284.395	17451
284.453	15116
284.512	5177
284.570	5926
284.629	6170
284.688	7208
284.746	7861
284.805	9214
284.863	13436
284.922	15428
284.981	18621
285.039	26706
285.098	42827
285.156	106378
285.215	260594
285.273	263766
285.332	128279
285.390	62193
285.449	38241
285.507	27093
285.566	19789
285.624	15062
285.683	10801
285.741	7564
285.799	6626
285.858	5214
285.916	5722
285.975	4626
286.033	3189
286.091	3713
286.150	3706
286.208	3158
286.267	4083
286.325	3823
286.383	4185
286.442	3428
286.500	2562
286.558	3240
286.616	2359
286.675	3310
286.733	3741
286.791	2747
286.850	3242
286.908	2226
286.966	4724
287.024	2566
287.083	1514
287.141	1146
287.199	1728
287.257	2923
287.315	1297
287.374	2436
287.432	5290
287.490	3130
287.548	1346
287.606	2956
287.664	2867
287.723	2332
287.781	3243
287.839	1990
287.897	2425
287.955	3739
288.013	4849
288.071	17097
288.129	67702
288.187	231912
288.245	95779
288.303	24903
288.361	14106
288.419	10253
288.477	7540
288.535	4338
288.593	3085
288.651	2113
288.709	1197
288.767	1394
288.825	836
288.883	615
288.941	1951
288.999	1565
289.057	793
289.115	492
289.173	1229
289.231	677
289.289	771
289.346	1471
289.404	1653
289.462	2254
289.520	2962
289.578	806
289.636	414
289.694	275
289.751	157
289.809	707
289.867	502
289.925	1690
289.983	1037
290.040	868
290.098	-187
290.156	723
290.214	941
290.271	10
290.329	428
290.387	-500
290.444	-470
290.502	201
290.560	197
290.617	105
290.675	4
290.733	-22
290.790	645
290.848	220
290.906	648
290.963	504
291.021	-493
291.078	952
291.136	1001
291.194	3158
291.251	7642
291.309	1719
291.366	809
291.424	-487
291.481	571
291.539	882
291.596	1993
291.654	56
291.711	-810
291.769	330
291.826	2243
291.884	2020
291.941	151
291.999	176
292.056	568
292.114	437
292.171	-208
292.228	458
292.286	661
292.343	2873
292.401	2567
292.458	1846
292.515	840
292.573	1339
292.630	1297
292.687	1424
292.745	1490
292.802	1310
292.859	5890
292.917	14676
292.974	7872
293.031	2000
293.089	985
293.146	593
293.203	445
293.260	420
293.318	1236
293.375	1223
293.432	374
293.489	269
293.546	810
293.604	3688
293.661	14757
293.718	33450
293.775	14045
293.832	5747
293.889	5005
293.947	4657
294.004	2737
294.061	2176
294.118	3780
294.175	8509
294.232	7344
294.289	3831
294.346	1037
294.403	1550
294.460	1721
294.517	1364
294.574	429
294.631	31
294.688	1472
294.745	5834
294.802	26339
294.859	20383
294.916	7644
294.973	5573
295.030	3253
295.087	2431
295.144	1183
295.201	1415
295.258	682
295.315	2008
295.372	9303
295.429	23687
295.486	8216
295.542	2670
295.599	3630
295.656	6311
295.713	7014
295.770	17430
295.827	5929
295.883	1861
295.940	1790
295.997	3592
296.054	3660
296.111	1756
296.167	1430
296.224	-255
296.281	-10
296.338	824
296.394	894
296.451	1149
296.508	5737
296.564	13490
296.621	8556
296.678	21250
296.734	37540
296.791	11886
296.848	5745
296.904	4200
296.961	9862
297.018	20485
297.074	17152
297.131	5764
297.187	4098
297.244	6746
297.301	23191
297.357	51339
297.414	17426
297.470	5468
297.527	3078
297.583	2821
297.640	2803
297.696	1624
297.753	673
297.809	1099
297.866	409
297.922	920
297.979	472
298.035	1203
298.092	3051
298.148	10599
298.204	12132
298.261	5321
298.317	8894
298.374	30385
298.430	20743
298.486	9285
298.543	7281
298.599	7506
298.656	9808
298.712	10684
298.768	17727
298.824	14612
298.881	5429
298.937	1765
298.993	2326
299.050	2869
299.106	2465
299.162	1408
299.218	2081
299.275	1109
299.331	2241
299.387	6090
299.443	25509
299.500	32063
299.556	11423
299.612	5032
299.668	5264
299.724	6154
299.780	6620
299.837	3044
299.893	4383
299.949	18136
300.005	23451
300.061	18843
300.117	39313
300.173	21051
300.229	8440
300.285	9297
300.341	9498
300.397	5241
300.453	3604
300.510	3241
300.566	2895
300.622	3578
300.678	10438
300.734	21741
300.790	19837
300.845	27956
300.901	15897
300.957	18044
301.013	14878
301.069	6187
301.125	3075
301.181	3969
301.237	3301
301.293	1525
301.349	2593
301.405	3293
301.461	4335
301.516	9787
301.572	6715
301.628	5096
301.684	5121
301.740	8544
301.796	17628
301.851	11013
301.907	14393
301.963	16003
302.019	26371
302.074	81249
302.130	87318
302.186	44036
302.242	16848
302.297	9427
302.353	7549
302.409	13796
302.464	15102
302.520	10771
302.576	22564
302.631	30353
302.687	15148
302.743	6169
302.798	3572
302.854	1860
302.910	2318
302.965	3086
303.021	7068
303.076	7171
303.132	5767
303.187	7338
303.243	4146
303.299	2093
303.354	1699
303.410	1668
303.465	1017
303.521	1622
303.576	1463
303.632	2425
303.687	7265
303.743	25267
303.798	23870
303.853	9204
303.909	3063
303.964	1770
304.020	3823
304.075	5727
304.130	5679
304.186	7655
304.241	9802
304.297	7854
304.352	3145
304.358	3015
304.407	1961
304.449	1633
304.463	1523
304.518	1521
304.539	1591
304.573	1701
304.629	2275
304.630	2339
304.684	5599
304.720	12857
304.739	16407
304.794	31391
304.811	26846
304.850	15666
304.902	6608
304.905	6049
304.960	2952
304.992	3211
305.015	3457
305.071	4057
305.083	3828
305.126	2811
305.173	1580
305.181	1396
305.236	917
305.264	1028
305.292	1225
305.347	2532
305.354	2734
305.402	3948
305.445	4096
305.457	4094
305.512	3653
305.535	3631
305.567	3609
305.622	4007
305.626	4152
305.678	9337
305.716	20044
305.733	23407
305.788	30504
305.807	26434
305.843	20372
305.897	27218
305.898	27260
305.953	29390
305.988	18997
306.008	13552
306.063	6944
306.078	5897
306.118	3960
306.168	2564
306.173	2439
306.228	1919
306.259	2033
306.283	2162
306.338	1503
306.349	1523
306.393	1886
306.440	2548
306.448	2600
306.503	2502
306.530	2385
306.558	3178
306.613	6698
306.620	7451
306.668	14470
306.711	22261
306.723	22581
306.778	19114
306.801	14028
306.833	8758
306.888	4070
306.892	3877
306.943	2713
306.982	1926
306.997	1796
307.052	2071
307.072	2014
307.107	1973
307.162	2546
307.163	2555
307.217	4305
307.253	5100
307.272	5073
307.327	5231
307.343	4956
307.381	4527
307.434	4508
307.436	4715
307.491	10537
307.524	15341
307.546	16489
307.600	19540
307.614	18102
307.655	11594
307.704	5414
307.710	5202
307.765	5394
307.795	6261
307.819	7398
307.874	11644
307.885	11719
307.929	9535
307.975	8146
307.984	8603
308.038	12758
308.065	16151
308.093	32696
308.148	71689
308.156	80472
308.202	127405
308.246	165325
308.257	160336
308.312	80542
308.336	50353
308.366	36595
308.421	22798
308.426	21582
308.475	14566
308.517	10672
308.530	10053
308.585	7602
308.607	7286
308.639	7548
308.694	8507
308.697	8547
308.748	12689
308.787	17221
308.803	16984
308.857	13812
308.877	12088
308.912	11686
308.967	12673
308.967	12684
309.021	20746
309.058	27503
309.076	34501
309.130	59159
309.148	68252
309.185	132356
309.238	236070
309.239	236906
309.293	269101
309.328	253680
309.348	217570
309.402	98445
309.418	68733
309.457	47888
309.508	29622
309.511	29515
309.566	32517
309.598	36028
309.620	49126
309.674	86107
309.688	95881
309.729	86114
309.778	63352
309.783	61490
309.837	37623
309.868	25816
309.892	26996
309.946	32412
309.959	34253
310.001	41453
310.049	49252
310.055	47684
310.109	29541
310.139	19049
310.163	15627
310.218	10048
310.229	9007
310.272	7243
310.319	5408
310.326	5174
310.381	4106
310.409	3467
310.435	3355
310.489	3492
310.499	3463
310.543	3457
310.589	3485
310.598	3407
310.652	3117
310.679	2873
310.706	2801
310.760	2664
310.769	2622
310.814	2471
310.859	2588
310.868	2696
310.923	2899
310.948	3059
310.977	3288
311.031	3831
311.038	3899
311.085	3763
311.128	3443
311.139	3356
311.193	2994
311.218	2774
311.247	2551
311.301	2094
311.308	2032
311.356	2054
311.398	2129
311.410	2188
311.464	2396
311.488	2471
311.518	2418
311.572	2299
311.578	2283
311.626	3363
311.668	4293
311.680	4239
311.734	3875
311.758	3708
311.788	3849
311.842	4102
311.847	4117
311.896	4671
311.937	5132
311.950	5168
312.004	5278
312.027	5315
312.058	4699
312.112	3558
312.117	3438
312.165	3210
312.207	3009
312.297	2418
312.386	3001
312.476	5732
312.566	8899
312.656	4039
312.745	2582
312.835	2654
312.925	3477
313.015	2320
313.104	3591
313.194	4260
313.284	3261
313.374	5440
313.463	4797
313.553	2871
313.643	2394
313.732	2563
313.822	2408
313.912	1987
314.001	4594
314.091	3662
314.180	3516
314.270	4587
314.360	4950
314.449	4320
314.539	3621
314.628	2397
314.718	3280
314.808	4060
314.897	3054
314.987	3531
315.076	4299
315.166	5856
315.255	4893
315.345	5726
315.434	4915
315.524	5047
315.613	6476
315.703	10119
315.792	24271
315.881	98776
315.971	29003
316.060	10691
316.150	9693
316.239	9088
316.328	4206
316.418	3503
316.507	3248
316.597	5492
316.686	4030
316.775	5990
316.865	9803
316.954	3882
317.043	3151
317.133	3397
317.222	3116
317.311	3242
317.400	3381
317.490	6399
317.579	6992
317.668	8481
317.757	15104
317.847	43021
317.936	169478
318.025	48147
318.114	31235
318.203	13680
318.293	8569
318.382	13369
318.471	11648
318.560	12181
318.649	17707
318.738	5283
318.828	4691
318.917	5123
319.006	5825
319.095	11421
319.184	24514
319.273	19412
319.362	12310
319.451	4304
319.540	4202
319.629	10345
319.718	17829
319.807	7100
319.896	9717
319.985	33112
320.074	14808
320.163	4465
320.252	5922
320.341	4331
320.430	3860
320.519	8187
320.608	4696
320.697	3628
320.786	4662
320.875	6451
320.964	9012
321.053	13183
321.142	17609
321.230	19282
321.319	13283
321.408	29945
321.497	12872
321.586	12738
321.675	10957
321.764	11415
321.852	8316
321.941	16096
322.030	11364
322.119	11015
322.207	30812
322.296	15892
322.385	10109
322.474	14700
322.562	41845
322.651	19667
322.740	14531
322.829	17900
322.917	13944
323.006	11174
323.095	9800
323.183	6199
323.272	9906
323.361	16043
323.449	45624
323.538	14912
323.626	29312
323.715	17472
323.804	7766
323.892	25386
323.981	16465
324.069	4452
324.158	13036
324.246	12849
324.335	6428
324.424	10755
324.512	4411
324.601	4925
324.689	4993
324.778	6882
324.866	10061
324.954	3058
325.043	3964
325.131	6328
325.220	10318
325.308	11056
325.397	8999
325.485	6165
325.574	3023
325.662	2015
325.750	2956
325.839	2911
325.927	2813
326.015	3915
326.104	4652
326.192	5569
326.280	2168
326.369	2660
326.457	4308
326.545	7778
326.634	4020
326.722	2150
326.810	3028
326.898	2628
326.987	3558
327.075	7648
327.163	7292
327.251	2929
327.340	3255
327.428	3676
327.516	2779
327.604	2479
327.692	2747
327.781	2425
327.869	5118
327.957	4024
328.045	4157
328.133	1849
328.221	2273
328.309	2641
328.397	2393
328.485	4903
328.574	6008
328.662	21127
328.750	9944
328.838	3015
328.926	2508
329.014	1719
329.102	3122
329.190	7622
329.278	5853
329.366	1783
329.454	2560
329.542	1487
329.630	1103
329.718	1959
329.806	2739
329.893	2558
329.981	1556
330.069	2664
330.157	6673
330.245	19543
330.333	9966
330.421	2981
330.509	5859
330.597	23443
330.684	14161
330.772	4196
330.860	3279
330.948	3512
331.036	2299
331.123	1341
331.211	1962
331.299	2908
331.387	3826
331.475	7217
331.562	3618
331.650	1146
331.738	2222
331.825	3246
331.913	1929
332.001	1838
332.089	2757
332.176	3922
332.264	11116
332.352	8265
332.439	3080
332.527	2206
332.614	2154
332.702	3218
332.790	2932
332.877	7124
332.965	16711
333.052	8739
333.140	10156
333.228	27896
333.315	6483
333.403	3506
333.490	9004
333.578	12507
333.665	40773
333.753	14849
333.840	3633
333.928	3253
334.015	8301
334.103	11460
334.190	34568
334.278	9813
334.365	7422
334.452	7145
334.540	4415
334.627	3651
334.715	6650
334.802	12225
334.889	52295
334.977	60518
335.064	13570
335.151	4340
335.239	3860
335.326	4957
335.413	15302
335.501	19349
335.588	5211
335.675	3030
335.762	4156
335.850	6469
335.937	6832
336.024	17152
336.111	59391
336.199	34119
336.286	8946
336.373	4348
336.460	3052
336.547	3204
336.635	3857
336.722	3541
336.809	4068
336.896	5469
336.983	12253
337.070	21664
337.157	33868
337.245	30142
337.332	21124
337.419	3820
337.506	2906
337.593	2189
337.680	5993
337.767	14967
337.854	5646
337.941	6513
338.028	12194
338.115	4312
338.202	3720
338.289	8092
338.376	29673
338.463	8787
338.550	10111
338.637	9646
338.724	4946
338.811	9035
338.898	2742
338.984	1347
339.071	2827
339.158	5022
339.245	12336
339.332	7613
339.419	6328
339.506	6530
339.593	1503
339.679	1876
339.766	2433
339.853	3341
339.940	8425
340.027	2945
340.113	2581
340.200	3975
340.287	3441
340.374	4356
340.460	7827
340.547	2256
340.634	6655
340.720	25461
340.807	14080
340.894	3878
340.980	2906
341.067	1807
341.154	2141
341.240	5365
341.327	12328
341.414	6875
341.500	10950
341.587	3427
341.674	2335
341.760	7943
341.847	9409
341.933	3357
342.020	1248
342.106	1889
342.193	2904
342.279	7154
342.366	6054
342.452	8564
342.539	4531
342.625	10649
342.712	27156
342.798	10504
342.885	4631
342.971	1348
343.058	2091
343.144	2262
343.230	2619
343.317	4573
343.403	4561
343.490	1740
343.576	1672
343.662	2944
343.749	3838
343.835	5571
343.921	10837
344.008	67755
344.094	159359
344.180	32905
344.267	10437
344.353	35627
344.439	35437
344.525	12616
344.612	8836
344.698	4994
344.784	2220
344.870	2977
344.957	2493
345.043	4798
345.129	3499
345.215	7067
345.301	5457
345.387	3154
345.474	1367
345.560	1354
345.646	2216
345.732	2414
345.818	6165
345.904	5480
345.990	3368
346.076	4011
346.162	8378
346.249	4107
346.335	2630
346.421	3094
346.507	15391
346.593	58076
346.679	11358
346.765	3590
346.851	2427
346.937	2337
347.023	3270
347.108	3009
347.194	3107
347.280	3150
347.366	5186
347.452	18286
347.538	72768
347.624	45854
347.710	32133
347.796	4537
347.882	2946
347.967	1809
348.053	2202
348.139	2384
348.225	1985
348.311	1411
348.397	2836
348.482	2483
348.568	3564
348.654	2120
348.740	4727
348.825	3930
348.911	7090
348.997	31953
349.083	63904
349.168	8749
349.254	5271
349.340	6206
349.425	1964
349.511	3759
349.597	4867
349.682	9202
349.768	33610
349.854	14689
349.939	2979
350.025	1329
350.110	1242
350.196	1758
350.282	760
350.367	1843
350.453	3099
350.538	2851
350.624	3404
350.709	3203
350.795	1270
350.880	2627
350.966	3550
351.051	5438
351.137	3172
351.222	3237
351.308	9345
351.393	27147
351.479	10131
351.564	4911
351.649	2359
351.735	2129
351.820	1691
351.906	2898
351.991	3255
352.076	16938
352.162	25197
352.247	5512
352.332	3633
352.418	12822
352.503	14515
352.588	36775
352.673	28835
352.759	5516
352.844	3061
352.929	3885
353.014	4657
353.100	3852
353.185	5265
353.270	8958
353.355	9086
353.441	2595
353.526	3388
353.611	7989
353.696	9630
353.781	5656
353.866	2514
353.952	3884
354.037	7461
354.122	19334
354.207	15749
354.292	5232
354.377	2831
354.462	2449
354.547	3597
354.632	3214
354.717	4964
354.802	6103
354.887	3415
354.972	2446
355.057	2334
355.142	1656
355.227	3416
355.312	6015
355.397	12634
355.482	30522
355.567	13755
355.652	10053
355.737	11933
355.822	39857
355.907	32705
355.991	6435
356.076	3031
356.161	2882
356.246	2679
356.331	3695
356.416	10557
356.501	79494
356.585	79807
356.670	10551
356.755	8123
356.840	9959
356.924	48053
357.009	186270
357.094	62164
357.179	12168
357.263	8664
357.348	8343
357.433	7858
357.517	7904
357.602	6369
357.687	6657
357.771	19850
357.856	99943
357.941	47416
358.025	42282
358.110	184588
358.195	76657
358.279	9315
358.364	7186
358.448	26832
358.533	69631
358.617	47769
358.702	50299
358.787	17832
358.871	9520
358.956	7773
359.040	3420
359.125	4090
359.209	7164
359.294	48100
359.378	84861
359.462	17052
359.547	5046
359.631	3816
359.716	1913
359.800	2753
359.885	4525
359.969	2631
360.053	3844
360.138	3091
360.222	5853
360.306	9889
360.391	9949
360.475	44363
360.559	88488
360.644	35409
360.728	19210
360.812	41560
360.896	118063
360.981	37114
361.065	15136
361.149	5494
361.233	4536
361.318	3918
361.402	5601
361.486	5201
361.570	3622
361.654	5945
361.739	13354
361.823	74346
361.907	122476
361.991	21418
362.075	9373
362.159	18189
362.243	13269
362.327	14558
362.411	24768
362.495	10324
362.580	4588
362.664	3550
362.748	3135
362.832	5292
362.916	8585
363.000	37343
363.084	115585
363.168	146162
363.252	28542
363.336	8705
363.420	9355
363.503	22114
363.587	23960
363.671	7064
363.755	4848
363.839	9790
363.923	4214
364.007	11421
364.091	10504
364.175	11323
364.258	41318
364.342	43615
364.426	87947
364.510	47266
364.594	15890
364.677	19876
364.761	103334
364.845	69742
364.929	17610
365.013	13461
365.096	10652
365.180	11238
365.264	9632
365.347	36034
365.431	13674
365.515	3899
365.598	3853
365.682	3640
365.766	2509
365.849	3317
365.933	3123
366.017	4531
366.100	1670
366.184	977
366.267	2895
366.351	3138
366.435	1392
366.518	1145
366.602	1957
366.685	3050
366.769	3079
366.852	4103
366.936	7427
367.019	5914
367.103	1692
367.186	4380
367.270	2721
367.353	1683
367.436	2642
367.520	2586
367.603	4081
367.687	5542
367.770	10790
367.853	6812
367.937	24810
368.020	42466
368.104	8503
368.187	8462
368.270	10502
368.353	8206
368.437	10682
368.520	19798
368.603	13589
368.687	27352
368.770	53240
368.853	11209
368.936	9448
369.020	7851
369.103	2980
369.186	2151
369.269	2439
369.352	6993
369.436	9011
369.519	6010
369.602	2007
369.685	4979
369.768	2165
369.851	3290
369.934	2094
370.018	3436
370.101	8101
370.184	8193
370.267	4309
370.350	7736
370.433	13090
370.516	52948
370.599	83051
370.682	24324
370.765	25007
370.848	33897
370.931	68960
371.014	21753
371.097	3967
371.180	4245
371.263	2675
371.346	961
371.429	3239
371.511	2790
371.594	5534
371.677	8379
371.760	6598
371.843	8981
371.926	60580
372.009	144407
372.091	39624
372.174	25299
372.257	70306
372.340	25049
372.423	10632
372.505	10986
372.588	6500
372.671	20900
372.754	68905
372.836	30684
372.919	10909
373.002	17471
373.085	8477
373.167	10166
373.250	26949
373.332	65791
373.415	93012
373.498	202404
373.580	69415
373.663	126673
373.746	155406
373.828	27233
373.911	9556
373.993	7665
374.076	17148
374.159	16147
374.241	15134
374.324	54624
374.406	36274
374.489	55636
374.571	164110
374.654	60034
374.736	28418
374.819	100588
374.901	143132
374.983	149503
375.066	23063
375.148	6742
375.231	15729
375.313	27857
375.395	11643
375.478	4831
375.560	4495
375.643	7176
375.725	27454
375.807	130139
375.890	83224
375.972	21079
376.054	11408
376.136	16572
376.219	8762
376.301	34188
376.383	108801
376.465	36206
376.548	19151
376.630	25432
376.712	86915
376.794	38327
376.877	5334
376.959	1956
377.041	3383
377.123	2770
377.205	3652
377.287	1388
377.369	2945
377.452	1659
377.534	2314
377.616	1972
377.698	2543
377.780	1579
377.862	2540
377.944	3544
378.026	652
378.108	2710
378.190	2034
378.272	2572
378.354	1808
378.436	1635
378.518	2250
378.600	8590
378.682	10373
378.764	35695
378.846	26467
378.928	6240
379.010	8521
379.091	5875
379.173	3062
379.255	1977
379.337	4217
379.419	16811
379.501	52609
379.583	18687
379.664	5423
379.746	11235
379.828	32644
379.910	46728
379.991	42135
380.073	6838
380.155	4345
380.237	3369
380.318	2831
380.400	3756
380.482	8503
380.564	12281
380.645	10468
380.727	9309
380.809	6643
380.890	4798
380.972	2371
381.053	3232
381.135	5383
381.217	12299
381.298	36365
381.380	17050
381.461	16081
381.543	88444
381.624	103888
381.706	17565
381.787	8077
381.869	10176
381.951	38924
382.032	163206
382.113	92328
382.195	15635
382.276	12587
382.358	27220
382.439	80365
382.521	93212
382.602	153435
382.684	64914
382.765	115327
382.846	161149
382.928	322370
383.009	166198
383.090	104736
383.172	420121
383.253	636139
383.334	187585
383.416	142239
383.497	73366
383.578	42152
383.659	83510
383.741	338078
383.822	891029
383.903	427819
383.984	114097
384.066	148186
384.147	86902
384.228	21761
384.309	15731
384.390	12062
384.471	9875
384.553	9350
384.634	11326
384.715	11739
384.796	7789
384.877	9636
384.958	36089
385.039	39854
385.120	13825
385.201	8165
385.282	7589
385.363	7974
385.444	8253
385.525	15835
385.606	61787
385.687	52004
385.768	10507
385.849	12154
385.930	66561
386.011	120005
386.092	28109
386.173	6853
386.254	5216
386.335	5076
386.416	5196
386.496	20039
386.577	32595
386.658	9429
386.739	5616
386.820	4344
386.901	3877
386.981	4321
387.062	3549
387.143	8732
387.224	35504
387.304	30959
387.385	11465
387.466	4778
387.547	7326
387.627	6432
387.708	14379
387.789	63769
387.869	83737
387.950	21885
388.031	4309
388.111	1772
388.192	5249
388.273	8084
388.353	6189
388.434	5122
388.514	13953
388.595	73190
388.676	88356
388.756	33308
388.837	30695
388.917	17566
388.998	2857
389.078	5037
389.159	4307
389.239	3389
389.320	7099
389.400	4868
389.480	13265
389.561	37792
389.641	17971
389.722	6453
389.802	9200
389.883	15250
389.963	48382
390.043	26568
390.124	5479
390.204	10816
390.284	39251
390.365	21892
390.445	20818
390.525	76268
390.605	69917
390.686	18435
390.766	8143
390.846	5479
390.927	3101
391.007	2537
391.087	4614
391.167	5136
391.247	3612
391.328	5828
391.408	6611
391.488	5133
391.568	3342
391.648	5664
391.728	7843
391.808	8003
391.888	9985
391.969	22409
392.049	33317
392.129	13490
392.209	16704
392.289	47006
392.369	23203
392.449	10988
392.529	10261
392.609	11941
392.689	17098
392.769	49939
392.849	44405
392.929	30796
393.009	68201
393.089	66357
393.169	82645
393.248	269640
393.328	966044
393.408	998936
393.488	279172
393.568	77270
393.648	38117
393.728	23087
393.807	16880
393.887	13746
393.967	12609
394.047	12348
394.127	13405
394.206	18707
394.286	60255
394.366	317813
394.446	326350
394.525	59229
394.605	14276
394.685	11041
394.764	15038
394.844	20517
394.924	18023
395.003	9502
395.083	7035
395.163	7470
395.242	7220
395.322	7257
395.402	4519
395.481	6738
395.561	10452
395.640	28718
395.720	31086
395.799	27607
395.879	22221
395.958	20949
396.038	85891
396.117	412307
396.197	430093
396.276	92935
396.356	28773
396.435	21178
396.515	21441
396.594	30730
396.673	67366
396.753	280967
396.832	870126
396.912	597620
396.991	132380
397.070	39229
397.150	19405
397.229	14675
397.308	18243
397.388	29410
397.467	13882
397.546	7388
397.625	5767
397.705	9368
397.784	8082
397.863	4085
397.942	3846
398.022	2347
398.101	6370
398.180	17580
398.259	8232
398.338	5500
398.417	4922
398.497	2867
398.576	2972
398.655	1837
398.734	2275
398.813	1610
398.892	6085
398.971	18774
399.050	8994
399.129	2568
399.208	2475
399.287	1882
399.366	1409
399.445	1425
399.524	1704
399.603	433
399.682	3898
399.761	8906
399.840	22765
399.919	15813
399.998	2023
400.077	-47
400.156	-178
400.235	4014
400.313	1230
400.392	1436
400.471	16462
400.550	27379
400.629	5686
400.708	2710
400.786	1114
400.865	2260
400.944	3391
401.023	3075
401.102	1125
401.180	717
401.259	1024
401.338	517
401.416	2699
401.495	1017
401.574	1392
401.652	444
401.731	2991
401.810	195
401.888	735
401.967	770
402.046	1519
402.124	2385
402.203	2290
402.281	2370
402.360	2384
402.438	4549
402.517	1951
402.596	931
402.674	227
402.753	80
402.831	1027
402.910	2077
402.988	7893
403.066	33625
403.145	18350
403.223	9746
403.302	24665
403.380	17618
403.459	17820
403.537	6266
403.615	2103
403.694	484
403.772	1704
403.850	985
403.929	994
404.007	382
404.085	3915
404.164	2924
404.242	779
404.320	2832
404.398	5242
404.477	19238
404.555	110734
404.633	91467
404.711	11843
404.789	3127
404.868	1917
404.946	374
405.024	834
405.102	151
405.180	662
405.258	-142
405.336	1063
405.415	781
405.493	3062
405.571	3173
405.649	-38
405.727	181
405.805	2226
405.883	2469
405.961	2949
406.039	788
406.117	-118
406.195	2818
406.273	20824
406.351	88328
406.429	45963
406.507	4442
406.585	928
406.663	2024
406.740	2971
406.818	1009
406.896	594
406.974	1255
407.052	4472
407.130	47844
407.208	67016
407.285	11673
407.363	705
407.441	936
407.519	875
407.596	1614
407.674	5042
407.752	16157
407.830	12931
407.907	3628
407.985	738
408.063	793
408.141	-79
408.218	1637
408.296	-10
408.373	932
408.451	2787
408.529	1626
408.606	816
408.684	-339
408.762	887
408.839	357
408.917	79
408.994	-4
409.072	47
409.149	-201
409.227	2802
409.304	4254
409.382	3568
409.459	3887
409.537	6955
409.614	5279
409.692	2827
409.769	2931
409.846	7343
409.924	10340
410.001	2869
410.079	2302
410.156	2240
410.233	1513
410.311	1130
410.388	305
410.465	1173
410.543	794
410.620	1510
410.697	1662
410.775	1992
410.852	-39
410.929	2634
411.006	3480
411.083	1135
411.161	2422
411.238	2647
411.315	542
411.392	722
411.469	2187
411.547	1302
411.624	-338
411.701	408
411.778	1950
411.855	4774
411.932	1775
412.009	-84
412.086	340
412.163	1320
412.240	219
412.317	703
412.394	656
412.471	204
412.548	-68
412.625	794
412.702	339
412.779	1430
412.856	1253
412.933	45
413.010	120
413.087	1626
413.164	14169
413.241	20162
413.318	3761
413.395	2471
413.471	3743
413.548	1596
413.625	588
413.702	376
413.779	-617
413.855	-661
413.932	-886
414.009	55
414.086	-177
414.162	-221
414.239	1664
414.316	13808
414.393	33724
414.469	9086
414.546	548
414.623	712
414.699	779
414.776	-29
414.853	607
414.929	818
415.006	1016
415.082	804
415.159	62
415.236	439
415.312	494
415.389	3333
415.465	3780
415.542	1459
415.618	869
415.695	2186
415.771	1255
415.848	1019
415.924	938
416.000	-321
416.077	8
416.153	-806
416.230	-1073
416.306	-744
416.383	380
416.459	777
416.535	-50
416.612	321
416.688	438
416.764	1167
416.841	493
416.917	149
416.993	1401
417.069	553
417.146	1640
417.222	1791
417.298	223
417.374	466
417.451	295
417.527	970
417.603	1055
417.679	722
417.755	864
417.831	-110
417.908	-189
417.984	-586
418.060	-785
418.136	3690
418.212	4241
418.288	1261
418.364	454
418.440	-299
418.516	1425
418.592	1009
418.668	5059
418.744	8796
418.820	5212
418.896	976
418.972	-297
419.048	674
419.124	3401
419.200	1503
419.276	738
419.352	3
419.428	-723
419.504	793
419.579	1654
419.655	350
419.731	1060
419.807	6833
419.883	11664
419.959	7828
420.034	1879
420.110	4188
420.186	20587
420.262	14843
420.337	1889
420.413	1655
420.489	564
420.565	777
420.640	-250
420.716	1194
420.792	-476
420.867	1022
420.943	-59
421.019	2466
421.094	1371
421.170	1431
421.245	730
421.321	2261
421.397	600
421.472	2909
421.548	8583
421.623	6154
421.699	3577
421.774	3298
421.850	1754
421.925	5624
422.001	3866
422.076	3698
422.152	4808
422.227	8294
422.302	9534
422.378	15190
422.453	29838
422.529	75754
422.604	242272
422.679	404966
422.755	253220
422.830	82882
422.905	31519
422.981	16476
423.056	10290
423.131	7747
423.207	5017
423.282	4978
423.357	8611
423.432	5445
423.508	5111
423.583	10561
423.658	7859
423.733	1840
423.808	2427
423.883	3956
423.959	2901
424.034	2516
424.109	3087
424.184	832
424.259	1027
424.334	820
424.409	285
424.484	1112
424.559	1220
424.634	1376
424.709	1599
424.784	2758
424.859	1430
424.934	2990
425.009	13619
425.084	24440
425.159	7886
425.234	2338
425.309	3351
425.384	33529
425.459	60853
425.534	13629
425.609	386
425.683	419
425.758	334
425.833	1129
425.908	1570
425.983	8571
426.058	25414
426.132	9303
426.207	355
426.282	1819
426.357	106
426.431	732
426.506	1107
426.581	-137
426.655	222
426.730	928
426.805	-231
426.879	1271
426.954	1024
427.029	3331
427.103	26054
427.178	72290
427.253	28722
427.327	3906
427.402	12850
427.476	52637
427.551	26130
427.625	2917
427.700	1190
427.774	-237
427.849	841
427.923	627
427.998	-222
428.072	1381
428.147	3211
428.221	25901
428.296	87503
428.370	45249
428.444	4431
428.519	1903
428.593	2931
428.667	2438
428.742	3522
428.816	7750
428.890	52438
428.965	114032
429.039	39301
429.113	5505
429.188	1683
429.262	1117
429.336	3034
429.410	10385
429.485	5515
429.559	2411
429.633	2060
429.707	1078
429.781	5731
429.855	44825
429.930	72199
430.004	21848
430.078	17145
430.152	29046
430.226	116317
430.300	115859
430.374	16760
430.448	3919
430.522	5813
430.596	16288
430.670	18654
430.744	91449
430.818	129472
430.892	23086
430.966	2870
431.040	1222
431.114	-277
431.188	-313
431.262	-298
431.336	-637
431.410	1315
431.484	4623
431.557	4494
431.631	861
431.705	1413
431.779	15341
431.853	79064
431.927	53870
432.000	5755
432.074	1304
432.148	175
432.222	92
432.295	78
432.369	180
432.443	2617
432.516	26738
432.590	74864
432.664	25528
432.737	1770
432.811	-369
432.885	-123
432.958	260
433.032	-83
433.106	67
433.179	-150
433.253	-496
433.326	-547
433.400	-601
433.473	-996
433.547	-961
433.620	-363
433.694	1856
433.767	2592
433.841	273
433.914	1325
433.988	2171
434.061	416
434.134	-670
434.208	-761
434.281	-1337
434.355	-175
434.428	2365
434.501	2272
434.575	-338
434.648	-747
434.721	-286
434.795	-441
434.868	-649
434.941	-305
435.014	-327
435.088	1481
435.161	7044
435.234	7707
435.307	5470
435.381	1860
435.454	1846
435.527	4610
435.600	3347
435.673	2726
435.746	359
435.819	319
435.892	819
435.966	1270
436.039	-308
436.112	28
436.185	-1551
436.258	-1009
436.331	-1210
436.404	-702
436.477	-1578
436.550	-970
436.623	-78
436.696	-313
436.769	247
436.842	35
436.915	-697
436.987	-101
437.060	-33
437.133	-5
437.206	-603
437.279	-333
437.352	-725
437.425	-521
437.498	305
437.570	2678
437.643	1937
437.716	340
437.789	-289
437.861	880
437.934	4026
438.007	1902
438.080	107
438.152	961
438.225	4858
438.298	40932
438.370	120951
438.443	45314
438.516	7354
438.588	879
438.661	-74
438.734	-415
438.806	-376
438.879	229
438.951	716
439.024	1513
439.096	-222
439.169	-466
439.241	-110
439.314	-904
439.386	239
439.459	-40
439.531	2054
439.604	8
439.676	-795
439.749	-902
439.821	-840
439.893	-474
439.966	-408
440.038	-135
440.110	408
440.183	261
440.255	258
440.327	1116
440.400	13513
440.472	64446
440.544	43931
440.617	5432
440.689	2891
440.761	2285
440.833	3985
440.905	2265
440.978	-85
441.050	-929
441.122	-298
441.194	-468
441.266	-409
441.338	-425
441.411	1780
441.483	16204
441.555	26984
441.627	5510
441.699	666
441.771	562
441.843	-209
441.915	-327
441.987	-716
442.059	-49
442.131	-211
442.203	1748
442.275	1377
442.347	3033
442.419	5625
442.491	37699
442.563	99034
442.635	39777
442.706	8977
442.778	5904
442.850	1458
442.922	282
442.994	1162
443.066	1856
443.137	1983
443.209	975
443.281	3258
443.353	9237
443.425	45715
443.496	180106
443.568	178666
443.640	64053
443.711	11220
443.783	3119
443.855	2672
443.926	1451
443.998	777
444.070	703
444.141	1039
444.213	1723
444.285	3970
444.356	2167
444.428	1729
444.499	-128
444.571	356
444.642	397
444.714	433
444.785	2120
444.857	1358
444.928	2857
445.000	2068
445.071	2745
445.143	4131
445.214	4337
445.285	7718
445.357	23068
445.428	112119
445.500	275996
445.571	167514
445.642	89552
445.714	25926
445.785	10223
445.856	3851
445.928	4357
445.999	2866
446.070	1623
446.141	2213
446.213	3051
446.284	1507
446.355	633
446.426	-41
446.497	153
446.569	452
446.640	2778
446.711	3462
446.782	12
446.853	937
446.924	830
446.995	740
447.066	759
447.138	152
447.209	-196
447.280	-1054
447.351	-972
447.422	-655
447.493	-276
447.564	505
447.635	2439
447.706	386
447.777	-636
447.847	-680
447.918	-1439
447.989	270
448.060	251
448.131	2097
448.202	1942
448.273	2299
448.344	927
448.414	-45
448.485	119
448.556	280
448.627	-681
448.698	182
448.768	-1705
448.839	-821
448.910	-349
448.981	317
449.051	-205
449.122	-451
449.193	-571
449.263	274
449.334	-698
449.405	1007
449.475	2524
449.546	2338
449.616	990
449.687	2084
449.758	795
449.828	-196
449.899	-1153
449.969	-647
450.040	-715
450.110	-29
450.181	-261
450.251	-379
450.322	-328
450.392	26
450.463	-1028
450.533	-596
450.604	-297
450.674	-778
450.744	-931
450.815	-343
450.885	-360
450.955	1222
451.026	-861
451.096	-1212
451.166	-560
451.237	1060
451.307	3072
451.377	416
451.447	-1036
451.518	-758
451.588	-1020
451.658	178
451.728	531
451.799	2094
451.869	2994
451.939	-161
452.009	-628
452.079	-666
452.149	-380
452.219	562
452.289	2852
452.360	2670
452.430	49
452.500	765
452.570	1727
452.640	4320
452.710	12197
452.780	13933
452.850	11187
452.920	9560
452.990	3075
453.060	1224
453.129	2181
453.199	1690
453.269	4316
453.339	10791
453.409	17319
453.479	16558
453.549	22763
453.619	22788
453.688	8804
453.758	928
453.828	123
453.898	-200
453.968	-596
454.037	119
454.087	335
454.107	423
454.168	-373
454.177	-496
454.247	-3
454.249	0
454.316	34
454.330	-36
454.386	-308
454.411	419
454.456	1605
454.492	1849
454.525	2071
454.574	2028
454.595	2008
454.655	1103
454.665	956
454.734	244
454.736	251
454.804	406
454.817	835
454.873	2566
454.898	2811
454.943	3288
454.979	2628
455.013	1973
455.060	588
455.082	5
455.141	-329
455.152	-408
455.221	1738
455.222	1773
455.291	4479
455.303	4917
455.360	6651
455.384	10070
455.430	16226
455.465	12600
455.499	9114
455.546	5355
455.569	3666
455.627	2285
455.638	2019
455.707	539
455.708	538
455.777	-528
455.789	-445
455.846	-361
455.869	-692
455.916	-1069
455.950	-725
455.985	-501
456.031	-538
456.054	-607
456.112	-401
456.124	-318
456.193	-318
456.193	-325
456.262	-53
456.274	30
456.332	558
456.355	527
456.401	362
456.436	42
456.470	-345
456.516	-205
456.540	-73
456.597	-136
456.609	-154
456.678	304
456.678	298
456.747	-965
456.759	-953
456.817	-828
456.840	-645
456.886	-241
456.920	-189
456.955	-86
457.001	6
457.024	19
457.082	296
457.093	366
457.162	416
457.163	425
457.232	1092
457.243	937
457.301	81
457.324	-157
457.370	-464
457.405	-151
457.439	227
457.485	501
457.508	524
457.566	394
457.577	397
457.646	553
457.647	560
457.715	2289
457.727	2787
457.784	5138
457.808	7763
457.853	12022
457.889	14944
457.922	16382
457.969	10525
457.991	9321
458.050	9829
458.060	9838
458.129	19888
458.130	20122
458.198	26571
458.211	23847
458.267	12671
458.292	9340
458.336	5149
458.372	4098
458.405	4266
458.453	6192
458.474	7688
458.533	16292
458.543	17212
458.611	37108
458.614	37135
458.680	28160
458.694	23137
458.749	9254
458.775	6668
458.818	2851
458.855	2016
458.887	1499
458.936	716
458.955	424
459.016	260
459.024	261
459.093	910
459.097	926
459.162	959
459.177	928
459.230	707
459.257	888
459.299	1168
459.338	1023
459.368	897
459.418	806
459.437	752
459.499	728
459.505	765
459.574	934
459.579	932
459.643	210
459.659	206
459.711	739
459.740	749
459.780	552
459.820	482
459.849	476
459.900	479
459.917	584
459.981	1312
459.986	1311
460.054	1163
460.061	1198
460.123	1410
460.141	1167
460.191	917
460.222	1068
460.260	1181
460.302	1321
460.328	1321
460.382	977
460.397	851
460.462	20
460.465	12
460.534	717
460.543	743
460.602	2258
460.623	3194
460.671	5714
460.703	8753
460.739	9583
460.783	8443
460.808	7674
460.864	2135
460.876	1516
460.944	1332
460.945	1315
461.013	373
461.024	355
461.081	774
461.104	902
461.150	990
461.184	864
461.218	868
461.264	1133
461.286	1241
461.345	1174
461.355	1090
461.423	792
461.425	778
461.491	498
461.505	518
461.559	1274
461.585	1783
461.628	2243
461.665	2621
461.696	3028
461.745	3775
461.764	3683
461.825	1839
461.832	1771
461.901	1354
461.905	1410
461.969	775
461.985	490
462.037	887
462.065	1132
462.105	497
462.145	-203
462.173	242
462.225	1465
462.241	1461
462.305	1301
462.310	1338
462.378	1942
462.385	1906
462.446	911
462.465	746
462.514	1016
462.545	1469
462.582	1592
462.625	1500
462.650	1503
462.705	1522
462.718	1376
462.785	-18
462.786	-21
462.854	246
462.865	304
462.922	742
462.945	915
462.990	962
463.025	1026
463.058	922
463.104	524
463.126	411
463.184	359
463.194	456
463.262	994
463.264	1024
463.330	1293
463.344	1295
463.398	1175
463.424	1020
463.466	776
463.504	852
463.533	1088
463.583	1082
463.601	993
463.663	1080
463.669	1109
463.737	1131
463.743	1157
463.805	2112
463.823	2430
463.873	2531
463.903	2473
463.940	2594
463.982	2894
464.008	2678
464.062	1709
464.076	1639
464.142	1103
464.144	1083
464.211	917
464.221	832
464.279	522
464.301	582
464.347	1099
464.381	1321
464.414	1730
464.461	2331
464.482	2438
464.540	2839
464.550	3054
464.617	4942
464.620	5003
464.685	4392
464.699	3992
464.753	3270
464.779	3076
464.820	2865
464.859	2916
464.888	2406
464.938	1353
464.956	1666
465.018	2868
465.023	2905
465.091	3313
465.098	3372
465.158	3679
465.177	3844
465.226	3854
465.257	3636
465.293	3108
465.336	2269
465.361	2175
465.416	2193
465.428	2216
465.495	2615
465.496	2622
465.563	3052
465.575	3160
465.631	3622
465.654	3855
465.698	2778
465.734	1630
465.765	1550
465.813	1397
465.833	1513
465.893	2105
465.900	2069
465.968	1814
465.972	1778
466.035	1576
466.052	1578
466.102	1523
466.131	1398
466.170	1414
466.210	1533
466.237	1848
466.290	2419
466.304	2400
466.369	2229
466.372	2242
466.439	2616
466.449	2666
466.506	2244
466.528	2073
466.573	2702
466.607	3158
466.641	3603
466.687	4258
466.708	4715
466.766	6054
466.775	5794
466.842	3733
466.845	3633
466.909	2270
466.925	1957
466.977	2143
467.004	2286
467.044	2174
467.083	2037
467.111	2323
467.163	2883
467.178	2964
467.242	3288
467.245	3299
467.312	3481
467.321	3504
467.379	2489
467.400	2112
467.446	2183
467.480	2236
467.559	2519
467.638	2415
467.717	1828
467.796	2967
467.875	3567
467.955	3141
468.034	2840
468.113	4353
468.192	6449
468.271	3879
468.350	3382
468.429	4335
468.508	6542
468.588	3804
468.667	2307
468.746	2497
468.825	2890
468.904	2413
468.983	2320
469.062	3950
469.141	3177
469.220	1058
469.299	2279
469.378	1853
469.456	3734
469.535	3464
469.614	2630
469.693	2351
469.772	3189
469.851	4416
469.930	3552
470.009	4243
470.088	3967
470.166	6052
470.245	12849
470.324	17568
470.403	7112
470.482	4035
470.560	3484
470.639	3670
470.718	4321
470.797	2382
470.875	2850
470.954	3924
471.033	3643
471.111	2730
471.190	2430
471.269	1127
471.347	1383
471.426	2565
471.505	1537
471.583	2244
471.662	2791
471.740	2116
471.819	2333
471.898	2410
471.976	2102
472.055	2569
472.133	2350
472.212	2852
472.290	1794
472.369	2162
472.447	2144
472.526	1822
472.604	1710
472.683	2701
472.761	1887
472.839	2216
472.918	2116
472.996	1312
473.075	1851
473.153	1733
473.231	1434
473.310	2557
473.388	2362
473.466	2023
473.545	1961
473.623	3519
473.701	2836
473.780	2582
473.858	786
473.936	3504
474.014	1493
474.093	1724
474.171	2588
474.249	3648
474.327	2452
474.405	1467
474.484	2151
474.562	1856
474.640	2153
474.718	1905
474.796	1397
474.874	2123
474.952	1432
475.030	1346
475.108	1247
475.187	1861
475.265	1844
475.343	3637
475.421	4099
475.499	2217
475.577	3593
475.655	3046
475.733	2325
475.811	3742
475.889	3318
475.966	3227
476.044	1068
476.122	2301
476.200	3103
476.278	2536
476.356	1312
476.434	2236
476.512	2035
476.590	2928
476.667	2623
476.745	1211
476.823	1988
476.901	1929
476.979	2392
477.056	1424
477.134	2168
477.212	2253
477.290	1660
477.367	1557
477.445	1730
477.523	923
477.601	1162
477.678	1808
477.756	1870
477.834	1743
477.911	950
477.989	1210
478.066	1319
478.144	1249
478.222	1437
478.299	4692
478.377	2907
478.454	1738
478.532	234
478.609	1570
478.687	2011
478.764	814
478.842	2051
478.919	3039
478.997	1566
479.074	1255
479.152	753
479.229	1721
479.307	985
479.384	544
479.461	659
479.539	439
479.616	1316
479.694	1072
479.771	1548
479.848	1397
479.926	-161
480.003	2655
480.080	1798
480.157	1847
480.235	872
480.312	1099
480.389	1205
480.467	1186
480.544	1753
480.621	1704
480.698	1810
480.775	1450
480.853	886
480.930	1375
481.007	1884
481.084	961
481.161	2356
481.238	1362
481.315	446
481.392	1435
481.470	529
481.547	747
481.624	687
481.701	1081
481.778	831
481.855	1532
481.932	1253
482.009	2609
482.086	1660
482.163	1566
482.240	3528
482.317	6069
482.393	3634
482.470	1223
482.547	1098
482.624	955
482.701	1328
482.778	1765
482.855	1325
482.932	1860
483.009	727
483.085	1843
483.162	1175
483.239	2321
483.316	956
483.393	1528
483.469	1116
483.546	1005
483.623	774
483.699	466
483.776	968
483.853	927
483.930	3057
484.006	2837
484.083	5422
484.160	5041
484.236	10281
484.313	7281
484.389	5065
484.466	5101
484.543	4614
484.619	4130
484.696	6800
484.772	4820
484.849	5005
484.925	3998
485.002	4467
485.078	4621
485.155	3747
485.231	2843
485.308	2820
485.384	4132
485.461	3949
485.537	4981
485.614	6789
485.690	4815
485.766	3715
485.843	4276
485.919	6548
485.995	7519
486.072	4106
486.148	3336
486.224	3847
486.301	3593
486.377	3683
486.453	3658
486.530	3867
486.606	6536
486.682	5767
486.758	5810
486.835	5263
486.911	4670
486.987	8393
487.063	13237
487.139	18942
487.215	12359
487.292	6465
487.368	4370
487.444	4830
487.520	6545
487.596	6487
487.672	13506
487.748	44844
487.824	68568
487.900	19562
487.976	5355
488.052	4801
488.128	5807
488.204	3618
488.280	3353
488.356	3753
488.432	5079
488.508	7059
488.584	5029
488.660	3917
488.736	4366
488.812	3548
488.888	5510
488.964	7200
489.039	17322
489.115	27059
489.191	16028
489.267	3761
489.343	3040
489.418	2925
489.494	3169
489.570	922
489.646	3725
489.722	3471
489.797	2769
489.873	3245
489.949	5610
490.024	4688
490.100	2729
490.176	2802
490.251	3712
490.327	5508
490.403	2767
490.478	2439
490.554	2499
490.629	2330
490.705	2504
490.781	2993
490.856	2808
490.932	3743
491.007	4297
491.083	2287
491.158	1588
491.234	2920
491.309	4430
491.385	3190
491.460	2179
491.536	2818
491.611	2735
491.686	3739
491.762	5262
491.837	10474
491.913	17918
491.988	24557
492.063	34211
492.139	8081
492.214	4667
492.289	2949
492.365	2037
492.440	3034
492.515	2134
492.590	2127
492.666	1116
492.741	2307
492.816	1685
492.891	2049
492.967	2633
493.042	2140
493.117	1429
493.192	2128
493.267	3861
493.342	12720
493.418	17724
493.493	3905
493.568	2105
493.643	1829
493.718	2631
493.793	2997
493.868	5266
493.943	2990
494.018	2540
494.093	1015
494.168	2021
494.243	1416
494.318	2214
494.393	1907
494.468	1514
494.543	1505
494.618	2590
494.693	813
494.768	1006
494.842	1827
494.917	1825
494.992	2465
495.067	1410
495.142	1554
495.217	1683
495.292	2325
495.366	2212
495.441	2868
495.516	5261
495.591	5507
495.665	23221
495.740	60911
495.815	24171
495.890	2062
495.964	519
496.039	4046
496.114	1592
496.188	1087
496.263	1967
496.338	1469
496.412	429
496.487	2317
496.561	1906
496.636	3287
496.710	1215
496.785	1379
496.860	2786
496.934	1217
497.009	2024
497.083	1147
497.158	1502
497.232	3353
497.307	2691
497.381	2580
497.455	2384
497.530	2431
497.604	1578
497.679	2459
497.753	3496
497.827	3400
497.902	4143
497.976	5271
498.050	8240
498.125	33818
498.199	36531
498.273	9136
498.348	6462
498.422	5039
498.496	4899
498.570	4484
498.645	1799
498.719	839
498.793	3585
498.867	3697
498.941	4328
499.016	10956
499.090	33221
499.164	12882
499.238	2508
499.312	2365
499.386	3287
499.460	1698
499.534	2378
499.609	2827
499.683	2556
499.757	2415
499.831	4006
499.905	20022
499.979	20398
500.053	3660
500.127	5761
500.201	5116
500.275	3256
500.349	2202
500.422	3519
500.496	4132
500.570	11757
500.644	15779
500.718	21674
500.792	6434
500.866	1846
500.940	1666
501.013	2509
501.087	1428
501.161	3921
501.235	3228
501.309	6758
501.382	16157
501.456	16683
501.530	4986
501.603	5023
501.677	2390
501.751	697
501.825	3288
501.898	2412
501.972	5741
502.046	4373
502.119	828
502.193	4205
502.266	7256
502.340	3684
502.413	2691
502.487	6109
502.561	3794
502.634	1647
502.708	1992
502.781	903
502.855	2123
502.928	-2
503.002	2290
503.075	419
503.149	1078
503.222	684
503.295	211
503.369	1459
503.442	2399
503.516	4966
503.589	11110
503.662	7975
503.736	2810
503.809	6374
503.882	4891
503.956	8494
504.029	10990
504.102	23401
504.175	36634
504.249	10554
504.322	3631
504.395	1779
504.468	1906
504.542	1270
504.615	-5
504.688	1284
504.761	-502
504.834	2510
504.907	1954
504.980	3325
505.053	1025
505.127	455
505.200	4773
505.273	790
505.346	628
505.419	-412
505.492	1532
505.565	264
505.638	788
505.711	234
505.784	368
505.857	180
505.930	1272
506.003	-919
506.076	2178
506.149	-121
506.221	-1258
506.294	2442
506.367	512
506.440	8975
506.513	6402
506.586	2253
506.659	853
506.731	1411
506.804	474
506.877	1739
506.950	2293
507.022	1955
507.095	254
507.168	1724
507.241	2006
507.313	566
507.386	264
507.459	4088
507.531	1646
507.604	-63
507.677	942
507.749	-213
507.822	2521
507.894	3550
507.967	5125
508.040	1535
508.112	2022
508.185	1031
508.257	-396
508.330	4189
508.402	1289
508.475	262
508.547	1754
508.620	991
508.692	1655
508.765	2151
508.837	261
508.909	1214
508.982	1344
509.054	1848
509.127	1104
509.199	893
509.271	200
509.344	105
509.416	614
509.488	130
509.560	588
509.633	1558
509.705	2264
509.777	1406
509.849	2263
509.922	543
509.994	560
510.066	2238
510.138	269
510.210	4186
510.283	2397
510.355	2537
510.427	2336
510.499	1569
510.571	1477
510.643	889
510.715	3552
510.787	1885
510.859	2576
510.931	1329
511.003	2891
511.076	3646
511.148	1769
511.219	572
511.291	1500
511.363	2576
511.435	1063
511.507	335
511.579	1496
511.651	1069
511.723	496
511.795	518
511.867	1369
511.939	1612
512.010	1068
512.082	2340
512.154	-190
512.226	1351
512.298	3443
512.369	3568
512.441	4289
512.513	3455
512.585	1900
512.656	3148
512.728	1640
512.800	1469
512.871	2494
512.943	2295
513.015	847
513.086	1615
513.158	1732
513.230	826
513.301	4009
513.373	6444
513.444	1486
513.516	1718
513.588	1634
513.659	3161
513.731	2580
513.802	1455
513.874	7225
513.945	11264
514.016	2792
514.088	2248
514.159	434
514.231	3679
514.302	3973
514.374	2675
514.445	1126
514.516	3931
514.588	1248
514.659	1497
514.730	1901
514.802	4243
514.873	386
514.944	4364
515.016	2884
515.087	2569
515.158	2252
515.229	4349
515.301	946
515.372	3599
515.443	1470
515.514	1006
515.585	587
515.656	2093
515.728	2510
515.799	1429
515.870	2635
515.941	3585
516.012	1263
516.083	5072
516.154	3615
516.225	6495
516.296	7804
516.367	7201
516.438	8349
516.509	11663
516.580	17263
516.651	61449
516.722	241602
516.793	101961
516.864	17959
516.935	17523
517.006	20607
517.077	27452
517.148	59608
517.219	298013
517.289	495952
517.360	69168
517.431	15778
517.502	5993
517.573	5668
517.643	5547
517.714	5472
517.785	7276
517.856	8354
517.926	12838
517.997	17294
518.068	23167
518.138	34340
518.209	46868
518.280	186019
518.350	776908
518.421	302774
518.492	29237
518.562	11982
518.633	8857
518.703	7175
518.774	15760
518.845	42180
518.915	46504
518.986	11091
519.056	6925
519.127	9934
519.197	12423
519.268	14667
519.338	10018
519.408	3943
519.479	6538
519.549	3746
519.620	4881
519.690	2058
519.760	2442
519.831	1620
519.901	3028
519.971	3266
520.042	1908
520.112	2154
520.182	4337
520.253	5006
520.323	4866
520.393	16213
520.463	37929
520.534	19147
520.604	57537
520.674	17658
520.744	10328
520.814	55992
520.885	45686
520.955	5644
521.025	10831
521.095	5104
521.165	2766
521.235	964
521.305	1054
521.375	1645
521.445	2750
521.515	2642
521.585	4406
521.655	1670
521.725	3285
521.795	2704
521.865	-900
521.935	3414
522.005	15
522.075	355
522.145	2540
522.215	145
522.285	3151
522.355	2545
522.424	4024
522.494	3450
522.564	3061
522.634	6842
522.704	25454
522.774	8733
522.843	3074
522.913	1477
522.983	2192
523.053	1122
523.122	3185
523.192	1978
523.262	12633
523.331	12938
523.401	3540
523.471	827
523.540	863
523.610	-365
523.680	536
523.749	1464
523.819	998
523.888	25
523.958	417
524.027	1217
524.097	1204
524.166	864
524.236	70
524.305	3014
524.375	200
524.444	-1485
524.514	2671
524.583	320
524.653	152
524.722	2822
524.791	-501
524.861	1821
524.930	-400
524.999	230
525.069	2839
525.138	265
525.207	227
525.277	1419
525.346	807
525.415	1849
525.484	1575
525.554	1285
525.623	1353
525.692	2353
525.761	1943
525.830	2388
525.900	4846
525.969	7699
526.038	13237
526.107	24318
526.176	85585
526.245	72273
526.314	21301
526.383	43445
526.452	59554
526.522	99189
526.591	108228
526.660	23101
526.729	11767
526.797	14648
526.867	22106
526.935	93866
527.004	226574
527.073	138890
527.142	11388
527.211	3958
527.280	3852
527.349	3505
527.418	757
527.487	3256
527.555	989
527.624	1480
527.693	-712
527.762	2084
527.831	-631
527.899	1160
527.968	683
528.037	370
528.106	2001
528.174	2965
528.243	2616
528.312	2924
528.380	5415
528.449	723
528.518	2048
528.586	-688
528.655	1544
528.723	698
528.792	484
528.861	-939
528.929	-1029
528.998	844
529.066	636
529.135	279
529.203	126
529.272	-1025
529.340	893
529.409	2942
529.477	403
529.545	-189
529.614	3493
529.682	2110
529.751	2730
529.819	8023
529.887	2534
529.956	539
530.024	1864
530.092	847
530.161	2087
530.229	3104
530.297	598
530.365	1855
530.434	1043
530.502	856
530.570	1545
530.638	584
530.707	1818
530.775	2687
530.843	1048
530.911	940
530.979	740
531.047	1352
531.115	1637
531.183	1305
531.252	2031
531.320	476
531.388	458
531.456	1533
531.524	-337
531.592	1875
531.660	3464
531.728	432
531.796	861
531.864	1442
531.932	1491
532.000	1128
532.067	1554
532.135	1533
532.203	2452
532.271	814
532.339	4196
532.407	11580
532.475	7249
532.542	3422
532.610	4009
532.678	2403
532.746	18329
532.814	51573
532.881	14309
532.949	3824
533.017	2831
533.084	877
533.152	1727
533.220	1475
533.287	974
533.355	1698
533.423	1869
533.490	591
533.558	1802
533.625	680
533.693	408
533.761	1816
533.828	1965
533.896	-286
533.963	3565
534.031	4998
534.098	6577
534.166	2704
534.233	1145
534.300	1618
534.368	2208
534.435	1429
534.503	2852
534.570	7672
534.637	3839
534.705	2540
534.772	5235
534.840	8897
534.907	38094
534.974	53165
535.041	6112
535.109	2103
535.176	1707
535.243	2888
535.310	885
535.378	1306
535.445	1217
535.512	601
535.579	1329
535.646	-141
535.714	269
535.781	1761
535.848	1704
535.915	1432
535.982	1078
536.049	344
536.116	2322
536.183	1582
536.250	1263
536.317	990
536.384	1734
536.451	3702
536.518	4995
536.585	393
536.652	3182
536.719	4506
536.786	2734
536.853	2357
536.920	4115
536.987	6918
537.053	4715
537.120	23722
537.187	21338
537.254	766
537.321	1273
537.388	2055
537.454	1173
537.521	1244
537.588	544
537.654	2588
537.721	1409
537.788	2664
537.855	650
537.921	953
537.988	1315
538.055	2033
538.121	996
538.188	1457
538.254	2573
538.321	8095
538.388	5157
538.454	2194
538.521	2342
538.587	561
538.654	1262
538.720	1097
538.787	1715
538.853	1233
538.920	2033
538.986	1303
539.053	1233
539.119	1655
539.185	1707
539.252	2784
539.318	3288
539.385	3340
539.451	1119
539.517	2743
539.583	1883
539.650	4382
539.716	15446
539.782	4121
539.849	1390
539.915	2057
539.981	833
540.047	2722
540.114	1836
540.180	2309
540.246	1292
540.312	2731
540.378	6940
540.444	8110
540.510	6738
540.576	18630
540.643	6584
540.709	615
540.775	2349
540.841	1415
540.907	4209
540.973	10513
541.039	6655
541.105	4463
541.171	2109
541.237	1136
541.303	2334
541.369	3593
541.435	3294
541.500	6918
541.566	3557
541.632	1406
541.698	1312
541.764	2711
541.830	895
541.896	-6
541.961	1923
542.027	686
542.093	2278
542.159	967
542.224	463
542.290	3721
542.356	5504
542.421	8772
542.487	3646
542.553	1252
542.618	1926
542.684	891
542.750	1627
542.815	2144
542.881	2918
542.947	14558
543.012	12626
543.078	1334
543.143	968
543.209	2180
543.274	1515
543.340	1710
543.405	5060
543.471	8717
543.536	2278
543.602	1980
543.667	711
543.732	2797
543.798	875
543.863	1887
543.928	1353
543.994	1054
544.059	1242
544.124	1207
544.190	1089
544.255	2278
544.320	1691
544.386	1595
544.451	2776
544.516	3970
544.581	2944
544.646	8374
544.712	16507
544.777	3286
544.842	954
544.907	1828
544.972	1452
545.037	1806
545.102	1358
545.168	699
545.233	2785
545.298	2582
545.363	1626
545.428	2709
545.493	6823
545.558	13414
545.623	4959
545.688	1574
545.753	2230
545.818	1346
545.883	3064
545.947	1375
546.012	2805
546.077	1680
546.142	3189
546.207	2676
546.272	3890
546.337	3919
546.401	2926
546.466	2854
546.531	1420
546.596	3699
546.661	3563
546.725	4732
546.790	2365
546.855	4266
546.919	3055
546.984	4702
547.049	5026
547.113	5695
547.178	6664
547.243	8229
547.307	9310
547.372	10741
547.436	10279
547.501	10066
547.565	10926
547.630	12603
547.695	11946
547.759	9528
547.823	10422
547.888	10312
547.952	10669
548.017	11009
548.081	11439
548.146	11178
548.210	12556
548.274	12095
548.339	11635
548.403	10523
548.468	10902
548.532	9542
548.596	10388
548.660	10731
548.725	12139
548.789	12565
548.853	13502
548.917	12052
548.982	11223
549.046	10224
549.110	8268
549.174	8424
549.238	10171
549.303	11954
549.367	12875
549.431	10883
549.495	11301
549.559	10993
549.623	12753
549.687	14252
549.751	15237
549.815	16285
549.879	16831
549.943	15165
550.007	17149
550.071	16483
550.135	16921
550.199	13979
550.263	14057
550.327	13947
550.391	13610
550.455	15062
550.519	15084
550.582	18103
550.646	20109
550.710	20758
550.774	19551
550.838	19666
550.901	19731
550.965	21588
551.029	21782
551.093	24505
551.156	26708
551.220	31664
551.284	42839
551.347	31548
551.411	23542
551.475	22848
551.538	21286
551.602	19486
551.666	17092
551.729	16930
551.793	17593
551.856	15431
551.920	15899
551.983	16233
552.047	15537
552.110	16494
552.174	15222
552.237	16413
552.301	16157
552.364	14803
552.428	13612
552.491	14618
552.554	17148
552.618	16246
552.681	17550
552.745	18342
552.808	30324
552.871	39735
552.934	23428
552.998	16708
553.061	15432
553.124	13690
553.187	14649
553.251	14143
553.314	15031
553.377	13526
553.440	16758
553.503	19417
553.567	22579
553.630	16326
553.693	14601
553.756	15279
553.819	14999
553.882	14021
553.945	14117
554.008	13638
554.071	13470
554.134	13908
554.197	13026
554.260	13365
554.323	15340
554.386	13140
554.449	14297
554.512	14608
554.575	12625
554.638	13299
554.701	13663
554.764	13557
554.827	12625
554.889	12962
554.952	11281
555.015	10886
555.078	10706
555.141	12234
555.203	10877
555.266	10980
555.329	11414
555.391	10693
555.454	10731
555.517	9661
555.580	9812
555.642	8925
555.705	8420
555.768	8792
555.830	9660
555.893	8054
555.955	8875
556.018	7276
556.080	7819
556.143	8126
556.206	8044
556.268	8467
556.330	8378
556.393	8485
556.455	8072
556.518	8169
556.580	8323
556.643	7542
556.705	7250
556.767	5830
556.830	7579
556.892	7991
556.955	9993
557.017	8392
557.079	6369
557.142	6640
557.204	6603
557.266	11716
557.328	10331
557.391	6082
557.453	4989
557.515	5851
557.577	6788
557.639	6954
557.701	6182
557.764	5417
557.826	6987
557.888	7605
557.950	8152
558.012	9748
558.074	12027
558.136	29477
558.198	78805
558.260	28657
558.322	10129
558.384	11515
558.446	13514
558.508	17651
558.570	22121
558.632	30321
558.694	40625
558.756	52877
558.818	154309
558.880	413502
558.942	131086
559.003	88259
559.065	46763
559.127	19191
559.189	19345
559.251	20971
559.312	29821
559.374	69513
559.436	253938
559.498	134345
559.559	20705
559.621	18494
559.683	21768
559.744	32374
559.806	109999
559.868	180090
559.929	33058
559.991	17151
560.052	25578
560.114	80816
560.176	52890
560.237	43067
560.299	76047
560.360	15598
560.422	4051
560.483	3969
560.545	2958
560.606	2264
560.667	2118
560.729	1872
560.790	2383
560.852	3026
560.913	2878
560.974	3398
561.036	1745
561.097	2389
561.158	2571
561.220	3494
561.281	2114
561.342	2876
561.403	3630
561.465	3778
561.526	12669
561.587	16765
561.648	3683
561.709	1788
561.771	2548
561.832	1540
561.893	1380
561.954	1663
562.015	1391
562.076	2700
562.137	2225
562.198	1344
562.259	2412
562.320	1847
562.381	1891
562.442	4667
562.503	3529
562.564	1385
562.625	1339
562.686	731
562.747	1820
562.808	1488
562.869	2391
562.930	1713
562.991	1871
563.051	737
563.112	1129
563.173	627
563.234	514
563.294	1291
563.355	1713
563.416	2022
563.477	1600
563.537	1201
563.598	1050
563.659	2094
563.720	1255
563.780	1859
563.841	2552
563.901	1974
563.962	1658
564.023	1274
564.083	1633
564.144	1065
564.204	1054
564.265	839
564.325	1365
564.386	2890
564.446	2624
564.507	238
564.567	2257
564.628	1244
564.688	766
564.749	900
564.809	1529
564.869	2132
564.930	1498
564.990	1542
565.050	1148
565.111	1573
565.171	1308
565.231	875
565.292	1969
565.352	854
565.412	1587
565.472	547
565.532	1490
565.593	1092
565.653	1380
565.713	646
565.773	1893
565.833	3119
565.893	4017
565.953	1436
566.013	1424
566.074	2185
566.134	3291
566.194	2578
566.254	3414
566.314	2177
566.374	1574
566.434	3069
566.494	2028
566.554	593
566.614	872
566.673	1532
566.733	1638
566.793	1880
566.853	1536
566.913	2317
566.973	1559
567.033	2776
567.092	1779
567.152	2373
567.212	1775
567.272	2627
567.331	2055
567.391	2406
567.451	1907
567.511	2448
567.570	2905
567.630	2364
567.690	1534
567.749	2273
567.809	1787
567.868	2889
567.928	2439
567.988	2260
568.047	3119
568.107	3126
568.166	4402
568.226	8429
568.285	11579
568.345	8730
568.404	7358
568.464	6056
568.523	5959
568.582	5750
568.642	6660
568.701	8015
568.761	11112
568.820	19233
568.879	16691
568.939	10763
568.998	7974
569.057	5186
569.116	4703
569.176	3697
569.235	2974
569.294	3041
569.353	2800
569.413	3045
569.472	1700
569.531	1194
569.590	1387
569.649	2054
569.708	1533
569.767	2687
569.827	3267
569.886	2346
569.945	1280
570.004	1996
570.063	2150
570.122	1641
570.181	2728
570.240	1807
570.299	1549
570.358	2935
570.417	1244
570.475	2461
570.534	1898
570.593	2424
570.652	2401
570.711	2383
570.770	2119
570.829	2790
570.887	2732
570.946	2760
571.005	2593
571.064	2528
571.122	4213
571.181	3839
571.240	2367
571.299	2179
571.357	1892
571.416	1731
571.475	2124
571.533	2509
571.592	1656
571.650	1735
571.709	1887
571.768	2050
571.826	1635
571.885	1960
571.943	1578
572.002	1577
572.060	1131
572.119	1275
572.177	1535
572.236	1417
572.294	1523
572.352	2400
572.411	1089
572.469	876
572.528	1567
572.586	1594
572.644	2031
572.703	3216
572.761	1815
572.819	651
572.877	1673
572.936	1029
572.994	1228
573.052	992
573.110	1540
573.169	2195
573.227	1852
573.285	1332
573.343	1487
573.401	1861
573.459	1778
573.517	970
573.576	1388
573.634	1705
573.692	1136
573.750	1351
573.808	1785
573.866	1307
573.924	1717
573.982	1689
574.040	673
574.098	836
574.155	1709
574.213	1378
574.271	1581
574.329	2411
574.387	1177
574.445	977
574.503	1068
574.560	558
574.618	1442
574.676	245
574.734	1600
574.792	1373
574.849	1101
574.907	769
574.965	998
575.022	465
575.080	1410
575.138	559
575.195	1278
575.253	1278
575.311	2410
575.368	1635
575.426	516
575.483	1805
575.541	1561
575.598	1334
575.656	1257
575.713	954
575.771	1141
575.828	991
575.886	1059
575.943	2013
576.001	254
576.058	409
576.115	1724
576.173	1671
576.230	2405
576.287	3128
576.345	2983
576.402	1689
576.459	2243
576.517	658
576.574	1885
576.631	1463
576.688	1780
576.746	941
576.803	-288
576.860	336
576.917	1612
576.974	1635
577.031	549
577.089	586
577.146	1169
577.203	700
577.260	1815
577.317	1120
577.374	1093
577.431	1373
577.488	1598
577.545	40
577.602	962
577.659	1286
577.716	1185
577.773	1507
577.830	700
577.886	508
577.943	1270
578.000	158
578.057	789
578.114	2076
578.171	1615
578.227	1189
578.284	1559
578.341	1820
578.398	2180
578.454	1069
578.511	1531
578.568	2747
578.625	1423
578.681	1254
578.738	1194
578.794	2067
578.851	1811
578.908	1290
578.964	1301
579.021	1703
579.077	1626
579.134	2339
579.190	859
579.247	1320
579.303	1053
579.360	1200
579.416	1299
579.473	1114
579.529	1089
579.586	671
579.642	1607
579.698	738
579.755	1557
579.811	1713
579.867	1156
579.924	683
579.980	1017
580.036	1682
580.093	1499
580.149	1294
580.205	2276
580.261	1260
580.317	1602
580.374	1754
580.430	2528
580.486	2746
580.542	1598
580.598	1627
580.619	1688
580.654	1792
580.692	1544
580.710	1420
580.765	1549
580.767	1550
580.823	1763
580.838	1533
580.879	931
580.911	1220
580.935	1428
580.984	1996
580.991	2076
581.047	1652
581.057	1791
581.103	2399
581.130	1910
581.159	1360
581.203	1363
581.215	1373
581.270	1483
581.276	1452
581.326	1135
581.349	1348
581.382	1671
581.422	1497
581.438	1386
581.494	1645
581.494	1648
581.550	2077
581.567	2312
581.606	2729
581.640	2174
581.661	1840
581.713	2672
581.717	2740
581.773	2051
581.786	2006
581.829	1825
581.859	1365
581.885	988
581.932	2217
581.940	2431
581.996	2369
582.004	2341
582.052	2162
582.077	2362
582.107	2588
582.150	2323
582.163	2257
582.219	2059
582.223	2122
582.274	2850
582.296	2538
582.330	1961
582.368	2412
582.386	2734
582.441	2781
582.441	2778
582.497	2012
582.514	2197
582.552	2948
582.587	3020
582.608	2930
582.659	2609
582.663	2592
582.719	3270
582.732	3059
582.774	2302
582.805	2957
582.830	3588
582.877	3020
582.885	2908
582.941	2921
582.950	3049
582.996	3619
583.023	3363
583.052	3285
583.095	4260
583.107	4441
583.162	4765
583.168	4659
583.218	3618
583.240	3552
583.273	3538
583.313	3717
583.328	3789
583.384	3263
583.385	3274
583.439	3470
583.458	3231
583.494	2918
583.531	3326
583.549	3573
583.603	3787
583.605	3783
583.660	3385
583.676	3337
583.715	3364
583.748	3737
583.770	4012
583.820	3497
583.825	3428
583.881	3407
583.893	3340
583.936	3378
583.965	3300
583.991	3085
584.038	3289
584.046	3375
584.101	4033
584.110	4036
584.156	3931
584.183	3977
584.211	3960
584.255	3956
584.266	4014
584.321	3971
584.328	4047
584.376	4664
584.400	4687
584.431	4728
584.472	4166
584.486	3905
584.541	4821
584.545	4783
584.596	4445
584.617	4542
584.651	4921
584.689	5708
584.706	5923
584.761	5335
584.762	5336
584.816	6319
584.834	6311
584.871	6261
584.906	6391
584.926	6473
584.978	6545
584.980	6563
585.035	7968
585.051	8230
585.090	9207
585.123	9834
585.145	10018
585.195	10936
585.200	11141
585.254	13282
585.267	14107
585.309	16719
585.340	18847
585.364	20556
585.412	22948
585.419	23375
585.473	27551
585.484	28588
585.528	36988
585.556	44682
585.583	66082
585.628	112861
585.637	132210
585.692	277064
585.700	302801
585.747	370881
585.772	332695
585.801	213585
585.845	62730
585.856	49164
585.910	23917
585.917	21480
585.965	16973
585.989	14992
586.019	13060
586.061	11399
586.074	11239
586.128	10871
586.133	10836
586.183	10810
586.205	10913
586.237	10841
586.277	10122
586.292	9859
586.346	9648
586.349	9618
586.401	9943
586.421	9905
586.455	9678
586.493	9803
586.509	10416
586.564	11446
586.565	11494
586.618	15635
586.637	16446
586.672	15925
586.709	15030
586.727	14786
586.781	14967
586.781	14989
586.835	11692
586.853	11043
586.889	10807
586.925	10188
586.944	10024
586.996	9948
586.998	9960
587.052	9840
587.068	9575
587.106	9708
587.140	10314
587.161	10549
587.212	10407
587.215	10443
587.269	11338
587.284	11433
587.323	11359
587.356	11347
587.377	11607
587.427	12491
587.431	12555
587.485	11945
587.499	11936
587.539	12232
587.571	12597
587.593	13224
587.643	14767
587.648	14896
587.702	14955
587.715	15138
587.755	15700
587.786	15941
587.810	16484
587.858	17257
587.864	17420
587.917	19292
587.930	19608
587.971	20770
588.001	21543
588.025	22557
588.073	24648
588.079	24989
588.133	27895
588.145	28333
588.187	30745
588.217	32878
588.241	35418
588.288	40575
588.295	41481
588.348	48902
588.360	50264
588.402	56870
588.431	62088
588.456	66935
588.503	76877
588.510	78716
588.564	93428
588.575	96612
588.617	113554
588.646	125036
588.671	140444
588.718	172121
588.725	182987
588.778	272771
588.789	293636
588.832	509023
588.861	668574
588.886	920769
588.932	1432570
588.939	1459869
588.993	1583359
589.004	1574833
589.047	1040290
589.075	678371
589.100	512299
589.147	252181
589.154	242194
589.207	178796
589.218	166751
589.261	159182
589.290	155050
589.314	165086
589.361	188318
589.368	201716
589.421	317825
589.433	344888
589.475	640758
589.504	863275
589.528	1065497
589.576	1455733
589.582	1411518
589.635	850631
589.647	725275
589.689	390009
589.718	179734
589.742	145887
589.790	87365
589.795	85043
589.849	64274
589.861	59761
589.902	52973
589.932	47669
589.955	44159
590.004	37022
590.009	36736
590.062	32982
590.075	31875
590.115	29569
590.146	27899
590.168	27379
590.218	25823
590.222	25810
590.275	24882
590.289	24574
590.328	23975
590.360	23124
590.381	22936
590.431	22480
590.435	22528
590.488	22090
590.503	21929
590.541	21649
590.574	21195
590.594	20896
590.645	20053
590.647	20123
590.700	20134
590.716	20055
590.753	20328
590.787	20512
590.806	20555
590.859	20476
590.859	20544
590.912	20133
590.930	20036
590.965	20322
591.001	20245
591.018	19988
591.071	18998
591.072	18921
591.124	19079
591.143	19012
591.177	19466
591.214	19842
591.230	20361
591.283	21863
591.285	21844
591.336	22505
591.356	22666
591.389	22949
591.427	22975
591.442	22410
591.495	19879
591.498	19629
591.547	19597
591.569	19524
591.600	19629
591.640	19498
591.653	19640
591.706	19982
591.711	19946
591.759	20453
591.782	20612
591.811	21353
591.853	22180
591.864	22067
591.917	21095
591.924	20883
591.969	21260
591.995	21315
592.022	21150
592.066	20724
592.075	21039
592.127	22487
592.137	22677
592.180	23118
592.208	23266
592.233	23086
592.279	22466
592.285	22604
592.338	23085
592.350	23116
592.390	22634
592.421	22113
592.443	22461
592.491	22999
592.495	23120
592.548	23680
592.562	23754
592.600	23063
592.633	22314
592.653	22973
592.704	24341
592.705	24473
592.775	23994
592.846	24466
592.916	25529
592.987	28580
593.058	26958
593.128	25047
593.199	25241
593.270	25050
593.341	25311
593.411	27115
593.482	28476
593.553	27219
593.623	27478
593.694	28678
593.764	28493
593.835	27597
593.906	27690
593.976	28065
594.047	29234
594.117	32507
594.188	31586
594.258	29780
594.329	30722
594.399	30977
594.470	32141
594.540	32787
594.611	32802
594.681	32827
594.751	33507
594.822	37505
594.892	37120
594.963	36991
595.033	37430
595.103	37925
595.174	39635
595.244	43209
595.314	46318
595.384	41998
595.455	42266
595.525	43559
595.595	44107
595.665	43790
595.736	43337
595.806	43213
595.876	45773
595.946	44888
596.016	47321
596.087	48914
596.157	47813
596.227	49481
596.297	51510
596.367	54488
596.437	58025
596.507	60309
596.577	61171
596.647	60202
596.717	61894
596.787	62686
596.857	63895
596.927	62926
596.997	64303
597.067	64410
597.137	66257
597.207	66361
597.277	67414
597.347	64191
597.417	62419
597.487	62260
597.557	64880
597.626	66016
597.696	68863
597.766	67831
597.836	66502
597.906	59122
597.975	58462
598.045	59950
598.115	63115
598.185	67746
598.254	76233
598.324	83248
598.394	83871
598.464	82787
598.533	78899
598.603	73182
598.672	73041
598.742	75135
598.812	74312
598.881	76271
598.951	76030
599.020	76289
599.090	80011
599.159	81876
599.229	77969
599.299	76286
599.368	78572
599.437	78052
599.507	71605
599.576	71549
599.646	69877
599.715	70391
599.785	69399
599.854	67938
599.924	67643
599.993	68647
600.062	67551
600.132	70088
600.201	75664
600.270	88055
600.340	91158
600.409	88483
600.478	88259
600.547	91364
600.617	82738
600.686	69037
600.755	66038
600.824	64786
600.894	62714
600.963	61796
601.032	62219
601.101	61628
601.170	59507
601.239	59645
601.308	60860
601.378	61604
601.447	60376
601.516	61921
601.585	63855
601.654	66058
601.723	64991
601.792	65979
601.861	69290
601.930	76132
601.999	77280
602.068	75687
602.137	77593
602.206	77069
602.275	78088
602.343	82619
602.412	82945
602.481	78887
602.550	78653
602.619	81273
602.688	81979
602.756	82091
602.825	81092
602.894	85656
602.963	83653
603.032	87006
603.100	84983
603.169	85681
603.238	88034
603.307	85391
603.375	86830
603.444	89202
603.513	86647
603.581	90332
603.650	93485
603.719	83720
603.787	83887
603.856	85555
603.924	89134
603.993	92456
604.061	95116
604.130	98565
604.198	102216
604.267	102245
604.335	103915
604.404	104452
604.472	107606
604.541	107019
604.609	111573
604.678	111661
604.746	113058
604.815	119375
604.883	116395
604.951	116049
605.020	117364
605.088	116155
605.156	114261
605.225	116990
605.293	116213
605.361	117361
605.429	116958
605.498	121376
605.566	122889
605.634	128836
605.702	128530
605.771	135094
605.839	134326
605.907	128153
605.975	126945
606.043	123845
606.111	121865
606.180	126950
606.248	120449
606.316	119617
606.384	123066
606.452	117766
606.520	119295
606.588	115967
606.656	114828
606.724	111573
606.792	106066
606.860	93857
606.928	83518
606.996	81894
607.064	81240
607.132	83655
607.200	88538
607.267	92636
607.335	93450
607.403	95870
607.471	91401
607.539	89716
607.607	90156
607.674	79822
607.742	80638
607.810	81991
607.878	80152
607.946	82272
608.013	85278
608.081	87356
608.149	87952
608.216	91279
608.284	93187
608.352	92496
608.419	91383
608.487	91779
608.555	87321
608.622	90826
608.690	96014
608.757	106621
608.825	109215
608.893	106257
608.960	101521
609.028	97945
609.095	97022
609.163	94366
609.230	82354
609.298	76736
609.365	81078
609.432	88053
609.500	96285
609.567	110725
609.635	127950
609.702	134210
609.769	125741
609.837	98007
609.904	85004
609.971	89029
610.039	106029
610.106	157732
610.173	353633
610.241	865257
610.308	387375
610.375	118898
610.442	92576
610.509	89663
610.577	86915
610.644	89132
610.711	91961
610.778	94205
610.845	97888
610.912	105244
610.980	110399
611.047	110944
611.114	107109
611.181	101144
611.248	100454
611.315	110624
611.382	110244
611.449	115169
611.516	117854
611.583	117279
611.650	115496
611.717	119701
611.784	122949
611.851	129594
611.918	145145
611.984	181263
612.051	298465
612.118	712171
612.185	1847754
612.252	951875
612.319	210844
612.386	163504
612.452	144414
612.519	137767
612.586	136169
612.653	135388
612.719	139708
612.786	132568
612.853	120054
612.919	117730
612.986	120434
613.053	112750
613.120	104641
613.186	101504
613.253	103400
613.319	102405
613.386	102854
613.453	106293
613.519	110489
613.586	112573
613.652	125007
613.719	115605
613.785	112113
613.852	106311
613.918	105261
613.985	109454
614.051	119889
614.118	135827
614.184	124773
614.250	106182
614.317	106832
614.383	105967
614.449	108700
614.516	107301
614.582	107807
614.648	104409
614.715	104782
614.781	101913
614.847	102106
614.914	100406
614.980	97532
615.046	98838
615.112	101706
615.179	102157
615.245	103950
615.311	104539
615.377	111412
615.443	111132
615.509	108672
615.575	111915
615.642	110365
615.708	116250
615.774	123127
615.840	132431
615.906	152586
615.972	206172
616.038	367008
616.104	886718
616.170	2238969
616.236	1624835
616.302	324111
616.368	235325
616.434	155329
616.500	143885
616.565	168260
616.631	222050
616.697	163440
616.763	178028
616.829	308967
616.895	592365
616.961	510515
617.026	178650
617.092	120025
617.158	110259
617.224	107362
617.289	97943
617.355	91736
617.421	89836
617.487	91477
617.552	85445
617.618	83929
617.684	83494
617.749	86579
617.815	80313
617.880	78954
617.946	78959
618.012	80567
618.077	82700
618.143	78657
618.208	77699
618.274	86061
618.339	85258
618.405	68751
618.470	68310
618.536	67210
618.601	68493
618.667	61860
618.732	59131
618.798	58031
618.863	57355
618.928	58138
618.994	60346
619.059	61757
619.124	71772
619.190	61308
619.255	56769
619.320	57270
619.386	56429
619.451	55270
619.516	54053
619.581	54452
619.647	56057
619.712	57185
619.777	53182
619.842	54720
619.907	56176
619.972	58112
620.038	57259
620.103	53260
620.168	53688
620.233	55710
620.298	54696
620.363	56525
620.428	57958
620.493	60036
620.558	60361
620.623	59768
620.688	60723
620.753	60070
620.818	61502
620.883	61365
620.948	60986
621.013	59979
621.078	57712
621.143	57964
621.207	61577
621.272	59645
621.337	59266
621.402	58426
621.467	59112
621.532	57976
621.596	58929
621.661	53847
621.726	52717
621.791	55857
621.855	56489
621.920	56978
621.985	55863
622.049	58604
622.114	58286
622.179	58019
622.243	59455
622.308	61604
622.373	66261
622.437	61903
622.502	58016
622.566	58052
622.631	57129
622.695	60195
622.760	58227
622.824	59561
622.889	60226
622.953	61660
623.018	79176
623.082	76051
623.147	64112
623.211	62312
623.276	63337
623.340	57563
623.404	56035
623.469	55981
623.533	56319
623.597	54316
623.662	54838
623.726	50002
623.790	46915
623.854	45164
623.919	47553
623.983	48243
624.047	48297
624.111	49073
624.176	51422
624.240	51610
624.304	56872
624.368	49905
624.432	50622
624.496	52863
624.560	58891
624.625	59988
624.689	56569
624.753	57735
624.817	54904
624.881	52082
624.945	47927
625.009	45485
625.073	47814
625.137	51297
625.201	60668
625.265	57456
625.329	50406
625.393	52338
625.456	50938
625.520	53336
625.584	55002
625.648	57471
625.712	63772
625.776	77093
625.839	77635
625.903	49277
625.967	41917
626.031	51428
626.095	66067
626.158	50186
626.222	36171
626.286	36147
626.349	32211
626.413	30435
626.477	33129
626.540	31846
626.604	31732
626.668	31236
626.731	30658
626.795	30906
626.858	30933
626.922	29394
626.986	30435
627.049	29253
627.113	31933
627.176	30019
627.240	30687
627.303	29657
627.366	29313
627.430	30987
627.493	29671
627.557	29141
627.620	31578
627.684	32478
627.747	31918
627.810	28444
627.874	27303
627.937	25339
628.000	29324
628.064	25727
628.127	21479
628.190	24220
628.253	21892
628.317	20668
628.380	21398
628.443	18976
628.506	19880
628.569	19590
628.632	17191
628.696	18442
628.759	17483
628.822	16890
628.885	16765
628.948	16210
629.011	17420
629.074	16173
629.137	15964
629.200	15592
629.263	16566
629.326	14707
629.389	14693
629.452	15646
629.515	15043
629.578	15410
629.641	15968
629.704	15311
629.767	16511
629.830	15634
629.892	14545
629.955	14144
630.018	17746
630.081	18072
630.144	21364
630.207	15623
630.269	17080
630.332	14849
630.395	14325
630.458	14388
630.520	13013
630.583	14834
630.646	14520
630.708	13475
630.771	13298
630.834	15888
630.896	13741
630.959	14935
631.021	14147
631.084	13994
631.146	16400
631.209	16070
631.272	14839
631.334	15851
631.397	16001
631.459	17191
631.522	18153
631.584	18673
631.646	20961
631.709	23207
631.771	26127
631.834	22202
631.896	19245
631.958	17087
632.021	17367
632.083	14182
632.145	14443
632.208	15494
632.270	15405
632.332	14273
632.395	13316
632.457	14373
632.519	13868
632.581	15075
632.643	12428
632.706	14515
632.768	12884
632.830	14090
632.892	13973
632.954	14658
633.016	16227
633.078	13882
633.141	14245
633.203	14177
633.265	13883
633.327	14742
633.389	14410
633.451	16979
633.513	18297
633.575	17051
633.637	18090
633.698	16546
633.760	16123
633.822	16492
633.884	17892
633.946	17929
634.008	18486
634.070	20319
634.132	23740
634.193	25444
634.255	29409
634.317	29842
634.379	30078
634.441	23669
634.502	20028
634.564	18990
634.626	16472
634.687	16767
634.749	15080
634.811	15454
634.873	12830
634.934	13909
634.996	15310
635.057	13159
635.119	14563
635.181	15390
635.242	15153
635.304	13498
635.365	16907
635.427	14843
635.488	15468
635.550	15032
635.611	15561
635.673	13210
635.734	18075
635.796	18148
635.857	22693
635.918	23352
635.980	27022
636.041	28691
636.102	32549
636.164	32542
636.225	31654
636.286	25043
636.348	22829
636.409	19363
636.470	16255
636.531	16162
636.593	13567
636.654	14959
636.715	12578
636.776	12572
636.838	11529
636.899	12859
636.960	11373
637.021	10680
637.082	11888
637.143	11417
637.204	10562
637.265	10361
637.326	11645
637.387	10562
637.448	10466
637.509	11102
637.570	11256
637.631	11760
637.692	9180
637.753	8925
637.814	10355
637.875	9817
637.936	10789
637.997	9576
638.058	10013
638.119	10371
638.179	10089
638.240	8079
638.301	8944
638.362	9237
638.423	8106
638.483	9862
638.544	7791
638.605	9361
638.666	8223
638.726	9006
638.787	9508
638.848	8005
638.908	7733
638.969	8476
639.030	8467
639.090	7737
639.151	8796
639.211	9995
639.272	12867
639.332	19839
639.393	12785
639.453	10284
639.514	11694
639.574	9480
639.635	7420
639.695	8642
639.756	7626
639.816	9650
639.877	11467
639.937	19621
639.997	24380
640.058	8719
640.118	7510
640.178	8784
640.239	8460
640.299	7662
640.359	8111
640.420	9124
640.480	11507
640.540	13892
640.600	13815
640.661	11311
640.721	10105
640.781	13775
640.841	8342
640.901	9037
640.961	9099
641.021	9794
641.082	12421
641.142	15930
641.202	10058
641.262	5443
641.322	7333
641.382	6366
641.442	7244
641.502	6392
641.562	7732
641.622	7100
641.682	9774
641.742	11404
641.802	9848
641.861	8371
641.921	8434
641.981	10660
642.041	9256
642.101	10926
642.161	6736
642.221	5902
642.280	6073
642.340	6382
642.400	6747
642.460	8283
642.519	7181
642.579	6366
642.639	7668
642.698	5220
642.758	9236
642.818	7687
642.877	6689
642.937	8898
642.997	9693
643.056	13900
643.116	7361
643.175	9355
643.235	6965
643.294	8434
643.354	9086
643.414	11458
643.473	15339
643.532	20692
643.592	33806
643.651	61988
643.711	121450
643.770	265726
643.830	700408
643.889	1369615
643.948	243258
644.008	40643
644.067	23837
644.126	17275
644.186	12938
644.245	11768
644.304	9071
644.363	10591
644.423	7846
644.482	9528
644.541	9582
644.600	8397
644.659	14448
644.719	20177
644.778	33894
644.837	69364
644.896	157247
644.955	356543
645.014	85409
645.073	17686
645.132	11931
645.191	10173
645.250	8797
645.309	11119
645.368	11739
645.427	19439
645.486	35110
645.545	62843
645.604	13775
645.663	9105
645.722	8443
645.781	11017
645.840	14298
645.898	19123
645.957	31349
646.016	55919
646.075	114298
646.134	244522
646.192	730773
646.251	931663
646.310	102812
646.369	27533
646.427	21897
646.486	14492
646.545	11164
646.603	9114
646.662	9599
646.721	7830
646.779	8174
646.838	8324
646.896	14053
646.955	20107
647.014	36123
647.072	80364
647.131	228538
647.189	83148
647.248	10507
647.306	7603
647.365	7388
647.423	3907
647.481	7413
647.540	4099
647.598	6307
647.657	4310
647.715	6109
647.773	3472
647.832	5922
647.890	3447
647.948	3726
648.007	5000
648.065	3807
648.123	3161
648.181	5032
648.240	4403
648.298	4114
648.356	4055
648.414	4266
648.472	3369
648.531	5026
648.589	3361
648.647	3035
648.705	4146
648.763	4407
648.821	5205
648.879	5507
648.937	6921
648.995	8727
649.053	13551
649.111	23941
649.169	47326
649.227	95151
649.285	216044
649.343	631693
649.401	227085
649.459	42589
649.516	22758
649.574	13260
649.632	21315
649.690	22486
649.748	17099
649.806	25076
649.863	53831
649.921	159537
649.979	82944
650.037	10389
650.094	4606
650.152	5720
650.210	3616
650.268	4311
650.325	4128
650.383	3531
650.440	1979
650.498	3195
650.556	3029
650.613	2882
650.671	3340
650.728	3120
650.786	3929
650.843	6154
650.901	1548
650.958	3385
651.016	2431
651.073	2340
651.131	2901
651.188	2051
651.246	1850
651.303	1489
651.360	2649
651.418	2741
651.475	2735
651.532	1066
651.590	2922
651.647	930
651.704	2036
651.762	2090
651.819	2548
651.876	1812
651.933	2039
651.990	2432
652.048	873
652.105	1835
652.162	2302
652.219	1921
652.276	2101
652.333	2577
652.390	666
652.448	2305
652.505	1666
652.562	2659
652.619	2240
652.676	2204
652.733	3582
652.790	1876
652.847	827
652.904	2152
652.961	446
653.017	931
653.074	1944
653.131	2637
653.188	457
653.245	2135
653.302	1427
653.359	1033
653.415	1970
653.472	1281
653.529	2104
653.586	930
653.642	1339
653.699	1755
653.756	911
653.813	1226
653.869	2201
653.926	1161
653.983	1085
654.039	1763
654.096	1643
654.152	2275
654.209	-88
654.266	2303
654.322	522
654.379	1584
654.435	2262
654.492	2616
654.548	3698
654.605	5187
654.661	2325
654.717	1759
654.774	2323
654.830	1716
654.887	1116
654.943	1300
655.000	2041
655.056	1126
655.112	1402
655.168	1031
655.225	1323
655.281	2465
655.337	1708
655.394	2771
655.450	1485
655.506	1903
655.562	2999
655.618	3411
655.675	263
655.731	2213
655.787	1356
655.843	1938
655.899	921
655.955	2180
656.011	1608
656.067	1449
656.123	1655
656.179	1396
656.235	2952
656.291	1273
656.347	3474
656.403	1813
656.459	999
656.515	1436
656.571	1959
656.627	1563
656.683	1586
656.739	2030
656.795	1684
656.850	2315
656.906	2460
656.962	2269
657.018	1615
657.074	2412
657.129	3060
657.185	6975
657.241	15206
657.297	7029
657.352	1673
657.408	1375
657.464	2115
657.519	925
657.575	212
657.630	728
657.686	354
657.742	121
657.797	802
657.853	765
657.908	1700
657.964	424
658.019	1271
658.075	1296
658.130	1258
658.186	526
658.241	1210
658.297	427
658.352	659
658.407	649
658.463	272
658.518	1308
658.573	1120
658.629	482
658.684	1522
658.739	1497
658.795	565
658.850	1104
658.905	135
658.960	1512
659.016	224
659.071	262
659.126	1389
659.181	1905
659.236	4754
659.291	4739
659.346	1752
659.401	1462
659.457	1490
659.512	502
659.567	1801
659.622	516
659.677	943
659.732	-258
659.787	117
659.842	737
659.897	608
659.952	1146
660.007	505
660.061	839
660.116	-546
660.171	394
660.226	434
660.281	302
660.336	-145
660.391	1286
660.445	-664
660.500	453
660.555	95
660.610	373
660.664	1287
660.719	19
660.774	585
660.828	731
660.883	45
660.938	908
660.992	-477
661.047	713
661.101	570
661.156	840
661.211	-236
661.265	-42
661.320	116
661.374	402
661.429	335
661.483	1225
661.538	-1149
661.592	171
661.647	104
661.701	579
661.755	729
661.810	258
661.864	62
661.919	345
661.973	868
662.027	499
662.081	200
662.136	138
662.190	310
662.244	417
662.299	280
662.353	668
662.407	429
662.461	891
662.515	1054
662.569	111
662.624	371
662.678	-2
662.732	383
662.786	681
662.840	1043
662.894	375
662.948	164
663.002	-227
663.056	193
663.110	-157
663.164	-62
663.218	624
663.272	1007
663.326	1057
663.380	393
663.434	474
663.488	44
663.542	535
663.595	424
663.649	586
663.703	818
663.757	905
663.811	-92
663.864	309
663.918	306
663.972	635
664.026	-157
664.079	-409
664.133	603
664.187	817
664.240	702
664.294	464
664.348	287
664.401	1476
664.455	86
664.508	346
664.562	483
664.615	498
664.669	49
664.722	619
664.776	-306
664.829	1121
664.883	-453
664.936	52
664.990	770
665.043	1110
665.097	121
665.150	1344
665.203	334
665.257	-714
665.310	226
665.363	869
665.417	543
665.470	-16
665.523	-76
665.576	549
665.630	150
665.683	1510
665.736	1239
665.789	-33
665.842	-97
665.895	465
665.949	596
666.002	511
666.055	1012
666.108	1349
666.161	33
666.214	522
666.267	1377
666.320	1855
666.373	764
666.426	280
666.479	244
666.532	398
666.585	1613
666.638	1205
666.691	387
666.744	1201
666.796	658
666.849	-83
666.902	1120
666.955	546
667.008	-41
667.060	357
667.113	-85
667.166	615
667.219	1071
667.271	696
667.324	338
667.377	695
667.430	322
667.482	499
667.535	436
667.587	1368
667.640	1197
667.693	1503
667.745	5077
667.798	4940
667.850	765
667.903	807
667.955	563
668.008	457
668.060	1075
668.113	735
668.165	496
668.218	-102
668.270	265
668.322	431
668.375	196
668.427	402
668.479	-807
668.532	1159
668.584	628
668.636	74
668.689	63
668.741	-11
668.793	446
668.845	2
668.898	975
668.950	530
669.002	518
669.054	-397
669.106	19
669.158	923
669.211	750
669.263	173
669.315	1595
669.367	1022
669.419	262
669.471	3038
669.523	2160
669.575	4378
669.627	1698
669.679	1074
669.731	1024
669.783	1578
669.835	2392
669.886	1526
669.938	396
669.990	1540
670.042	92
670.094	815
670.146	440
670.197	313
670.249	761
670.301	512
670.353	1901
670.404	3217
670.456	2536
670.508	6269
670.560	11087
670.611	20518
670.663	36464
670.715	101721
670.766	135968
670.818	23197
670.869	3964
670.921	2613
670.972	1976
671.024	1465
671.075	870
671.127	803
671.178	408
671.230	548
671.281	450
671.333	1660
671.384	1352
671.436	2399
671.487	4642
671.538	8325
671.590	14590
671.641	26679
671.692	52286
671.744	98965
671.795	46671
671.846	12179
671.897	5384
671.949	3248
672.000	2407
672.051	792
672.102	1871
672.153	754
672.204	1563
672.256	1578
672.307	455
672.358	345
672.409	639
672.460	967
672.511	-564
672.562	-4
672.613	-354
672.664	724
672.715	145
672.766	110
672.817	-457
672.868	-550
672.919	286
672.970	-808
673.021	815
673.071	-116
673.122	-448
673.173	325
673.224	269
673.275	-138
673.326	91
673.376	158
673.427	95
673.478	17
673.528	833
673.579	-15
673.630	473
673.680	190
673.731	-89
673.782	-651
673.832	-639
673.883	823
673.934	-239
673.984	96
674.035	426
674.085	60
674.136	-23
674.186	63
674.237	424
674.287	1085
674.338	-221
674.388	493
674.438	230
674.489	200
674.539	-97
674.589	497
674.640	289
674.690	501
674.740	-294
674.791	120
674.841	-296
674.891	481
674.942	-403
674.992	235
675.042	-454
675.092	262
675.142	255
675.193	-750
675.243	-443
675.293	246
675.343	-684
675.393	-107
675.443	368
675.493	-784
675.543	-257
675.593	56
675.643	-668
675.693	536
675.743	-685
675.793	-425
675.843	-527
675.893	-628
675.943	-29
675.993	64
676.043	97
676.093	-100
676.142	-1065
676.192	-210
676.242	448
676.292	-635
676.341	-1393
676.391	-244
676.441	-780
676.491	-955
676.540	-514
676.590	-521
676.640	-120
676.689	-823
676.739	-558
676.789	-334
676.838	615
676.888	-32
676.937	-1083
676.987	-704
677.037	-992
677.086	-108
677.136	-621
677.185	-658
677.235	-1275
677.284	136
677.333	-632
677.383	-1147
677.432	-1121
677.482	-231
677.531	-463
677.580	-947
677.630	-802
677.679	-1112
677.728	-1039
677.778	-284
677.827	-909
677.876	-465
677.925	-1060
677.975	-137
678.024	-1525
678.073	-26
678.122	-390
678.171	-916
678.220	-253
678.269	211
678.319	753
678.368	120
678.417	-690
678.466	-149
678.515	-769
678.564	-716
678.613	-816
678.662	-1397
678.711	-1167
678.760	-634
678.809	-378
678.857	-939
678.906	-945
678.955	-87
679.004	-684
679.053	-679
679.102	-480
679.151	-1031
679.199	-1317
679.248	374
679.297	-1119
679.346	-1304
679.394	-1305
679.443	-756
679.492	-449
679.540	-709
679.589	-537
679.638	-1227
679.686	-579
679.735	-401
679.784	-185
679.832	97
679.881	-677
679.929	-239
679.978	-1011
680.026	-622
680.075	-1501
680.123	-743
680.172	-1361
680.220	-1346
680.268	-410
680.317	-1067
680.365	-506
680.414	-792
680.462	-835
680.510	-42
680.559	-1445
680.607	-967
680.655	-623
680.703	-1247
680.752	-644
680.800	-1525
680.848	-480
680.896	-761
680.945	-1068
680.993	-589
681.041	-84
681.089	-780
681.137	-872
681.185	-715
681.233	-1187
681.258	-1075
681.281	-981
681.329	-1495
681.377	-879
681.380	-852
681.425	-593
681.473	-1062
681.502	-842
681.521	-722
681.569	573
681.617	-1134
681.624	-1057
681.665	-637
681.713	-853
681.745	-899
681.761	-944
681.809	-1405
681.857	-148
681.867	-274
681.904	-767
681.952	153
681.989	-559
682.000	-784
682.048	-683
682.096	-856
682.111	-725
682.143	-502
682.191	-751
682.233	287
682.239	427
682.286	-423
682.334	-486
682.354	-781
682.382	-1192
682.430	705
682.476	-196
682.477	-227
682.525	64
682.572	-1090
682.598	-756
682.620	-473
682.667	235
682.715	-367
682.720	-365
682.763	-454
682.810	692
682.841	433
682.857	260
682.905	171
682.952	811
682.963	630
683.000	-101
683.047	-57
683.085	386
683.095	529
683.142	-323
683.190	196
683.206	318
683.237	437
683.284	544
683.328	139
683.332	97
683.379	-22
683.426	-360
683.449	120
683.473	617
683.521	109
683.568	998
683.571	968
683.615	400
683.662	197
683.693	196
683.709	170
683.757	-317
683.804	99
683.814	228
683.851	654
683.898	896
683.936	923
683.945	944
683.992	1110
684.039	1392
684.057	1244
684.086	948
684.133	1530
684.179	1806
684.180	1801
684.227	1347
684.274	1458
684.300	1832
684.321	2115
684.368	1524
684.415	1226
684.422	1139
684.462	465
684.509	1184
684.543	319
684.556	74
684.603	1163
684.649	408
684.665	752
684.696	1344
684.743	1428
684.786	1663
684.790	1682
684.837	1683
684.883	1908
684.908	1740
684.930	1522
684.977	1465
685.023	1124
685.029	1094
685.070	810
685.117	1161
685.150	775
685.164	648
685.210	1527
685.257	1767
685.272	1774
685.303	1791
685.350	1781
685.393	2056
685.396	2084
685.443	2252
685.490	3326
685.514	3212
685.536	2823
685.583	1972
685.629	1767
685.636	1784
685.675	2151
685.722	1919
685.757	2145
685.768	2172
685.815	1840
685.861	1908
685.878	1964
685.908	2164
685.954	1338
686.000	1495
686.000	1495
686.047	1818
686.093	2206
686.121	2408
686.139	2401
686.185	2396
686.232	1666
686.242	1720
686.278	2012
686.324	1763
686.363	1749
686.370	1745
686.416	2166
686.463	1919
686.484	1879
686.509	1862
686.555	2169
686.601	1889
686.606	1888
686.647	1791
686.693	1963
686.727	1827
686.739	1806
686.785	1948
686.831	1691
686.848	1889
686.877	2148
686.923	2149
686.969	2309
686.969	2310
687.015	1774
687.061	1693
687.090	2345
687.107	2661
687.153	1956
687.199	1909
687.211	1835
687.245	1768
687.291	2197
687.332	2229
687.336	2218
687.382	2585
687.428	2403
687.453	2762
687.474	3144
687.520	2514
687.565	2851
687.574	2865
687.611	2702
687.657	2929
687.695	2470
687.702	2437
687.748	2584
687.794	3524
687.816	3190
687.839	2735
687.885	3157
687.931	3341
687.937	3311
687.976	3341
688.022	3466
688.058	3579
688.067	3603
688.113	4027
688.158	3948
688.179	3980
688.204	3877
688.249	3832
688.295	4020
688.300	3974
688.340	3641
688.386	3888
688.421	3319
688.431	3217
688.477	3049
688.522	3488
688.542	3592
688.567	3650
688.613	3876
688.658	3441
688.663	3457
688.703	3790
688.749	3889
688.784	3876
688.794	3781
688.839	3390
688.884	2839
688.905	2892
688.930	3164
688.975	3467
689.020	3223
689.026	3195
689.065	2881
689.110	2877
689.146	2708
689.155	2714
689.201	3126
689.246	2964
689.267	2957
689.291	2879
689.336	3162
689.381	2982
689.388	2929
689.426	2887
689.471	3205
689.509	3462
689.516	3477
689.561	3543
689.606	3199
689.630	3143
689.651	3145
689.696	3146
689.741	3327
689.750	3356
689.785	3475
689.830	3125
689.871	3365
689.875	3389
689.920	3000
689.965	2763
689.992	2943
690.010	3142
690.054	3213
690.099	3400
690.112	3352
690.144	3261
690.189	3455
690.233	3652
690.233	3660
690.278	3628
690.323	4155
690.354	4219
690.367	4229
690.412	3968
690.457	3928
690.474	3953
690.501	3845
690.546	3534
690.590	3654
690.595	3591
690.635	3498
690.680	3669
690.716	3510
690.724	3457
690.769	3997
690.813	4280
690.836	4200
690.857	4403
690.902	5061
690.946	5582
690.957	5685
690.991	6123
691.035	6917
691.077	7429
691.080	7430
691.124	7300
691.168	6844
691.198	6613
691.213	6390
691.257	6377
691.301	5431
691.318	5256
691.346	5189
691.390	4872
691.434	4823
691.439	4738
691.478	4278
691.522	4671
691.559	4439
691.567	4518
691.611	5223
691.655	5599
691.680	5758
691.699	5353
691.743	4849
691.787	4208
691.800	4031
691.831	4406
691.875	4704
691.919	4982
691.921	4989
691.964	5088
692.008	4861
692.041	4516
692.052	4529
692.096	4668
692.139	5347
692.162	5403
692.183	5363
692.227	5483
692.271	5552
692.282	5554
692.315	5877
692.359	6022
692.402	6673
692.403	6689
692.447	6379
692.490	6194
692.523	6194
692.534	6190
692.578	5831
692.622	5406
692.643	5280
692.666	5207
692.709	4797
692.753	4644
692.763	4576
692.797	4620
692.840	4834
692.884	4730
692.884	4743
692.928	4931
692.971	4609
693.004	4808
693.015	4856
693.059	4937
693.102	4987
693.124	4950
693.146	5032
693.189	4851
693.233	5194
693.245	5261
693.276	5517
693.320	5413
693.363	5801
693.365	5784
693.407	5402
693.450	5290
693.485	5071
693.493	5194
693.537	5686
693.580	6259
693.605	6813
693.624	7162
693.667	7493
693.710	7883
693.725	7931
693.753	9316
693.797	12084
693.840	14412
693.845	14648
693.883	13540
693.926	12506
693.966	11280
693.970	11141
694.013	9663
694.056	8159
694.086	6999
694.099	6871
694.142	6244
694.185	5994
694.206	5918
694.229	6113
694.272	6096
694.315	6260
694.326	6217
694.358	6440
694.401	7133
694.444	7632
694.446	7626
694.487	7261
694.530	7070
694.566	6944
694.573	6867
694.616	6059
694.659	5381
694.686	4974
694.702	5180
694.745	5573
694.787	5994
694.806	6166
694.830	5985
694.873	5698
694.916	5281
694.926	5175
694.959	5475
695.002	5870
695.044	6224
695.046	6223
695.087	6075
695.130	5939
695.166	5858
695.172	5917
695.215	6038
695.258	6096
695.286	6204
695.301	6227
695.343	6174
695.386	6262
695.406	6123
695.428	5955
695.471	6015
695.514	5939
695.526	5833
695.556	5954
695.599	6546
695.641	6764
695.646	6783
695.684	6602
695.726	6337
695.766	5971
695.769	5974
695.811	6018
695.854	5763
695.886	5725
695.896	5800
695.938	5865
695.981	5996
696.005	6062
696.023	6245
696.065	6502
696.108	7039
696.125	7112
696.150	7000
696.192	7057
696.235	6944
696.245	6881
696.277	6849
696.319	7001
696.361	6973
696.365	6943
696.404	6810
696.446	6919
696.485	6791
696.488	6817
696.530	6971
696.572	7110
696.604	7186
696.614	7187
696.656	7201
696.698	7133
696.724	6981
696.740	6905
696.783	6797
696.825	6749
696.844	6665
696.867	6721
696.909	6764
696.951	6857
696.964	6894
696.992	7008
697.034	6900
697.076	6939
697.083	6922
697.118	7326
697.160	7766
697.202	8292
697.203	8280
697.244	7970
697.286	7660
697.323	7318
697.327	7385
697.369	7763
697.411	8169
697.442	8473
697.453	8584
697.494	8870
697.536	9239
697.562	9405
697.578	9599
697.620	10091
697.661	10530
697.682	10711
697.703	11169
697.744	12108
697.786	13085
697.801	13328
697.828	13475
697.869	13755
697.911	14000
697.921	14029
697.952	12777
697.994	11087
698.035	9372
698.040	9133
698.077	9137
698.118	9190
698.160	9169
698.160	9141
698.201	9181
698.243	9131
698.279	9135
698.284	9186
698.325	9375
698.367	9557
698.399	9645
698.408	9591
698.449	9257
698.491	8916
698.518	8650
698.532	8762
698.573	9034
698.614	9309
698.638	9423
698.656	9401
698.697	9313
698.738	9216
698.757	9138
698.779	9220
698.820	9344
698.862	9455
698.877	9474
698.903	9577
698.944	9681
698.985	9800
698.996	9805
699.026	9903
699.067	10001
699.116	10092
699.235	8332
699.354	9240
699.474	8956
699.593	8879
699.713	9727
699.832	8913
699.951	10296
700.070	10268
700.190	8375
700.309	9437
700.428	9498
700.547	9078
700.667	8424
700.786	10065
700.905	7839
701.024	8923
701.143	8650
701.262	8210
701.381	8544
701.500	9373
701.619	10539
701.738	8826
701.857	8168
701.976	8045
702.095	8728
702.214	10254
702.333	10181
702.452	9438
702.571	8015
702.690	8586
702.809	7744
702.928	8432
703.047	7908
703.165	8156
703.284	7639
703.403	7696
703.522	8047
703.640	8906
703.759	9435
703.878	10898
703.997	7501
704.115	8350
704.234	7839
704.353	8283
704.471	6931
704.590	7351
704.708	6228
704.827	7719
704.946	7050
705.064	8009
705.183	6333
705.301	7702
705.420	7704
705.538	7408
705.656	6418
705.775	7635
705.893	9625
706.012	9629
706.130	6963
706.249	8266
706.367	6735
706.485	7042
706.604	6321
706.722	7904
706.840	9661
706.958	9343
707.077	6851
707.195	6497
707.313	6847
707.431	6735
707.549	5903
707.668	6156
707.786	6626
707.904	6803
708.022	6411
708.140	7322
708.258	5788
708.376	7008
708.494	6749
708.612	7580
708.730	8284
708.848	8464
708.966	7828
709.084	8032
709.202	6853
709.320	6118
709.438	6503
709.556	7541
709.674	7983
709.791	7891
709.909	5670
710.027	6829
710.145	6450
710.263	7778
710.380	6457
710.498	6085
710.616	6079
710.733	5989
710.851	6361
710.969	6654
711.086	6645
711.204	6221
711.322	5776
711.439	6178
711.557	6108
711.674	5945
711.792	5451
711.909	6567
712.027	6399
712.144	5561
712.262	7361
712.379	6437
712.497	7349
712.614	6863
712.732	6067
712.849	7275
712.966	7342
713.084	11254
713.201	7055
713.318	7489
713.436	6308
713.553	6308
713.670	8710
713.787	8989
713.905	7430
714.022	7876
714.139	9241
714.256	13860
714.373	23189
714.490	49870
714.608	161094
714.725	721695
714.842	589904
714.959	37093
715.076	15182
715.193	10795
715.310	9500
715.427	7571
715.544	7085
715.661	7652
715.778	6524
715.895	6066
716.011	6554
716.128	7206
716.245	7327
716.362	10380
716.479	8932
716.596	7085
716.713	6264
716.829	8589
716.946	6303
717.063	5516
717.180	4404
717.296	5221
717.413	4862
717.530	5844
717.646	5071
717.763	5528
717.880	4955
717.996	5424
718.113	5184
718.229	4681
718.346	4343
718.462	5298
718.579	9158
718.695	22555
718.812	10967
718.928	7149
719.045	6142
719.161	5203
719.277	5900
719.394	6216
719.510	6126
719.626	7385
719.743	10341
719.859	18705
719.975	41312
720.092	202481
720.208	412566
720.324	33905
720.440	9905
720.557	9040
720.673	16602
720.789	13661
720.905	17477
721.021	7533
721.137	5161
721.253	5701
721.369	3941
721.486	5668
721.602	5289
721.718	4987
721.834	3627
721.950	4979
722.066	4499
722.181	3910
722.297	5493
722.413	5512
722.529	4407
722.645	4289
722.761	3525
722.877	4478
722.993	4252
723.108	6985
723.224	5701
723.340	4881
723.456	3929
723.571	5084
723.687	3830
723.803	4845
723.918	4806
724.034	4682
724.150	4184
724.265	4455
724.381	7477
724.497	8479
724.612	4032
724.728	3718
724.843	3276
724.959	4874
725.074	6867
725.190	7991
725.305	4051
725.421	3446
725.536	2831
725.651	3579
725.767	2999
725.882	3878
725.997	3170
726.113	3658
726.228	3125
726.343	3315
726.459	2358
726.574	3189
726.689	2347
726.804	3178
726.920	2577
727.035	3314
727.150	3781
727.265	4180
727.380	3283
727.495	3881
727.610	2795
727.725	3100
727.841	3789
727.956	5722
728.071	4182
728.186	3791
728.301	3491
728.416	4644
728.531	3797
728.645	3324
728.760	4937
728.875	5630
728.990	5392
729.105	4939
729.220	5218
729.335	4877
729.449	4160
729.564	2708
729.679	2755
729.794	2720
729.908	3429
730.023	3021
730.138	3213
730.253	3814
730.367	3884
730.482	3544
730.596	4076
730.711	5655
730.826	4285
730.940	4129
731.055	4444
731.169	4126
731.284	3879
731.398	3702
731.513	4126
731.627	5269
731.742	5244
731.856	6324
731.970	7049
732.085	9535
732.199	14464
732.313	29265
732.428	81999
732.542	243035
732.656	114653
732.771	19162
732.885	9405
732.999	7196
733.113	7798
733.227	6882
733.342	5523
733.456	5414
733.570	4505
733.684	4898
733.798	4144
733.912	4267
734.026	4018
734.140	4857
734.254	4052
734.368	5665
734.482	6684
734.596	4580
734.710	3998
734.824	4809
734.938	4452
735.052	4844
735.166	5478
735.280	4898
735.393	4254
735.507	7954
735.621	7840
735.735	7154
735.849	4367
735.962	4197
736.076	4149
736.190	4662
736.303	4150
736.417	6421
736.531	4672
736.644	3734
736.758	3259
736.872	4052
736.985	3621
737.099	4159
737.212	3359
737.326	3904
737.439	3460
737.553	4059
737.666	3687
737.780	3509
737.893	2890
738.007	3625
738.120	2838
738.233	3773
738.347	3091
738.460	3846
738.573	4679
738.687	4952
738.800	5419
738.913	6495
739.026	4920
739.140	4105
739.253	2674
739.366	4107
739.479	4293
739.592	3175
739.705	2235
739.818	4486
739.932	6547
740.045	7559
740.158	4691
740.271	4638
740.384	3183
740.497	4201
740.610	4167
740.723	5096
740.836	5068
740.949	5819
741.062	7542
741.174	6312
741.287	3989
741.400	3953
741.513	3790
741.626	5537
741.739	4833
741.851	4572
741.964	4006
742.077	4446
742.189	3642
742.302	5300
742.415	5450
742.527	4739
742.640	3423
742.753	3160
742.865	2746
742.978	2947
743.090	3303
743.203	2988
743.316	2825
743.428	3049
743.541	2838
743.653	2305
743.766	3038
743.878	3900
743.990	4508
744.103	4481
744.215	3954
744.327	4277
744.440	4659
744.552	9534
744.664	3444
744.777	3295
744.889	1648
745.001	3198
745.113	2617
745.226	2845
745.338	2937
745.450	2793
745.562	2327
745.674	3151
745.786	2538
745.898	3237
746.010	2444
746.122	5189
746.234	7623
746.347	3259
746.459	1877
746.570	2820
746.682	2648
746.794	4622
746.906	2332
747.018	3349
747.130	2919
747.242	2559
747.354	2010
747.466	2867
747.577	1974
747.689	2998
747.801	2577
747.913	2371
748.024	1836
748.136	3047
748.248	1443
748.359	3151
748.471	1711
748.583	1778
748.694	1452
748.806	3350
748.918	1842
749.029	2674
749.141	3757
749.252	2688
749.364	4198
749.475	10942
749.587	4789
749.698	2948
749.809	2641
749.921	2043
750.032	2159
750.144	1985
750.255	1474
750.366	2616
750.478	1842
750.589	2441
750.700	2216
750.811	3308
750.923	4048
751.034	11720
751.145	10209
751.256	2476
751.367	2266
751.479	1915
751.590	1709
751.701	1505
751.812	1682
751.923	1836
752.034	1525
752.145	2675
752.256	1327
752.367	1067
752.478	1971
752.589	2601
752.700	1659
752.811	1936
752.922	1533
753.032	3392
753.143	3006
753.254	1633
753.365	2947
753.476	3205
753.586	1831
753.697	1569
753.808	1798
753.919	1497
754.029	1251
754.140	2118
754.251	2247
754.361	1930
754.472	1888
754.582	2376
754.693	1427
754.804	2213
754.914	1562
755.025	1199
755.135	1348
755.246	2364
755.356	1134
755.466	2370
755.577	1674
755.687	2317
755.798	1311
755.908	1636
756.018	1644
756.129	1935
756.239	1807
756.349	2153
756.460	1662
756.570	3617
756.680	1760
756.790	2230
756.900	2278
757.011	1684
757.121	1893
757.231	1332
757.341	1014
757.451	1663
757.561	735
757.671	1497
757.781	1045
757.891	3365
758.001	1454
758.111	2082
758.221	2175
758.331	3719
758.441	3077
758.551	5601
758.661	3403
758.771	2994
758.880	2791
758.990	2465
759.100	1581
759.210	2407
759.320	2283
759.429	3017
759.539	3173
759.649	3171
759.758	3672
759.868	4543
759.978	3569
760.087	4990
760.197	4652
760.307	4755
760.416	3443
760.526	3252
760.635	3408
760.745	4016
760.854	3975
760.964	4763
761.073	4870
761.182	4742
761.292	3528
761.401	4353
761.511	2489
761.620	2335
761.729	2204
761.839	2547
761.948	2842
762.057	2933
762.166	2541
762.276	547
762.385	3312
762.494	2105
762.603	1631
762.712	2393
762.822	627
762.931	1557
763.040	1445
763.149	2722
763.258	1399
763.367	2304
763.476	1422
763.585	2084
763.694	1617
763.803	1564
763.912	1681
764.021	2150
764.130	2299
764.238	2835
764.347	2357
764.456	2934
764.565	2860
764.674	2722
764.783	1495
764.891	2177
765.000	3552
765.109	3330
765.217	2934
765.326	5043
765.435	5236
765.543	6378
765.652	5830
765.761	7140
765.869	10902
765.978	17788
766.086	32753
766.195	68819
766.303	201411
766.412	566674
766.520	380227
766.629	83943
766.737	30213
766.846	17344
766.954	11825
767.062	9648
767.171	6383
767.279	5520
767.387	4316
767.496	3624
767.604	3891
767.712	4206
767.820	3084
767.928	3591
768.037	3015
768.145	3467
768.253	3830
768.361	2367
768.469	2525
768.577	2958
768.685	2699
768.793	3826
768.901	2646
769.009	4029
769.117	3929
769.225	4664
769.333	7440
769.441	13692
769.549	26267
769.657	66986
769.765	247328
769.873	428248
769.981	108789
770.088	22719
770.196	10778
770.304	8151
770.412	6909
770.519	4910
770.627	4073
770.735	3829
770.842	3012
770.950	3335
771.058	3328
771.165	2944
771.273	3224
771.380	3587
771.488	3349
771.595	3169
771.703	3681
771.810	3586
771.918	2821
772.025	2953
772.133	3426
772.240	3356
772.348	4227
772.455	4162
772.562	3274
772.670	3093
772.777	2780
772.884	2439
772.991	2730
773.099	2803
773.206	2440
773.313	3469
773.420	2395
773.528	2449
773.635	2101
773.742	3814
773.849	2655
773.956	2634
774.063	2462
774.170	2608
774.277	3582
774.384	1799
774.491	1972
774.598	3460
774.705	2788
774.812	3755
774.919	3236
775.026	2757
775.133	2250
775.239	2902
775.346	2839
775.453	2866
775.560	2035
775.667	2546
775.773	1528
775.880	2418
775.987	1558
776.093	2576
776.200	1830
776.307	1906
776.413	2658
776.520	2246
776.627	2500
776.733	2698
776.840	310
776.946	4677
777.053	3625
777.159	6068
777.266	1984
777.372	5292
777.478	4087
777.585	2887
777.691	1758
777.798	2791
777.904	2857
778.010	4542
778.117	4358
778.223	2196
778.329	1166
778.435	2319
778.542	1368
778.648	1987
778.754	1336
778.860	1855
778.966	1376
779.072	1965
779.178	1894
779.284	2178
779.391	1389
779.497	365
779.603	2993
779.708	1598
779.815	2661
779.920	3352
780.026	2184
780.132	2619
780.238	1872
780.344	2547
780.450	2441
780.556	1888
780.661	1596
780.767	2490
780.873	1038
780.979	2206
781.085	1207
781.190	1584
781.296	1571
781.402	1366
781.507	1121
781.613	1391
781.719	690
781.824	2322
781.930	2507
782.035	2926
782.141	1136
782.246	1816
782.352	1504
782.457	1843
782.563	978
782.668	2206
782.773	1322
782.879	1147
782.984	1895
783.090	3454
783.195	4754
783.300	2665
783.405	1733
783.511	1249
783.616	1313
783.721	2512
783.826	1477
783.932	2343
784.037	1560
784.142	1904
784.247	838
784.352	1781
784.457	936
784.562	1650
784.667	1586
784.772	2436
784.877	498
784.982	2051
785.087	1349
785.192	2288
785.297	753
785.402	1575
785.507	1767
785.611	1713
785.716	911
785.821	794
785.926	1062
786.031	1570
786.135	1174
786.240	2167
786.345	36
786.450	1818
786.554	729
786.659	364
786.763	-418
786.868	1995
786.973	1887
787.077	1869
787.182	1182
787.286	1386
787.391	883
787.495	555
787.600	748
787.704	913
787.809	1049
787.913	1531
788.017	986
788.122	1474
788.226	919
788.330	150
788.435	510
788.539	700
788.643	252
788.747	631
788.852	1302
788.956	617
789.060	1394
789.164	1217
789.268	945
789.372	1274
789.476	265
789.580	992
789.684	422
789.788	1228
789.892	648
789.996	2325
790.100	478
790.204	858
790.308	513
790.412	476
790.516	1130
790.620	1025
790.724	752
790.828	726
790.931	-168
791.035	2156
791.139	526
791.242	554
791.346	1411
791.450	1344
791.554	636
791.657	1
791.761	1182
791.864	2452
791.968	1480
792.072	1602
792.175	460
792.279	-118
792.382	1136
792.486	805
792.589	950
792.693	1629
792.796	112
792.899	2177
793.003	1280
793.106	-557
793.209	-387
793.313	2307
793.416	-268
793.519	2775
793.623	3845
793.726	4333
793.829	1530
793.932	923
794.035	178
794.138	2223
794.242	1735
794.345	1391
794.448	1564
794.551	3089
794.654	3516
794.757	3064
794.860	332
794.963	952
795.066	-29
795.169	1434
795.272	-191
795.375	856
795.477	428
795.580	1386
795.683	-1539
795.786	2195
795.889	-314
795.991	1984
796.094	1267
796.197	7
796.300	1129
796.402	940
796.505	-108
796.608	622
796.710	2247
796.813	1351
796.915	619
797.018	1151
797.120	935
797.223	561
797.326	1751
797.428	955
797.530	-13
797.633	1400
797.735	1636
797.838	1808
797.940	1249
798.042	-434
798.145	284
798.247	1122
798.349	-438
798.452	1664
798.554	241
798.656	456
798.758	1565
798.860	1320
798.962	445
799.065	-66
799.167	457
799.269	2041
799.371	1196
799.473	2883
799.575	1314
799.677	1539
799.779	2974
799.881	2786
799.983	2457
800.085	1172
800.187	413
800.289	-329
800.390	-406
800.492	1598
800.594	1420
800.696	135
800.798	353
800.899	1
801.001	-689
801.103	678
801.205	23
801.306	844
801.408	-297
801.509	619
801.611	460
801.713	733
801.814	-259
801.916	484
802.017	-99
802.119	-551
802.220	152
802.322	-637
802.423	1673
802.525	-967
802.626	472
802.727	1272
802.829	1099
802.930	-1004
803.031	1755
803.133	348
803.234	292
803.335	352
803.436	-1132
803.538	876
803.639	-889
803.740	1005
803.841	-360
803.942	919
804.043	712
804.144	127
804.245	-538
804.346	239
804.447	722
804.548	2843
804.649	2324
804.750	388
804.851	-717
804.952	260
805.053	24
805.154	-873
805.255	1295
805.355	-382
805.456	60
805.557	440
805.658	-352
805.758	875
805.859	-579
805.960	-464
806.061	-334
806.161	283
806.262	-421
806.362	-16
806.463	425
806.564	760
806.664	423
806.765	400
806.865	61
806.966	1029
807.066	-566
807.166	1541
807.267	368
807.367	-91
807.468	199
807.568	-585
807.668	705
807.769	992
807.869	236
807.969	1352
808.069	-365
808.170	439
808.270	-305
808.370	709
808.470	821
808.570	775
808.670	-852
808.770	-252
808.870	-495
808.970	1014
809.070	-17
809.170	-489
809.271	1370
809.370	735
809.470	291
809.570	-28
809.670	-988
809.770	794
809.870	10
809.970	274
810.070	-391
810.169	480
810.269	-1387
810.369	888
810.469	-561
810.568	-617
810.668	-556
810.768	159
810.867	-23
810.967	26
811.066	-386
811.166	-699
811.265	235
811.365	-165
811.464	-1270
811.564	-637
811.663	434
811.763	-1121
811.862	335
811.962	336
812.061	-428
812.160	-363
812.260	-17
812.359	-87
812.458	-597
812.557	840
812.657	1073
812.756	1021
812.855	-292
812.954	-881
813.053	214
813.153	167
813.252	-479
813.351	1207
813.450	597
813.549	-464
813.648	377
813.747	-311
813.846	285
813.945	256
814.044	204
814.143	-341
814.242	737
814.341	-423
814.439	335
814.538	1048
814.637	390
814.736	372
814.835	56
814.933	-195
815.032	548
815.131	915
815.229	1479
815.328	2380
815.427	390
815.525	1384
815.624	828
815.722	1194
815.821	1638
815.919	1109
816.018	231
816.116	2160
816.215	929
816.313	2441
816.412	1825
816.510	2048
816.609	2424
816.707	2564
816.805	1713
816.904	1176
817.002	2608
817.100	2910
817.198	2404
817.296	2500
817.395	2290
817.493	3495
817.591	1839
817.689	3510
817.787	3128
817.885	6663
817.983	10460
818.081	22964
818.179	55719
818.277	148289
818.375	117416
818.473	30229
818.571	12947
818.669	8314
818.767	6817
818.865	7122
818.963	7843
819.061	12553
819.158	20636
819.256	50008
819.354	121724
819.452	281169
819.549	164570
819.647	42298
819.745	16939
819.842	11283
819.940	6761
820.038	5679
820.135	4214
820.233	4719
820.330	2338
820.428	2820
820.525	3400
820.623	2711
820.720	1950
820.818	2507
820.915	1474
821.012	2774
821.110	77
821.207	2697
821.304	-100
821.402	1880
821.499	1359
821.596	2716
821.693	1870
821.791	2509
821.888	2122
821.985	6826
822.082	4177
822.179	2215
822.276	1213
822.373	1699
822.470	823
822.567	1529
822.664	355
822.761	1656
822.858	-16
822.955	1164
823.052	689
823.149	1139
823.246	820
823.343	590
823.440	978
823.536	612
823.633	198
823.730	761
823.827	374
823.923	1381
824.020	784
824.117	1705
824.213	232
824.310	2358
824.407	825
824.503	1983
824.600	736
824.696	1045
824.793	1376
824.889	62
824.986	901
825.082	1240
825.179	467
825.275	1256
825.371	-434
825.468	194
825.564	-749
825.660	1043
825.757	594
825.853	796
825.949	-274
826.045	358
826.142	17
826.238	1362
826.334	721
826.430	-243
826.526	-94
826.622	-406
826.718	426
826.814	1005
826.910	2013
827.006	77
827.102	-326
827.198	1473
827.294	-169
827.390	96
827.486	410
827.582	-276
827.678	-1023
827.774	1286
827.869	-726
827.965	1490
828.061	-485
828.157	795
828.252	629
828.348	-575
828.444	279
828.539	313
828.635	-206
828.731	1202
828.826	-301
828.922	742
829.017	253
829.113	998
829.208	-37
829.304	717
829.399	1380
829.495	-239
829.590	565
829.685	-322
829.781	417
829.876	-97
829.971	-474
830.066	-568
830.162	-381
830.257	-610
830.352	-277
830.447	1309
830.543	1058
830.638	177
830.733	823
830.828	880
830.923	854
831.018	1009
831.113	295
831.208	-516
831.303	-189
831.398	453
831.493	-114
831.588	1115
831.683	-1222
831.778	971
831.873	274
831.967	1477
832.062	-124
832.157	-1098
832.252	704
832.346	171
832.441	901
832.536	1767
832.631	4696
832.725	2803
832.820	-690
832.914	849
833.009	183
833.104	977
833.198	2187
833.293	283
833.387	-282
833.482	651
833.576	-298
833.670	1713
833.765	879
833.859	900
833.954	145
834.048	226
834.142	751
834.237	161
834.331	-123
834.425	320
834.519	-729
834.613	494
834.708	-1033
834.802	449
834.896	-1151
834.990	34
835.084	-290
835.178	-4
835.272	-522
835.366	-121
835.460	475
835.554	-75
835.648	173
835.742	482
835.836	-1020
835.930	-601
836.024	172
836.117	304
836.211	-895
836.305	321
836.399	811
836.493	-234
836.586	380
836.680	-1082
836.774	-551
836.867	1399
836.961	-1743
837.055	156
837.148	-499
837.242	-266
837.335	-348
837.429	556
837.522	-1225
837.616	-92
837.709	-222
837.803	-468
837.896	-93
837.989	-119
838.083	238
838.176	397
838.269	-1162
838.363	566
838.456	-47
838.549	1088
838.642	2081
838.735	5640
838.829	1741
838.922	270
839.015	-765
839.108	-178
839.201	-42
839.294	356
839.387	132
839.480	-124
839.573	-455
839.666	-191
839.759	-1008
839.852	-192
839.945	-379
840.038	346
840.131	-422
840.223	771
840.316	397
840.409	-585
840.502	-526
840.594	787
840.687	-1565
840.780	216
840.873	-331
840.965	-840
841.058	-677
841.150	-6
841.243	-760
841.336	486
841.428	-290
841.521	-319
841.613	-851
841.706	658
841.798	-738
841.890	408
841.983	-1020
842.075	859
842.167	-1210
842.260	-235
842.352	289
842.444	378
842.537	549
842.629	723
842.721	-546
842.813	-173
842.905	-1190
842.997	-160
843.090	-661
843.182	-68
843.274	-92
843.366	2608
843.458	3930
843.550	3172
843.642	-485
843.734	-71
843.826	-603
843.918	1638
844.009	-182
844.101	-510
844.193	-440
844.285	-448
844.377	-698
844.469	491
844.560	62
844.652	575
844.744	738
844.835	263
844.927	-679
845.019	251
845.110	-176
845.202	-3
845.293	-806
845.385	-860
845.476	-952
845.568	-253
845.659	-1203
845.751	-40
845.842	-355
845.934	-1062
846.025	-301
846.116	-334
846.208	-204
846.299	-627
846.390	-444
846.482	102
846.573	-120
846.664	432
846.755	57
846.846	756
846.937	-1688
847.029	16
847.120	-969
847.211	85
847.302	137
847.393	-693
847.484	-271
847.575	-480
847.666	-1049
847.757	131
847.847	-260
847.938	1272
848.029	-435
848.120	-692
848.211	-334
848.302	-717
848.392	-1016
848.483	-431
848.574	-439
848.664	-315
848.755	-1719
848.846	323
848.936	-1194
849.027	-256
849.118	-377
849.208	562
849.299	3159
849.389	5811
849.480	14954
849.570	31934
849.661	65714
849.751	106583
849.841	33186
849.932	4330
850.022	658
850.112	1453
850.203	632
850.293	303
850.383	-38
850.474	652
850.564	-1168
850.654	-116
850.744	-650
850.834	31
850.924	-315
851.014	104
851.104	-4
851.194	-431
851.284	305
851.374	1713
851.464	248
851.554	200
851.644	-445
851.734	626
851.824	136
851.914	-27
852.004	-111
852.094	-904
852.183	196
852.273	512
852.363	-589
852.452	549
852.542	-545
852.632	-129
852.721	108
852.811	100
852.901	215
852.990	941
853.080	821
853.169	1721
853.259	1969
853.348	2120
853.438	4233
853.527	6400
853.617	9194
853.706	19115
853.795	36584
853.885	82925
853.974	157101
854.063	286633
854.152	405431
854.242	153826
854.331	33371
854.420	14150
854.509	8105
854.598	7105
854.687	5347
854.777	3916
854.866	2742
854.955	2298
855.044	661
855.133	1417
855.222	542
855.311	-370
855.400	1138
855.488	430
855.577	62
855.666	605
855.755	94
855.844	682
855.933	-282
856.021	642
856.110	434
856.199	-342
856.288	-272
856.376	-166
856.465	-825
856.554	-625
856.642	-631
856.731	-482
856.819	-487
856.908	-496
856.996	-1215
857.085	-384
857.173	-1022
857.262	388
857.350	-217
857.438	-375
857.527	-156
857.615	26
857.703	-560
857.792	-967
857.880	-595
857.968	-397
858.056	-236
858.145	447
858.233	-618
858.321	-607
858.409	-51
858.497	-586
858.585	-983
858.673	-102
858.761	-280
858.849	-136
858.937	-783
859.025	-80
859.113	-78
859.201	-960
859.289	-245
859.377	-462
859.465	-570
859.552	-464
859.640	-77
859.728	492
859.816	-355
859.903	336
859.991	-1523
860.079	-463
860.166	-811
860.254	-740
860.342	104
860.429	-83
860.517	-1190
860.604	478
860.692	-988
860.779	-538
860.867	-1603
860.954	487
861.042	-542
861.129	-80
861.216	-281
861.304	-137
861.391	-364
861.478	-144
861.565	-833
861.653	611
861.740	-1065
861.827	-626
861.914	-699
862.001	33
862.089	-253
862.176	-458
862.263	-1383
862.350	-693
862.437	-1464
862.524	-399
862.611	-741
862.698	175
862.785	-153
862.871	-150
862.958	-566
863.045	-396
863.132	-898
863.219	-256
863.306	-1820
863.392	-204
863.479	-632
863.566	-342
863.652	-459
863.739	-164
863.826	-716
863.912	-415
863.999	-1607
864.086	146
864.172	-1066
864.259	-755
864.345	-354
864.432	-345
864.518	-944
864.604	1360
864.691	-1050
864.777	158
864.863	635
864.950	760
865.036	132
865.122	1993
865.209	2428
865.295	2045
865.381	2564
865.467	4131
865.553	5767
865.639	10331
865.726	18272
865.812	41687
865.898	81343
865.984	124223
866.070	228345
866.156	228289
866.242	60786
866.328	14012
866.414	6047
866.499	5917
866.585	4423
866.671	2953
866.757	1973
866.843	1695
866.928	1256
867.014	1469
867.100	988
867.186	1030
867.271	1339
867.357	2026
867.442	1176
867.528	1366
867.614	431
867.699	1361
867.785	108
867.870	1268
867.956	1302
868.041	1305
868.127	705
868.212	1718
868.297	776
868.383	1366
868.468	1343
868.553	3061
868.639	3558
868.724	7055
868.809	4803
868.894	845
868.979	541
869.065	1143
869.150	-518
869.235	481
869.320	-606
869.405	480
869.490	-467
869.575	386
869.660	30
869.745	730
869.830	45
869.915	682
870.000	-147
870.085	33
870.169	-275
870.254	796
870.339	-865
870.424	-98
870.509	-30
870.593	865
870.678	-252
870.763	-234
870.847	-386
870.932	-413
871.016	665
871.101	277
871.186	-1127
871.270	1043
871.355	-482
871.439	-15
871.523	-106
871.608	-298
871.692	-727
871.777	1005
871.861	-133
871.945	307
872.030	201
872.114	274
872.198	-340
872.282	682
872.367	-1052
872.451	-209
872.535	996
872.619	367
872.703	-495
872.787	-426
872.871	-1027
872.955	-92
873.039	-912
873.123	-1221
873.207	-511
873.291	-901
873.375	-525
873.459	683
873.543	-416
873.627	356
873.711	-827
873.794	-47
873.878	-562
873.962	-510
874.045	-135
874.129	116
874.137	29
874.213	-835
874.245	-450
874.296	168
874.352	-158
874.380	-316
874.460	-2
874.464	11
874.547	-573
874.568	-206
874.631	846
874.676	45
874.714	-612
874.784	-44
874.798	62
874.881	775
874.892	642
874.965	-221
874.999	-249
875.048	-308
875.107	-2
875.131	128
875.215	356
875.215	356
875.298	755
875.323	693
875.381	534
875.430	280
875.465	137
875.538	79
875.548	53
875.631	-871
875.646	-880
875.714	-824
875.753	-525
875.798	-183
875.861	-412
875.881	-485
875.964	-353
875.968	-349
876.047	-328
876.076	-68
876.130	469
876.183	67
876.213	-181
876.291	-71
876.296	-61
876.379	-854
876.398	-746
876.462	-474
876.506	-418
876.545	-296
876.613	19
876.628	75
876.711	157
876.721	184
876.794	432
876.828	152
876.877	-263
876.935	156
876.960	352
877.043	-144
877.043	-141
877.125	604
877.150	586
877.208	527
877.258	600
877.291	652
877.365	413
877.374	385
877.456	1049
877.472	910
877.539	421
877.579	669
877.622	844
877.687	710
877.704	673
877.787	1038
877.794	933
877.869	3
877.901	296
877.952	544
878.008	169
878.034	111
878.115	3
878.117	-6
878.199	-407
878.222	-377
878.282	-40
878.329	37
878.364	75
878.437	343
878.447	352
878.529	-1062
878.544	-788
878.611	560
878.651	-138
878.694	-873
878.758	-54
878.776	226
878.858	-51
878.865	10
878.941	325
878.972	197
879.023	38
879.078	105
879.105	196
879.185	-2
879.187	-2
879.269	100
879.292	-11
879.351	-548
879.399	-419
879.433	-270
879.506	-107
879.516	-72
879.598	8
879.613	6
879.680	-189
879.720	-14
879.762	209
879.827	-162
879.844	-307
879.926	-51
879.933	-48
880.007	267
880.040	313
880.089	312
880.147	1715
880.171	2416
880.253	6023
880.254	6053
880.335	9191
880.360	10088
880.417	12687
880.467	20194
880.499	24835
880.574	26062
880.580	25941
880.662	7131
880.680	5710
880.744	1631
880.787	927
880.825	167
880.893	151
880.907	232
880.989	189
881.000	215
881.070	168
881.106	-111
881.152	-421
881.213	-499
881.233	-413
881.315	-455
881.319	-416
881.396	46
881.426	-133
881.478	-578
881.532	49
881.559	379
881.639	-797
881.641	-820
881.722	371
881.745	253
881.803	-152
881.852	-52
881.885	17
881.958	-343
881.966	-393
882.047	17
882.064	-165
882.129	-615
882.171	43
882.210	619
882.277	498
882.291	487
882.372	91
882.383	88
882.454	-216
882.489	-275
882.535	-328
882.596	-798
882.616	-915
882.697	-472
882.702	-488
882.778	-341
882.808	-68
882.859	8
882.914	-162
882.940	-188
883.020	-491
883.021	-491
883.102	-152
883.127	-108
883.183	-53
883.233	-462
883.264	-791
883.339	-557
883.345	-528
883.426	-678
883.445	-558
883.507	179
883.551	142
883.587	-248
883.657	-490
883.668	-447
883.749	-379
883.763	-345
883.830	-286
883.869	-253
883.910	-304
883.975	-535
883.991	-559
884.072	-596
884.081	-578
884.152	-37
884.187	214
884.233	262
884.292	92
884.314	-50
884.394	-921
884.398	-915
884.475	-576
884.504	-760
884.555	-771
884.610	-553
884.636	-513
884.716	-310
884.716	-307
884.797	-174
884.821	-255
884.877	-324
884.927	-92
884.958	-160
885.033	-776
885.038	-779
885.118	-416
885.139	-446
885.199	-429
885.244	76
885.279	155
885.350	-330
885.359	-310
885.439	-20
885.456	-13
885.520	-341
885.561	-186
885.600	-157
885.667	-836
885.680	-823
885.760	-74
885.773	4
885.840	-225
885.878	-361
885.920	-570
885.984	-1014
886.000	-1050
886.080	-985
886.089	-989
886.160	-248
886.195	176
886.240	-51
886.300	-577
886.320	-490
886.400	-18
886.406	28
886.480	-346
886.511	-577
886.560	-237
886.616	-42
886.640	-220
886.720	-513
886.722	-524
886.800	-572
886.827	-537
886.879	-481
886.932	-541
886.959	-458
887.038	-140
887.039	-137
887.119	-120
887.143	-130
887.198	-289
887.248	-568
887.278	-722
887.354	-765
887.358	-749
887.437	-573
887.459	-541
887.517	-394
887.564	-265
887.596	-289
887.669	-273
887.676	-280
887.755	-452
887.774	-498
887.835	-229
887.880	-1
887.914	-147
887.985	-447
887.994	-436
888.073	-440
888.090	-419
888.153	85
888.195	367
888.232	148
888.300	-134
888.311	-151
888.391	-471
888.405	-494
888.470	-446
888.510	-535
888.549	-627
888.615	-525
888.628	-391
888.708	219
888.720	326
888.787	16
888.825	-240
888.866	-750
888.930	-1414
888.945	-1269
889.024	-524
889.035	-417
889.103	-662
889.140	-826
889.182	-1032
889.245	-1273
889.261	-1018
889.340	202
889.349	346
889.419	-182
889.454	-466
889.498	-602
889.559	-765
889.577	-737
889.656	-592
889.664	-574
889.735	-419
889.768	-344
889.814	61
889.873	604
889.978	-621
890.083	-1023
890.187	-90
890.292	-743
890.397	-22
890.501	-474
890.606	-524
890.710	-519
890.815	-122
890.919	-242
891.024	-531
891.128	-14
891.233	211
891.337	537
891.442	58
891.546	-801
891.650	-327
891.755	-650
891.859	874
891.963	-400
892.068	-980
892.172	15
892.276	-1368
892.380	-996
892.484	150
892.589	449
892.693	213
892.797	-1023
892.901	-563
893.005	-460
893.109	-402
893.213	51
893.317	30
893.421	-857
893.525	-121
893.629	-365
893.733	38
893.837	-261
893.941	-220
894.045	-385
894.148	-929
894.252	-1336
894.356	-606
894.460	-144
894.564	-218
894.667	-309
894.771	-269
894.875	-20
894.978	-241
895.082	-510
895.186	128
895.289	170
895.393	-209
895.496	-457
895.600	-358
895.703	-114
895.807	-192
895.910	-300
896.014	-459
896.117	-269
896.221	-951
896.324	-94
896.427	-228
896.531	-1043
896.634	-261
896.737	-470
896.840	-136
896.944	-796
897.047	-463
897.150	-477
897.253	-424
897.356	-794
897.460	-822
897.563	-824
897.666	-947
897.769	-262
897.872	-710
897.975	-346
898.078	-781
898.181	-511
898.284	-969
898.387	-56
898.490	101
898.593	-490
898.695	-1065
898.798	-319
898.901	475
899.004	-319
899.107	-621
899.209	292
899.312	-517
899.415	-356
899.518	50
899.620	-580
899.723	-689
899.826	383
899.928	-71
900.031	-497
900.133	-734
900.236	-932
900.338	-659
900.441	250
900.543	-153
900.646	-396
900.748	-386
900.851	-822
900.953	-551
901.055	-679
901.158	-985
901.260	-335
901.362	-456
901.465	-130
901.567	-38
901.669	-516
901.771	-1242
901.873	-698
901.976	-719
902.078	-834
902.180	-241
902.282	-757
902.384	-1003
902.486	-1382
902.588	-486
902.690	-247
902.792	-349
902.894	-554
902.996	-496
903.098	-34
903.200	-975
903.302	-878
903.404	-1053
903.505	-311
903.607	-247
903.709	-270
903.811	-773
903.913	-327
904.014	-922
904.116	107
904.218	-735
904.319	-345
904.421	291
904.523	-17
904.624	-583
904.726	-284
904.827	-1401
904.929	-385
905.030	-9
905.132	-513
905.233	-183
905.335	-752
905.436	-515
905.537	-431
905.639	-479
905.740	-779
905.841	-299
905.943	-40
906.044	-204
906.145	-353
906.247	-546
906.348	-93
906.449	-838
906.550	-1184
906.651	8
906.752	-763
906.854	-514
906.955	-1180
907.056	-820
907.157	-667
907.258	-629
907.359	-161
907.460	-518
907.561	-980
907.662	-978
907.762	-679
907.863	-607
907.964	-1301
908.065	-322
908.166	-26
908.267	-1177
908.367	-729
908.468	-1120
908.569	-106
908.670	-753
908.770	-195
908.871	-15
908.971	-316
909.072	-830
909.173	-453
909.273	-267
909.374	76
909.474	-1163
909.575	-750
909.675	-327
909.776	40
909.876	-119
909.977	-84
910.077	101
910.177	-498
910.278	-177
910.378	-486
910.478	-408
910.579	-162
910.679	-652
910.779	-198
910.879	-450
910.980	-530
911.080	-769
911.180	-812
911.280	-1235
911.380	-423
911.480	-663
911.580	-471
911.680	-666
911.780	-870
911.880	-475
911.980	-100
912.080	33
912.180	-896
912.280	401
912.380	-94
912.480	-1103
912.580	-780
912.679	-1416
912.779	12
912.879	-848
912.979	191
913.078	-1046
913.178	-941
913.278	-269
913.377	-447
913.477	-857
913.577	-849
913.676	-121
913.776	-263
913.875	-247
913.975	-974
914.074	-382
914.174	-203
914.273	-1119
914.373	-194
914.472	-95
914.572	-668
914.671	-829
914.770	-852
914.870	-684
914.969	-678
915.068	-1134
915.167	-1078
915.267	-1350
915.366	-1146
915.465	-788
915.564	-748
915.663	-92
915.763	-645
915.862	-500
915.961	7
916.060	-1480
916.159	-634
916.258	-479
916.357	-1295
916.456	19
916.555	-767
916.654	-900
916.752	-792
916.851	-1019
916.950	94
917.049	-656
917.148	-264
917.247	-632
917.345	-115
917.444	-490
917.543	-231
917.642	-452
917.740	-1071
917.839	-672
917.937	-678
918.036	-222
918.135	-550
918.233	-789
918.332	-745
918.430	-324
918.529	-816
918.627	-243
918.726	-769
918.824	-403
918.923	-368
919.021	-138
919.119	-263
919.218	-1252
919.316	-246
919.414	-480
919.512	-1250
919.611	-546
919.709	-434
919.807	-731
919.905	-668
920.003	-679
920.102	-627
920.200	-643
920.298	-91
920.396	229
920.494	-486
920.592	-1066
920.690	-694
920.788	-562
920.886	-664
920.984	-363
921.082	-72
921.180	-651
921.277	-429
921.375	90
921.473	-901
921.571	-881
921.669	-69
921.766	-1076
921.864	-385
921.962	203
922.060	-763
922.157	-535
922.255	-223
922.352	-69
922.450	-83
922.548	26
922.645	-686
922.743	-383
922.840	-158
922.938	392
923.035	-797
923.133	131
923.230	-669
923.327	295
923.425	559
923.522	-256
923.619	-213
923.717	-364
923.814	-506
923.911	-283
924.008	-505
924.106	396
924.203	-220
924.300	-636
924.397	-233
924.494	274
924.591	-507
924.688	-811
924.786	-68
924.883	-326
924.979	-759
925.077	200
925.173	-357
925.270	419
925.367	-672
925.464	174
925.561	419
925.658	-371
925.755	-1153
925.852	425
925.948	-99
926.045	-394
926.142	548
926.239	8
926.335	-2
926.432	-81
926.529	0
926.625	670
926.722	-420
926.818	-26
926.915	-19
927.011	-313
927.108	-203
927.204	-450
927.301	-582
927.397	-100
927.494	-453
927.590	407
927.687	-63
927.783	123
927.879	-94
927.976	-1022
928.072	-281
928.168	-1099
928.264	-974
928.361	-255
928.457	-799
928.553	-55
928.649	-845
928.745	166
928.841	-274
928.937	-634
929.033	-60
929.129	307
929.225	-852
929.321	-51
929.417	-572
929.513	-717
929.609	-544
929.705	-923
929.801	-750
929.897	-910
929.993	-500
930.089	-361
930.184	-1357
930.280	-573
930.376	-227
930.471	-604
930.567	-865
930.663	-799
930.758	-433
930.854	-1473
930.950	-690
931.045	-579
931.141	-637
931.236	-655
931.332	-727
931.427	-909
931.523	-104
931.618	-847
931.714	-864
931.809	-229
931.905	-792
932.000	-704
932.095	-974
932.191	-203
932.286	-336
932.381	-637
932.476	-1533
932.572	-1029
932.667	-879
932.762	-858
932.857	-870
932.952	-420
933.047	-262
933.142	-560
933.237	-747
933.332	-487
933.427	-321
933.522	-290
933.617	-608
933.712	-1306
933.807	-1390
933.902	-851
933.997	-626
934.092	-176
934.187	126
934.282	123
934.376	-1151
934.471	-1405
934.566	-1051
934.661	-579
934.755	-441
934.850	-965
934.945	-176
935.039	-899
935.134	-1365
935.228	-480
935.323	-1132
935.417	-775
935.512	-1678
935.606	-727
935.701	-1106
935.795	-705
935.890	-1143
935.984	-1115
936.079	-163
936.173	-1122
936.267	-706
936.362	-1477
936.456	-1126
936.550	-481
936.644	-883
936.738	-560
936.833	-499
936.927	-456
937.021	-1244
937.115	-1444
937.209	-1477
937.303	-512
937.397	-882
937.491	-596
937.585	-929
937.679	-1375
937.773	-510
937.867	-929
937.961	-1057
938.055	-591
938.149	-281
938.243	-633
938.337	-1306
938.430	-124
938.524	-451
938.618	-83
938.712	-427
938.805	-472
938.899	-901
938.993	-665
939.086	-557
939.180	-181
939.274	-474
939.367	-712
939.461	-1131
939.554	-677
939.648	-910
939.741	-459
939.835	-645
939.928	-1306
940.022	-737
940.115	-589
940.208	155
940.302	-840
940.395	-884
940.488	-1127
940.582	-221
940.675	-869
940.768	-732
940.861	-819
940.954	-467
941.048	-980
941.141	-1028
941.234	-820
941.327	-1286
941.420	311
941.513	-813
941.606	-471
941.699	-687
941.792	-380
941.885	-985
941.978	-610
942.071	-657
942.164	-1706
942.257	-828
942.349	-1053
942.442	-628
942.535	-1286
942.628	-1304
942.721	-1207
942.813	-1874
942.906	-10
942.999	-765
943.091	-1108
943.184	-1908
943.277	-1089
943.369	-1085
943.462	-275
943.554	-620
943.647	-1601
943.739	-753
943.832	-679
943.924	-1165
944.017	37
944.109	-2072
944.201	-1249
944.294	-725
944.386	-826
944.478	-1319
944.571	-1204
944.663	-980
944.755	-829
944.847	-597
944.940	-1224
945.032	-953
945.124	-1098
945.216	-43
945.308	-998
945.400	-700
945.492	27
945.584	-954
945.676	-848
945.768	-959
945.860	-677
945.952	-1009
946.044	-1186
946.136	-982
946.228	-724
946.320	-1255
946.412	-882
946.503	-1285
946.595	-183
946.687	-441
946.779	-880
946.870	-516
946.962	-1742
947.054	-1341
947.145	-525
947.237	-1264
947.329	-693
947.420	-391
947.512	-666
947.603	-1093
947.695	-470
947.786	-1397
947.878	-1043
947.969	-598
948.061	-609
948.152	-980
948.243	-961
948.335	-1016
948.426	-1446
948.517	-1112
948.609	-1576
948.700	-832
948.791	-1405
948.882	-996
948.973	-1155
949.065	-930
949.156	-753
949.247	-1869
949.338	-908
949.429	-1235
949.520	-914
949.611	-1419
949.702	-613
949.793	-694
949.884	-964
949.975	-1305
950.066	-1662
950.157	-1362
950.247	-975
950.338	-1076
950.429	-1014
950.520	-1088
950.611	-1132
950.701	-3
950.792	-521
950.883	163
950.973	-1295
951.064	-1098
951.155	-1227
951.245	-183
951.336	-1196
951.427	-2029
951.517	-531
951.608	-972
951.698	-1878
951.788	-1139
951.879	-687
951.969	-1437
952.060	-1376
952.150	-1207
952.240	-30
952.331	-2267
952.421	498
952.511	-1660
952.602	-1316
952.692	-864
952.782	-1031
952.872	-1038
952.962	-1334
953.052	-908
953.143	-1524
953.233	-433
953.323	304
953.413	-1819
953.503	0
953.593	-1489
953.683	-975
953.773	-1871
953.863	-931
953.953	-1132
954.042	-1163
954.132	-945
954.222	-1071
954.312	-830
954.402	-927
954.492	-421
954.581	-863
954.671	-957
954.761	-1963
954.850	-533
954.940	-1132
955.030	-1030
955.119	-1444
955.209	-494
955.298	-714
955.388	-1200
955.477	-223
955.567	-1738
955.656	-322
955.746	-290
955.835	-1468
955.925	-1218
956.014	-414
956.103	-817
956.193	-1091
956.282	-882
956.371	-796
956.461	-951
956.550	-845
956.639	-987
956.728	-1250
956.817	-1441
956.906	-1139
956.995	-908
957.085	-811
957.174	-511
957.263	-1122
957.352	-1285
957.441	-999
957.530	-1327
957.619	-544
957.708	-1074
957.796	-1448
957.885	-359
957.974	-754
958.063	-520
958.152	-1713
958.241	-1205
958.329	-865
958.418	-1069
958.507	-453
958.596	-408
958.684	-1967
958.773	-365
958.861	-1274
958.950	-659
959.039	-1512
959.127	-927
959.216	-784
959.304	-1425
959.393	-1106
959.481	-1068
959.570	-993
959.658	-1240
959.746	-911
959.835	-1336
959.923	-1392
960.011	-1241
960.100	-602
960.188	-880
960.276	-1307
960.365	-223
960.453	-1384
960.541	-1220
960.629	-1184
960.717	-1535
960.805	-2104
960.893	-609
960.981	-1273
961.069	114
961.158	-197
961.245	-316
961.333	-231
961.421	-1483
961.509	-746
961.597	-617
961.685	-989
961.773	-932
961.861	-822
961.949	-1257
962.036	-808
962.124	-93
962.212	-698
962.299	-1024
962.387	-1408
962.475	-452
962.562	-2245
962.650	-728
962.738	-794
962.825	-1212
962.913	-1050
963.000	-779
963.088	-1944
963.175	-674
963.263	-507
963.350	-2029
963.438	-980
963.525	-2113
963.612	-648
963.700	-1347
963.787	-625
963.874	-1233
963.962	-1238
964.049	-592
964.136	-241
964.223	-1359
964.310	-551
964.398	-965
964.485	-1483
964.572	-561
964.659	192
964.746	-1696
964.833	-1024
964.920	-1714
965.007	-654
965.094	-1433
965.181	-1064
965.268	-420
965.355	-352
965.441	-949
965.528	-1203
965.615	-326
965.702	-886
965.789	-1038
965.875	-393
965.962	-1502
966.049	-2150
966.136	-1052
966.222	-1439
966.309	-809
966.395	-1414
966.482	-909
966.569	-1019
966.655	-1070
966.742	-1785
966.828	-1613
966.915	-1176
967.001	-1740
967.087	-1222
967.174	-1915
967.260	-1001
967.347	-680
967.433	-997
967.519	-255
967.605	-1015
967.692	-590
967.778	-2011
967.864	-1385
967.950	-1376
968.036	-1506
968.123	-1765
968.209	-1308
968.295	-1914
968.381	459
968.467	-580
968.553	-2191
968.639	-316
968.725	-979
968.811	-968
968.897	-1476
968.983	-739
969.069	-1904
969.154	-521
969.240	-955
969.326	-1530
969.412	-1307
969.497	-1405
969.583	-1904
969.669	-474
969.755	-1347
969.840	-1832
969.926	-838
970.012	-1196
970.097	-475
970.183	-1210
970.268	-719
970.354	-706
970.439	-1512
970.525	-457
970.610	-1932
970.696	-627
970.781	-1519
970.866	-1604
970.952	-643
971.037	-2401
971.122	-833
971.208	-864
971.293	-937
971.378	-1614
971.463	-1479
971.549	-975
971.634	-1167
971.719	-818
971.804	-1665
971.889	-695
971.974	-1804
972.059	-1318
972.144	-860
972.229	-1343
972.314	-2133
972.399	-1288
972.484	-1637
972.569	-957
972.654	-1919
972.739	-24
972.824	-2087
972.908	-1320
972.993	-1656
973.078	-935
973.163	-1385
973.247	-723
973.332	-1892
973.417	-578
973.501	-1424
973.586	-893
973.671	-987
973.755	-1498
973.840	-803
973.924	-177
974.009	-1366
974.093	-1763
974.178	-410
974.262	-1772
974.346	-1723
974.431	-1466
974.515	-1874
974.600	-979
974.684	-1045
974.768	-1571
974.852	-675
974.937	-2486
975.021	-996
975.105	-691
975.189	-1404
975.273	-289
975.358	-774
975.442	-1737
975.526	-1230
975.610	-2778
975.694	-2635
975.778	-862
975.862	-1075
975.946	-3260
976.030	428
976.114	-1584
976.198	-579
976.281	-984
976.365	-735
976.449	-2032
976.533	-336
976.617	-1431
976.700	-649
976.784	-1285
976.868	-1358
976.951	-1370
977.035	-903
977.119	-1255
977.202	-1126
977.286	-655
977.369	-922
977.453	-1264
977.536	-1763
977.620	-936
977.703	-1206
977.787	-2111
977.870	-1217
977.953	-339
978.037	-2358
978.120	-474
978.203	-1408
978.287	-1229
978.370	-1623
978.453	-1154
978.536	-1350
978.620	-343
978.703	-1290
978.786	-1235
978.869	-1939
978.952	-2169
979.035	-61
979.118	-1020
979.201	-1154
979.284	-392
979.367	-1533
979.450	-494
979.533	-2603
979.616	-1600
979.699	-1464
979.782	-867
979.865	-1324
979.948	-1509
980.030	-2020
980.113	-1137
980.196	-2080
980.279	-746
980.361	-1182
980.444	-1956
980.526	-1187
980.609	-505
980.692	-1537
980.774	-1115
980.857	-2355
980.939	-1117
981.022	-1852
981.104	-1363
981.187	-1198
981.269	-966
981.352	-662
981.434	-2273
981.516	-1893
981.599	-682
981.681	-561
981.763	-1183
981.846	-334
981.928	-1315
982.010	-1458
982.092	-1492
982.174	-718
982.256	-1416
982.339	-1298
982.421	-1813
982.503	-1574
982.585	-2060
982.667	-1029
982.749	-1892
982.831	-1036
982.913	-1972
982.995	-2
983.077	-1234
983.158	-1130
983.240	-1261
983.322	-566
983.404	-664
983.486	-2295
983.568	-1256
983.649	-1405
983.731	-682
983.813	-1652
983.894	-1236
983.976	-1730
984.058	-1168
984.139	99
984.221	-2087
984.302	-431
984.384	-1562
984.465	-2061
984.547	-800
984.628	-1911
984.710	-605
984.791	-1333
984.872	-1018
984.954	-1487
985.035	-807
985.116	-1971
985.198	-2350
985.279	-623
985.360	-1414
985.441	-1572
985.522	-85
985.604	-1821
985.685	-3025
985.766	-1099
985.847	148
985.928	-766
986.009	-1425
986.090	-1782
986.171	-1527
986.252	-2053
986.333	-1627
986.414	-2122
986.495	-1060
986.576	-1408
986.656	-977
986.737	-1023
986.818	-1510
986.899	-2186
986.980	-1137
987.060	-129
987.141	-1575
987.222	-739
987.302	-1522
987.383	-1140
987.464	-1187
987.544	-567
987.625	-2113
987.705	-184
987.786	-1294
987.866	-1209
987.947	-1595
988.027	-1713
988.108	-1549
988.188	-1194
988.268	-1303
988.349	-1632
988.429	-1817
988.509	-936
988.589	-1168
988.670	-3016
988.750	-630
988.830	-352
988.910	-1595
988.990	-1299
989.070	-1225
989.151	-1114
989.231	-2328
989.311	-1360
989.391	-929
989.471	-1222
989.551	-1495
989.631	-2063
989.711	-353
989.791	-1570
989.870	-2200
989.950	-686
990.030	-1966
990.110	-1494
990.190	-1621
990.269	-1226
990.349	-1808
990.429	-782
990.509	-1020
990.588	-1389
990.668	-301
990.747	-1402
990.827	-1357
990.907	-922
990.986	-1579
991.066	-1458
991.145	-1349
991.225	-937
991.304	-1387
991.383	-1197
991.463	-1021
991.542	-1560
991.622	-1745
991.701	-1704
991.780	-1768
991.859	-1645
991.939	-1403
992.018	-1913
992.097	-1166
992.176	-1010
992.256	-442
992.335	-2044
992.414	-995
992.493	-2223
992.572	-1188
992.651	-292
992.730	-1729
992.809	-1482
992.888	-2093
992.967	-1601
993.046	-1403
993.125	-1519
993.203	-1732
993.282	-1580
993.361	-1792
993.440	-1862
993.519	-1668
993.597	-1219
993.676	-1855
993.755	-532
993.834	-1059
993.912	-2310
993.991	-563
994.069	-2777
994.148	-899
994.226	-1876
994.305	-708
994.384	-1542
994.462	-392
994.540	-2121
994.619	-1973
994.697	-937
994.776	-1877
994.854	-891
994.932	-2057
995.011	-1158
995.089	-1511
995.167	-1331
995.245	-890
995.324	-2222
995.402	-701
995.480	-1757
995.558	-758
995.636	-2092
995.714	-1777
995.792	-313
995.870	-1837
995.948	-1078
996.026	-1887
996.104	-1168
996.182	-1300
996.260	-2022
996.338	-1293
996.416	-2568
996.494	-1936
996.572	-1115
996.649	-1606
996.727	-1802
996.805	-658
996.883	-2271
996.960	-934
997.038	-686
997.116	-870
997.193	-2066
997.271	-1030
997.348	-2190
997.426	-154
997.504	-1740
997.581	-501
997.658	-1076
997.736	-1796
997.813	-1660
997.891	-540
997.968	-1730
998.046	-969
998.123	-2807
998.200	-1130
998.277	-2409
998.355	-504
998.432	-2121
998.509	-1191
998.586	-1582
998.663	-1390
998.741	-1257
998.818	-1471
998.895	-2071
998.972	-1296
999.049	-1915
999.126	-2150
999.203	-561
999.280	-1941
999.357	-1899
999.434	-1504
999.511	-1318
999.587	-1644
999.664	-1493
999.741	-1991
999.818	-1684
999.895	-2384
999.971	-2741
1000.048	-1731
1000.125	-920
1000.202	-1742
1000.278	-1673
1000.355	-1177
1000.431	-1771
1000.508	-1963
1000.584	-1846
1000.661	-1697
1000.738	-2453
1000.814	-2087
1000.890	-1640
1000.967	-1776
1001.043	-898
1001.120	-1941
1001.196	-1308
1001.272	-2355
1001.349	-1450
1001.425	-1495
1001.501	-1747
1001.577	-1601
1001.654	-1603
1001.730	-2067
1001.806	-1393
1001.882	-2283
1001.958	-681
1002.034	-1447
1002.110	-1530
1002.186	-1830
1002.262	-2124
1002.338	-2318
1002.414	-1235
1002.490	-1009
1002.566	-2186
1002.642	-1445
1002.718	-1102
1002.794	-1809
1002.870	-1945
1002.945	-1439
1003.021	-1982
1003.097	-1519
1003.173	-1443
1003.248	-1649
1003.324	-2101
1003.400	-1148
1003.475	-1859
1003.551	-1868
1003.626	-1803
1003.702	-2726
1003.777	-1346
1003.853	-1621
1003.928	-1920
1004.004	-1732
1004.079	-2144
1004.155	-1671
1004.230	-2093
1004.305	-1448
1004.381	-2794
1004.456	-1269
1004.531	-2275
1004.607	-1617
1004.682	-1990
1004.757	-2110
1004.832	-1939
1004.907	-2215
1004.982	-1625
1005.057	-2419
1005.133	-2037
1005.208	-973
1005.283	-2332
1005.358	-519
1005.433	-2067
1005.508	-2100
1005.583	-2425
1005.657	-1898
1005.732	-1478
1005.807	-2351
1005.882	-1730
1005.957	-2066
1006.032	-1702
1006.106	-1424
1006.181	-1786
1006.256	-2169
1006.331	-2470
1006.405	-825
1006.480	-1375
1006.554	-2163
1006.629	-1662
1006.704	-1514
1006.778	-1957
1006.853	-782
1006.927	-2180
1007.002	-2716
1007.076	-2001
1007.150	-1760
1007.225	-2147
1007.299	-1877
1007.373	-2761
1007.448	-1824
1007.522	-1515
1007.596	-1684
1007.671	-2534
1007.745	-1518
1007.819	-2109
1007.893	-2327
1007.967	-1753
1008.041	-2087
1008.115	-1143
1008.190	-1971
1008.264	-1014
1008.338	-2627
1008.412	-1929
1008.486	-2324
1008.560	-1745
1008.633	-2527
1008.707	-2208
1008.781	-1768
1008.855	-1752
1008.929	-1260
1009.003	-1838
1009.076	-2021
1009.150	-1891
1009.224	-2101
1009.298	-1437
1009.371	-1941
1009.445	-1938
1009.519	-1313
1009.592	-2528
1009.666	-1728
1009.739	-1889
1009.813	-2868
1009.886	-1036
1009.960	-2170
1010.033	-1093
1010.107	-1818
1010.180	-2877
1010.253	-1818
1010.327	-2857
1010.400	-2095
1010.473	-1680
1010.547	-1124
1010.620	-1947
1010.693	-1567
1010.766	-1840
1010.840	-1661
1010.913	-2501
1010.986	-1850
1011.059	-2190
1011.132	-1968
1011.205	-1208
1011.278	-1590
1011.351	-1979
1011.424	-1744
1011.497	-1905
1011.570	-1901
1011.643	-2100
1011.716	-2292
1011.789	-2842
1011.862	-1679
1011.934	-2172
1012.007	-2696
1012.080	-1575
1012.153	-1483
1012.225	-1441
1012.298	-2423
1012.371	-2555
1012.443	-752
1012.516	-2205
1012.588	-2312
1012.661	-1756
1012.733	-1653
1012.806	-1741
1012.879	-1760
1012.951	-2006
1013.023	-2030
1013.096	-1956
1013.168	-2120
1013.241	-1057
1013.313	-1299
1013.385	-2114
1013.458	-1459
1013.530	-1877
1013.602	-1932
1013.674	-1967
1013.746	-1929
1013.819	-1794
1013.891	-1328
1013.963	-3081
1014.035	-973
1014.107	-2251
1014.179	-1371
1014.251	-2407
1014.323	-1578
1014.395	-1550
1014.467	-2168
1014.539	-2132
1014.611	-2767
1014.683	-1463
1014.754	-2050
1014.826	-2130
1014.898	-1651
1014.970	-2819
1015.042	-608
1015.113	-1645
1015.185	-1848
1015.257	-2943
1015.328	-1038
1015.400	-2189
1015.471	-1951
1015.543	-3103
1015.615	-1801
1015.686	-1968
1015.757	-2482
1015.829	-2089
1015.901	-1967
1015.972	-2722
1016.043	-2015
1016.115	-1741
1016.186	-2023
1016.257	-1998
1016.328	-2416
1016.400	-1860
1016.471	-2864
1016.542	-2472
1016.613	-1498
1016.685	-1647
1016.756	-1469
1016.827	-2796
1016.898	-2065
1016.969	-1170
1017.040	-1902
1017.111	-2338
1017.182	-1310
1017.253	-1800
1017.324	-2413
1017.395	-2183
1017.466	-1741
1017.537	-2161
1017.608	-1616
1017.678	-2185
1017.749	-1545
1017.820	-1304
1017.891	-1849
1017.961	-2610
1018.032	-2008
1018.103	-2057
1018.173	-1680
1018.244	-1830
1018.315	-1885
1018.385	-2071
1018.456	-1518
1018.526	-1792
1018.597	-1494
1018.667	-2040
1018.738	-2314
1018.808	-1683
1018.878	-1915
1018.949	-1878
1019.019	-1573
1019.089	-2223
1019.160	-1805
1019.230	-2675
1019.300	-1684
1019.371	-2979
1019.441	-2238
1019.511	-1686
1019.581	-1710
1019.651	-1507
1019.721	-2142
1019.791	-2489
1019.861	-1458
1019.931	-938
1020.001	-2486
1020.071	-1930
1020.141	-1555
1020.211	-1273
1020.281	-2266
1020.351	-1824
1020.421	-1393
1020.491	-1321
1020.560	-1828
1020.630	-2577
1020.700	-719
1020.770	-1619
1020.839	-1695
1020.909	-1733
1020.979	-2163
1021.048	-2649
1021.118	-1977
1021.187	-2430
1021.257	-1292
1021.326	-922
1021.396	-2593
1021.465	-1713
1021.535	-2447
1021.604	-2247
1021.674	-2641
1021.743	-2002
1021.812	-2610
1021.882	-1654
1021.951	-1296
1022.020	-1470
1022.089	-1718
1022.159	-1551
1022.228	-1976
1022.297	-2636
1022.366	-1608
1022.435	-1999
1022.504	-2152
1022.573	-2131
1022.642	-1412
1022.711	-2248
1022.781	-1513
1022.849	-2418
1022.918	-1903
1022.987	-1254
1023.056	-1651
1023.125	-2205
1023.194	-2008
1023.263	-1846
1023.331	-1233
1023.400	-2280
1023.469	-2598
1023.538	-1973
1023.606	-2982
1023.675	-1666
1023.744	-1674
1023.812	-2833
1023.881	-2125
1023.949	-1724
1024.018	-1994
1024.086	-1856
1024.155	-2101
1024.223	-2751
1024.292	-1852
1024.360	-1005
1024.429	-2665
1024.497	-2100
1024.565	-1843
1024.634	-1741
1024.702	-1116
1024.770	-2034
1024.838	-2822
1024.907	-2031
1024.975	-1662
1025.043	-1503
1025.111	-2116
1025.179	-2489
1025.247	-1209
1025.315	-1692
1025.383	-945
1025.451	-2363
1025.519	-1909
1025.587	-2018
1025.655	-1675
1025.723	-2100
1025.791	-1716
1025.859	-1935
1025.927	-1384
1025.995	-2671
1026.062	-2374
1026.130	-2381
1026.198	-2462
1026.266	-1894
1026.333	-1407
1026.401	-1368
1026.469	-1980
1026.536	-1982
1026.604	-2585
1026.671	-2594
1026.739	-1714
1026.806	-2417
1026.874	-2262
1026.941	-2325
1027.009	-1341
1027.076	-1936
1027.144	-1970
1027.211	-2188
1027.278	-1824
1027.345	-1641
1027.413	-1420
1027.480	-1882
1027.547	-1825
1027.614	-2308
1027.682	-1819
1027.749	-2205
1027.816	-2146
1027.883	-1861
1027.950	-1876
1028.017	-2520
1028.084	-1999
1028.151	-2913
1028.218	-2026
1028.285	-2053
1028.352	-2524
1028.419	-2364
1028.486	-2702
1028.553	-1259
1028.619	-2615
1028.686	-2026
1028.753	-2376
1028.820	-2834
1028.886	-2676
1028.953	-1893
1029.020	-2076
1029.086	-2627
1029.153	-2637
1029.220	-2203
1029.286	-2570
1029.353	-2219
1029.419	-2981
1029.486	-1897
1029.552	-2380
1029.619	-2600
1029.685	-2554
1029.751	-2161
1029.818	-1687
1029.884	-2457
1029.951	-933
1030.017	-2924
1030.083	-2145
1030.149	-1703
1030.216	-2313
1030.282	-1526
1030.348	-1904
1030.414	-2008
1030.480	-2156
1030.546	-2712
1030.612	-1840
1030.678	-2118
1030.744	-2415
1030.810	-2263
1030.876	-2492
1030.942	-1692
1031.008	-2003
1031.074	-2046
1031.140	-2031
1031.206	-1766
1031.272	-2395
1031.337	-2032
1031.403	-2144
1031.469	-1968
1031.534	-2368
1031.600	-1805
1031.666	-2387
1031.731	-2786
1031.797	-1353
1031.863	-2740
1031.928	-1928
1031.994	-2845
1032.059	-2226
1032.125	-2377
1032.190	-1849
1032.256	-2656
1032.321	-2590
1032.386	-1850
1032.452	-1518
1032.517	-2381
1032.582	-3133
1032.647	-2448
1032.713	-2703
1032.778	-1368
1032.843	-1658
1032.908	-1686
1032.974	-2012
1033.039	-2138
1033.104	-2077
1033.169	-2783
1033.234	-1864
1033.299	-2620
1033.364	-2462
1033.429	-1875
1033.494	-2374
1033.559	-2100
1033.624	-2332
1033.688	-1795
1033.753	-2993
1033.818	-2602
1033.883	-2402
1033.948	-2514
1034.013	-1573
1034.077	-2075
1034.142	-1620
1034.207	-2722
1034.271	-1002
1034.336	-1274
1034.400	-1868
1034.465	-2013
1034.530	-1549
1034.594	-2162
1034.658	-2904
1034.723	-2734
1034.787	-3217
1034.852	-2446
1034.916	-2710
1034.981	-2227
1035.045	-2317
1035.109	-2354
1035.173	-1527
1035.238	-2521
1035.302	-2239
1035.366	-2168
1035.430	-1987
1035.495	-2294
1035.559	-1374
1035.623	-2298
1035.687	-3387
1035.751	-2953
1035.815	-1864
1035.879	-1994
1035.943	-2279
1036.007	-2213
1036.071	-1641
1036.135	-2076
1036.198	-1799
1036.262	-2325
1036.326	-2330
1036.390	-2407
1036.454	-2687
1036.517	-2491
1036.581	-1520
1036.645	-2235
1036.709	-1971
1036.772	-2756
1036.836	-2656
1036.900	-2146
1036.963	-2852
1037.026	-2302
1037.090	-2485
1037.154	-2280
1037.217	-2182
1037.280	-3350
1037.344	-2466
1037.407	-2580
1037.471	-1529
1037.534	-2788
1037.597	-2332
1037.661	-2863
1037.724	-2088
1037.787	-2853
1037.850	-2008
1037.913	-1874
1037.977	-1847
1038.040	-3253
1038.103	-2416
1038.166	-2689
1038.229	-2737
1038.292	-2662
1038.355	-2642
1038.418	-1739
1038.481	-1419
1038.544	-2733
1038.607	-2772
1038.670	-2386
1038.732	-2188
1038.795	-2329
1038.858	-2335
1038.921	-2285
1038.984	-1714
1039.046	-2607
1039.109	-2636
1039.172	-2208
1039.234	-2807
1039.297	-2707
1039.360	-2790
1039.422	-2356
1039.485	-1690
1039.547	-2987
1039.610	-2582
1039.672	-3107
1039.734	-2095
1039.797	-2667
1039.859	-1773
1039.922	-2970
1039.984	-2433
1040.046	-2328
1040.109	-2757
1040.171	-2570
1040.233	-2433
1040.295	-2802
1040.358	-2455
1040.420	-2569
1040.482	-2621
1040.544	-2697
1040.606	-2190
1040.668	-2082
1040.730	-3094
1040.792	-2768
1040.854	-2557
1040.916	-2288
1040.978	-2920
1041.040	-1448
1041.102	-1824
1041.164	-2480
1041.225	-2564
1041.287	-3266
1041.349	-2464
1041.411	-2530
1041.472	-1977
1041.534	-2706
1041.596	-2829
1041.657	-2384
1041.719	-1739
1041.781	-2857
1041.842	-3429
1041.904	-3039
1041.965	-2261
1042.027	-2138
1042.088	-2997
1042.150	-2755
1042.211	-2119
1042.272	-2389
1042.334	-2712
1042.395	-2440
1042.456	-3194
1042.518	-2625
1042.579	-2228
1042.640	-2431
1042.701	-2596
1042.763	-2809
1042.824	-2197
1042.885	-2689
1042.946	-1931
1043.007	-2878
1043.068	-2841
1043.129	-3085
1043.190	-1853
1043.251	-2479
1043.312	-2516
1043.373	-2096
1043.434	-2480
1043.495	-3055
1043.556	-1777
1043.616	-2053
1043.677	-3295
1043.738	-2232
1043.799	-2745
1043.859	-2494
1043.920	-2696
1043.981	-2416
1044.041	-2665
1044.102	-2482
1044.162	-2668
1044.223	-2500
1044.284	-2050
1044.344	-2860
1044.405	-2118
1044.465	-2265
1044.525	-2535
1044.586	-2359
1044.646	-2631
1044.707	-1866
1044.767	-2251
1044.827	-3158
1044.887	-2413
1044.948	-2090
1045.008	-2120
1045.068	-1990
1045.128	-1956
1045.188	-2388
1045.249	-2190
1045.309	-2186
1045.369	-2115
1045.429	-1507
1045.489	-2700
1045.549	-2516
1045.609	-2420
1045.669	-2603
1045.729	-1800
1045.789	-1824
1045.848	-1293
1045.908	-1348
1045.968	-2094
1046.028	-1854
1046.088	-1760
1046.147	-1776
1046.207	-2485
1046.267	-2610
1046.326	-1152
1046.386	-1850
1046.446	-1916
1046.505	-1583
1046.565	-1470
1046.624	-1027
1046.684	-1285
1046.743	-1396
1046.803	-1076
1046.862	-1422
1046.922	0
