'Start Wavelength	183.907
'End Wavelength	1046.922
'Gate Delay	5.000
'Gate Width (ms)	1.050
'Laser Output Level	0.000
'X Position	0.000
'Y Position	0.000
'Z Position	0.000
'Grid Point Number	1.000
'Shot Number	100.000
183.907	-92.000
183.977	-100.000
184.047	404
184.116	1330
184.186	559
184.256	392
184.325	758
184.395	-473
184.465	-286
184.534	3
184.604	-473
184.674	345
184.743	-369
184.813	434
184.883	425
184.952	106
185.022	-229
185.092	479
185.161	-145
185.231	274
185.301	587
185.370	372
185.440	-208
185.509	400
185.579	-543
185.649	-176
185.718	110
185.788	650
185.857	-455
185.927	-368
185.996	-423
186.066	413
186.136	-135
186.205	297
186.275	207
186.344	565
186.414	23
186.483	197
186.553	22
186.622	786
186.692	222
186.761	821
186.831	393
186.900	-103
186.970	275
187.039	559
187.109	206
187.178	966
187.248	443
187.317	335
187.387	-196
187.456	564
187.526	608
187.595	556
187.664	304
187.734	40
187.803	67
187.873	964
187.942	-245
188.012	86
188.081	410
188.150	539
188.220	206
188.289	895
188.358	452
188.428	537
188.497	-47
188.567	254
188.636	110
188.705	713
188.775	741
188.844	-397
188.913	521
188.983	-589
189.052	-42
189.121	10
189.191	-27
189.260	1254
189.329	90
189.399	446
189.468	1086
189.537	99
189.606	311
189.676	970
189.745	581
189.814	339
189.883	-434
189.953	597
190.022	449
190.091	906
190.161	978
190.230	30
190.299	504
190.368	79
190.437	65
190.507	380
190.576	-168
190.645	247
190.714	437
190.783	362
190.853	61
190.922	1071
190.991	165
191.060	721
191.129	546
191.198	356
191.268	501
191.337	68
191.406	579
191.475	48
191.544	63
191.613	-18
191.682	-112
191.752	-251
191.821	-185
191.890	-41
191.959	70
192.028	224
192.097	470
192.166	416
192.235	-164
192.304	1350
192.373	577
192.442	144
192.511	294
192.580	304
192.650	270
192.719	-77
192.788	-155
192.857	758
192.926	-62
192.995	855
193.064	416
193.133	881
193.202	827
193.271	546
193.340	1176
193.409	173
193.478	620
193.547	1035
193.615	1518
193.684	1138
193.753	617
193.822	780
193.891	18
193.960	462
194.029	-221
194.098	659
194.167	-399
194.236	291
194.305	606
194.374	198
194.443	408
194.512	730
194.580	559
194.649	729
194.718	-543
194.787	-104
194.856	-166
194.925	264
194.994	-449
195.062	347
195.131	206
195.200	166
195.269	473
195.338	160
195.407	605
195.475	837
195.544	734
195.613	777
195.682	-318
195.751	470
195.819	504
195.888	999
195.957	680
196.026	498
196.094	504
196.163	349
196.232	806
196.301	639
196.369	524
196.438	969
196.507	238
196.576	-153
196.644	205
196.713	217
196.782	57
196.850	380
196.919	154
196.988	534
197.056	179
197.125	484
197.194	474
197.262	26
197.331	208
197.400	435
197.468	411
197.537	524
197.606	160
197.674	881
197.743	1337
197.812	-169
197.880	1056
197.949	1155
198.017	1058
198.086	445
198.155	551
198.223	659
198.292	1041
198.360	547
198.429	464
198.497	367
198.566	1062
198.635	1498
198.703	919
198.772	631
198.840	1137
198.909	1475
198.977	190
199.046	1434
199.114	1202
199.183	1582
199.251	388
199.320	-81
199.388	280
199.457	862
199.525	780
199.594	325
199.662	739
199.731	431
199.799	271
199.867	518
199.936	500
200.004	374
200.073	334
200.141	-102
200.210	795
200.278	301
200.346	418
200.415	266
200.483	872
200.552	573
200.620	46
200.688	538
200.757	1009
200.825	575
200.893	1023
200.962	636
201.030	632
201.098	441
201.167	614
201.235	577
201.303	357
201.372	885
201.440	1288
201.508	507
201.577	531
201.645	970
201.713	844
201.781	205
201.850	927
201.918	461
201.986	-226
202.055	1175
202.123	813
202.191	624
202.259	-99
202.327	635
202.396	1236
202.464	-329
202.532	576
202.600	2052
202.669	625
202.737	861
202.805	305
202.873	1155
202.941	1348
203.009	-248
203.078	653
203.146	144
203.214	54
203.282	418
203.350	708
203.418	683
203.487	256
203.555	572
203.623	601
203.691	216
203.759	491
203.827	502
203.895	205
203.963	140
204.031	-476
204.099	670
204.168	213
204.236	1033
204.304	134
204.372	260
204.440	538
204.508	273
204.576	491
204.644	1464
204.712	-5
204.780	389
204.848	645
204.916	985
204.984	131
205.052	968
205.120	443
205.188	1128
205.256	380
205.324	-15
205.392	420
205.460	1065
205.528	523
205.596	897
205.664	354
205.732	601
205.799	1477
205.867	3107
205.935	710
206.003	1085
206.071	66
206.139	466
206.207	235
206.275	638
206.343	592
206.411	346
206.478	825
206.546	973
206.614	855
206.682	1467
206.750	421
206.818	642
206.885	457
206.953	547
207.021	1171
207.089	733
207.157	184
207.225	1292
207.292	403
207.360	647
207.428	1564
207.496	674
207.563	798
207.631	784
207.699	629
207.767	1148
207.834	583
207.902	861
207.970	406
208.038	1419
208.105	1128
208.173	434
208.241	1247
208.309	1005
208.376	1515
208.444	1690
208.512	584
208.579	516
208.647	534
208.715	1177
208.782	445
208.850	673
208.918	1181
208.985	661
209.053	974
209.120	1232
209.188	774
209.256	712
209.323	1396
209.391	1664
209.459	1047
209.526	1370
209.594	294
209.661	926
209.729	1379
209.796	1385
209.864	1288
209.932	1095
209.999	1470
210.067	1141
210.134	389
210.202	1325
210.269	1846
210.337	1061
210.404	511
210.472	1048
210.539	1152
210.607	1385
210.674	1058
210.742	972
210.809	515
210.877	1678
210.944	1526
211.012	652
211.079	1927
211.146	725
211.214	1138
211.281	987
211.349	1107
211.416	1516
211.484	490
211.551	643
211.618	331
211.686	837
211.753	870
211.821	1410
211.888	1241
211.955	1664
212.023	1536
212.090	1392
212.157	1429
212.225	782
212.292	2073
212.359	5328
212.427	7513
212.494	3681
212.561	1540
212.629	1183
212.696	1353
212.763	1260
212.831	731
212.898	1706
212.965	1362
213.032	1356
213.100	996
213.167	1353
213.234	1046
213.301	989
213.369	605
213.436	1864
213.503	1143
213.570	1879
213.638	812
213.705	36
213.772	884
213.839	1405
213.906	638
213.973	1408
214.041	1429
214.108	1458
214.175	925
214.242	1480
214.309	1659
214.376	1451
214.444	597
214.511	1719
214.578	1319
214.645	1667
214.712	1761
214.779	2149
214.846	1313
214.913	1928
214.980	1527
215.048	2302
215.115	2285
215.182	2151
215.249	1822
215.316	739
215.383	1235
215.450	1346
215.517	1231
215.584	1726
215.651	248
215.718	1709
215.785	1368
215.852	1290
215.919	1526
215.986	1718
216.053	1513
216.120	1152
216.187	1103
216.254	1530
216.321	1273
216.388	1477
216.455	1649
216.522	1943
216.589	1826
216.656	2068
216.722	2271
216.789	2226
216.856	2051
216.923	1768
216.990	2211
217.057	1979
217.124	2059
217.191	1776
217.258	2269
217.324	3172
217.391	3488
217.458	2734
217.525	1698
217.592	1092
217.659	1426
217.725	1141
217.792	1564
217.859	2270
217.926	1130
217.993	1330
218.059	936
218.126	1713
218.193	837
218.260	486
218.327	756
218.393	551
218.460	1524
218.527	1880
218.594	642
218.660	1797
218.727	2569
218.794	1243
218.860	1175
218.927	1019
218.994	221
219.061	870
219.127	927
219.194	1733
219.261	821
219.327	828
219.394	904
219.461	394
219.527	659
219.594	1549
219.661	1824
219.727	144
219.794	2004
219.860	676
219.927	701
219.994	1430
220.060	2702
220.127	1945
220.193	2092
220.260	1815
220.326	2967
220.393	4832
220.460	5123
220.526	3605
220.593	3133
220.659	3366
220.726	2876
220.792	5507
220.859	5416
220.925	6697
220.992	8516
221.058	7805
221.125	7177
221.191	5293
221.258	2570
221.324	1790
221.391	1624
221.457	1380
221.524	1499
221.590	2666
221.657	6043
221.723	3875
221.789	3907
221.856	2602
221.922	1299
221.989	1666
222.055	988
222.121	1251
222.188	2274
222.254	1642
222.321	675
222.387	935
222.453	1108
222.520	1353
222.586	1031
222.652	1263
222.719	412
222.785	1421
222.851	494
222.918	1494
222.984	892
223.050	984
223.116	-60
223.183	882
223.249	768
223.315	755
223.382	919
223.448	1743
223.514	1343
223.580	424
223.647	-243
223.713	-174
223.779	833
223.845	863
223.911	1337
223.978	848
224.044	611
224.110	1413
224.176	1176
224.242	838
224.309	-142
224.375	816
224.441	706
224.507	424
224.573	589
224.639	1320
224.705	1061
224.772	613
224.838	788
224.904	1131
224.970	623
225.036	981
225.102	663
225.168	189
225.234	606
225.300	646
225.366	690
225.432	513
225.499	1315
225.565	1210
225.631	1009
225.697	1491
225.763	1594
225.829	2040
225.895	2429
225.961	2696
226.027	3316
226.093	2180
226.159	2812
226.225	5026
226.291	9989
226.357	11846
226.423	7719
226.489	4119
226.554	2689
226.620	3840
226.686	3166
226.752	5421
226.818	9088
226.884	15227
226.950	13016
227.016	6052
227.082	3959
227.148	2566
227.214	2737
227.279	1975
227.345	2105
227.411	2256
227.477	765
227.543	2689
227.609	2995
227.674	2050
227.740	1694
227.806	1532
227.872	912
227.938	1644
228.003	2840
228.069	1227
228.135	672
228.201	906
228.267	1313
228.332	1715
228.398	1410
228.464	1118
228.530	229
228.595	290
228.661	1078
228.727	1590
228.792	990
228.858	1025
228.924	857
228.990	2382
229.055	1270
229.121	1885
229.187	310
229.252	1125
229.318	919
229.384	1262
229.449	517
229.515	561
229.581	339
229.646	1448
229.712	1385
229.777	2593
229.843	1737
229.909	1791
229.974	2487
230.040	1982
230.105	1567
230.171	1589
230.236	2443
230.302	3329
230.368	2778
230.433	1824
230.499	1524
230.564	2142
230.630	2307
230.695	2007
230.761	2243
230.826	950
230.892	2179
230.957	608
231.023	1142
231.088	2167
231.154	611
231.219	2076
231.284	1604
231.350	1622
231.415	1797
231.481	1283
231.546	1367
231.612	1844
231.677	74
231.742	282
231.808	2502
231.873	767
231.939	-38
232.004	2178
232.069	1178
232.135	1231
232.200	1554
232.265	497
232.331	427
232.396	997
232.461	627
232.527	726
232.592	492
232.657	674
232.723	1328
232.788	741
232.853	954
232.918	133
232.984	866
233.049	199
233.114	770
233.179	2155
233.245	2411
233.310	2513
233.375	811
233.440	942
233.506	1808
233.571	639
233.636	1339
233.701	1031
233.766	723
233.832	1215
233.897	1337
233.962	511
234.027	890
234.092	995
234.157	545
234.222	983
234.288	1577
234.353	5043
234.418	3730
234.483	2985
234.548	2740
234.613	2329
234.678	2535
234.743	2757
234.808	4783
234.873	3371
234.938	2796
235.004	1722
235.069	1476
235.134	1753
235.199	1613
235.264	1042
235.329	929
235.394	2106
235.459	1678
235.524	1758
235.589	1565
235.654	1065
235.719	1669
235.784	1626
235.849	1898
235.913	2864
235.978	2744
236.043	2597
236.108	2363
236.173	947
236.238	2431
236.303	1482
236.368	1492
236.433	2991
236.498	3786
236.563	4081
236.627	8410
236.692	21654
236.757	16235
236.822	7311
236.887	4845
236.952	4209
237.017	3512
237.081	4185
237.146	5264
237.211	13221
237.276	21904
237.341	27191
237.405	14413
237.470	7265
237.535	4962
237.600	3565
237.664	2971
237.729	2417
237.794	3418
237.859	7264
237.923	4213
237.988	2649
238.053	2696
238.118	2828
238.182	6487
238.247	5615
238.312	1724
238.376	2644
238.441	988
238.506	2584
238.570	1160
238.635	2505
238.700	1692
238.764	1163
238.829	3831
238.893	3293
238.958	2298
239.023	1870
239.087	1279
239.152	2583
239.216	552
239.281	1063
239.346	1445
239.410	987
239.475	1833
239.539	6851
239.604	3861
239.668	2705
239.733	1403
239.797	1951
239.862	2958
239.926	5162
239.991	1697
240.055	2215
240.120	1817
240.184	1689
240.249	999
240.313	1231
240.378	1746
240.442	4327
240.507	4453
240.571	2637
240.635	2055
240.700	2568
240.764	1267
240.829	1097
240.893	759
240.957	1590
241.022	4223
241.086	5302
241.151	2601
241.215	694
241.279	2272
241.344	2949
241.408	2059
241.472	1051
241.537	2916
241.601	2308
241.665	2087
241.730	1654
241.794	2512
241.858	2300
241.922	2113
241.987	2117
242.051	1579
242.115	1671
242.179	2417
242.244	1646
242.308	2182
242.372	1993
242.436	2211
242.501	1859
242.565	1222
242.629	1185
242.693	2093
242.757	1046
242.822	2112
242.886	2049
242.950	1962
243.014	1545
243.078	1275
243.142	1228
243.206	1601
243.271	2201
243.335	2782
243.399	4091
243.463	13660
243.527	25098
243.591	7495
243.655	3425
243.719	2488
243.783	3190
243.847	4408
243.911	4789
243.975	4462
244.040	2604
244.104	3081
244.168	2778
244.232	2290
244.296	4180
244.360	4513
244.424	1849
244.488	1963
244.552	2512
244.615	823
244.679	1882
244.743	1723
244.807	1586
244.871	1226
244.935	1848
244.999	725
245.063	1625
245.127	2747
245.191	3081
245.255	2062
245.319	2417
245.383	1217
245.446	2860
245.510	323
245.574	1696
245.638	1989
245.702	1885
245.766	4166
245.829	3253
245.893	1782
245.957	1429
246.021	1873
246.085	2067
246.149	2430
246.212	5765
246.276	6869
246.340	3625
246.404	2630
246.467	3245
246.531	3464
246.595	2848
246.659	2212
246.722	1230
246.786	2963
246.850	3436
246.913	2703
246.977	1615
247.041	1682
247.104	1200
247.168	2587
247.232	5648
247.295	9432
247.359	4333
247.423	2649
247.486	4407
247.550	2080
247.614	1666
247.677	3675
247.741	1995
247.804	2058
247.868	4024
247.932	5218
247.995	8230
248.059	2512
248.122	1416
248.186	3284
248.249	6182
248.313	17002
248.376	15046
248.440	9375
248.503	3433
248.567	4011
248.630	5340
248.694	6301
248.757	9720
248.821	16938
248.884	10221
248.948	9266
249.011	13697
249.075	19361
249.138	15507
249.202	6795
249.265	4437
249.328	5550
249.392	3938
249.455	4583
249.519	3110
249.582	3729
249.645	6472
249.709	4761
249.772	3562
249.835	3348
249.899	3035
249.962	3610
250.025	2395
250.089	7589
250.152	8175
250.215	4133
250.279	4264
250.342	4077
250.405	4189
250.468	3393
250.532	4789
250.595	8977
250.658	30574
250.721	36590
250.785	13607
250.848	8939
250.911	4998
250.974	4938
251.038	8229
251.101	10442
251.164	5707
251.227	6735
251.290	6746
251.354	12087
251.417	39647
251.480	30883
251.543	29915
251.606	66013
251.669	41953
251.732	19207
251.795	17996
251.859	20236
251.922	41558
251.985	20813
252.048	10127
252.111	6986
252.174	5736
252.237	11484
252.300	20372
252.363	28272
252.426	46838
252.489	17677
252.552	10637
252.615	7243
252.678	8896
252.741	16749
252.804	28602
252.867	50266
252.930	26836
252.993	14357
253.056	9450
253.119	6533
253.182	6455
253.245	9890
253.308	6737
253.371	5678
253.434	4419
253.497	5275
253.559	9791
253.622	6048
253.685	6644
253.748	6097
253.811	3868
253.874	5714
253.937	4137
254.000	4126
254.062	7627
254.125	9019
254.188	10981
254.251	6207
254.314	3415
254.376	6882
254.439	6656
254.502	5420
254.565	7094
254.628	10453
254.690	5370
254.753	2922
254.816	2471
254.878	3751
254.941	6495
255.004	5542
255.067	3015
255.129	2109
255.192	1894
255.255	877
255.317	1962
255.380	1541
255.443	959
255.505	933
255.568	1139
255.631	1603
255.693	1764
255.756	454
255.819	1675
255.881	1042
255.944	500
256.006	1086
256.069	1174
256.132	627
256.194	2416
256.257	4910
256.319	3387
256.382	2676
256.444	3192
256.507	2123
256.569	1986
256.632	2831
256.694	4315
256.757	16076
256.819	34350
256.882	12858
256.944	5728
257.007	4293
257.069	4447
257.132	3280
257.194	2922
257.257	2171
257.319	2222
257.381	3646
257.444	12036
257.506	42092
257.569	37058
257.631	14253
257.693	8432
257.756	4969
257.818	4412
257.880	2813
257.943	2978
258.005	2354
258.067	2292
258.130	2497
258.192	2991
258.254	3976
258.317	2386
258.379	2164
258.441	6125
258.503	5135
258.566	7073
258.628	7287
258.690	2432
258.753	2813
258.815	4593
258.877	2591
258.939	3004
259.001	2578
259.064	2480
259.126	2000
259.188	2349
259.250	1856
259.312	3533
259.375	4695
259.437	2675
259.499	1950
259.561	1201
259.623	2725
259.685	2471
259.747	2850
259.809	7295
259.872	9422
259.934	18375
259.996	14685
260.058	4107
260.120	2127
260.182	2406
260.244	1566
260.306	1919
260.368	1420
260.430	1827
260.492	5487
260.554	7069
260.616	3875
260.678	10327
260.740	8425
260.802	3237
260.864	2494
260.926	1532
260.988	2935
261.050	3167
261.112	8276
261.174	16076
261.236	7590
261.298	3255
261.359	5373
261.421	5813
261.483	1815
261.545	2283
261.607	1138
261.669	1952
261.731	3983
261.793	7489
261.854	1739
261.916	2259
261.978	2691
262.040	3574
262.102	2257
262.164	2366
262.225	1782
262.287	1727
262.349	4861
262.411	2683
262.472	1493
262.534	3891
262.596	4930
262.658	1861
262.719	634
262.781	2557
262.843	5643
262.904	2396
262.966	2178
263.028	3249
263.090	19321
263.151	36227
263.213	10808
263.275	6438
263.336	2573
263.398	2809
263.459	1141
263.521	1563
263.583	4579
263.644	2734
263.706	802
263.767	1061
263.829	1177
263.891	672
263.952	544
264.014	1230
264.075	4170
264.137	8929
264.198	2825
264.260	1008
264.321	1550
264.383	5938
264.444	12954
264.506	3663
264.567	2448
264.629	7369
264.690	11815
264.752	3909
264.813	2622
264.875	1348
264.936	2179
264.998	1247
265.059	90
265.120	2126
265.182	3646
265.243	23188
265.305	17226
265.366	4245
265.427	2547
265.489	1819
265.550	638
265.611	1766
265.673	1554
265.734	1233
265.795	1749
265.857	1527
265.918	1533
265.979	8039
266.040	33725
266.102	22673
266.163	7238
266.224	5601
266.286	2105
266.347	1577
266.408	1969
266.469	1537
266.530	1056
266.592	1526
266.653	4145
266.714	4691
266.775	948
266.836	1089
266.898	1246
266.959	2277
267.020	1150
267.081	1591
267.142	868
267.203	1663
267.264	543
267.326	1070
267.387	469
267.448	712
267.509	1110
267.570	342
267.631	287
267.692	723
267.753	1121
267.814	558
267.875	3066
267.936	6957
267.997	5555
268.058	3781
268.119	1627
268.180	1626
268.241	774
268.302	1055
268.363	542
268.424	869
268.485	1472
268.546	607
268.607	297
268.668	662
268.729	423
268.790	477
268.851	1025
268.912	3883
268.972	3500
269.033	1831
269.094	-82
269.155	1117
269.216	688
269.277	1618
269.338	182
269.398	803
269.459	831
269.520	2545
269.581	2684
269.642	1994
269.702	1921
269.763	1833
269.824	1530
269.885	1913
269.945	2405
270.006	388
270.067	-11
270.128	1012
270.188	110
270.249	1338
270.310	452
270.370	1302
270.431	1190
270.492	805
270.553	1340
270.613	2726
270.674	4974
270.734	1799
270.795	1440
270.856	2337
270.916	486
270.977	1105
271.038	1199
271.098	1299
271.159	2833
271.219	1340
271.280	1881
271.340	1432
271.401	1427
271.462	3071
271.522	1517
271.583	1077
271.643	1233
271.704	1628
271.764	1683
271.825	5197
271.885	16955
271.946	17492
272.006	5628
272.066	10233
272.127	14159
272.187	3667
272.248	2722
272.308	2771
272.369	10557
272.429	4599
272.489	4807
272.550	3457
272.610	4599
272.671	2089
272.731	3550
272.791	3610
272.852	1398
272.912	2420
272.972	1543
273.033	1761
273.093	1917
273.153	2812
273.214	700
273.274	2193
273.334	10406
273.394	13978
273.455	4870
273.515	6447
273.575	12556
273.635	4574
273.696	8535
273.756	12871
273.816	4215
273.876	2970
273.936	7007
273.997	9432
274.057	2538
274.117	1819
274.177	4470
274.237	21186
274.297	13492
274.358	7969
274.418	11220
274.478	6961
274.538	2906
274.598	2346
274.658	8769
274.718	8744
274.778	3466
274.838	1961
274.898	5679
274.958	13536
275.018	13975
275.078	7129
275.138	3032
275.198	1523
275.258	1407
275.318	2509
275.378	3607
275.438	3946
275.498	3315
275.558	8256
275.618	14260
275.678	7873
275.738	6215
275.798	5707
275.858	2344
275.918	1050
275.978	2687
276.038	1660
276.098	1177
276.157	3904
276.217	9534
276.277	3582
276.337	2761
276.397	1710
276.457	1761
276.517	1712
276.576	577
276.636	745
276.696	2455
276.756	6457
276.815	3391
276.875	1237
276.935	2041
276.995	1530
277.055	1872
277.114	1599
277.174	2834
277.234	7499
277.293	2417
277.353	2054
277.413	586
277.472	855
277.532	1507
277.592	1421
277.651	6118
277.711	8250
277.771	2718
277.830	14193
277.890	8262
277.950	8838
278.009	20876
278.069	7086
278.128	7809
278.188	8770
278.248	4291
278.307	11535
278.367	5580
278.426	2510
278.486	1345
278.545	785
278.605	1471
278.664	1546
278.724	1488
278.783	6860
278.843	13166
278.902	3711
278.962	1840
279.021	2079
279.081	3420
279.140	3625
279.199	3131
279.259	3800
279.318	1512
279.378	3888
279.437	7106
279.496	25992
279.556	70708
279.615	36890
279.675	11261
279.734	7029
279.793	11843
279.853	15869
279.912	6508
279.971	3219
280.031	2588
280.090	7567
280.149	10335
280.208	12091
280.268	51875
280.327	33717
280.386	8424
280.445	8161
280.505	6205
280.564	3728
280.623	2648
280.682	4779
280.742	6757
280.801	2390
280.860	1563
280.919	1606
280.978	950
281.037	1507
281.097	370
281.156	1464
281.215	988
281.274	2512
281.333	10320
281.392	5825
281.451	1103
281.510	851
281.569	915
281.628	792
281.688	1332
281.747	1400
281.806	1019
281.865	1210
281.924	260
281.983	748
282.042	158
282.101	578
282.160	749
282.219	917
282.278	701
282.337	5438
282.396	1971
282.454	1106
282.513	2472
282.572	8710
282.631	3347
282.690	847
282.749	314
282.808	1799
282.867	1257
282.926	1019
282.985	90
283.043	207
283.102	1076
283.161	1534
283.220	5413
283.279	8713
283.338	1947
283.396	606
283.455	1310
283.514	1355
283.573	1910
283.631	1663
283.690	1237
283.749	1597
283.808	3551
283.866	3927
283.925	1180
283.984	1229
284.043	1753
284.101	1518
284.160	691
284.219	2457
284.277	1630
284.336	2690
284.395	11794
284.453	7978
284.512	2575
284.570	4381
284.629	3870
284.688	2441
284.746	2890
284.805	3242
284.863	4283
284.922	4897
284.981	5825
285.039	10093
285.098	18785
285.156	46466
285.215	85310
285.273	78608
285.332	43009
285.390	21680
285.449	13537
285.507	8876
285.566	7091
285.624	4927
285.683	4460
285.741	3678
285.799	2262
285.858	3169
285.916	2119
285.975	1638
286.033	822
286.091	1334
286.150	1219
286.208	1575
286.267	1358
286.325	1820
286.383	2677
286.442	2115
286.500	1012
286.558	1043
286.616	518
286.675	2510
286.733	974
286.791	947
286.850	1800
286.908	2738
286.966	3569
287.024	1373
287.083	1162
287.141	627
287.199	876
287.257	2106
287.315	1480
287.374	1581
287.432	5490
287.490	3371
287.548	2645
287.606	881
287.664	1897
287.723	3075
287.781	3373
287.839	2224
287.897	2598
287.955	3762
288.013	6200
288.071	17983
288.129	64541
288.187	123010
288.245	53391
288.303	19671
288.361	11265
288.419	8904
288.477	5728
288.535	3812
288.593	3176
288.651	1901
288.709	1747
288.767	2067
288.825	1401
288.883	1631
288.941	1301
288.999	702
289.057	655
289.115	661
289.173	1004
289.231	2009
289.289	609
289.346	833
289.404	900
289.462	1770
289.520	2071
289.578	1426
289.636	472
289.694	959
289.751	438
289.809	679
289.867	1003
289.925	1635
289.983	2014
290.040	1291
290.098	639
290.156	1042
290.214	2089
290.271	449
290.329	751
290.387	1056
290.444	211
290.502	382
290.560	639
290.617	1049
290.675	1398
290.733	1051
290.790	1409
290.848	852
290.906	705
290.963	276
291.021	269
291.078	779
291.136	1917
291.194	7479
291.251	12092
291.309	2442
291.366	869
291.424	924
291.481	951
291.539	914
291.596	558
291.654	225
291.711	813
291.769	785
291.826	2690
291.884	1118
291.941	755
291.999	648
292.056	1011
292.114	566
292.171	497
292.228	1249
292.286	1094
292.343	2598
292.401	2450
292.458	2496
292.515	1242
292.573	1575
292.630	1169
292.687	1230
292.745	1058
292.802	3377
292.859	8465
292.917	10596
292.974	4736
293.031	1463
293.089	1028
293.146	1143
293.203	709
293.260	1426
293.318	1112
293.375	3419
293.432	1488
293.489	1320
293.546	1131
293.604	2523
293.661	8242
293.718	16346
293.775	7841
293.832	3063
293.889	2204
293.947	2394
294.004	1604
294.061	2602
294.118	6022
294.175	14150
294.232	17536
294.289	6538
294.346	3333
294.403	3393
294.460	1959
294.517	1816
294.574	674
294.631	1540
294.688	2313
294.745	7016
294.802	23861
294.859	24319
294.916	8153
294.973	4253
295.030	3559
295.087	2659
295.144	2793
295.201	1837
295.258	1040
295.315	2814
295.372	8587
295.429	12060
295.486	5741
295.542	5236
295.599	16400
295.656	21789
295.713	13818
295.770	13335
295.827	4252
295.883	3665
295.940	2380
295.997	4796
296.054	4100
296.111	1534
296.167	2544
296.224	1166
296.281	1355
296.338	1430
296.394	677
296.451	2104
296.508	8196
296.564	11841
296.621	9865
296.678	17352
296.734	20386
296.791	8163
296.848	4357
296.904	4802
296.961	10127
297.018	16573
297.074	11072
297.131	4353
297.187	3256
297.244	6158
297.301	17716
297.357	23170
297.414	7805
297.470	4338
297.527	2282
297.583	1924
297.640	2232
297.696	1411
297.753	1803
297.809	1126
297.866	1212
297.922	1254
297.979	1396
298.035	1970
298.092	3812
298.148	10002
298.204	7751
298.261	4484
298.317	9745
298.374	19676
298.430	9794
298.486	4220
298.543	3466
298.599	3272
298.656	4754
298.712	8294
298.768	19403
298.824	11807
298.881	3661
298.937	1913
298.993	2486
299.050	2838
299.106	2966
299.162	2467
299.218	2269
299.275	868
299.331	2323
299.387	5308
299.443	16816
299.500	14310
299.556	5362
299.612	3673
299.668	2395
299.724	2413
299.780	3049
299.837	1700
299.893	4777
299.949	15254
300.005	13978
300.061	14453
300.117	22398
300.173	9380
300.229	4954
300.285	5503
300.341	6476
300.397	2915
300.453	1482
300.510	3074
300.566	1831
300.622	1867
300.678	5661
300.734	11869
300.790	13575
300.845	15141
300.901	8540
300.957	12541
301.013	9733
301.069	3455
301.125	2807
301.181	2739
301.237	2031
301.293	1524
301.349	1633
301.405	1612
301.461	1988
301.516	2053
301.572	2833
301.628	4083
301.684	4122
301.740	6660
301.796	9963
301.851	7201
301.907	11290
301.963	11746
302.019	20227
302.074	46290
302.130	40460
302.186	18764
302.242	8767
302.297	5127
302.353	6049
302.409	10736
302.464	8741
302.520	7677
302.576	16637
302.631	18103
302.687	9447
302.743	4852
302.798	3112
302.854	2209
302.910	3338
302.965	4029
303.021	6093
303.076	5849
303.132	6871
303.187	6925
303.243	3771
303.299	2672
303.354	2245
303.410	2533
303.465	1720
303.521	2249
303.576	2124
303.632	3635
303.687	5669
303.743	15594
303.798	11078
303.853	5658
303.909	2631
303.964	2937
304.020	4340
304.075	6326
304.130	5179
304.186	9939
304.241	9813
304.297	7775
304.352	3269
304.358	3243
304.407	3034
304.449	2975
304.463	2959
304.518	2256
304.539	2161
304.573	1992
304.629	3391
304.630	3432
304.684	5437
304.720	9825
304.739	12071
304.794	16108
304.811	13756
304.850	7927
304.902	4211
304.905	3983
304.960	2420
304.992	2705
305.015	2924
305.071	3350
305.083	3131
305.126	2355
305.173	1929
305.181	1846
305.236	1342
305.264	1605
305.292	1922
305.347	2287
305.354	2335
305.402	2666
305.445	3101
305.457	3214
305.512	3702
305.535	3672
305.567	3645
305.622	4204
305.626	4357
305.678	7737
305.716	15416
305.733	18330
305.788	18614
305.807	16192
305.843	11661
305.897	15750
305.898	15800
305.953	14014
305.988	9875
306.008	7465
306.063	5368
306.078	4679
306.118	3235
306.168	2403
306.173	2331
306.228	2034
306.259	2051
306.283	2128
306.338	2047
306.349	2139
306.393	2635
306.440	3264
306.448	3338
306.503	2911
306.530	3283
306.558	4436
306.613	10283
306.620	10800
306.668	13510
306.711	16130
306.723	16320
306.778	12020
306.801	9441
306.833	6339
306.888	3629
306.892	3496
306.943	2763
306.982	2905
306.997	2970
307.052	2289
307.072	2471
307.107	3031
307.162	4165
307.163	4190
307.217	7093
307.253	8366
307.272	8580
307.327	8704
307.343	8033
307.381	6199
307.434	5313
307.436	5436
307.491	10953
307.524	15615
307.546	17137
307.600	15321
307.614	13799
307.655	8363
307.704	5225
307.710	5184
307.765	6031
307.795	7762
307.819	10039
307.874	16605
307.885	16674
307.929	12907
307.975	9856
307.984	9956
308.038	14365
308.065	18249
308.093	28656
308.148	57597
308.156	63823
308.202	103905
308.246	125858
308.257	121548
308.312	70229
308.336	50478
308.366	37992
308.421	21893
308.426	20668
308.475	14289
308.517	10189
308.530	9456
308.585	7959
308.607	7587
308.639	7391
308.694	7509
308.697	7597
308.748	13429
308.787	19364
308.803	19569
308.857	15708
308.877	13853
308.912	11431
308.967	10033
308.967	10028
309.021	12963
309.058	16103
309.076	19960
309.130	35032
309.148	41865
309.185	74676
309.238	129262
309.239	129872
309.293	148511
309.328	146202
309.348	127195
309.402	66298
309.418	50778
309.457	35259
309.508	19985
309.511	19552
309.566	14966
309.598	13078
309.620	13207
309.674	14395
309.688	14803
309.729	13799
309.778	11872
309.783	11649
309.837	9075
309.868	8046
309.892	9274
309.946	13279
309.959	14692
310.001	20984
310.049	25915
310.055	25095
310.109	15959
310.139	10533
310.163	8167
310.218	4901
310.229	4282
310.272	3721
310.319	3491
310.326	3499
310.381	3560
310.409	3639
310.435	3415
310.489	2952
310.499	2879
310.543	2985
310.589	3208
310.598	3285
310.652	3900
310.679	3965
310.706	3402
310.760	2360
310.769	2199
310.814	1792
310.859	1558
310.868	1598
310.923	1838
310.948	1892
310.977	2162
311.031	2857
311.038	2944
311.085	2615
311.128	2210
311.139	2235
311.193	2346
311.218	2452
311.247	2387
311.301	2175
311.308	2145
311.356	2308
311.398	2502
311.410	2506
311.464	2463
311.488	2453
311.518	2336
311.572	2154
311.578	2126
311.626	2531
311.668	2921
311.680	3080
311.734	3785
311.758	4080
311.788	3817
311.842	3346
311.847	3299
311.896	4438
311.937	5437
311.950	5414
312.004	5289
312.027	5220
312.058	4272
312.112	2588
312.117	2423
312.165	2705
312.207	2951
312.297	3755
312.386	3328
312.476	2713
312.566	4202
312.656	2954
312.745	2208
312.835	1961
312.925	3298
313.015	2409
313.104	3488
313.194	2475
313.284	2081
313.374	2371
313.463	3391
313.553	2039
313.643	1681
313.732	1767
313.822	1915
313.912	2044
314.001	2560
314.091	2950
314.180	4334
314.270	3118
314.360	3781
314.449	2833
314.539	1558
314.628	1993
314.718	2150
314.808	3292
314.897	1679
314.987	2226
315.076	2376
315.166	2706
315.255	4245
315.345	3592
315.434	3621
315.524	2875
315.613	3521
315.703	3491
315.792	3959
315.881	4130
315.971	3220
316.060	5588
316.150	10183
316.239	11657
316.328	5092
316.418	2064
316.507	1779
316.597	2563
316.686	3054
316.775	4559
316.865	12281
316.954	3659
317.043	2479
317.133	1852
317.222	1096
317.311	1475
317.400	1180
317.490	2467
317.579	2546
317.668	1987
317.757	2903
317.847	3936
317.936	5374
318.025	5564
318.114	3918
318.203	2784
318.293	4809
318.382	10622
318.471	8297
318.560	12876
318.649	30985
318.738	9161
318.828	3159
318.917	3820
319.006	5873
319.095	14164
319.184	35476
319.273	21207
319.362	7763
319.451	2886
319.540	2274
319.629	3314
319.718	9145
319.807	5895
319.896	10192
319.985	41862
320.074	18615
320.163	4609
320.252	7144
320.341	5731
320.430	5470
320.519	4334
320.608	3046
320.697	2639
320.786	2932
320.875	3044
320.964	3511
321.053	4902
321.142	7245
321.230	8985
321.319	6424
321.408	14995
321.497	8710
321.586	6864
321.675	9194
321.764	10628
321.852	6959
321.941	8464
322.030	6727
322.119	6344
322.207	16159
322.296	16965
322.385	8036
322.474	5931
322.562	16030
322.651	12010
322.740	5893
322.829	10845
322.917	15433
323.006	8703
323.095	5180
323.183	4377
323.272	7545
323.361	12399
323.449	45722
323.538	19801
323.626	29310
323.715	23419
323.804	8208
323.892	27097
323.981	18286
324.069	5666
324.158	14384
324.246	17909
324.335	4481
324.424	5745
324.512	2884
324.601	4253
324.689	5057
324.778	10606
324.866	11914
324.954	4663
325.043	2810
325.131	5315
325.220	13317
325.308	16678
325.397	9874
325.485	6599
325.574	2346
325.662	1668
325.750	1580
325.839	2536
325.927	2080
326.015	2671
326.104	5042
326.192	9350
326.280	1832
326.369	1944
326.457	2704
326.545	4473
326.634	2729
326.722	1207
326.810	1536
326.898	2277
326.987	2219
327.075	3896
327.163	6107
327.251	3427
327.340	3714
327.428	5421
327.516	2023
327.604	1299
327.692	2620
327.781	3163
327.869	5881
327.957	3138
328.045	2925
328.133	2151
328.221	2206
328.309	2195
328.397	1621
328.485	2236
328.574	2452
328.662	8728
328.750	7988
328.838	4197
328.926	2225
329.014	1877
329.102	2475
329.190	6903
329.278	5663
329.366	2165
329.454	1707
329.542	2100
329.630	1028
329.718	1705
329.806	2135
329.893	3575
329.981	4663
330.069	7171
330.157	26129
330.245	78117
330.333	50901
330.421	9759
330.509	4338
330.597	11192
330.684	9613
330.772	4860
330.860	6638
330.948	8736
331.036	4291
331.123	1365
331.211	1541
331.299	2625
331.387	5773
331.475	12586
331.562	3680
331.650	1647
331.738	2102
331.825	3452
331.913	1073
332.001	2039
332.089	2667
332.176	6365
332.264	14905
332.352	13997
332.439	3596
332.527	2076
332.614	1679
332.702	3095
332.790	2109
332.877	5982
332.965	14826
333.052	3648
333.140	2648
333.228	5635
333.315	2003
333.403	2348
333.490	7698
333.578	7411
333.665	4987
333.753	3385
333.840	1907
333.928	2924
334.015	8704
334.103	15281
334.190	48539
334.278	15787
334.365	4290
334.452	2128
334.540	1595
334.627	2526
334.715	4146
334.802	9120
334.889	47596
334.977	60828
335.064	7469
335.151	2036
335.239	3058
335.326	4999
335.413	19868
335.501	36471
335.588	4598
335.675	1516
335.762	3105
335.850	6292
335.937	3722
336.024	11091
336.111	52582
336.199	25790
336.286	3106
336.373	1648
336.460	973
336.547	1821
336.635	2067
336.722	1618
336.809	1889
336.896	3259
336.983	11514
337.070	33181
337.157	51903
337.245	35973
337.332	30829
337.419	4088
337.506	2454
337.593	3081
337.680	9419
337.767	35385
337.854	10667
337.941	10197
338.028	11509
338.115	4717
338.202	4660
338.289	9107
338.376	34308
338.463	15000
338.550	18376
338.637	25028
338.724	6223
338.811	12243
338.898	2341
338.984	1911
339.071	2325
339.158	2546
339.245	4227
339.332	3804
339.419	5942
339.506	7663
339.593	1422
339.679	764
339.766	1445
339.853	1647
339.940	4023
340.027	1649
340.113	1528
340.200	1703
340.287	1184
340.374	1373
340.460	3986
340.547	1395
340.634	2124
340.720	9674
340.807	7042
340.894	601
340.980	549
341.067	1598
341.154	1521
341.240	1848
341.327	5221
341.414	2309
341.500	2229
341.587	1333
341.674	953
341.760	3188
341.847	3732
341.933	1393
342.020	202
342.106	797
342.193	450
342.279	1970
342.366	1532
342.452	2206
342.539	2082
342.625	3527
342.712	10800
342.798	5780
342.885	2144
342.971	513
343.058	43
343.144	496
343.230	764
343.317	961
343.403	436
343.490	789
343.576	125
343.662	854
343.749	1548
343.835	1681
343.921	3805
344.008	20986
344.094	60306
344.180	16509
344.267	4564
344.353	14381
344.439	20275
344.525	6976
344.612	3717
344.698	3539
344.784	2198
344.870	1058
344.957	1202
345.043	2323
345.129	1492
345.215	2577
345.301	1455
345.387	928
345.474	-49
345.560	483
345.646	2104
345.732	1717
345.818	902
345.904	1035
345.990	1316
346.076	1613
346.162	4207
346.249	1780
346.335	409
346.421	993
346.507	4927
346.593	23215
346.679	7035
346.765	1658
346.851	506
346.937	848
347.023	891
347.108	1364
347.194	639
347.280	-229
347.366	1327
347.452	5691
347.538	25563
347.624	21145
347.710	18950
347.796	3198
347.882	832
347.967	1354
348.053	2005
348.139	1391
348.225	847
348.311	257
348.397	1382
348.482	977
348.568	1975
348.654	1188
348.740	856
348.825	-192
348.911	2458
348.997	10679
349.083	28828
349.168	5543
349.254	1562
349.340	1033
349.425	347
349.511	533
349.597	2292
349.682	3686
349.768	13662
349.854	9195
349.939	1322
350.025	1910
350.110	1354
350.196	1185
350.282	190
350.367	487
350.453	2473
350.538	3859
350.624	2094
350.709	2104
350.795	327
350.880	516
350.966	1031
351.051	2402
351.137	1748
351.222	908
351.308	3957
351.393	12410
351.479	3876
351.564	710
351.649	382
351.735	738
351.820	855
351.906	863
351.991	624
352.076	6780
352.162	12265
352.247	1890
352.332	1709
352.418	2110
352.503	3610
352.588	15062
352.673	15065
352.759	2989
352.844	1038
352.929	892
353.014	1637
353.100	1198
353.185	1494
353.270	2595
353.355	4379
353.441	856
353.526	1629
353.611	3075
353.696	3418
353.781	2648
353.866	845
353.952	1584
354.037	2933
354.122	7259
354.207	6156
354.292	3280
354.377	335
354.462	660
354.547	1086
354.632	998
354.717	2789
354.802	1290
354.887	527
354.972	227
355.057	571
355.142	293
355.227	1462
355.312	1911
355.397	3995
355.482	10387
355.567	6797
355.652	3826
355.737	4371
355.822	15703
355.907	16072
355.991	1599
356.076	1131
356.161	1102
356.246	981
356.331	1803
356.416	3209
356.501	24930
356.585	36370
356.670	5037
356.755	2694
356.840	3061
356.924	14134
357.009	66593
357.094	32746
357.179	4875
357.263	2953
357.348	3630
357.433	3371
357.517	2780
357.602	2091
357.687	2359
357.771	2869
357.856	12147
357.941	8705
358.025	12473
358.110	64997
358.195	38981
358.279	4698
358.364	2824
358.448	9252
358.533	29325
358.617	23727
358.702	21734
358.787	9692
358.871	3172
358.956	2970
359.040	1016
359.125	-305
359.209	663
359.294	4101
359.378	9756
359.462	3464
359.547	1677
359.631	1160
359.716	873
359.800	1055
359.885	2025
359.969	817
360.053	1351
360.138	576
360.222	1058
360.306	3374
360.391	3028
360.475	5232
360.559	13223
360.644	10386
360.728	8218
360.812	12809
360.896	47637
360.981	20970
361.065	10152
361.149	2060
361.233	1412
361.318	1066
361.402	1369
361.486	1379
361.570	930
361.654	1761
361.739	4334
361.823	22749
361.907	50003
361.991	10460
362.075	3068
362.159	6430
362.243	4947
362.327	2733
362.411	3026
362.495	2675
362.580	1953
362.664	493
362.748	294
362.832	1159
362.916	844
363.000	4452
363.084	21377
363.168	54099
363.252	14732
363.336	3566
363.420	5959
363.503	27189
363.587	43236
363.671	6988
363.755	2787
363.839	4213
363.923	1616
364.007	3448
364.091	4978
364.175	8876
364.258	48903
364.342	29205
364.426	8237
364.510	4234
364.594	5306
364.677	7157
364.761	36380
364.845	33905
364.929	7021
365.013	5906
365.096	4391
365.180	5738
365.264	10189
365.347	53150
365.431	27111
365.515	5634
365.598	1227
365.682	1772
365.766	3373
365.849	6688
365.933	2098
366.017	3923
366.100	3290
366.184	994
366.267	1786
366.351	-60
366.435	402
366.518	545
366.602	-89
366.685	846
366.769	1187
366.852	2847
366.936	6051
367.019	3132
367.103	2260
367.186	7492
367.270	1602
367.353	-324
367.436	1546
367.520	588
367.603	868
367.687	996
367.770	3995
367.853	2291
367.937	8379
368.020	20039
368.104	4494
368.187	2615
368.270	4389
368.353	4018
368.437	7234
368.520	23365
368.603	13147
368.687	10277
368.770	25278
368.853	6310
368.936	4080
369.020	6846
369.103	1665
369.186	405
369.269	-55
369.352	2565
369.436	4397
369.519	2963
369.602	-100
369.685	1174
369.768	844
369.851	775
369.934	354
370.018	1383
370.101	2739
370.184	4297
370.267	2044
370.350	3595
370.433	6764
370.516	17032
370.599	25404
370.682	5876
370.765	10930
370.848	13979
370.931	31524
371.014	15000
371.097	2320
371.180	1653
371.263	589
371.346	223
371.429	380
371.511	944
371.594	1744
371.677	4930
371.760	7871
371.843	3926
371.926	19139
372.009	59580
372.091	22032
372.174	9749
372.257	30732
372.340	14475
372.423	8574
372.505	12271
372.588	5061
372.671	6658
372.754	28467
372.836	17713
372.919	11988
373.002	33268
373.085	8824
373.167	3810
373.250	9828
373.332	28146
373.415	33268
373.498	80541
373.580	32052
373.663	28051
373.746	51816
373.828	11728
373.911	4103
373.993	4639
374.076	27635
374.159	32510
374.241	8996
374.324	22702
374.406	18721
374.489	17925
374.571	65443
374.654	32345
374.736	10939
374.819	37482
374.901	54418
374.983	65617
375.066	11919
375.148	4041
375.231	20177
375.313	49388
375.395	18757
375.478	2934
375.560	1390
375.643	1901
375.725	9099
375.807	47648
375.890	49940
375.972	22742
376.054	10202
376.136	19540
376.219	8356
376.301	10432
376.383	44690
376.465	19409
376.548	7469
376.630	9574
376.712	34850
376.794	20069
376.877	1434
376.959	450
377.041	1681
377.123	4406
377.205	6997
377.287	840
377.369	-145
377.452	507
377.534	852
377.616	-73
377.698	780
377.780	-154
377.862	55
377.944	705
378.026	235
378.108	-57
378.190	463
378.272	570
378.354	-276
378.436	-637
378.518	1524
378.600	10721
378.682	8177
378.764	14835
378.846	14319
378.928	2405
379.010	4056
379.091	2140
379.173	1010
379.255	-351
379.337	615
379.419	5043
379.501	22658
379.583	11069
379.664	1355
379.746	3192
379.828	13742
379.910	21949
379.991	21905
380.073	2964
380.155	1512
380.237	421
380.318	-273
380.400	598
380.482	1707
380.564	4272
380.645	2969
380.727	3621
380.809	2074
380.890	1574
380.972	412
381.053	306
381.135	1736
381.217	3464
381.298	16346
381.380	9345
381.461	5585
381.543	30053
381.624	49200
381.706	9011
381.787	3426
381.869	3699
381.951	9818
382.032	55795
382.113	44158
382.195	6605
382.276	4031
382.358	7266
382.439	29182
382.521	33123
382.602	59207
382.684	25762
382.765	38144
382.846	39633
382.928	33879
383.009	21423
383.090	11311
383.172	42772
383.253	82740
383.334	34624
383.416	47084
383.497	27883
383.578	6964
383.659	10912
383.741	36790
383.822	122298
383.903	74356
383.984	25956
384.066	55779
384.147	39073
384.228	7674
384.309	3927
384.390	1696
384.471	895
384.553	1768
384.634	3403
384.715	2736
384.796	1454
384.877	1865
384.958	12240
385.039	19258
385.120	5632
385.201	2307
385.282	2732
385.363	3299
385.444	2995
385.525	4772
385.606	21603
385.687	25173
385.768	4815
385.849	5194
385.930	20798
386.011	50825
386.092	15787
386.173	2796
386.254	2098
386.335	2316
386.416	1960
386.496	7958
386.577	17501
386.658	6745
386.739	3383
386.820	3083
386.901	2150
386.981	3174
387.062	505
387.143	1860
387.224	12759
387.304	17365
387.385	4989
387.466	1997
387.547	4500
387.627	2228
387.708	3748
387.789	24723
387.869	40652
387.950	11777
388.031	1440
388.111	482
388.192	6745
388.273	10953
388.353	5930
388.434	2272
388.514	4344
388.595	24977
388.676	40352
388.756	17614
388.837	13685
388.917	9117
388.998	1734
389.078	951
389.159	1076
389.239	39
389.320	2262
389.400	1298
389.480	5008
389.561	17378
389.641	11045
389.722	1548
389.802	3956
389.883	5283
389.963	21841
390.043	17384
390.124	5203
390.204	4836
390.284	15978
390.365	12206
390.445	17341
390.525	50685
390.605	47935
390.686	12314
390.766	4157
390.846	1431
390.927	856
391.007	170
391.087	1878
391.167	1751
391.247	616
391.328	3239
391.408	6264
391.488	5305
391.568	377
391.648	1271
391.728	2192
391.808	1781
391.888	2219
391.969	7392
392.049	16773
392.129	7554
392.209	5902
392.289	20032
392.369	13322
392.449	11318
392.529	6725
392.609	3627
392.689	4349
392.769	16866
392.849	18822
392.929	9902
393.009	28675
393.089	20628
393.169	5644
393.248	15492
393.328	105631
393.408	149510
393.488	30608
393.568	5919
393.648	2645
393.728	2027
393.807	1349
393.887	2374
393.967	2703
394.047	4608
394.127	5879
394.206	11033
394.286	37102
394.366	174106
394.446	239600
394.525	69678
394.605	15372
394.685	9272
394.764	17666
394.844	31235
394.924	24499
395.003	5796
395.083	3092
395.163	3085
395.242	1965
395.322	2997
395.402	1934
395.481	4072
395.561	9499
395.640	33554
395.720	23441
395.799	37778
395.879	37782
395.958	20105
396.038	58289
396.117	230694
396.197	312088
396.276	113993
396.356	32561
396.435	19209
396.515	10733
396.594	6150
396.673	7558
396.753	22739
396.832	109136
396.912	100085
396.991	25332
397.070	5026
397.150	2042
397.229	2470
397.308	1211
397.388	2095
397.467	2644
397.546	624
397.625	-347
397.705	2521
397.784	1414
397.863	709
397.942	1128
398.022	1091
398.101	6924
398.180	35056
398.259	20603
398.338	4084
398.417	1632
398.497	1131
398.576	1441
398.655	364
398.734	68
398.813	955
398.892	6672
398.971	36241
399.050	22002
399.129	1288
399.208	595
399.287	100
399.366	-51
399.445	-12
399.524	457
399.603	-293
399.682	2312
399.761	6582
399.840	35424
399.919	36773
399.998	4637
400.077	401
400.156	-665
400.235	1233
400.313	-310
400.392	531
400.471	5738
400.550	13213
400.629	3655
400.708	1090
400.786	872
400.865	5861
400.944	7601
401.023	3853
401.102	232
401.180	-172
401.259	-466
401.338	579
401.416	1443
401.495	1002
401.574	998
401.652	-16
401.731	1620
401.810	488
401.888	-673
401.967	-1161
402.046	544
402.124	311
402.203	956
402.281	234
402.360	1139
402.438	8735
402.517	7256
402.596	1271
402.674	1438
402.753	210
402.831	328
402.910	348
402.988	1926
403.066	10118
403.145	7488
403.223	3383
403.302	7972
403.380	6712
403.459	4757
403.537	1715
403.615	982
403.694	-1170
403.772	471
403.850	311
403.929	-398
404.007	-451
404.085	1725
404.164	324
404.242	-531
404.320	4445
404.398	18174
404.477	21659
404.555	42546
404.633	48769
404.711	18395
404.789	9993
404.868	1203
404.946	-208
405.024	-533
405.102	-965
405.180	147
405.258	-692
405.336	-401
405.415	-458
405.493	1853
405.571	720
405.649	-1291
405.727	-1059
405.805	755
405.883	877
405.961	733
406.039	2075
406.117	-149
406.195	511
406.273	5754
406.351	35252
406.429	27595
406.507	3756
406.585	-55
406.663	330
406.740	777
406.818	-31
406.896	-170
406.974	748
407.052	1449
407.130	16326
407.208	32918
407.285	6974
407.363	-350
407.441	-535
407.519	-456
407.596	229
407.674	2309
407.752	10191
407.830	13067
407.907	4795
407.985	606
408.063	-292
408.141	-1037
408.218	957
408.296	830
408.373	146
408.451	-318
408.529	-279
408.606	-1329
408.684	286
408.762	-699
408.839	-1351
408.917	-809
408.994	-608
409.072	-1275
409.149	-620
409.227	-263
409.304	-536
409.382	-341
409.459	-1228
409.537	319
409.614	-381
409.692	-54
409.769	-1152
409.846	-147
409.924	90
410.001	-889
410.079	-144
410.156	44
410.233	-192
410.311	-632
410.388	11
410.465	-673
410.543	-387
410.620	70
410.697	-922
410.775	-137
410.852	-1088
410.929	-158
411.006	462
411.083	-712
411.161	1188
411.238	2540
411.315	1529
411.392	-223
411.469	-206
411.547	395
411.624	-1159
411.701	-476
411.778	-944
411.855	735
411.932	-102
412.009	-505
412.086	-1114
412.163	-194
412.240	464
412.317	718
412.394	582
412.471	103
412.548	137
412.625	-425
412.702	230
412.779	1963
412.856	929
412.933	-625
413.010	66
413.087	382
413.164	4855
413.241	11089
413.318	1675
413.395	951
413.471	1004
413.548	537
413.625	-381
413.702	-380
413.779	732
413.855	-1149
413.932	-730
414.009	-1301
414.086	105
414.162	-360
414.239	-556
414.316	4312
414.393	15478
414.469	7105
414.546	-393
414.623	-1088
414.699	-618
414.776	-452
414.853	-495
414.929	-354
415.006	222
415.082	273
415.159	380
415.236	-161
415.312	161
415.389	-327
415.465	698
415.542	-159
415.618	-861
415.695	600
415.771	-373
415.848	-365
415.924	186
416.000	-228
416.077	-435
416.153	-590
416.230	-1676
416.306	-699
416.383	-1114
416.459	34
416.535	-1022
416.612	-1055
416.688	191
416.764	-431
416.841	-901
416.917	-538
416.993	-301
417.069	-232
417.146	508
417.222	1767
417.298	-15
417.374	-1301
417.451	-299
417.527	-255
417.603	-283
417.679	-38
417.755	-597
417.831	-1007
417.908	-383
417.984	-909
418.060	-795
418.136	539
418.212	1452
418.288	316
418.364	-124
418.440	-1030
418.516	813
418.592	1126
418.668	2737
418.744	2828
418.820	2661
418.896	-449
418.972	-740
419.048	-648
419.124	1525
419.200	349
419.276	-613
419.352	-1598
419.428	-967
419.504	-1027
419.579	-332
419.655	-881
419.731	-727
419.807	1573
419.883	3094
419.959	3058
420.034	530
420.110	565
420.186	7892
420.262	8913
420.337	484
420.413	-304
420.489	-108
420.565	-123
420.640	-1507
420.716	164
420.792	-1523
420.867	-308
420.943	-884
421.019	196
421.094	-555
421.170	-489
421.245	-1401
421.321	-441
421.397	-1023
421.472	74
421.548	3760
421.623	3582
421.699	172
421.774	524
421.850	-1339
421.925	882
422.001	736
422.076	5
422.152	-456
422.227	212
422.302	1374
422.378	1329
422.453	2033
422.529	8218
422.604	37969
422.679	115362
422.755	73056
422.830	14864
422.905	3654
422.981	471
423.056	591
423.131	-310
423.207	-246
423.282	-1022
423.357	1301
423.432	1157
423.508	706
423.583	2045
423.658	2497
423.733	-145
423.808	15
423.883	605
423.959	-94
424.034	-1240
424.109	-778
424.184	-1183
424.259	-451
424.334	-492
424.409	-995
424.484	-1196
424.559	-951
424.634	-390
424.709	16
424.784	389
424.859	-774
424.934	-450
425.009	3940
425.084	11270
425.159	4817
425.234	-259
425.309	-295
425.384	688
425.459	3585
425.534	1719
425.609	-724
425.683	-100
425.758	-214
425.833	-502
425.908	404
425.983	1137
426.058	10489
426.132	5558
426.207	804
426.282	1702
426.357	1123
426.431	-421
426.506	99
426.581	-141
426.655	-324
426.730	-659
426.805	-1400
426.879	-206
426.954	-806
427.029	496
427.103	8067
427.178	30407
427.253	18673
427.327	1430
427.402	1452
427.476	6063
427.551	3585
427.625	326
427.700	90
427.774	-1291
427.849	394
427.923	-202
427.998	-1086
428.072	-986
428.147	1418
428.221	2669
428.296	10482
428.370	5935
428.444	172
428.519	1509
428.593	5604
428.667	6107
428.742	6748
428.816	4958
428.890	9424
428.965	17184
429.039	8666
429.113	7855
429.188	3632
429.262	-255
429.336	-158
429.410	3805
429.485	3927
429.559	5379
429.633	4934
429.707	407
429.781	1659
429.855	12984
429.930	22561
430.004	18058
430.078	33844
430.152	30284
430.226	16934
430.300	20274
430.374	3740
430.448	1409
430.522	6268
430.596	32175
430.670	21873
430.744	16220
430.818	38323
430.892	12000
430.966	804
431.040	-152
431.114	-1007
431.188	-208
431.262	-394
431.336	-527
431.410	1975
431.484	7339
431.557	5773
431.631	396
431.705	-1115
431.779	626
431.853	7423
431.927	6789
432.000	477
432.074	-540
432.148	535
432.222	112
432.295	-971
432.369	-925
432.443	-147
432.516	8230
432.590	32591
432.664	17652
432.737	1768
432.811	-909
432.885	-1123
432.958	-569
433.032	-1094
433.106	-982
433.179	-925
433.253	-378
433.326	-579
433.400	-2090
433.473	-482
433.547	-1069
433.620	-102
433.694	-192
433.767	593
433.841	-678
433.914	-960
433.988	-1087
434.061	-740
434.134	-1274
434.208	-935
434.281	-558
434.355	-927
434.428	-675
434.501	-1046
434.575	-986
434.648	-750
434.721	-708
434.795	-1237
434.868	-709
434.941	-1178
435.014	-672
435.088	-1405
435.161	-593
435.234	-49
435.307	379
435.381	-681
435.454	-1037
435.527	-809
435.600	-719
435.673	-335
435.746	-781
435.819	-1587
435.892	-455
435.966	-1236
436.039	-649
436.112	-73
436.185	-1282
436.258	-1424
436.331	-1833
436.404	-644
436.477	-730
436.550	-1133
436.623	-734
436.696	-1411
436.769	-420
436.842	-1234
436.915	-649
436.987	-655
437.060	-677
437.133	-807
437.206	-867
437.279	-101
437.352	-1153
437.425	-1343
437.498	-497
437.570	-28
437.643	901
437.716	-391
437.789	-785
437.861	-224
437.934	2781
438.007	1155
438.080	-1049
438.152	-333
438.225	417
438.298	9990
438.370	47882
438.443	28575
438.516	5567
438.588	60
438.661	-780
438.734	-477
438.806	-1181
438.879	-249
438.951	-713
439.024	847
439.096	309
439.169	-318
439.241	-1233
439.314	-1017
439.386	426
439.459	1356
439.531	2015
439.604	577
439.676	-370
439.749	-599
439.821	-1759
439.893	-550
439.966	-126
440.038	-147
440.110	-354
440.183	-583
440.255	-1268
440.327	255
440.400	3868
440.472	24618
440.544	26407
440.617	3795
440.689	661
440.761	876
440.833	2829
440.905	1497
440.978	-405
441.050	-822
441.122	-727
441.194	-382
441.266	-757
441.338	-1181
441.411	-267
441.483	4347
441.555	13026
441.627	3357
441.699	1063
441.771	956
441.843	-508
441.915	-1544
441.987	-1766
442.059	-1887
442.131	211
442.203	286
442.275	-162
442.347	1308
442.419	-89
442.491	1517
442.563	6386
442.635	6188
442.706	6255
442.778	7778
442.850	1260
442.922	-1127
442.994	-926
443.066	-11
443.137	492
443.209	-665
443.281	-707
443.353	803
443.425	3456
443.496	12738
443.568	16933
443.640	6604
443.711	666
443.783	-511
443.855	-318
443.926	-1062
443.998	-104
444.070	270
444.141	149
444.213	-66
444.285	417
444.356	721
444.428	649
444.499	-723
444.571	-1081
444.642	-1082
444.714	-1350
444.785	-224
444.857	1399
444.928	4574
445.000	4122
445.071	1684
445.143	3847
445.214	1141
445.285	1723
445.357	8275
445.428	12607
445.500	29873
445.571	28160
445.642	11919
445.714	6000
445.785	10379
445.856	3546
445.928	809
445.999	542
446.070	623
446.141	-47
446.213	722
446.284	352
446.355	216
446.426	-162
446.497	-977
446.569	-29
446.640	1806
446.711	1154
446.782	-346
446.853	-328
446.924	187
446.995	-851
447.066	-397
447.138	592
447.209	917
447.280	-1360
447.351	-924
447.422	-1042
447.493	-294
447.564	-26
447.635	-344
447.706	-147
447.777	-959
447.847	-1196
447.918	-664
447.989	-707
448.060	-332
448.131	3098
448.202	2959
448.273	1766
448.344	12
448.414	-63
448.485	-458
448.556	-10
448.627	-1520
448.698	-118
448.768	-747
448.839	-634
448.910	405
448.981	1794
449.051	-155
449.122	-839
449.193	-741
449.263	-620
449.334	-108
449.405	-281
449.475	1396
449.546	1471
449.616	1877
449.687	1785
449.758	223
449.828	-33
449.899	-69
449.969	-483
450.040	-689
450.110	275
450.181	862
450.251	-673
450.322	-264
450.392	-395
450.463	-212
450.533	-740
450.604	-284
450.674	-269
450.744	192
450.815	-710
450.885	418
450.955	-503
451.026	-1031
451.096	-170
451.166	-347
451.237	1088
451.307	6791
451.377	3411
451.447	-309
451.518	-1375
451.588	-521
451.658	83
451.728	682
451.799	6155
451.869	9766
451.939	2582
452.009	264
452.079	-229
452.149	284
452.219	792
452.289	7185
452.360	8995
452.430	1734
452.500	746
452.570	58
452.640	33
452.710	2807
452.780	8130
452.850	4376
452.920	3611
452.990	2146
453.060	151
453.129	203
453.199	787
453.269	6048
453.339	25141
453.409	44284
453.479	31875
453.549	50920
453.619	59306
453.688	32473
453.758	6051
453.828	539
453.898	480
453.968	-15
454.037	-376
454.087	-200
454.107	-146
454.168	47
454.177	56
454.247	-528
454.249	-505
454.316	-323
454.330	-122
454.386	590
454.411	1474
454.456	2529
454.492	5196
454.525	7402
454.574	3981
454.595	2555
454.655	770
454.665	497
454.734	216
454.736	291
454.804	2154
454.817	3426
454.873	7426
454.898	8964
454.943	11124
454.979	7684
455.013	4834
455.060	2552
455.082	1811
455.141	2297
455.152	2344
455.221	6381
455.222	6594
455.291	14895
455.303	14776
455.360	13558
455.384	18458
455.430	26126
455.465	23039
455.499	19987
455.546	13504
455.569	10104
455.627	7388
455.638	7015
455.707	1166
455.708	1180
455.777	368
455.789	390
455.846	284
455.869	342
455.916	538
455.950	503
455.985	377
456.031	751
456.054	900
456.112	757
456.124	716
456.193	666
456.193	650
456.262	850
456.274	1051
456.332	1470
456.355	1352
456.401	1068
456.436	1185
456.470	1144
456.516	408
456.540	191
456.597	899
456.609	968
456.678	579
456.678	566
456.747	238
456.759	209
456.817	-190
456.840	-258
456.886	-229
456.920	263
456.955	772
457.001	496
457.024	398
457.082	901
457.093	962
457.162	2149
457.163	2171
457.232	2567
457.243	2446
457.301	1479
457.324	994
457.370	250
457.405	540
457.439	913
457.485	936
457.508	936
457.566	909
457.577	960
457.646	1529
457.647	1551
457.715	1571
457.727	1666
457.784	2156
457.808	2203
457.853	2491
457.889	3087
457.922	3072
457.969	2870
457.991	3105
458.050	3707
458.060	3771
458.129	3718
458.130	3758
458.198	3778
458.211	3829
458.267	2818
458.292	2064
458.336	1869
458.372	1630
458.405	1636
458.453	2121
458.474	2566
458.533	4594
458.543	4874
458.611	6572
458.614	6690
458.680	5147
458.694	4343
458.749	2372
458.775	1812
458.818	1615
458.855	1852
458.887	1990
458.936	1638
458.955	1487
459.016	2076
459.024	2157
459.093	1641
459.097	1650
459.162	1779
459.177	1989
459.230	2496
459.257	2640
459.299	3013
459.338	3119
459.368	3200
459.418	3753
459.437	3613
459.499	3014
459.505	3003
459.574	2259
459.579	2246
459.643	1950
459.659	1888
459.711	1916
459.740	2115
459.780	2419
459.820	2535
459.849	2660
459.900	3024
459.917	3042
459.981	2978
459.986	2970
460.054	2895
460.061	2896
460.123	2751
460.141	2790
460.191	3155
460.222	3268
460.260	3637
460.302	4435
460.328	4234
460.382	3452
460.397	3566
460.462	3618
460.465	3618
460.534	4430
460.543	4577
460.602	13182
460.623	16257
460.671	26544
460.703	35082
460.739	33741
460.783	32435
460.808	27443
460.864	8350
460.876	7385
460.944	3908
460.945	3860
461.013	2864
461.024	2780
461.081	3215
461.104	3443
461.150	3081
461.184	2694
461.218	2933
461.264	3054
461.286	2940
461.345	2910
461.355	2988
461.423	3696
461.425	3712
461.491	3616
461.505	3626
461.559	6430
461.585	7699
461.628	13292
461.665	18590
461.696	21802
461.745	28334
461.764	24370
461.825	8825
461.832	8602
461.901	4961
461.905	4853
461.969	4287
461.985	4086
462.037	3883
462.065	4003
462.105	4415
462.145	4715
462.173	6783
462.225	10748
462.241	12183
462.305	18231
462.310	17764
462.378	11166
462.385	10161
462.446	5768
462.465	4462
462.514	4284
462.545	4524
462.582	4109
462.625	3712
462.650	4021
462.705	4540
462.718	4562
462.785	4881
462.786	4917
462.854	6911
462.865	7245
462.922	9389
462.945	10273
462.990	7653
463.025	5305
463.058	4485
463.104	3541
463.126	3758
463.184	4125
463.194	4111
463.262	4089
463.264	4095
463.330	4725
463.344	4811
463.398	4947
463.424	4975
463.466	5129
463.504	5437
463.533	5470
463.583	5397
463.601	5527
463.663	5956
463.669	6096
463.737	7739
463.743	7872
463.805	11137
463.823	12086
463.873	19727
463.903	24475
463.940	27601
463.982	31354
464.008	25285
464.062	11807
464.076	10996
464.142	5922
464.144	5886
464.211	5156
464.221	5053
464.279	4530
464.301	4430
464.347	5350
464.381	5959
464.414	6475
464.461	7181
464.482	7927
464.540	10002
464.550	9615
464.617	6656
464.620	6540
464.685	7182
464.699	7325
464.753	9156
464.779	10121
464.820	11721
464.859	13084
464.888	12714
464.938	12231
464.956	12450
465.018	12771
465.023	12565
465.091	9756
465.098	9455
465.158	9282
465.177	9207
465.226	9800
465.257	10201
465.293	10297
465.336	10303
465.361	10692
465.416	11525
465.428	12073
465.495	15047
465.496	15147
465.563	26788
465.575	28814
465.631	37715
465.654	41592
465.698	27890
465.734	16103
465.765	13676
465.813	9571
465.833	9761
465.893	10832
465.900	10728
465.968	9714
465.972	9624
466.035	10305
466.052	10472
466.102	10584
466.131	10606
466.170	11261
466.210	11912
466.237	11915
466.290	11885
466.304	11951
466.369	12060
466.372	12136
466.439	13747
466.449	13937
466.506	15072
466.528	15511
466.573	18182
466.607	20087
466.641	28085
466.687	39174
466.708	44619
466.766	59496
466.775	55714
466.842	26481
466.845	25038
466.909	17952
466.925	16231
466.977	15668
467.004	15398
467.044	15743
467.083	16043
467.111	17427
467.163	19907
467.178	20360
467.242	22073
467.245	22006
467.312	19686
467.321	19339
467.379	18683
467.400	18388
467.446	19168
467.480	19665
467.559	18585
467.638	15983
467.717	15486
467.796	15815
467.875	16085
467.955	17682
468.034	20152
468.113	44798
468.192	70917
468.271	27236
468.350	12768
468.429	13998
468.508	13492
468.588	12389
468.667	13083
468.746	14034
468.825	13073
468.904	11987
468.983	13767
469.062	19466
469.141	24159
469.220	13351
469.299	10652
469.378	13392
469.456	15931
469.535	16227
469.614	14232
469.693	14667
469.772	16263
469.851	22816
469.930	18631
470.009	12319
470.088	11040
470.166	13216
470.245	12832
470.324	13150
470.403	12305
470.482	11997
470.560	11304
470.639	12519
470.718	11779
470.797	12516
470.875	12390
470.954	16803
471.033	21282
471.111	11146
471.190	10480
471.269	10350
471.347	10104
471.426	10747
471.505	12262
471.583	14231
471.662	13472
471.740	12161
471.819	12092
471.898	10956
471.976	11547
472.055	11461
472.133	10981
472.212	15850
472.290	16832
472.369	13163
472.447	11440
472.526	10157
472.604	10093
472.683	10663
472.761	10020
472.839	10625
472.918	9551
472.996	10389
473.075	11526
473.153	12552
473.231	9932
473.310	11042
473.388	10163
473.466	11246
473.545	11197
473.623	13875
473.701	12730
473.780	10650
473.858	10325
473.936	12318
474.014	9943
474.093	11203
474.171	14216
474.249	22152
474.327	16268
474.405	9172
474.484	9947
474.562	9925
474.640	9774
474.718	11616
474.796	11315
474.874	10780
474.952	10159
475.030	10111
475.108	10511
475.187	12659
475.265	13025
475.343	13089
475.421	13178
475.499	10710
475.577	11236
475.655	11939
475.733	21917
475.811	41401
475.889	40934
475.966	31898
476.044	10055
476.122	10433
476.200	10803
476.278	11080
476.356	9580
476.434	10236
476.512	9822
476.590	11843
476.667	11663
476.745	8637
476.823	9415
476.901	10109
476.979	10654
477.056	10355
477.134	9765
477.212	10330
477.290	10135
477.367	9048
477.445	8441
477.523	9196
477.601	8155
477.678	9338
477.756	10518
477.834	12462
477.911	8253
477.989	9068
478.066	8167
478.144	10008
478.222	9158
478.299	10566
478.377	11133
478.454	8556
478.532	8092
478.609	8183
478.687	8453
478.764	7335
478.842	8494
478.919	8283
478.997	8920
479.074	7810
479.152	9615
479.229	12646
479.307	8509
479.384	7072
479.461	6858
479.539	7730
479.616	10229
479.694	8725
479.771	9471
479.848	9550
479.926	12002
480.003	14642
480.080	7795
480.157	7557
480.235	7148
480.312	7703
480.389	8461
480.467	14308
480.544	19587
480.621	11065
480.698	8087
480.775	10237
480.853	11286
480.930	9481
481.007	8605
481.084	10046
481.161	11204
481.238	11542
481.315	9241
481.392	7822
481.470	8359
481.547	8804
481.624	8455
481.701	8162
481.778	8763
481.855	9730
481.932	13104
482.009	22997
482.086	18870
482.163	8495
482.240	8324
482.317	11133
482.393	10147
482.470	8221
482.547	8223
482.624	7381
482.701	7970
482.778	8651
482.855	6971
482.932	6028
483.009	6539
483.085	7513
483.162	8571
483.239	8864
483.316	7223
483.393	7110
483.469	6221
483.546	8312
483.623	9744
483.699	7777
483.776	7426
483.853	9230
483.930	11741
484.006	30570
484.083	63656
484.160	36502
484.236	49746
484.313	43525
484.389	30511
484.466	26799
484.543	24184
484.619	24443
484.696	24846
484.772	25829
484.849	28535
484.925	24502
485.002	22432
485.078	24252
485.155	24769
485.231	23072
485.308	21982
485.384	23547
485.461	25412
485.537	37757
485.614	50552
485.690	24997
485.766	21360
485.843	20436
485.919	23026
485.995	25034
486.072	19805
486.148	19406
486.224	18211
486.301	20175
486.377	21291
486.453	23448
486.530	21708
486.606	28901
486.682	33199
486.758	36158
486.835	43489
486.911	31467
486.987	46548
487.063	43983
487.139	39652
487.215	34810
487.292	24201
487.368	21870
487.444	22005
487.520	23883
487.596	22997
487.672	23799
487.748	29821
487.824	40013
487.900	28443
487.976	21179
488.052	21291
488.128	25396
488.204	21725
488.280	20393
488.356	22447
488.432	38421
488.508	68858
488.584	30033
488.660	17876
488.736	18527
488.812	16823
488.888	21967
488.964	22680
489.039	32515
489.115	47645
489.191	38917
489.267	19307
489.343	19551
489.418	15942
489.494	15859
489.570	15294
489.646	16041
489.722	16588
489.797	17392
489.873	21732
489.949	46209
490.024	49959
490.100	16435
490.176	15717
490.251	15823
490.327	18603
490.403	14158
490.478	14540
490.554	13294
490.629	13087
490.705	12463
490.781	13830
490.856	12572
490.932	14594
491.007	14767
491.083	14187
491.158	14057
491.234	16805
491.309	34342
491.385	44349
491.460	17147
491.536	14807
491.611	15184
491.686	13257
491.762	15870
491.837	20340
491.913	36721
491.988	43750
492.063	59604
492.139	29569
492.214	21938
492.289	11647
492.365	10400
492.440	13460
492.515	13210
492.590	13495
492.666	11626
492.741	14035
492.816	22770
492.891	15138
492.967	11296
493.042	9290
493.117	11787
493.192	12575
493.267	15910
493.342	46670
493.418	86118
493.493	24048
493.568	10047
493.643	9548
493.718	12067
493.793	16772
493.868	17655
493.943	10375
494.018	10406
494.093	9052
494.168	10226
494.243	8731
494.318	7813
494.393	8225
494.468	8438
494.543	8418
494.618	9650
494.693	9154
494.768	8834
494.842	10193
494.917	7975
494.992	8355
495.067	8548
495.142	7984
495.217	8808
495.292	8546
495.366	10772
495.441	11975
495.516	14964
495.591	16244
495.665	32925
495.740	82917
495.815	53436
495.890	16329
495.964	12968
496.039	14335
496.114	12838
496.188	13285
496.263	15240
496.338	13336
496.412	14155
496.487	16331
496.561	15582
496.636	16601
496.710	15304
496.785	14495
496.860	19504
496.934	15246
497.009	14851
497.083	14933
497.158	16163
497.232	18206
497.307	22805
497.381	20907
497.455	23207
497.530	30206
497.604	26330
497.679	24341
497.753	35626
497.827	48357
497.902	45574
497.976	48546
498.050	70575
498.125	234357
498.199	335323
498.273	72252
498.348	48984
498.422	42665
498.496	39098
498.570	35432
498.645	29975
498.719	28905
498.793	31660
498.867	38969
498.941	48491
499.016	87006
499.090	287610
499.164	156463
499.238	22746
499.312	16308
499.386	17949
499.460	18297
499.534	16412
499.609	18940
499.683	27909
499.757	29565
499.831	39536
499.905	166055
499.979	229860
500.053	39756
500.127	32539
500.201	18950
500.275	15283
500.349	14133
500.422	16337
500.496	20448
500.570	30567
500.644	80050
500.718	217216
500.792	72712
500.866	16675
500.940	18296
501.013	18413
501.087	14605
501.161	21767
501.235	29795
501.309	55931
501.382	167247
501.456	203389
501.530	39546
501.603	65324
501.677	34910
501.751	12635
501.825	14478
501.898	21548
501.972	70830
502.046	65348
502.119	15823
502.193	26785
502.266	80875
502.340	53859
502.413	29173
502.487	75710
502.561	49040
502.634	17388
502.708	9736
502.781	9020
502.855	8648
502.928	6889
503.002	8202
503.075	7529
503.149	8775
503.222	9264
503.295	10565
503.369	13400
503.442	16538
503.516	42983
503.589	137445
503.662	115789
503.736	30915
503.809	59354
503.882	61373
503.956	67021
504.029	82660
504.102	23238
504.175	20805
504.249	11728
504.322	10068
504.395	13041
504.468	8048
504.542	8976
504.615	7638
504.688	6840
504.761	5244
504.834	8421
504.907	7878
504.980	11458
505.053	8354
505.127	7995
505.200	11411
505.273	13274
505.346	9396
505.419	6450
505.492	7456
505.565	5727
505.638	6058
505.711	5106
505.784	5018
505.857	5135
505.930	6482
506.003	5847
506.076	7052
506.149	9079
506.221	14037
506.294	11693
506.367	21178
506.440	94920
506.513	72332
506.586	14797
506.659	8353
506.731	6990
506.804	7451
506.877	9133
506.950	8945
507.022	5560
507.095	7684
507.168	11710
507.241	6250
507.313	4573
507.386	5027
507.459	7830
507.531	5516
507.604	5894
507.677	5141
507.749	5502
507.822	6590
507.894	12412
507.967	19567
508.040	13858
508.112	10941
508.185	10846
508.257	8285
508.330	10735
508.402	9252
508.475	9717
508.547	10083
508.620	10642
508.692	15619
508.765	12012
508.837	7464
508.909	8194
508.982	7271
509.054	8567
509.127	7281
509.199	7304
509.271	7919
509.344	7233
509.416	6646
509.488	7174
509.560	8545
509.633	7835
509.705	7313
509.777	7460
509.849	10345
509.922	9303
509.994	9626
510.066	8921
510.138	8990
510.210	18895
510.283	18480
510.355	14598
510.427	12418
510.499	11056
510.571	10919
510.643	10302
510.715	12493
510.787	11886
510.859	10546
510.931	11857
511.003	13668
511.076	13970
511.148	11034
511.219	10300
511.291	15011
511.363	20546
511.435	10476
511.507	9107
511.579	9156
511.651	9745
511.723	9427
511.795	8930
511.867	9327
511.939	11035
512.010	18699
512.082	19943
512.154	9163
512.226	9669
512.298	12287
512.369	20868
512.441	15938
512.513	14137
512.585	11908
512.656	11485
512.728	11407
512.800	11129
512.871	10119
512.943	11203
513.015	9516
513.086	10131
513.158	9980
513.230	10072
513.301	10846
513.373	13581
513.444	10404
513.516	9035
513.588	9391
513.659	9031
513.731	10538
513.802	10045
513.874	13380
513.945	20186
514.016	12175
514.088	9347
514.159	9394
514.231	10576
514.302	16074
514.374	15100
514.445	13296
514.516	23445
514.588	22413
514.659	12909
514.730	21355
514.802	19323
514.873	15349
514.944	20130
515.016	14446
515.087	14502
515.158	16122
515.229	26682
515.301	17873
515.372	25157
515.443	19037
515.514	14647
515.585	9860
515.656	11572
515.728	9752
515.799	9608
515.870	9597
515.941	9537
516.012	10162
516.083	12350
516.154	12221
516.225	14022
516.296	12490
516.367	12229
516.438	11510
516.509	13680
516.580	15317
516.651	27654
516.722	95816
516.793	79297
516.864	20001
516.935	20372
517.006	20211
517.077	24005
517.148	38003
517.219	84220
517.289	194165
517.360	121511
517.431	59423
517.502	14892
517.573	13126
517.643	12858
517.714	14220
517.785	14841
517.856	13748
517.926	15223
517.997	16048
518.068	17393
518.138	21392
518.209	24117
518.280	54348
518.350	231493
518.421	158171
518.492	25521
518.562	15014
518.633	15319
518.703	12771
518.774	14726
518.845	20984
518.915	24025
518.986	16407
519.056	16344
519.127	21387
519.197	31652
519.268	89990
519.338	93586
519.408	20724
519.479	16564
519.549	12789
519.620	10564
519.690	9241
519.760	9160
519.831	8445
519.901	9610
519.971	8114
520.042	9108
520.112	11203
520.182	11287
520.253	10564
520.323	10499
520.393	11343
520.463	18253
520.534	11609
520.604	25593
520.674	15462
520.744	13486
520.814	24130
520.885	27494
520.955	27042
521.025	117263
521.095	75799
521.165	12937
521.235	10851
521.305	9834
521.375	8463
521.445	8512
521.515	8718
521.585	10202
521.655	10551
521.725	8912
521.795	10010
521.865	7577
521.935	12030
522.005	13094
522.075	8114
522.145	9787
522.215	9683
522.285	14340
522.355	15741
522.424	30893
522.494	32412
522.564	15086
522.634	14559
522.704	39266
522.774	25656
522.843	8594
522.913	7160
522.983	8390
523.053	7448
523.122	7916
523.192	7249
523.262	16943
523.331	25080
523.401	9875
523.471	6456
523.540	6699
523.610	4483
523.680	6070
523.749	5787
523.819	7523
523.888	8978
523.958	7175
524.027	6216
524.097	8316
524.166	7110
524.236	6321
524.305	7378
524.375	6196
524.444	6008
524.514	7701
524.583	6620
524.653	8677
524.722	10437
524.791	8178
524.861	6894
524.930	6869
524.999	5627
525.069	8686
525.138	7740
525.207	10469
525.277	7580
525.346	6563
525.415	6994
525.484	6341
525.554	6807
525.623	7699
525.692	6969
525.761	6986
525.830	6182
525.900	6569
525.969	9001
526.038	11734
526.107	10900
526.176	28212
526.245	29678
526.314	15487
526.383	20433
526.452	25403
526.522	32901
526.591	52195
526.660	26615
526.729	16319
526.797	15456
526.867	22842
526.935	95893
527.004	133314
527.073	75140
527.142	13012
527.211	8000
527.280	7372
527.349	7815
527.418	5609
527.487	5733
527.555	5177
527.624	3997
527.693	4720
527.762	5066
527.831	4948
527.899	4443
527.968	5322
528.037	4114
528.106	6077
528.174	8128
528.243	9877
528.312	10651
528.380	15156
528.449	6816
528.518	5755
528.586	3638
528.655	4514
528.723	4474
528.792	4061
528.861	4733
528.929	4370
528.998	5035
529.066	4713
529.135	4372
529.203	4638
529.272	3815
529.340	5716
529.409	5327
529.477	5463
529.545	6160
529.614	8943
529.682	7682
529.751	10438
529.819	9056
529.887	8021
529.956	5483
530.024	5941
530.092	4426
530.161	6293
530.229	6565
530.297	6506
530.365	5585
530.434	4863
530.502	3904
530.570	5361
530.638	3212
530.707	5268
530.775	6222
530.843	5229
530.911	4943
530.979	4715
531.047	4402
531.115	6015
531.183	4073
531.252	5211
531.320	4743
531.388	5186
531.456	5573
531.524	3580
531.592	5599
531.660	6149
531.728	4420
531.796	5833
531.864	4550
531.932	5265
532.000	5116
532.067	5781
532.135	5111
532.203	7071
532.271	6719
532.339	9024
532.407	16077
532.475	15776
532.542	8405
532.610	8967
532.678	8800
532.746	23950
532.814	86206
532.881	33522
532.949	7782
533.017	6598
533.084	5691
533.152	6505
533.220	5104
533.287	6187
533.355	4675
533.423	5744
533.490	5819
533.558	5144
533.625	5492
533.693	6930
533.761	6874
533.828	7346
533.896	5612
533.963	10032
534.031	11791
534.098	13855
534.166	8818
534.233	7244
534.300	7125
534.368	8019
534.435	5850
534.503	6105
534.570	5519
534.637	6218
534.705	6598
534.772	6467
534.840	6404
534.907	13549
534.974	22926
535.041	8508
535.109	8026
535.176	6348
535.243	4538
535.310	4811
535.378	4676
535.445	5527
535.512	4793
535.579	5922
535.646	4624
535.714	6342
535.781	7308
535.848	7978
535.915	7890
535.982	8549
536.049	6262
536.116	9051
536.183	7189
536.250	5893
536.317	5740
536.384	6948
536.451	7241
536.518	7723
536.585	6117
536.652	9521
536.719	8764
536.786	7916
536.853	6772
536.920	9606
536.987	13018
537.053	11333
537.120	32757
537.187	47512
537.254	8044
537.321	4987
537.388	6674
537.454	4680
537.521	3720
537.588	5432
537.654	6072
537.721	8482
537.788	7463
537.855	6422
537.921	6110
537.988	6046
538.055	6173
538.121	5403
538.188	5691
538.254	7054
538.321	10289
538.388	10061
538.454	6080
538.521	5652
538.587	4889
538.654	4569
538.720	5109
538.787	5403
538.853	4958
538.920	6731
538.986	7203
539.053	6347
539.119	5400
539.185	5917
539.252	6553
539.318	7807
539.385	8266
539.451	7844
539.517	8515
539.583	8098
539.650	10917
539.716	33194
539.782	15850
539.849	6121
539.915	6064
539.981	5774
540.047	6152
540.114	6716
540.180	7053
540.246	6195
540.312	7033
540.378	11243
540.444	13212
540.510	11882
540.576	33731
540.643	19431
540.709	5072
540.775	7044
540.841	6085
540.907	7652
540.973	12976
541.039	10431
541.105	10235
541.171	7628
541.237	5676
541.303	7541
541.369	6764
541.435	8121
541.500	9653
541.566	8121
541.632	5405
541.698	4872
541.764	5229
541.830	5611
541.896	5109
541.961	6170
542.027	5508
542.093	6716
542.159	5640
542.224	6562
542.290	8838
542.356	10505
542.421	12174
542.487	8493
542.553	6659
542.618	7981
542.684	7321
542.750	6303
542.815	7650
542.881	9610
542.947	26592
543.012	29828
543.078	7278
543.143	5280
543.209	7006
543.274	5917
543.340	7251
543.405	10196
543.471	20351
543.536	8716
543.602	6774
543.667	5433
543.732	6882
543.798	5652
543.863	6432
543.928	5366
543.994	4860
544.059	5616
544.124	6114
544.190	5935
544.255	5907
544.320	6284
544.386	4851
544.451	7555
544.516	7920
544.581	8247
544.646	15028
544.712	34888
544.777	13567
544.842	8865
544.907	9444
544.972	7866
545.037	7332
545.102	8127
545.168	7954
545.233	9847
545.298	8489
545.363	11081
545.428	11234
545.493	12913
545.558	24322
545.623	15938
545.688	9159
545.753	8753
545.818	9086
545.883	10167
545.947	8142
546.012	9085
546.077	9579
546.142	8525
546.207	6714
546.272	9696
546.337	9152
546.401	9858
546.466	8223
546.531	8042
546.596	9612
546.661	9314
546.725	8982
546.790	7874
546.855	8037
546.919	7151
546.984	8357
547.049	7783
547.113	10346
547.178	8604
547.243	9826
547.307	10681
547.372	11417
547.436	13462
547.501	10322
547.565	10492
547.630	10473
547.695	11212
547.759	12431
547.823	13003
547.888	10043
547.952	9921
548.017	10268
548.081	11456
548.146	14744
548.210	15301
548.274	11183
548.339	9784
548.403	9277
548.468	8951
548.532	8991
548.596	9110
548.660	8979
548.725	10614
548.789	11215
548.853	13639
548.917	10595
548.982	13024
549.046	16609
549.110	9437
549.174	8897
549.238	9325
549.303	8253
549.367	11343
549.431	8861
549.495	9714
549.559	8747
549.623	10148
549.687	11191
549.751	13027
549.815	12288
549.879	13591
549.943	9935
550.007	12632
550.071	11956
550.135	13924
550.199	11125
550.263	10607
550.327	11441
550.391	15454
550.455	12850
550.519	11743
550.582	11249
550.646	12639
550.710	14668
550.774	13023
550.838	11916
550.901	12936
550.965	13618
551.029	14062
551.093	15671
551.156	17503
551.220	29114
551.284	39949
551.347	19730
551.411	32047
551.475	49485
551.538	18118
551.602	12295
551.666	11826
551.729	10953
551.793	11118
551.856	11379
551.920	12277
551.983	10805
552.047	10532
552.110	10457
552.174	10527
552.237	9983
552.301	11389
552.364	9597
552.428	9825
552.491	10125
552.554	11410
552.618	9524
552.681	11067
552.745	10295
552.808	12430
552.871	14842
552.934	13051
552.998	11268
553.061	12788
553.124	12003
553.187	12616
553.251	12915
553.314	14289
553.377	13967
553.440	18196
553.503	41466
553.567	106911
553.630	33563
553.693	11941
553.756	11444
553.819	11345
553.882	10172
553.945	10576
554.008	9861
554.071	9833
554.134	9961
554.197	9465
554.260	8337
554.323	10973
554.386	10458
554.449	9947
554.512	10556
554.575	8505
554.638	8727
554.701	9629
554.764	9291
554.827	9192
554.889	9103
554.952	8837
555.015	8285
555.078	8106
555.141	8969
555.203	7153
555.266	8331
555.329	9055
555.391	8068
555.454	8116
555.517	8585
555.580	8453
555.642	8226
555.705	8215
555.768	7477
555.830	8349
555.893	7411
555.955	7934
556.018	6760
556.080	7280
556.143	8180
556.206	7438
556.268	7736
556.330	8279
556.393	8199
556.455	8216
556.518	11240
556.580	13045
556.643	7735
556.705	7489
556.767	6139
556.830	7280
556.892	8134
556.955	9204
557.017	8346
557.079	8211
557.142	7048
557.204	7786
557.266	10830
557.328	12010
557.391	6251
557.453	6512
557.515	6760
557.577	7043
557.639	7928
557.701	7344
557.764	6099
557.826	6833
557.888	7075
557.950	6497
558.012	6499
558.074	7296
558.136	10062
558.198	20332
558.260	14009
558.322	8112
558.384	7906
558.446	9514
558.508	7960
558.570	11601
558.632	14031
558.694	21215
558.756	17929
558.818	32779
558.880	103172
558.942	50845
559.003	22606
559.065	17387
559.127	8906
559.189	9496
559.251	9553
559.312	10893
559.374	16450
559.436	55716
559.498	45193
559.559	10216
559.621	9901
559.683	9939
559.744	13004
559.806	27942
559.868	49444
559.929	18230
559.991	12049
560.052	11856
560.114	19264
560.176	19173
560.237	12745
560.299	22251
560.360	11201
560.422	8368
560.483	8383
560.545	7517
560.606	6768
560.667	8210
560.729	7672
560.790	6976
560.852	7240
560.913	8025
560.974	6823
561.036	7327
561.097	7238
561.158	7766
561.220	8285
561.281	7713
561.342	7073
561.403	8613
561.465	9510
561.526	12959
561.587	19787
561.648	10838
561.709	6966
561.771	8246
561.832	8272
561.893	7937
561.954	7500
562.015	7584
562.076	6409
562.137	7781
562.198	7234
562.259	7430
562.320	7297
562.381	8340
562.442	9431
562.503	9742
562.564	8096
562.625	7082
562.686	7273
562.747	7601
562.808	8167
562.869	8143
562.930	9394
562.991	9541
563.051	8325
563.112	9606
563.173	8090
563.234	7838
563.294	7766
563.355	8159
563.416	7738
563.477	7588
563.537	7244
563.598	9936
563.659	8710
563.720	8633
563.780	8157
563.841	8396
563.901	9058
563.962	8044
564.023	8349
564.083	8840
564.144	8287
564.204	9223
564.265	8235
564.325	9563
564.386	15338
564.446	19733
564.507	8421
564.567	8560
564.628	7658
564.688	7956
564.749	7444
564.809	9321
564.869	10379
564.930	9239
564.990	8834
565.050	7972
565.111	8491
565.171	8625
565.231	7857
565.292	8794
565.352	7733
565.412	9957
565.472	8493
565.532	8301
565.593	7835
565.653	7669
565.713	9133
565.773	9809
565.833	9868
565.893	11687
565.953	9535
566.013	9970
566.074	10038
566.134	11482
566.194	16369
566.254	19078
566.314	13459
566.374	12382
566.434	10868
566.494	11886
566.554	11411
566.614	13520
566.673	12728
566.733	13911
566.793	13429
566.853	15151
566.913	14746
566.973	15569
567.033	16504
567.092	15741
567.152	14071
567.212	16535
567.272	15386
567.331	17207
567.391	16715
567.451	18060
567.511	21659
567.570	22967
567.630	17579
567.690	16312
567.749	15638
567.809	18148
567.868	20427
567.928	23227
567.988	25494
568.047	31261
568.107	37375
568.166	48336
568.226	69615
568.285	104693
568.345	102809
568.404	83818
568.464	72820
568.523	65882
568.582	64697
568.642	69809
568.701	80814
568.761	108993
568.820	166142
568.879	192661
568.939	156015
568.998	118460
569.057	88465
569.116	71416
569.176	57085
569.235	47080
569.294	40016
569.353	34155
569.413	29230
569.472	27243
569.531	23232
569.590	23221
569.649	19479
569.708	18484
569.767	17277
569.827	17726
569.886	15765
569.945	13452
570.004	13932
570.063	13235
570.122	12325
570.181	12596
570.240	12104
570.299	13295
570.358	12634
570.417	11906
570.475	9563
570.534	11082
570.593	10174
570.652	9971
570.711	9122
570.770	9522
570.829	9731
570.887	9462
570.946	9616
571.005	9231
571.064	8622
571.122	8158
571.181	9869
571.240	8848
571.299	7768
571.357	9199
571.416	8599
571.475	8631
571.533	9725
571.592	8441
571.650	8116
571.709	7525
571.768	7740
571.826	7983
571.885	7854
571.943	7313
572.002	6372
572.060	7813
572.119	6318
572.177	7091
572.236	6220
572.294	7045
572.352	6908
572.411	7203
572.469	6202
572.528	6509
572.586	6590
572.644	7505
572.703	8311
572.761	7434
572.819	6642
572.877	7031
572.936	5961
572.994	6209
573.052	6423
573.110	5644
573.169	6339
573.227	6278
573.285	6233
573.343	5890
573.401	6939
573.459	7362
573.517	5635
573.576	5828
573.634	6675
573.692	7178
573.750	5685
573.808	5860
573.866	5699
573.924	7984
573.982	7600
574.040	6385
574.098	5847
574.155	6359
574.213	5703
574.271	5636
574.329	5642
574.387	5812
574.445	5740
574.503	6610
574.560	5395
574.618	4420
574.676	4457
574.734	4382
574.792	6405
574.849	6118
574.907	4933
574.965	5438
575.022	5139
575.080	5264
575.138	4999
575.195	6368
575.253	5304
575.311	5911
575.368	5343
575.426	5966
575.483	5810
575.541	5718
575.598	5585
575.656	5788
575.713	5822
575.771	5631
575.828	5441
575.886	5171
575.943	6659
576.001	6220
576.058	5991
576.115	6930
576.173	6937
576.230	8380
576.287	7635
576.345	7910
576.402	5923
576.459	6010
576.517	5376
576.574	7391
576.631	7035
576.688	6977
576.746	5461
576.803	6232
576.860	5991
576.917	6603
576.974	5980
577.031	7227
577.089	6083
577.146	6628
577.203	5712
577.260	6908
577.317	7100
577.374	7716
577.431	6873
577.488	6852
577.545	6427
577.602	6704
577.659	6197
577.716	6922
577.773	7416
577.830	7827
577.886	6873
577.943	6138
578.000	6510
578.057	7198
578.114	7938
578.171	7755
578.227	9276
578.284	9039
578.341	8794
578.398	7417
578.454	8093
578.511	7332
578.568	8972
578.625	7449
578.681	6591
578.738	7029
578.794	6203
578.851	6162
578.908	6365
578.964	6952
579.021	6720
579.077	6595
579.134	6983
579.190	6091
579.247	6393
579.303	5856
579.360	5714
579.416	6606
579.473	5744
579.529	6646
579.586	6053
579.642	6804
579.698	6138
579.755	7557
579.811	6507
579.867	7745
579.924	6953
579.980	7764
580.036	7904
580.093	9974
580.149	11664
580.205	13384
580.261	12480
580.317	10701
580.374	8881
580.430	9348
580.486	8632
580.542	8580
580.598	7423
580.619	7840
580.654	8574
580.692	7533
580.710	7028
580.765	7539
580.767	7562
580.823	7130
580.838	7140
580.879	7201
580.911	7380
580.935	7519
580.984	7520
580.991	7532
581.047	7116
581.057	7313
581.103	8225
581.130	8311
581.159	8402
581.203	8802
581.215	8918
581.270	9034
581.276	9009
581.326	8866
581.349	8464
581.382	7887
581.422	7775
581.438	7728
581.494	8079
581.494	8074
581.550	8084
581.567	7852
581.606	7312
581.640	7921
581.661	8367
581.713	8773
581.717	8798
581.773	7880
581.786	7785
581.829	7584
581.859	7741
581.885	7814
581.932	8094
581.940	8183
581.996	9009
582.004	8860
582.052	7895
582.077	7820
582.107	7753
582.150	7914
582.163	7983
582.219	8099
582.223	8095
582.274	8081
582.296	8104
582.330	8127
582.368	8279
582.386	8388
582.441	8561
582.441	8563
582.497	7718
582.514	8280
582.552	9663
582.587	9463
582.608	9298
582.659	9225
582.663	9215
582.719	8801
582.732	8785
582.774	8904
582.805	8878
582.830	8813
582.877	9488
582.885	9588
582.941	8969
582.950	8952
582.996	9053
583.023	9318
583.052	9570
583.095	9845
583.107	9955
583.162	11162
583.168	11307
583.218	12434
583.240	12124
583.273	11707
583.313	11421
583.328	11249
583.384	10184
583.385	10160
583.439	9679
583.458	9741
583.494	9885
583.531	9886
583.549	9893
583.603	9403
583.605	9382
583.660	9665
583.676	9547
583.715	9344
583.748	9644
583.770	9816
583.820	10027
583.825	10057
583.881	9851
583.893	9840
583.936	9890
583.965	10149
583.991	10171
584.038	9836
584.046	9806
584.101	9869
584.110	9816
584.156	9607
584.183	9552
584.211	9493
584.255	9737
584.266	9769
584.321	10356
584.328	10377
584.376	10717
584.400	11077
584.431	11472
584.472	11008
584.486	10866
584.541	11404
584.545	11391
584.596	11175
584.617	11319
584.651	11443
584.689	11690
584.706	11876
584.761	12384
584.762	12381
584.816	11397
584.834	11580
584.871	12203
584.906	12623
584.926	12710
584.978	13092
584.980	13118
585.035	13096
585.051	13227
585.090	13513
585.123	13576
585.145	13550
585.195	14584
585.200	14705
585.254	14870
585.267	15231
585.309	16380
585.340	16972
585.364	17299
585.412	17740
585.419	17699
585.473	16410
585.484	16353
585.528	16504
585.556	16507
585.583	16952
585.628	19084
585.637	19656
585.692	25122
585.700	26446
585.747	34191
585.772	33344
585.801	29263
585.845	21549
585.856	20059
585.910	17965
585.917	17859
585.965	17910
585.989	17948
586.019	18157
586.061	18540
586.074	18570
586.128	18631
586.133	18666
586.183	19378
586.205	19781
586.237	20385
586.277	20647
586.292	20678
586.346	21203
586.349	21242
586.401	21843
586.421	22104
586.455	22547
586.493	23540
586.509	24253
586.564	26063
586.565	26193
586.618	33380
586.637	34936
586.672	34831
586.709	30890
586.727	28823
586.781	26913
586.781	26902
586.835	26872
586.853	27049
586.889	27883
586.925	28379
586.944	28533
586.996	28969
586.998	28988
587.052	31042
587.068	31596
587.106	32695
587.140	33263
587.161	33675
587.212	34806
587.215	34815
587.269	36191
587.284	36564
587.323	38309
587.356	39281
587.377	39801
587.427	41991
587.431	42159
587.485	44508
587.499	45177
587.539	46776
587.571	48324
587.593	49698
587.643	52376
587.648	52619
587.702	56286
587.715	57250
587.755	60393
587.786	63135
587.810	65452
587.858	70080
587.864	70588
587.917	77138
587.930	78564
587.971	83899
588.001	88450
588.025	92543
588.073	101644
588.079	102904
588.133	114833
588.145	117898
588.187	129368
588.217	137796
588.241	145206
588.288	161990
588.295	164490
588.348	186832
588.360	192350
588.402	216184
588.431	233968
588.456	250534
588.503	286456
588.510	292626
588.564	346598
588.575	359080
588.617	416487
588.646	460747
588.671	511470
588.718	614950
588.725	635934
588.778	809094
588.789	843989
588.832	1007103
588.861	1105528
588.886	1130088
588.932	1125306
588.939	1101877
588.993	876002
589.004	855165
589.047	1027774
589.075	1146285
589.100	1152751
589.147	1091971
589.154	1068435
589.207	856606
589.218	815012
589.261	727510
589.290	677967
589.314	672388
589.361	676396
589.368	687795
589.421	800399
589.433	825988
589.475	968073
589.504	1056661
589.528	1058201
589.576	1002662
589.582	997064
589.635	1002672
589.647	1006747
589.689	980556
589.718	919502
589.742	806519
589.790	574523
589.795	557845
589.849	415048
589.861	384449
589.902	324581
589.932	283400
589.955	259763
590.004	213424
590.009	210184
590.062	180482
590.075	173435
590.115	155348
590.146	142271
590.168	135724
590.218	122878
590.222	121796
590.275	108836
590.289	105690
590.328	98834
590.360	93422
590.381	90319
590.431	83078
590.435	82622
590.488	76405
590.503	74673
590.541	71168
590.574	68289
590.594	66379
590.645	61664
590.647	61482
590.700	57592
590.716	56422
590.753	54659
590.787	53143
590.806	51636
590.859	47769
590.859	47720
590.912	46073
590.930	45617
590.965	43884
591.001	42186
591.018	41753
591.071	40777
591.072	40778
591.124	39436
591.143	39005
591.177	37916
591.214	36863
591.230	36496
591.283	35332
591.285	35289
591.336	34674
591.356	34496
591.389	33738
591.427	32729
591.442	32325
591.495	30923
591.498	30830
591.547	29850
591.569	29435
591.600	29330
591.640	29098
591.653	28846
591.706	27947
591.711	27844
591.759	27511
591.782	27384
591.811	27670
591.853	28212
591.864	27900
591.917	26105
591.924	25859
591.969	24748
591.995	24127
592.022	24206
592.066	24363
592.075	24308
592.127	23980
592.137	23933
592.180	25166
592.208	25979
592.233	25189
592.279	23578
592.285	23406
592.338	22006
592.350	21701
592.390	20681
592.421	19912
592.443	20187
592.491	20846
592.495	20781
592.548	19964
592.562	19749
592.600	19744
592.633	19754
592.653	19497
592.704	18745
592.705	18846
592.775	18586
592.846	18634
592.916	18462
592.987	18356
593.058	18032
593.128	16889
593.199	17274
593.270	15486
593.341	15544
593.411	15307
593.482	15766
593.553	16346
593.623	15266
593.694	14186
593.764	15497
593.835	15514
593.906	14299
593.976	14237
594.047	13764
594.117	13771
594.188	16192
594.258	13948
594.329	13067
594.399	13089
594.470	12760
594.540	13022
594.611	12501
594.681	12047
594.751	13015
594.822	13782
594.892	13076
594.963	12777
595.033	13337
595.103	12174
595.174	13406
595.244	15538
595.314	20436
595.384	14148
595.455	11680
595.525	11722
595.595	11547
595.665	11392
595.736	12506
595.806	12374
595.876	11493
595.946	12091
596.016	11997
596.087	11197
596.157	11015
596.227	11299
596.297	11366
596.367	11665
596.437	12042
596.507	13954
596.577	18088
596.647	13414
596.717	10844
596.787	11303
596.857	11587
596.927	11352
596.997	10995
597.067	11646
597.137	12846
597.207	13140
597.277	11503
597.347	10285
597.417	10676
597.487	10775
597.557	10838
597.626	11406
597.696	11641
597.766	13290
597.836	15040
597.906	13596
597.975	10754
598.045	11168
598.115	10380
598.185	10262
598.254	10841
598.324	11619
598.394	11542
598.464	10652
598.533	10987
598.603	10023
598.672	10559
598.742	10465
598.812	10742
598.881	10061
598.951	10769
599.020	10308
599.090	10118
599.159	9986
599.229	10165
599.299	9360
599.368	9835
599.437	9663
599.507	10551
599.576	10188
599.646	11199
599.715	11420
599.785	10346
599.854	10197
599.924	10541
599.993	11483
600.062	9687
600.132	9093
600.201	10234
600.270	10806
600.340	10546
600.409	10230
600.478	10047
600.547	9938
600.617	10260
600.686	9959
600.755	8536
600.824	8936
600.894	9284
600.963	9160
601.032	8038
601.101	8647
601.170	9323
601.239	9119
601.308	9351
601.378	9300
601.447	8102
601.516	8723
601.585	8595
601.654	7994
601.723	9614
601.792	8691
601.861	9520
601.930	11176
601.999	10460
602.068	8708
602.137	9637
602.206	8740
602.275	9389
602.343	9524
602.412	9324
602.481	9250
602.550	8413
602.619	8607
602.688	9566
602.756	9269
602.825	9779
602.894	8951
602.963	8182
603.032	9328
603.100	8660
603.169	8784
603.238	8628
603.307	9058
603.375	8251
603.444	8594
603.513	7996
603.581	8618
603.650	8812
603.719	7390
603.787	8690
603.856	8133
603.924	8275
603.993	8317
604.061	7810
604.130	8527
604.198	9219
604.267	7976
604.335	8299
604.404	8629
604.472	9298
604.541	8319
604.609	8828
604.678	8686
604.746	8619
604.815	8552
604.883	9050
604.951	8452
605.020	8297
605.088	8555
605.156	9005
605.225	8638
605.293	8853
605.361	8301
605.429	8608
605.498	8919
605.566	8422
605.634	8946
605.702	9129
605.771	9466
605.839	9067
605.907	8800
605.975	9267
606.043	8858
606.111	8842
606.180	9384
606.248	10579
606.316	12656
606.384	10861
606.452	10427
606.520	10050
606.588	9033
606.656	8974
606.724	8123
606.792	7827
606.860	7130
606.928	7487
606.996	6518
607.064	7440
607.132	6652
607.200	6865
607.267	7378
607.335	7316
607.403	7407
607.471	8194
607.539	7463
607.607	7157
607.674	6593
607.742	7076
607.810	6920
607.878	6942
607.946	6354
608.013	7009
608.081	6842
608.149	6742
608.216	6935
608.284	7079
608.352	7788
608.419	7559
608.487	8041
608.555	8387
608.622	7253
608.690	6902
608.757	7398
608.825	8671
608.893	8120
608.960	7867
609.028	8913
609.095	9739
609.163	9427
609.230	7592
609.298	7529
609.365	6064
609.432	7050
609.500	6982
609.567	7568
609.635	7629
609.702	8304
609.769	9080
609.837	8042
609.904	8409
609.971	6730
610.039	8234
610.106	10408
610.173	15734
610.241	32049
610.308	46577
610.375	35806
610.442	12890
610.509	7764
610.577	8200
610.644	7806
610.711	7472
610.778	7520
610.845	8202
610.912	7380
610.980	8994
611.047	11944
611.114	12416
611.181	7482
611.248	6713
611.315	7617
611.382	7150
611.449	6390
611.516	7331
611.583	6967
611.650	7079
611.717	7319
611.784	7866
611.851	7438
611.918	8652
611.984	9097
612.051	12105
612.118	20918
612.185	50305
612.252	59336
612.319	15249
612.386	8690
612.452	8925
612.519	9138
612.586	10699
612.653	10874
612.719	8378
612.786	8711
612.853	7973
612.919	6671
612.986	7689
613.053	6615
613.120	6038
613.186	5726
613.253	7650
613.319	7507
613.386	7534
613.453	7269
613.519	7310
613.586	7796
613.652	11647
613.719	9801
613.785	9354
613.852	8333
613.918	7240
613.985	8517
614.051	11096
614.118	23431
614.184	38457
614.250	10984
614.317	7562
614.383	6199
614.449	7101
614.516	6060
614.582	7858
614.648	7161
614.715	7392
614.781	7243
614.847	7505
614.914	7463
614.980	7862
615.046	7384
615.112	7987
615.179	7145
615.245	8871
615.311	12746
615.377	24700
615.443	37851
615.509	21664
615.575	11777
615.642	10167
615.708	9334
615.774	10710
615.840	12148
615.906	16326
615.972	25698
616.038	52802
616.104	87112
616.170	88701
616.236	107845
616.302	30103
616.368	14365
616.434	11684
616.500	10317
616.565	10003
616.631	10959
616.697	9824
616.763	9565
616.829	10564
616.895	16256
616.961	20081
617.026	11893
617.092	9019
617.158	7462
617.224	7760
617.289	7423
617.355	7703
617.421	7810
617.487	7445
617.552	7214
617.618	6492
617.684	6469
617.749	7990
617.815	6762
617.880	6798
617.946	6852
618.012	7057
618.077	6707
618.143	6836
618.208	6632
618.274	8142
618.339	8104
618.405	6863
618.470	6581
618.536	7280
618.601	7233
618.667	8080
618.732	7052
618.798	7184
618.863	6730
618.928	6891
618.994	7097
619.059	8123
619.124	9590
619.190	7909
619.255	6742
619.320	6550
619.386	6498
619.451	6874
619.516	7719
619.581	7151
619.647	6205
619.712	6602
619.777	6400
619.842	6386
619.907	6891
619.972	6719
620.038	6636
620.103	7380
620.168	7076
620.233	6292
620.298	6828
620.363	5868
620.428	6745
620.493	6822
620.558	6697
620.623	5747
620.688	6513
620.753	5935
620.818	6043
620.883	6459
620.948	6879
621.013	6796
621.078	6697
621.143	6352
621.207	7745
621.272	6848
621.337	7003
621.402	8358
621.467	9474
621.532	11066
621.596	8749
621.661	7983
621.726	7314
621.791	7687
621.855	8321
621.920	7905
621.985	8401
622.049	10031
622.114	8869
622.179	8377
622.243	7784
622.308	8937
622.373	9180
622.437	8880
622.502	8086
622.566	7990
622.631	7515
622.695	8516
622.760	8575
622.824	7932
622.889	8034
622.953	8492
623.018	10177
623.082	11798
623.147	8288
623.211	8365
623.276	8518
623.340	7206
623.404	7954
623.469	7751
623.533	8066
623.597	7073
623.662	6873
623.726	7301
623.790	6857
623.854	7499
623.919	7453
623.983	7207
624.047	7449
624.111	7411
624.176	7621
624.240	7842
624.304	8196
624.368	7388
624.432	6643
624.496	6503
624.560	6512
624.625	8005
624.689	7168
624.753	7025
624.817	6649
624.881	6608
624.945	6680
625.009	6946
625.073	7492
625.137	7356
625.201	8232
625.265	9873
625.329	7352
625.393	7881
625.456	7132
625.520	7567
625.584	7026
625.648	9938
625.712	13403
625.776	27298
625.839	39641
625.903	23852
625.967	8706
626.031	10945
626.095	21025
626.158	12610
626.222	6894
626.286	5877
626.349	5619
626.413	5838
626.477	6826
626.540	5457
626.604	5778
626.668	5924
626.731	5162
626.795	5904
626.858	6773
626.922	4948
626.986	6177
627.049	5501
627.113	5538
627.176	5079
627.240	5121
627.303	4724
627.366	4930
627.430	5775
627.493	5185
627.557	6009
627.620	5543
627.684	6095
627.747	5683
627.810	5671
627.874	4815
627.937	5483
628.000	6048
628.064	5867
628.127	4399
628.190	4761
628.253	5297
628.317	5477
628.380	4873
628.443	4991
628.506	4368
628.569	4779
628.632	4304
628.696	5099
628.759	4095
628.822	4989
628.885	4109
628.948	3846
629.011	4736
629.074	4153
629.137	4810
629.200	3997
629.263	5390
629.326	4059
629.389	3559
629.452	4445
629.515	4904
629.578	4340
629.641	4912
629.704	4215
629.767	4206
629.830	3621
629.892	3923
629.955	3667
630.018	5137
630.081	4230
630.144	5714
630.207	4412
630.269	4986
630.332	4230
630.395	3683
630.458	3917
630.520	4278
630.583	4736
630.646	3729
630.708	4240
630.771	3562
630.834	4754
630.896	3987
630.959	3380
631.021	3215
631.084	5182
631.146	4068
631.209	5380
631.272	3808
631.334	3762
631.397	3288
631.459	4200
631.522	3407
631.584	3678
631.646	3624
631.709	3509
631.771	4963
631.834	3974
631.896	3682
631.958	3104
632.021	3322
632.083	2747
632.145	3582
632.208	4326
632.270	3325
632.332	3245
632.395	2599
632.457	4022
632.519	3900
632.581	3884
632.643	2988
632.706	4475
632.768	2650
632.830	3413
632.892	3691
632.954	3179
633.016	3172
633.078	2483
633.141	2881
633.203	3621
633.265	2975
633.327	3106
633.389	3292
633.451	3728
633.513	3596
633.575	4509
633.637	3898
633.698	3290
633.760	4197
633.822	3248
633.884	3411
633.946	2668
634.008	3126
634.070	3628
634.132	4016
634.193	4074
634.255	3334
634.317	3332
634.379	3347
634.441	3041
634.502	2508
634.564	3386
634.626	3308
634.687	3216
634.749	3037
634.811	3908
634.873	1912
634.934	3028
634.996	2932
635.057	2581
635.119	2088
635.181	2775
635.242	2973
635.304	1782
635.365	3904
635.427	3322
635.488	2490
635.550	3135
635.611	3072
635.673	2003
635.734	3063
635.796	2696
635.857	2508
635.918	2484
635.980	3533
636.041	2777
636.102	2899
636.164	2575
636.225	2708
636.286	3090
636.348	3958
636.409	2690
636.470	1786
636.531	2840
636.593	2748
636.654	3959
636.715	2977
636.776	2522
636.838	2784
636.899	3380
636.960	1988
637.021	2380
637.082	2764
637.143	3265
637.204	2125
637.265	1642
637.326	1759
637.387	2682
637.448	2151
637.509	2339
637.570	2255
637.631	2410
637.692	2451
637.753	1619
637.814	2526
637.875	2731
637.936	2750
637.997	1764
638.058	2579
638.119	2593
638.179	2263
638.240	2048
638.301	2152
638.362	1993
638.423	2080
638.483	1952
638.544	1181
638.605	2561
638.666	1664
638.726	2432
638.787	2169
638.848	2011
638.908	2517
638.969	1672
639.030	2180
639.090	2343
639.151	1652
639.211	2145
639.272	2107
639.332	3965
639.393	3962
639.453	2190
639.514	1907
639.574	2094
639.635	2127
639.695	2395
639.756	1516
639.816	1891
639.877	1840
639.937	3566
639.997	4610
640.058	2990
640.118	2160
640.178	1530
640.239	1537
640.299	2242
640.359	1747
640.420	1657
640.480	1402
640.540	1788
640.600	1590
640.661	2542
640.721	1497
640.781	2380
640.841	1502
640.901	2449
640.961	2183
641.021	2287
641.082	2000
641.142	2095
641.202	2961
641.262	1149
641.322	2219
641.382	2099
641.442	1196
641.502	1053
641.562	1635
641.622	1387
641.682	1259
641.742	1199
641.802	2302
641.861	2540
641.921	1715
641.981	2603
642.041	2419
642.101	2781
642.161	1670
642.221	1517
642.280	2193
642.340	1666
642.400	1259
642.460	2073
642.519	2034
642.579	1654
642.639	1142
642.698	759
642.758	3591
642.818	1589
642.877	438
642.937	1596
642.997	2374
643.056	1989
643.116	1881
643.175	2778
643.235	1508
643.294	2192
643.354	1233
643.414	1461
643.473	2315
643.532	2059
643.592	2326
643.651	3195
643.711	4824
643.770	9021
643.830	17116
643.889	51084
643.948	31275
644.008	3598
644.067	1575
644.126	2074
644.186	619
644.245	2396
644.304	485
644.363	2064
644.423	937
644.482	1271
644.541	1313
644.600	558
644.659	1889
644.719	1138
644.778	2463
644.837	1801
644.896	3455
644.955	7925
645.014	6303
645.073	4050
645.132	1921
645.191	2217
645.250	1344
645.309	1887
645.368	619
645.427	2558
645.486	1269
645.545	2812
645.604	1675
645.663	1588
645.722	1209
645.781	1551
645.840	1375
645.898	882
645.957	2056
646.016	1998
646.075	3509
646.134	6933
646.192	14963
646.251	38803
646.310	13636
646.369	2812
646.427	1964
646.486	1557
646.545	744
646.603	1183
646.662	1478
646.721	1525
646.779	492
646.838	508
646.896	1339
646.955	1750
647.014	1581
647.072	1937
647.131	3833
647.189	4708
647.248	851
647.306	1522
647.365	1171
647.423	596
647.481	1855
647.540	49
647.598	1787
647.657	1120
647.715	1815
647.773	550
647.832	884
647.890	220
647.948	103
648.007	1720
648.065	527
648.123	939
648.181	2106
648.240	1467
648.298	2515
648.356	1507
648.414	1393
648.472	1656
648.531	1410
648.589	1712
648.647	529
648.705	544
648.763	1275
648.821	1247
648.879	279
648.937	1504
648.995	1056
649.053	816
649.111	1110
649.169	2838
649.227	3757
649.285	5085
649.343	13533
649.401	17295
649.459	5822
649.516	6681
649.574	3472
649.632	8190
649.690	16770
649.748	7460
649.806	2553
649.863	8512
649.921	5871
649.979	4649
650.037	1407
650.094	1121
650.152	1007
650.210	-90
650.268	1645
650.325	898
650.383	748
650.440	-409
650.498	957
650.556	718
650.613	1175
650.671	547
650.728	649
650.786	405
650.843	947
650.901	-187
650.958	663
651.016	1251
651.073	461
651.131	229
651.188	-133
651.246	879
651.303	973
651.360	1123
651.418	-50
651.475	734
651.532	-590
651.590	758
651.647	-220
651.704	949
651.762	509
651.819	973
651.876	492
651.933	335
651.990	775
652.048	111
652.105	-146
652.162	617
652.219	172
652.276	1203
652.333	930
652.390	-93
652.448	612
652.505	743
652.562	962
652.619	1741
652.676	1851
652.733	3392
652.790	873
652.847	309
652.904	470
652.961	110
653.017	-573
653.074	498
653.131	1145
653.188	147
653.245	110
653.302	1190
653.359	-491
653.415	1003
653.472	-199
653.529	700
653.586	-607
653.642	556
653.699	267
653.756	502
653.813	285
653.869	874
653.926	234
653.983	-217
654.039	870
654.096	439
654.152	834
654.209	-450
654.266	598
654.322	125
654.379	609
654.435	937
654.492	1150
654.548	638
654.605	1898
654.661	2950
654.717	343
654.774	672
654.830	428
654.887	188
654.943	595
655.000	834
655.056	193
655.112	1020
655.168	-166
655.225	641
655.281	606
655.337	1070
655.394	1527
655.450	2027
655.506	1189
655.562	1416
655.618	3817
655.675	230
655.731	795
655.787	746
655.843	551
655.899	691
655.955	1321
656.011	753
656.067	-278
656.123	1402
656.179	517
656.235	1643
656.291	607
656.347	2022
656.403	598
656.459	1223
656.515	624
656.571	1077
656.627	808
656.683	858
656.739	1591
656.795	272
656.850	444
656.906	750
656.962	1197
657.018	650
657.074	-535
657.129	685
657.185	969
657.241	-873
657.297	-165
657.352	756
657.408	-182
657.464	280
657.519	39
657.575	656
657.630	-19
657.686	557
657.742	-296
657.797	896
657.853	493
657.908	1395
657.964	128
658.019	569
658.075	640
658.130	106
658.186	57
658.241	939
658.297	639
658.352	-481
658.407	1297
658.463	-539
658.518	-44
658.573	734
658.629	43
658.684	396
658.739	575
658.795	-311
658.850	-45
658.905	-263
658.960	302
659.016	-98
659.071	-20
659.126	306
659.181	-200
659.236	991
659.291	1453
659.346	231
659.401	620
659.457	922
659.512	1791
659.567	2053
659.622	278
659.677	385
659.732	-773
659.787	218
659.842	-134
659.897	1395
659.952	423
660.007	383
660.061	-173
660.116	-819
660.171	-141
660.226	494
660.281	601
660.336	99
660.391	-172
660.445	24
660.500	-5
660.555	-254
660.610	-71
660.664	168
660.719	120
660.774	480
660.828	184
660.883	505
660.938	144
660.992	95
661.047	991
661.101	105
661.156	-729
661.211	-148
661.265	268
661.320	1127
661.374	660
661.429	40
661.483	-8
661.538	-335
661.592	980
661.647	106
661.701	802
661.755	851
661.810	357
661.864	-442
661.919	-432
661.973	718
662.027	8
662.081	252
662.136	106
662.190	8
662.244	870
662.299	418
662.353	-58
662.407	-134
662.461	91
662.515	509
662.569	220
662.624	1227
662.678	243
662.732	622
662.786	-148
662.840	359
662.894	299
662.948	116
663.002	-145
663.056	111
663.110	-731
663.164	-102
663.218	506
663.272	223
663.326	762
663.380	257
663.434	238
663.488	-429
663.542	858
663.595	373
663.649	-667
663.703	220
663.757	32
663.811	-665
663.864	-42
663.918	373
663.972	-361
664.026	307
664.079	-425
664.133	803
664.187	530
664.240	287
664.294	161
664.348	696
664.401	313
664.455	415
664.508	18
664.562	154
664.615	647
664.669	-148
664.722	-427
664.776	242
664.829	242
664.883	95
664.936	35
664.990	309
665.043	756
665.097	-326
665.150	750
665.203	-272
665.257	538
665.310	-177
665.363	-243
665.417	471
665.470	-12
665.523	839
665.576	184
665.630	43
665.683	-22
665.736	76
665.789	250
665.842	577
665.895	259
665.949	710
666.002	-130
666.055	625
666.108	933
666.161	1302
666.214	251
666.267	464
666.320	543
666.373	455
666.426	-106
666.479	-26
666.532	7
666.585	-72
666.638	1113
666.691	355
666.744	27
666.796	556
666.849	431
666.902	959
666.955	217
667.008	434
667.060	343
667.113	-255
667.166	3
667.219	-197
667.271	59
667.324	387
667.377	-102
667.430	466
667.482	-305
667.535	819
667.587	670
667.640	328
667.693	-122
667.745	1071
667.798	1555
667.850	-449
667.903	305
667.955	594
668.008	-306
668.060	817
668.113	255
668.165	702
668.218	570
668.270	1029
668.322	-83
668.375	-117
668.427	476
668.479	7
668.532	285
668.584	-64
668.636	464
668.689	-90
668.741	410
668.793	284
668.845	547
668.898	516
668.950	-295
669.002	896
669.054	70
669.106	412
669.158	429
669.211	889
669.263	521
669.315	1029
669.367	1613
669.419	923
669.471	1709
669.523	956
669.575	2603
669.627	1909
669.679	806
669.731	1275
669.783	465
669.835	282
669.886	1076
669.938	1183
669.990	773
670.042	669
670.094	1425
670.146	900
670.197	464
670.249	1938
670.301	2023
670.353	3214
670.404	5223
670.456	6495
670.508	10592
670.560	20381
670.611	33380
670.663	58204
670.715	115864
670.766	279887
670.818	197142
670.869	32901
670.921	10542
670.972	5917
671.024	3771
671.075	2927
671.127	2647
671.178	1086
671.230	1664
671.281	2086
671.333	1489
671.384	1042
671.436	817
671.487	1617
671.538	927
671.590	1907
671.641	1768
671.692	2493
671.744	1407
671.795	3359
671.846	1343
671.897	296
671.949	940
672.000	894
672.051	197
672.102	1426
672.153	326
672.204	1162
672.256	930
672.307	452
672.358	795
672.409	1280
672.460	1099
672.511	247
672.562	9
672.613	339
672.664	251
672.715	979
672.766	381
672.817	407
672.868	-128
672.919	630
672.970	104
673.021	590
673.071	-439
673.122	578
673.173	301
673.224	171
673.275	1010
673.326	326
673.376	624
673.427	-227
673.478	265
673.528	397
673.579	321
673.630	97
673.680	907
673.731	275
673.782	-438
673.832	711
673.883	-42
673.934	-105
673.984	247
674.035	-96
674.085	319
674.136	437
674.186	369
674.237	169
674.287	579
674.338	1991
674.388	482
674.438	-226
674.489	177
674.539	518
674.589	81
674.640	322
674.690	-148
674.740	311
674.791	818
674.841	501
674.891	517
674.942	263
674.992	21
675.042	-340
675.092	164
675.142	595
675.193	-350
675.243	921
675.293	-265
675.343	513
675.393	-150
675.443	605
675.493	-607
675.543	-68
675.593	88
675.643	1201
675.693	499
675.743	552
675.793	-8
675.843	345
675.893	-72
675.943	484
675.993	-18
676.043	-332
676.093	150
676.142	12
676.192	215
676.242	699
676.292	472
676.341	-210
676.391	134
676.441	-310
676.491	-155
676.540	1047
676.590	-446
676.640	-397
676.689	-129
676.739	215
676.789	475
676.838	-337
676.888	713
676.937	-201
676.987	150
677.037	659
677.086	677
677.136	-203
677.185	24
677.235	-197
677.284	133
677.333	44
677.383	-88
677.432	-82
677.482	-383
677.531	597
677.580	289
677.630	-76
677.679	-384
677.728	523
677.778	990
677.827	418
677.876	110
677.925	379
677.975	-894
678.024	-189
678.073	-381
678.122	-453
678.171	316
678.220	660
678.269	259
678.319	501
678.368	-200
678.417	-189
678.466	-645
678.515	496
678.564	131
678.613	498
678.662	-169
678.711	-248
678.760	1031
678.809	-695
678.857	44
678.906	391
678.955	-727
679.004	-14
679.053	74
679.102	-334
679.151	272
679.199	-336
679.248	-493
679.297	-688
679.346	120
679.394	248
679.443	-442
679.492	699
679.540	238
679.589	171
679.638	32
679.686	-252
679.735	-207
679.784	-450
679.832	-571
679.881	199
679.929	-440
679.978	-595
680.026	-296
680.075	395
680.123	-1055
680.172	-348
680.220	-832
680.268	-229
680.317	-429
680.365	-193
680.414	-906
680.462	-14
680.510	-184
680.559	-218
680.607	-254
680.655	-168
680.703	-483
680.752	949
680.800	122
680.848	223
680.896	-903
680.945	-287
680.993	-82
681.041	-331
681.089	41
681.137	-286
681.185	-382
681.233	45
681.258	-289
681.281	-619
681.329	166
681.377	-407
681.380	-334
681.425	735
681.473	35
681.502	-284
681.521	-527
681.569	528
681.617	244
681.624	282
681.665	430
681.713	728
681.745	622
681.761	550
681.809	-207
681.857	611
681.867	433
681.904	-262
681.952	21
681.989	313
682.000	383
682.048	284
682.096	334
682.111	303
682.143	218
682.191	102
682.233	8
682.239	-28
682.286	33
682.334	189
682.354	530
682.382	980
682.430	560
682.476	480
682.477	467
682.525	607
682.572	680
682.598	680
682.620	649
682.667	168
682.715	1018
682.720	1035
682.763	1030
682.810	514
682.841	685
682.857	785
682.905	486
682.952	1480
682.963	1386
683.000	913
683.047	384
683.085	1103
683.095	1313
683.142	237
683.190	764
683.206	933
683.237	1156
683.284	984
683.328	1521
683.332	1554
683.379	480
683.426	1473
683.449	1146
683.473	806
683.521	978
683.568	1190
683.571	1256
683.615	2031
683.662	1058
683.693	1198
683.709	1252
683.757	1157
683.804	1422
683.814	1330
683.851	973
683.898	1356
683.936	1317
683.945	1284
683.992	1031
684.039	623
684.057	613
684.086	670
684.133	1529
684.179	1299
684.180	1277
684.227	1527
684.274	1678
684.300	1532
684.321	1420
684.368	1820
684.415	1691
684.422	1732
684.462	1935
684.509	1373
684.543	1358
684.556	1323
684.603	1284
684.649	1545
684.665	1402
684.696	1112
684.743	1916
684.786	1448
684.790	1414
684.837	1858
684.883	2267
684.908	2443
684.930	2540
684.977	2532
685.023	2649
685.029	2593
685.070	2004
685.117	1743
685.150	1820
685.164	1888
685.210	2018
685.257	2187
685.272	2378
685.303	2725
685.350	2204
685.393	2243
685.396	2242
685.443	1956
685.490	2544
685.514	2398
685.536	2298
685.583	2130
685.629	2139
685.636	2198
685.675	2334
685.722	2460
685.757	2931
685.768	3108
685.815	2422
685.861	2704
685.878	2696
685.908	2649
685.954	2856
686.000	2254
686.000	2243
686.047	2543
686.093	2889
686.121	3358
686.139	3647
686.185	3368
686.232	3265
686.242	3298
686.278	3107
686.324	3063
686.363	2875
686.370	2864
686.416	2951
686.463	2826
686.484	2870
686.509	2986
686.555	2721
686.601	3616
686.606	3602
686.647	3296
686.693	2318
686.727	2345
686.739	2435
686.785	3181
686.831	3207
686.848	3258
686.877	3222
686.923	3219
686.969	3230
686.969	3229
687.015	3525
687.061	3205
687.090	3124
687.107	3017
687.153	2940
687.199	2829
687.211	2845
687.245	3082
687.291	2837
687.332	3667
687.336	3751
687.382	3517
687.428	2969
687.453	3441
687.474	3644
687.520	3536
687.565	2813
687.574	2762
687.611	2857
687.657	2387
687.695	2988
687.702	3102
687.748	3054
687.794	3513
687.816	3425
687.839	3188
687.885	3581
687.931	2746
687.937	2741
687.976	3037
688.022	3445
688.058	3666
688.067	3708
688.113	3569
688.158	3509
688.179	3757
688.204	3960
688.249	3852
688.295	3561
688.300	3574
688.340	3841
688.386	4094
688.421	4281
688.431	4264
688.477	3632
688.522	4012
688.542	3776
688.567	3694
688.613	4099
688.658	4114
688.663	4153
688.703	4368
688.749	4270
688.784	3936
688.794	3852
688.839	3701
688.884	4006
688.905	3879
688.930	3675
688.975	4273
689.020	3382
689.026	3477
689.065	4265
689.110	3707
689.146	4134
689.155	4232
689.201	4015
689.246	4016
689.267	4053
689.291	4111
689.336	4055
689.381	3765
689.388	3797
689.426	4028
689.471	3654
689.509	4267
689.516	4369
689.561	4068
689.606	3804
689.630	3770
689.651	3853
689.696	4181
689.741	4183
689.750	4187
689.785	4187
689.830	4393
689.871	4485
689.875	4468
689.920	4330
689.965	3673
689.992	3447
690.010	3482
690.054	3512
690.099	3680
690.112	3905
690.144	4417
690.189	4162
690.233	4252
690.233	4260
690.278	4545
690.323	4419
690.354	4538
690.367	4566
690.412	4781
690.457	4526
690.474	4563
690.501	4780
690.546	5093
690.590	5120
690.595	5131
690.635	5208
690.680	5668
690.716	5408
690.724	5445
690.769	6438
690.813	7104
690.836	7271
690.857	7729
690.902	8714
690.946	10718
690.957	10973
690.991	13737
691.035	17598
691.077	21986
691.080	22278
691.124	26270
691.168	29586
691.198	31737
691.213	29704
691.257	24035
691.301	18710
691.318	16280
691.346	14231
691.390	11274
691.434	8582
691.439	8271
691.478	7779
691.522	6813
691.559	6423
691.567	6470
691.611	6092
691.655	6245
691.680	6044
691.699	5861
691.743	5480
691.787	5559
691.800	5526
691.831	5627
691.875	5530
691.919	5488
691.921	5470
691.964	5359
692.008	5716
692.041	5765
692.052	5772
692.096	5461
692.139	5616
692.162	5513
692.183	5444
692.227	5393
692.271	5723
692.282	5624
692.315	5517
692.359	5743
692.402	5827
692.403	5839
692.447	5731
692.490	5615
692.523	5743
692.534	5859
692.578	5761
692.622	6074
692.643	6044
692.666	5926
692.709	6108
692.753	5682
692.763	5609
692.797	5575
692.840	5929
692.884	6049
692.884	6066
692.928	6190
692.971	6711
693.004	6642
693.015	6483
693.059	6255
693.102	6000
693.124	5706
693.146	5779
693.189	6225
693.233	6508
693.245	6569
693.276	6839
693.320	7478
693.363	7578
693.365	7575
693.407	8042
693.450	8248
693.485	8801
693.493	9129
693.537	10644
693.580	11858
693.605	12660
693.624	13804
693.667	16244
693.710	19012
693.725	19914
693.753	26254
693.797	36212
693.840	46916
693.845	48065
693.883	56071
693.926	64152
693.966	71392
693.970	70152
694.013	55947
694.056	41820
694.086	32330
694.099	30548
694.142	24119
694.185	17930
694.206	15045
694.229	14342
694.272	12981
694.315	11111
694.326	10778
694.358	10606
694.401	9668
694.444	9023
694.446	8962
694.487	8581
694.530	8331
694.566	8085
694.573	8078
694.616	7927
694.659	7478
694.686	7398
694.702	7346
694.745	7025
694.787	6648
694.806	6445
694.830	6302
694.873	6126
694.916	6006
694.926	5942
694.959	6285
695.002	6765
695.044	7084
695.046	7083
695.087	6891
695.130	6738
695.166	6356
695.172	6333
695.215	6480
695.258	6158
695.286	6098
695.301	6135
695.343	6109
695.386	6321
695.406	6245
695.428	6170
695.471	6106
695.514	6083
695.526	6057
695.556	6249
695.599	6516
695.641	6766
695.646	6772
695.684	6647
695.726	6472
695.766	6347
695.769	6375
695.811	6480
695.854	6502
695.886	6583
695.896	6594
695.938	6415
695.981	6444
696.005	6353
696.023	6275
696.065	6108
696.108	5986
696.125	5865
696.150	5878
696.192	5933
696.235	5870
696.245	5872
696.277	6080
696.319	6296
696.361	6555
696.365	6559
696.404	6648
696.446	6646
696.485	6583
696.488	6604
696.530	6669
696.572	6737
696.604	6791
696.614	6781
696.656	6601
696.698	6559
696.724	6366
696.740	6425
696.783	6655
696.825	7015
696.844	7085
696.867	7085
696.909	7129
696.951	6974
696.964	6960
696.992	6756
697.034	6454
697.076	6119
697.083	6027
697.118	6123
697.160	6311
697.202	6457
697.203	6443
697.244	6308
697.286	6027
697.323	5775
697.327	5816
697.369	5983
697.411	6347
697.442	6428
697.453	6423
697.494	6405
697.536	6349
697.562	6356
697.578	6494
697.620	6729
697.661	6946
697.682	7023
697.703	6865
697.744	6592
697.786	6340
697.801	6205
697.828	6426
697.869	6696
697.911	7014
697.921	7073
697.952	6969
697.994	6788
698.035	6603
698.040	6563
698.077	6577
698.118	6532
698.160	6489
698.160	6467
698.201	6315
698.243	6144
698.279	5966
698.284	6041
698.325	6567
698.367	7102
698.399	7490
698.408	7492
698.449	7375
698.491	7324
698.518	7209
698.532	7166
698.573	7037
698.614	6870
698.638	6748
698.656	6779
698.697	6821
698.738	6853
698.757	6853
698.779	6864
698.820	6816
698.862	6801
698.877	6774
698.903	6788
698.944	6766
698.985	6758
698.996	6735
699.026	7015
699.067	7381
699.116	7795
699.235	7052
699.354	6654
699.474	7192
699.593	7574
699.713	7780
699.832	6838
699.951	7397
700.070	6577
700.190	6744
700.309	7140
700.428	7049
700.547	6758
700.667	6698
700.786	7319
700.905	7041
701.024	5905
701.143	6850
701.262	5742
701.381	5566
701.500	6039
701.619	6540
701.738	6113
701.857	5136
701.976	6279
702.095	6247
702.214	6691
702.333	6702
702.452	5939
702.571	5953
702.690	5392
702.809	6318
702.928	5832
703.047	5252
703.165	5953
703.284	5154
703.403	5979
703.522	4965
703.640	6924
703.759	6459
703.878	9114
703.997	7341
704.115	5752
704.234	5690
704.353	5708
704.471	5471
704.590	5130
704.708	5422
704.827	5696
704.946	4503
705.064	5847
705.183	5314
705.301	6753
705.420	8517
705.538	7914
705.656	7078
705.775	7096
705.893	11026
706.012	21774
706.130	8998
706.249	7293
706.367	7060
706.485	7038
706.604	7377
706.722	7574
706.840	7382
706.958	9384
707.077	7919
707.195	6733
707.313	6210
707.431	5936
707.549	6299
707.668	6334
707.786	6914
707.904	6473
708.022	6264
708.140	6413
708.258	6025
708.376	6346
708.494	5582
708.612	6691
708.730	8584
708.848	9954
708.966	8676
709.084	8323
709.202	7256
709.320	8167
709.438	7636
709.556	8008
709.674	8115
709.791	6770
709.909	7180
710.027	7270
710.145	7500
710.263	8139
710.380	7134
710.498	7633
710.616	6936
710.733	7006
710.851	7378
710.969	6431
711.086	6897
711.204	7543
711.322	7224
711.439	7605
711.557	7139
711.674	7542
711.792	6638
711.909	7650
712.027	8839
712.144	7523
712.262	7056
712.379	7569
712.497	9760
712.614	10320
712.732	8828
712.849	8416
712.966	8704
713.084	9870
713.201	8621
713.318	7937
713.436	7899
713.553	7844
713.670	7977
713.787	8242
713.905	9743
714.022	8267
714.139	7516
714.256	8189
714.373	8365
714.490	9488
714.608	9903
714.725	25174
714.842	57494
714.959	13055
715.076	7785
715.193	7693
715.310	6979
715.427	7261
715.544	7052
715.661	6921
715.778	7033
715.895	7796
716.011	7097
716.128	7070
716.245	6394
716.362	7626
716.479	7637
716.596	6591
716.713	6346
716.829	6867
716.946	6806
717.063	6249
717.180	5948
717.296	6240
717.413	5984
717.530	6521
717.646	6559
717.763	6912
717.880	6322
717.996	6101
718.113	6169
718.229	6713
718.346	6198
718.462	6235
718.579	6112
718.695	8638
718.812	10248
718.928	8326
719.045	6863
719.161	5296
719.277	5638
719.394	6703
719.510	5719
719.626	5554
719.743	5701
719.859	6883
719.975	6097
720.092	8462
720.208	21097
720.324	12213
720.440	6337
720.557	6251
720.673	7029
720.789	10674
720.905	18901
721.021	16393
721.137	6399
721.253	5961
721.369	5717
721.486	5771
721.602	8355
721.718	6791
721.834	4616
721.950	5535
722.066	5093
722.181	5747
722.297	4640
722.413	5025
722.529	5109
722.645	5142
722.761	4268
722.877	5111
722.993	4877
723.108	5245
723.224	4560
723.340	4668
723.456	5198
723.571	5117
723.687	4365
723.803	4349
723.918	4470
724.034	4447
724.150	5144
724.265	5311
724.381	7331
724.497	13329
724.612	5674
724.728	4240
724.843	4513
724.959	4743
725.074	6614
725.190	12895
725.305	5855
725.421	4875
725.536	4505
725.651	4844
725.767	4219
725.882	4564
725.997	3561
726.113	3776
726.228	3615
726.343	4006
726.459	3611
726.574	3971
726.689	3585
726.804	3044
726.920	3390
727.035	3824
727.150	3615
727.265	4234
727.380	4110
727.495	4164
727.610	3290
727.725	4295
727.841	4528
727.956	6688
728.071	10220
728.186	4872
728.301	3104
728.416	3484
728.531	4163
728.645	3190
728.760	3425
728.875	3688
728.990	3657
729.105	3715
729.220	3499
729.335	3426
729.449	3497
729.564	2990
729.679	3085
729.794	2851
729.908	3436
730.023	3934
730.138	3106
730.253	2784
730.367	3078
730.482	3207
730.596	2723
730.711	3485
730.826	3248
730.940	3333
731.055	3169
731.169	3067
731.284	2997
731.398	3690
731.513	2687
731.627	3553
731.742	3537
731.856	4070
731.970	2802
732.085	2802
732.199	2939
732.313	3465
732.428	3860
732.542	8038
732.656	9777
732.771	4365
732.885	2934
732.999	3204
733.113	3229
733.227	3468
733.342	3157
733.456	2847
733.570	2488
733.684	2956
733.798	3008
733.912	3228
734.026	2154
734.140	3257
734.254	3041
734.368	4066
734.482	7121
734.596	3216
734.710	2971
734.824	2562
734.938	2336
735.052	2470
735.166	2498
735.280	3348
735.393	2290
735.507	2684
735.621	3198
735.735	5439
735.849	5209
735.962	2875
736.076	2884
736.190	2742
736.303	3731
736.417	5215
736.531	2946
736.644	1822
736.758	2527
736.872	2715
736.985	2166
737.099	1856
737.212	2659
737.326	2310
737.439	2512
737.553	2448
737.666	2142
737.780	2029
737.893	2300
738.007	1751
738.120	2102
738.233	1646
738.347	1735
738.460	1606
738.573	3213
738.687	2618
738.800	2130
738.913	2560
739.026	2762
739.140	2596
739.253	3306
739.366	2782
739.479	1592
739.592	2308
739.705	3090
739.818	2453
739.932	1948
740.045	2560
740.158	2374
740.271	2214
740.384	2812
740.497	2240
740.610	1937
740.723	2357
740.836	2850
740.949	2595
741.062	3043
741.174	3102
741.287	2406
741.400	2520
741.513	2188
741.626	2223
741.739	2842
741.851	2643
741.964	2224
742.077	2547
742.189	2138
742.302	3674
742.415	2692
742.527	2393
742.640	2365
742.753	2623
742.865	2456
742.978	2441
743.090	2055
743.203	1664
743.316	2604
743.428	1861
743.541	1540
743.653	1631
743.766	1595
743.878	2210
743.990	1524
744.103	4228
744.215	3064
744.327	2254
744.440	2701
744.552	3292
744.664	2269
744.777	2261
744.889	1951
745.001	1468
745.113	1255
745.226	2048
745.338	1815
745.450	1823
745.562	2372
745.674	2269
745.786	1835
745.898	2055
746.010	2084
746.122	1830
746.234	1184
746.347	2749
746.459	2469
746.570	2398
746.682	980
746.794	4249
746.906	3741
747.018	1839
747.130	2683
747.242	2241
747.354	1713
747.466	1874
747.577	1822
747.689	1872
747.801	1657
747.913	1945
748.024	1374
748.136	1771
748.248	1666
748.359	906
748.471	877
748.583	1338
748.694	2021
748.806	3358
748.918	2781
749.029	2671
749.141	2381
749.252	2067
749.364	1563
749.475	2080
749.587	2682
749.698	1505
749.809	1430
749.921	2332
750.032	1779
750.144	1652
750.255	1581
750.366	1710
750.478	1836
750.589	2035
750.700	1339
750.811	1555
750.923	2550
751.034	2571
751.145	5211
751.256	2222
751.367	2225
751.479	1795
751.590	1707
751.701	1813
751.812	1126
751.923	2278
752.034	1735
752.145	1621
752.256	1602
752.367	2075
752.478	2350
752.589	1487
752.700	1509
752.811	1518
752.922	1390
753.032	1305
753.143	2691
753.254	1168
753.365	2029
753.476	1601
753.586	426
753.697	2101
753.808	1770
753.919	1581
754.029	1441
754.140	2177
754.251	1083
754.361	2406
754.472	1970
754.582	1912
754.693	2084
754.804	1613
754.914	1599
755.025	2114
755.135	1794
755.246	1851
755.356	1147
755.466	1331
755.577	1859
755.687	1989
755.798	1966
755.908	2337
756.018	1336
756.129	1771
756.239	1579
756.349	1944
756.460	1382
756.570	2358
756.680	2300
756.790	2126
756.900	2973
757.011	1702
757.121	1414
757.231	2270
757.341	2335
757.451	1435
757.561	2627
757.671	1317
757.781	2103
757.891	1938
758.001	2724
758.111	2129
758.221	2251
758.331	2051
758.441	2311
758.551	2942
758.661	2926
758.771	2217
758.880	2153
758.990	2726
759.100	2286
759.210	1693
759.320	2097
759.429	2373
759.539	2400
759.649	2546
759.758	2697
759.868	2618
759.978	2805
760.087	3023
760.197	3410
760.307	2614
760.416	3153
760.526	2417
760.635	3355
760.745	3514
760.854	3494
760.964	3580
761.073	3395
761.182	3639
761.292	3357
761.401	4021
761.511	3235
761.620	4323
761.729	3515
761.839	3396
761.948	4455
762.057	4258
762.166	4530
762.276	3451
762.385	4361
762.494	4447
762.603	5064
762.712	4494
762.822	4726
762.931	5256
763.040	4905
763.149	5310
763.258	5475
763.367	5956
763.476	5873
763.585	6546
763.694	7091
763.803	6587
763.912	7758
764.021	7959
764.130	8176
764.238	8416
764.347	9176
764.456	9566
764.565	11424
764.674	12305
764.783	13259
764.891	13336
765.000	15705
765.109	18216
765.217	20407
765.326	23639
765.435	28577
765.543	34335
765.652	41397
765.761	52846
765.869	73017
765.978	101028
766.086	151077
766.195	240325
766.303	394516
766.412	524201
766.520	420299
766.629	463449
766.737	321105
766.846	194603
766.954	128576
767.062	91916
767.171	67823
767.279	52079
767.387	40010
767.496	33748
767.604	27463
767.712	24643
767.820	21293
767.928	19393
768.037	17330
768.145	17462
768.253	16122
768.361	15428
768.469	14145
768.577	15599
768.685	15906
768.793	16549
768.901	17808
769.009	21256
769.117	24670
769.225	30377
769.333	42473
769.441	61474
769.549	97852
769.657	179168
769.765	340220
769.873	448808
769.981	396014
770.088	271552
770.196	140341
770.304	84783
770.412	57011
770.519	41800
770.627	31889
770.735	25437
770.842	21213
770.950	18508
771.058	15634
771.165	14861
771.273	12559
771.380	11303
771.488	10969
771.595	8788
771.703	8491
771.810	8673
771.918	8077
772.025	7372
772.133	5950
772.240	6047
772.348	5652
772.455	6011
772.562	4925
772.670	4600
772.777	5525
772.884	4978
772.991	4910
773.099	4915
773.206	4107
773.313	4934
773.420	4865
773.528	4171
773.635	3111
773.742	3874
773.849	3810
773.956	3624
774.063	3388
774.170	3211
774.277	3569
774.384	3002
774.491	3293
774.598	3255
774.705	2964
774.812	3508
774.919	3478
775.026	2845
775.133	2824
775.239	2682
775.346	2362
775.453	2713
775.560	1993
775.667	2359
775.773	2124
775.880	2673
775.987	2711
776.093	2752
776.200	1989
776.307	2226
776.413	2604
776.520	2308
776.627	2819
776.733	2593
776.840	2368
776.946	2929
777.053	3662
777.159	6048
777.266	4297
777.372	5518
777.478	5636
777.585	4437
777.691	2153
777.798	1940
777.904	2035
778.010	3564
778.117	2551
778.223	2773
778.329	2760
778.435	1863
778.542	1356
778.648	2388
778.754	2074
778.860	1488
778.966	2121
779.072	1554
779.178	1884
779.284	1427
779.391	1541
779.497	1555
779.603	2886
779.708	3489
779.815	7440
779.920	22811
780.026	76359
780.132	33819
780.238	4310
780.344	2254
780.450	2477
780.556	2399
780.661	1284
780.767	1707
780.873	1749
780.979	1093
781.085	1159
781.190	927
781.296	577
781.402	1581
781.507	1480
781.613	1661
781.719	733
781.824	1422
781.930	1493
782.035	1475
782.141	1197
782.246	982
782.352	1344
782.457	1358
782.563	915
782.668	888
782.773	1086
782.879	1076
782.984	1010
783.090	715
783.195	1496
783.300	988
783.405	870
783.511	947
783.616	2294
783.721	1279
783.826	975
783.932	1629
784.037	1266
784.142	991
784.247	498
784.352	1009
784.457	1777
784.562	1060
784.667	1383
784.772	1346
784.877	1293
784.982	1279
785.087	228
785.192	1030
785.297	380
785.402	682
785.507	900
785.611	1745
785.716	1621
785.821	988
785.926	606
786.031	986
786.135	694
786.240	1348
786.345	321
786.450	577
786.554	1021
786.659	1112
786.763	884
786.868	591
786.973	608
787.077	1178
787.182	943
787.286	853
787.391	870
787.495	376
787.600	743
787.704	491
787.809	-188
787.913	284
788.017	971
788.122	1219
788.226	461
788.330	376
788.435	986
788.539	495
788.643	459
788.747	1250
788.852	899
788.956	458
789.060	895
789.164	535
789.268	320
789.372	1011
789.476	470
789.580	412
789.684	408
789.788	372
789.892	-222
789.996	472
790.100	222
790.204	-44
790.308	776
790.412	402
790.516	249
790.620	1318
790.724	431
790.828	821
790.931	721
791.035	1379
791.139	44
791.242	-90
791.346	787
791.450	769
791.554	130
791.657	255
791.761	761
791.864	661
791.968	1111
792.072	515
792.175	450
792.279	731
792.382	602
792.486	261
792.589	418
792.693	1117
792.796	341
792.899	885
793.003	313
793.106	-45
793.209	369
793.313	517
793.416	99
793.519	430
793.623	410
793.726	884
793.829	644
793.932	-237
794.035	296
794.138	420
794.242	964
794.345	563
794.448	1797
794.551	3281
794.654	11903
794.757	39392
794.860	21239
794.963	2566
795.066	690
795.169	1542
795.272	-222
795.375	551
795.477	860
795.580	715
795.683	254
795.786	748
795.889	-271
795.991	548
796.094	-94
796.197	-296
796.300	1250
796.402	-311
796.505	-291
796.608	130
796.710	395
796.813	-398
796.915	74
797.018	660
797.120	646
797.223	-396
797.326	406
797.428	10
797.530	928
797.633	-16
797.735	902
797.838	502
797.940	1445
798.042	649
798.145	208
798.247	633
798.349	-376
798.452	710
798.554	-534
798.656	-624
798.758	611
798.860	-161
798.962	596
799.065	56
799.167	-398
799.269	546
799.371	-106
799.473	893
799.575	-310
799.677	757
799.779	1458
799.881	87
799.983	1306
800.085	41
800.187	279
800.289	-590
800.390	178
800.492	-15
800.594	95
800.696	973
800.798	-687
800.899	-219
801.001	-283
801.103	310
801.205	92
801.306	-68
801.408	19
801.509	897
801.611	-388
801.713	812
801.814	142
801.916	-304
802.017	-227
802.119	172
802.220	-485
802.322	-976
802.423	832
802.525	-21
802.626	499
802.727	301
802.829	737
802.930	-806
803.031	846
803.133	-87
803.234	-508
803.335	496
803.436	-507
803.538	-22
803.639	-969
803.740	662
803.841	-702
803.942	-14
804.043	467
804.144	83
804.245	-899
804.346	-273
804.447	585
804.548	-404
804.649	702
804.750	-21
804.851	-271
804.952	-294
805.053	-650
805.154	86
805.255	527
805.355	179
805.456	2
805.557	-509
805.658	-1136
805.758	-33
805.859	579
805.960	-522
806.061	-4
806.161	-184
806.262	353
806.362	-956
806.463	251
806.564	379
806.664	-102
806.765	496
806.865	879
806.966	-325
807.066	-73
807.166	-31
807.267	-661
807.367	-512
807.468	-31
807.568	-594
807.668	278
807.769	-365
807.869	503
807.969	238
808.069	874
808.170	-115
808.270	-717
808.370	-390
808.470	-267
808.570	-219
808.670	133
808.770	349
808.870	210
808.970	-48
809.070	132
809.170	148
809.271	469
809.370	73
809.470	98
809.570	644
809.670	-582
809.770	406
809.870	-142
809.970	565
810.070	-805
810.169	137
810.269	-1403
810.369	991
810.469	149
810.568	-155
810.668	-66
810.768	-117
810.867	-81
810.967	-265
811.066	-299
811.166	-142
811.265	-41
811.365	-555
811.464	-261
811.564	678
811.663	-172
811.763	-704
811.862	-295
811.962	-123
812.061	8
812.160	288
812.260	-245
812.359	578
812.458	428
812.557	1071
812.657	2754
812.756	1675
812.855	683
812.954	-391
813.053	260
813.153	-296
813.252	112
813.351	704
813.450	134
813.549	-415
813.648	209
813.747	486
813.846	105
813.945	-948
814.044	481
814.143	-170
814.242	258
814.341	648
814.439	346
814.538	-165
814.637	908
814.736	1203
814.835	-70
814.933	320
815.032	316
815.131	-92
815.229	613
815.328	404
815.427	-57
815.525	385
815.624	1130
815.722	866
815.821	1103
815.919	545
816.018	396
816.116	1576
816.215	1567
816.313	1274
816.412	1950
816.510	1610
816.609	1924
816.707	1578
816.805	2116
816.904	2440
817.002	1831
817.100	2889
817.198	3757
817.296	4057
817.395	4445
817.493	6205
817.591	7051
817.689	9393
817.787	12596
817.885	18870
817.983	30604
818.081	58000
818.179	119002
818.277	255572
818.375	369606
818.473	201895
818.571	82306
818.669	46308
818.767	33698
818.865	29825
818.963	31942
819.061	41077
819.158	61377
819.256	106608
819.354	201257
819.452	382107
819.549	419822
819.647	239005
819.745	114304
819.842	63629
819.940	40067
820.038	28230
820.135	21285
820.233	17243
820.330	12538
820.428	10389
820.525	8698
820.623	7632
820.720	6520
820.818	5921
820.915	4819
821.012	4902
821.110	3178
821.207	4290
821.304	2408
821.402	2805
821.499	3076
821.596	4327
821.693	2884
821.791	2931
821.888	1777
821.985	2818
822.082	2440
822.179	1727
822.276	1148
822.373	1753
822.470	704
822.567	1387
822.664	1099
822.761	719
822.858	-273
822.955	1036
823.052	939
823.149	995
823.246	53
823.343	586
823.440	28
823.536	-232
823.633	576
823.730	354
823.827	637
823.923	406
824.020	992
824.117	181
824.213	39
824.310	983
824.407	152
824.503	892
824.600	229
824.696	-238
824.793	276
824.889	120
824.986	-174
825.082	-32
825.179	272
825.275	-251
825.371	-863
825.468	-188
825.564	-771
825.660	-190
825.757	-170
825.853	209
825.949	69
826.045	215
826.142	-550
826.238	-369
826.334	-235
826.430	-520
826.526	271
826.622	-214
826.718	-464
826.814	-255
826.910	156
827.006	-82
827.102	-820
827.198	211
827.294	-1128
827.390	-306
827.486	239
827.582	-827
827.678	-560
827.774	-108
827.869	-496
827.965	439
828.061	-271
828.157	-158
828.252	-1063
828.348	-905
828.444	0
828.539	-393
828.635	-330
828.731	118
828.826	-716
828.922	-139
829.017	-500
829.113	-145
829.208	55
829.304	-288
829.399	420
829.495	-133
829.590	-390
829.685	-374
829.781	-280
829.876	-886
829.971	-423
830.066	-196
830.162	-919
830.257	-575
830.352	-1110
830.447	311
830.543	216
830.638	-1975
830.733	617
830.828	-547
830.923	-13
831.018	-626
831.113	-1038
831.208	-670
831.303	-908
831.398	-439
831.493	-717
831.588	239
831.683	-1012
831.778	-293
831.873	-981
831.967	-141
832.062	-621
832.157	-1457
832.252	41
832.346	-863
832.441	-344
832.536	111
832.631	335
832.725	1476
832.820	-386
832.914	-550
833.009	-618
833.104	-572
833.198	-37
833.293	-812
833.387	-532
833.482	-76
833.576	-625
833.670	-604
833.765	-269
833.859	-929
833.954	-414
834.048	-316
834.142	-752
834.237	-795
834.331	-1220
834.425	-679
834.519	-465
834.613	385
834.708	-1162
834.802	-617
834.896	-1097
834.990	62
835.084	-282
835.178	-299
835.272	-603
835.366	-1159
835.460	-582
835.554	-1028
835.648	-731
835.742	-1145
835.836	-609
835.930	-901
836.024	198
836.117	-238
836.211	-915
836.305	254
836.399	-40
836.493	-748
836.586	266
836.680	-952
836.774	-1393
836.867	37
836.961	-1376
837.055	-1481
837.148	-1441
837.242	-677
837.335	-207
837.429	-976
837.522	-971
837.616	-934
837.709	204
837.803	230
837.896	-191
837.989	-411
838.083	-335
838.176	-142
838.269	664
838.363	151
838.456	-516
838.549	-190
838.642	-526
838.735	875
838.829	675
838.922	-618
839.015	-792
839.108	-925
839.201	-388
839.294	-348
839.387	-468
839.480	-1364
839.573	-692
839.666	-706
839.759	62
839.852	-510
839.945	-323
840.038	-398
840.131	-611
840.223	-1338
840.316	-457
840.409	-541
840.502	-818
840.594	73
840.687	-1279
840.780	-458
840.873	-999
840.965	-681
841.058	95
841.150	187
841.243	690
841.336	409
841.428	-945
841.521	-369
841.613	-1152
841.706	403
841.798	-226
841.890	-459
841.983	-1031
842.075	-365
842.167	-265
842.260	-140
842.352	-693
842.444	-183
842.537	154
842.629	2137
842.721	240
842.813	203
842.905	-1080
842.997	-331
843.090	-831
843.182	-403
843.274	235
843.366	2173
843.458	5862
843.550	6702
843.642	961
843.734	-241
843.826	-821
843.918	-742
844.009	100
844.101	-736
844.193	-1328
844.285	-576
844.377	26
844.469	-195
844.560	-356
844.652	-71
844.744	137
844.835	-448
844.927	-913
845.019	-1376
845.110	-134
845.202	6
845.293	-1086
845.385	-891
845.476	-653
845.568	-228
845.659	-1018
845.751	-332
845.842	-1135
845.934	-550
846.025	-1341
846.116	-1336
846.208	-472
846.299	-667
846.390	-124
846.482	-438
846.573	-522
846.664	-726
846.755	-770
846.846	-127
846.937	-1180
847.029	-1106
847.120	-946
847.211	-686
847.302	-310
847.393	-324
847.484	-609
847.575	-1137
847.666	-893
847.757	-256
847.847	-1147
847.938	197
848.029	-2015
848.120	-570
848.211	-1420
848.302	-1083
848.392	-134
848.483	-531
848.574	-717
848.664	-853
848.755	-606
848.846	-72
848.936	-1290
849.027	331
849.118	-641
849.208	-457
849.299	-892
849.389	-1093
849.480	-943
849.570	-422
849.661	-415
849.751	644
849.841	466
849.932	-1497
850.022	-895
850.112	-1124
850.203	-607
850.293	-325
850.383	-898
850.474	-1282
850.564	-1842
850.654	-1452
850.744	-561
850.834	-844
850.924	-1277
851.014	-1234
851.104	-681
851.194	-988
851.284	-1429
851.374	-1067
851.464	-618
851.554	-849
851.644	-718
851.734	24
851.824	108
851.914	-375
852.004	173
852.094	951
852.183	-592
852.273	-377
852.363	-1314
852.452	-302
852.542	-1153
852.632	-583
852.721	-939
852.811	-1013
852.901	-115
852.990	-432
853.080	-1313
853.169	-304
853.259	-1007
853.348	-595
853.438	-800
853.527	21
853.617	-973
853.706	-399
853.795	-881
853.885	1058
853.974	2043
854.063	4676
854.152	10331
854.242	8667
854.331	527
854.420	-293
854.509	-946
854.598	-846
854.687	-1365
854.777	-171
854.866	-1174
854.955	-688
855.044	-1548
855.133	-770
855.222	-827
855.311	-1065
855.400	-296
855.488	-1087
855.577	-1128
855.666	-590
855.755	162
855.844	-488
855.933	-48
856.021	-940
856.110	-579
856.199	-1217
856.288	-545
856.376	-687
856.465	-1259
856.554	-702
856.642	-1048
856.731	-556
856.819	-502
856.908	-836
856.996	-1021
857.085	-1175
857.173	-401
857.262	-822
857.350	-606
857.438	-1365
857.527	-931
857.615	-871
857.703	-823
857.792	-1021
857.880	-910
857.968	-1503
858.056	-223
858.145	-1102
858.233	-1515
858.321	-1443
858.409	-250
858.497	-1226
858.585	-1417
858.673	-1352
858.761	-1396
858.849	-1141
858.937	-785
859.025	-620
859.113	-965
859.201	-556
859.289	-1415
859.377	-585
859.465	-299
859.552	-1148
859.640	-912
859.728	-833
859.816	-1279
859.903	-1095
859.991	-754
860.079	-817
860.166	-388
860.254	-1207
860.342	-568
860.429	-1274
860.517	-1916
860.604	-795
860.692	-980
860.779	-1049
860.867	-1479
860.954	-461
861.042	-1618
861.129	-612
861.216	-391
861.304	-957
861.391	-1051
861.478	-562
861.565	-1301
861.653	-391
861.740	-1153
861.827	-966
861.914	-923
862.001	-1129
862.089	-1419
862.176	-1098
862.263	-1125
862.350	-859
862.437	-1349
862.524	-1016
862.611	-928
862.698	-262
862.785	-624
862.871	-486
862.958	-609
863.045	-702
863.132	-534
863.219	-1012
863.306	-1705
863.392	-426
863.479	-1132
863.566	-747
863.652	-581
863.739	-906
863.826	-1152
863.912	-613
863.999	-1115
864.086	-1150
864.172	-1436
864.259	-971
864.345	-669
864.432	276
864.518	-1019
864.604	-200
864.691	-1562
864.777	-271
864.863	-427
864.950	-713
865.036	-1678
865.122	-1214
865.209	-277
865.295	-1489
865.381	-756
865.467	-809
865.553	-755
865.639	-851
865.726	-1047
865.812	-237
865.898	559
865.984	1559
866.070	2835
866.156	6533
866.242	2391
866.328	-477
866.414	-1354
866.499	-880
866.585	448
866.671	-1049
866.757	-759
866.843	-1088
866.928	-1139
867.014	-1118
867.100	-1452
867.186	-1554
867.271	-1090
867.357	-847
867.442	20
867.528	-938
867.614	-1076
867.699	-197
867.785	-280
867.870	7
867.956	422
868.041	-183
868.127	-300
868.212	-123
868.297	637
868.383	-880
868.468	-53
868.553	-282
868.639	-473
868.724	421
868.809	1590
868.894	-148
868.979	-526
869.065	-598
869.150	-2006
869.235	-1008
869.320	-966
869.405	-329
869.490	-1629
869.575	-1034
869.660	-234
869.745	-894
869.830	-1051
869.915	-1140
870.000	-813
870.085	-758
870.169	-734
870.254	-965
870.339	-1196
870.424	-522
870.509	-1077
870.593	-543
870.678	-1058
870.763	-1118
870.847	-1293
870.932	-1571
871.016	-438
871.101	-619
871.186	-1426
871.270	-716
871.355	-671
871.439	-753
871.523	-935
871.608	-1286
871.692	-697
871.777	-477
871.861	-929
871.945	-1376
872.030	-802
872.114	-721
872.198	-940
872.282	-783
872.367	-32
872.451	-552
872.535	-1162
872.619	-1048
872.703	-650
872.787	-664
872.871	-72
872.955	-383
873.039	-989
873.123	-385
873.207	-1444
873.291	-836
873.375	-543
873.459	-880
873.543	-1928
873.627	-1405
873.711	-1053
873.794	-714
873.878	-621
873.962	-1405
874.045	-1594
874.129	-894
874.137	-950
874.213	-1508
874.245	-1269
874.296	-887
874.352	-1319
874.380	-1533
874.460	-1218
874.464	-1206
874.547	-1676
874.568	-1415
874.631	-630
874.676	-837
874.714	-1015
874.784	-893
874.798	-875
874.881	-1
874.892	-199
874.965	-1541
874.999	-1330
875.048	-1036
875.107	-1007
875.131	-1002
875.215	-439
875.215	-439
875.298	-908
875.323	-767
875.381	-422
875.430	-471
875.465	-511
875.538	-792
875.548	-835
875.631	-972
875.646	-938
875.714	-734
875.753	-697
875.798	-656
875.861	-884
875.881	-966
875.964	-729
875.968	-716
876.047	-414
876.076	-368
876.130	-304
876.183	-713
876.213	-911
876.291	-7
876.296	49
876.379	-403
876.398	-380
876.462	-353
876.506	-588
876.545	-735
876.613	75
876.628	236
876.711	-703
876.721	-767
876.794	-1246
876.828	-943
876.877	-491
876.935	-371
876.960	-278
877.043	-142
877.043	-144
877.125	-577
877.150	-467
877.208	-236
877.258	-363
877.291	-396
877.365	-698
877.374	-739
877.456	-675
877.472	-635
877.539	-505
877.579	-487
877.622	-412
877.687	-109
877.704	-56
877.787	-176
877.794	-230
877.869	-753
877.901	-710
877.952	-683
878.008	-759
878.034	-719
878.115	-487
878.117	-482
878.199	-316
878.222	-297
878.282	-357
878.329	-99
878.364	107
878.437	138
878.447	138
878.529	-663
878.544	-683
878.611	-669
878.651	-779
878.694	-849
878.758	-601
878.776	-581
878.858	-204
878.865	-210
878.941	-212
878.972	-246
879.023	-187
879.078	-206
879.105	-305
879.185	-218
879.187	-210
879.269	-344
879.292	-262
879.351	-69
879.399	-384
879.433	-553
879.506	-430
879.516	-446
879.598	-348
879.613	-369
879.680	-372
879.720	-436
879.762	-500
879.827	-601
879.844	-595
879.926	-78
879.933	-69
880.007	39
880.040	20
880.089	-148
880.147	-74
880.171	-41
880.253	-15
880.254	-17
880.335	202
880.360	316
880.417	376
880.467	343
880.499	489
880.574	1636
880.580	1679
880.662	841
880.680	670
880.744	239
880.787	74
880.825	-214
880.893	-727
880.907	-709
880.989	-581
881.000	-534
881.070	-289
881.106	-195
881.152	-204
881.213	-6
881.233	62
881.315	-204
881.319	-196
881.396	-79
881.426	-148
881.478	-98
881.532	-13
881.559	-69
881.639	-377
881.641	-373
881.722	-333
881.745	-81
881.803	511
881.852	120
881.885	-235
881.958	-360
881.966	-342
882.047	503
882.064	423
882.129	41
882.171	-73
882.210	-179
882.277	116
882.291	206
882.372	384
882.383	388
882.454	78
882.489	7
882.535	188
882.596	178
882.616	53
882.697	-109
882.702	-143
882.778	-49
882.808	97
882.859	203
882.914	339
882.940	401
883.020	350
883.021	352
883.102	-151
883.127	-146
883.183	162
883.233	572
883.264	537
883.339	-387
883.345	-394
883.426	143
883.445	137
883.507	-108
883.551	26
883.587	143
883.657	166
883.668	189
883.749	356
883.763	369
883.830	277
883.869	199
883.910	209
883.975	516
883.991	553
884.072	-227
884.081	-210
884.152	393
884.187	505
884.233	444
884.292	587
884.314	646
884.394	126
884.398	135
884.475	513
884.504	469
884.555	420
884.610	527
884.636	452
884.716	-57
884.716	-54
884.797	126
884.821	83
884.877	340
884.927	606
884.958	599
885.033	441
885.038	434
885.118	505
885.139	438
885.199	397
885.244	577
885.279	497
885.350	217
885.359	260
885.439	384
885.456	390
885.520	372
885.561	536
885.600	451
885.667	274
885.680	309
885.760	200
885.773	216
885.840	267
885.878	245
885.920	555
885.984	891
886.000	838
886.080	919
886.089	900
886.160	648
886.195	454
886.240	554
886.300	838
886.320	814
886.400	580
886.406	559
886.480	527
886.511	590
886.560	1004
886.616	1237
886.640	1009
886.720	345
886.722	327
886.800	674
886.827	751
886.879	840
886.932	849
886.959	895
887.038	1222
887.039	1228
887.119	1059
887.143	998
887.198	815
887.248	640
887.278	628
887.354	598
887.358	607
887.437	534
887.459	581
887.517	919
887.564	1135
887.596	987
887.669	460
887.676	493
887.755	1095
887.774	1173
887.835	794
887.880	581
887.914	403
887.985	-100
887.994	-46
888.073	523
888.090	639
888.153	528
888.195	387
888.232	561
888.300	921
888.311	932
888.391	1033
888.405	1015
888.470	1100
888.510	1217
888.549	1051
888.615	670
888.628	645
888.708	502
888.720	485
888.787	1267
888.825	1648
888.866	1601
888.930	1553
888.945	1492
889.024	1133
889.035	1080
889.103	1177
889.140	1195
889.182	994
889.245	703
889.261	663
889.340	463
889.349	436
889.419	852
889.454	1061
889.498	855
889.559	557
889.577	553
889.656	531
889.664	527
889.735	1148
889.768	1439
889.814	1660
889.873	1939
889.978	659
890.083	833
890.187	1580
890.292	1220
890.397	680
890.501	1033
890.606	1518
890.710	1811
890.815	1483
890.919	368
891.024	630
891.128	648
891.233	901
891.337	314
891.442	1383
891.546	783
891.650	463
891.755	897
891.859	1279
891.963	749
892.068	1737
892.172	1158
892.276	803
892.380	1194
892.484	372
892.589	1201
892.693	1170
892.797	1403
892.901	31
893.005	1087
893.109	1045
893.213	1614
893.317	1716
893.421	997
893.525	804
893.629	944
893.733	62
893.837	876
893.941	1616
894.045	2112
894.148	1177
894.252	2828
894.356	3137
894.460	1575
894.564	235
894.667	1031
894.771	685
894.875	1092
894.978	1135
895.082	939
895.186	669
895.289	1019
895.393	865
895.496	-69
895.600	888
895.703	462
895.807	961
895.910	268
896.014	728
896.117	490
896.221	987
896.324	566
896.427	834
896.531	1264
896.634	1220
896.737	1020
896.840	896
896.944	1086
897.047	681
897.150	849
897.253	523
897.356	686
897.460	834
897.563	334
897.666	-209
897.769	850
897.872	260
897.975	311
898.078	1467
898.181	1072
898.284	577
898.387	1333
898.490	4
898.593	1166
898.695	881
898.798	769
898.901	1229
899.004	1078
899.107	1143
899.209	1420
899.312	28
899.415	305
899.518	758
899.620	-149
899.723	886
899.826	847
899.928	804
900.031	982
900.133	537
900.236	738
900.338	638
900.441	806
900.543	595
900.646	-96
900.748	697
900.851	1247
900.953	443
901.055	1239
901.158	788
901.260	367
901.362	397
901.465	799
901.567	729
901.669	750
901.771	-397
901.873	1097
901.976	292
902.078	253
902.180	748
902.282	188
902.384	1265
902.486	446
902.588	363
902.690	873
902.792	582
902.894	-18
902.996	458
903.098	416
903.200	944
903.302	498
903.404	-212
903.505	910
903.607	215
903.709	775
903.811	511
903.913	-47
904.014	723
904.116	1024
904.218	585
904.319	596
904.421	892
904.523	920
904.624	1077
904.726	798
904.827	108
904.929	430
905.030	283
905.132	845
905.233	524
905.335	908
905.436	377
905.537	156
905.639	319
905.740	354
905.841	104
905.943	545
906.044	140
906.145	826
906.247	597
906.348	671
906.449	-13
906.550	515
906.651	265
906.752	419
906.854	194
906.955	332
907.056	745
907.157	439
907.258	282
907.359	953
907.460	667
907.561	857
907.662	377
907.762	430
907.863	-124
907.964	613
908.065	1005
908.166	-44
908.267	195
908.367	482
908.468	97
908.569	391
908.670	830
908.770	1046
908.871	807
908.971	630
909.072	1754
909.173	491
909.273	99
909.374	157
909.474	-37
909.575	526
909.675	175
909.776	947
909.876	375
909.977	779
910.077	36
910.177	90
910.278	166
910.378	58
910.478	241
910.579	117
910.679	558
910.779	38
910.879	489
910.980	705
911.080	227
911.180	504
911.280	447
911.380	370
911.480	690
911.580	-295
911.680	791
911.780	309
911.880	1205
911.980	370
912.080	516
912.180	-230
912.280	780
912.380	1011
912.480	508
912.580	810
912.679	866
912.779	109
912.879	687
912.979	331
913.078	1133
913.178	1083
913.278	980
913.377	95
913.477	725
913.577	209
913.676	929
913.776	356
913.875	346
913.975	737
914.074	-29
914.174	647
914.273	640
914.373	335
914.472	509
914.572	-135
914.671	1065
914.770	358
914.870	474
914.969	443
915.068	34
915.167	655
915.267	-501
915.366	-326
915.465	-46
915.564	336
915.663	523
915.763	303
915.862	487
915.961	1193
916.060	122
916.159	56
916.258	200
916.357	813
916.456	722
916.555	426
916.654	63
916.752	275
916.851	691
916.950	869
917.049	366
917.148	1208
917.247	23
917.345	561
917.444	-481
917.543	628
917.642	-116
917.740	725
917.839	754
917.937	717
918.036	958
918.135	208
918.233	474
918.332	661
918.430	510
918.529	1165
918.627	693
918.726	730
918.824	897
918.923	-421
919.021	760
919.119	-148
919.218	512
919.316	569
919.414	647
919.512	1001
919.611	636
919.709	-35
919.807	276
919.905	882
920.003	343
920.102	821
920.200	526
920.298	666
920.396	944
920.494	445
920.592	107
920.690	195
920.788	-243
920.886	704
920.984	509
921.082	314
921.180	239
921.277	257
921.375	210
921.473	379
921.571	-304
921.669	321
921.766	262
921.864	404
921.962	372
922.060	342
922.157	713
922.255	1041
922.352	463
922.450	1121
922.548	288
922.645	773
922.743	292
922.840	1293
922.938	395
923.035	1147
923.133	359
923.230	315
923.327	556
923.425	672
923.522	405
923.619	602
923.717	114
923.814	383
923.911	822
924.008	620
924.106	980
924.203	280
924.300	754
924.397	31
924.494	518
924.591	456
924.688	784
924.786	732
924.883	642
924.979	69
925.077	977
925.173	437
925.270	445
925.367	136
925.464	1308
925.561	993
925.658	477
925.755	542
925.852	1023
925.948	1200
926.045	1129
926.142	1132
926.239	1344
926.335	974
926.432	577
926.529	903
926.625	1601
926.722	1486
926.818	790
926.915	820
927.011	1491
927.108	41
927.204	228
927.301	465
927.397	1015
927.494	691
927.590	638
927.687	916
927.783	-38
927.879	622
927.976	-503
928.072	235
928.168	166
928.264	797
928.361	777
928.457	181
928.553	1204
928.649	341
928.745	330
928.841	1085
928.937	-106
929.033	579
929.129	534
929.225	79
929.321	937
929.417	-74
929.513	-7
929.609	769
929.705	452
929.801	665
929.897	822
929.993	620
930.089	312
930.184	747
930.280	407
930.376	1052
930.471	755
930.567	957
930.663	708
930.758	-382
930.854	512
930.950	603
931.045	588
931.141	735
931.236	1334
931.332	529
931.427	309
931.523	420
931.618	911
931.714	224
931.809	591
931.905	658
932.000	948
932.095	190
932.191	696
932.286	603
932.381	796
932.476	1046
932.572	-205
932.667	784
932.762	445
932.857	905
932.952	26
933.047	801
933.142	1423
933.237	369
933.332	768
933.427	965
933.522	447
933.617	502
933.712	-43
933.807	641
933.902	216
933.997	645
934.092	-61
934.187	121
934.282	-491
934.376	-607
934.471	401
934.566	856
934.661	33
934.755	600
934.850	568
934.945	606
935.039	203
935.134	-288
935.228	121
935.323	595
935.417	188
935.512	512
935.606	125
935.701	1024
935.795	447
935.890	346
935.984	669
936.079	910
936.173	161
936.267	961
936.362	809
936.456	594
936.550	691
936.644	91
936.738	41
936.833	1327
936.927	513
937.021	795
937.115	140
937.209	198
937.303	1494
937.397	176
937.491	-177
937.585	555
937.679	291
937.773	806
937.867	486
937.961	117
938.055	436
938.149	693
938.243	684
938.337	336
938.430	-506
938.524	-69
938.618	1955
938.712	1218
938.805	988
938.899	240
938.993	283
939.086	516
939.180	1216
939.274	1695
939.367	610
939.461	816
939.554	122
939.648	755
939.741	408
939.835	-307
939.928	336
940.022	688
940.115	753
940.208	343
940.302	226
940.395	610
940.488	338
940.582	-31
940.675	-74
940.768	368
940.861	122
940.954	337
941.048	70
941.141	224
941.234	-165
941.327	814
941.420	169
941.513	580
941.606	220
941.699	345
941.792	13
941.885	77
941.978	164
942.071	-36
942.164	397
942.257	103
942.349	67
942.442	645
942.535	384
942.628	547
942.721	833
942.813	-428
942.906	220
942.999	343
943.091	435
943.184	352
943.277	733
943.369	274
943.462	-118
943.554	401
943.647	-439
943.739	706
943.832	688
943.924	191
944.017	152
944.109	-111
944.201	795
944.294	-603
944.386	-182
944.478	-316
944.571	342
944.663	-332
944.755	831
944.847	512
944.940	186
945.032	370
945.124	-72
945.216	604
945.308	243
945.400	15
945.492	491
945.584	-86
945.676	38
945.768	-4
945.860	-32
945.952	272
946.044	53
946.136	209
946.228	415
946.320	329
946.412	14
946.503	925
946.595	594
946.687	-166
946.779	166
946.870	350
946.962	409
947.054	651
947.145	145
947.237	280
947.329	-474
947.420	649
947.512	290
947.603	657
947.695	1178
947.786	313
947.878	247
947.969	440
948.061	-26
948.152	395
948.243	-250
948.335	610
948.426	-246
948.517	1486
948.609	-114
948.700	138
948.791	126
948.882	810
948.973	-34
949.065	165
949.156	1126
949.247	39
949.338	60
949.429	382
949.520	-203
949.611	-51
949.702	294
949.793	187
949.884	415
949.975	278
950.066	86
950.157	-528
950.247	189
950.338	-348
950.429	392
950.520	772
950.611	887
950.701	390
950.792	235
950.883	958
950.973	-35
951.064	65
951.155	-245
951.245	37
951.336	1002
951.427	608
951.517	987
951.608	69
951.698	-537
951.788	144
951.879	1
951.969	-154
952.060	604
952.150	697
952.240	420
952.331	74
952.421	421
952.511	-191
952.602	222
952.692	204
952.782	-622
952.872	-9
952.962	238
953.052	496
953.143	-588
953.233	526
953.323	254
953.413	-355
953.503	409
953.593	543
953.683	-340
953.773	463
953.863	-87
953.953	405
954.042	-183
954.132	-48
954.222	299
954.312	490
954.402	99
954.492	819
954.581	427
954.671	909
954.761	452
954.850	663
954.940	101
955.030	-368
955.119	-194
955.209	484
955.298	-879
955.388	225
955.477	870
955.567	171
955.656	-108
955.746	-22
955.835	911
955.925	87
956.014	13
956.103	31
956.193	461
956.282	617
956.371	724
956.461	-266
956.550	-464
956.639	216
956.728	-692
956.817	818
956.906	281
956.995	240
957.085	98
957.174	-441
957.263	-384
957.352	219
957.441	507
957.530	-216
957.619	-88
957.708	-550
957.796	39
957.885	147
957.974	770
958.063	814
958.152	-35
958.241	472
958.329	-54
958.418	-43
958.507	84
958.596	968
958.684	-151
958.773	632
958.861	606
958.950	650
959.039	539
959.127	522
959.216	415
959.304	781
959.393	765
959.481	52
959.570	268
959.658	1023
959.746	368
959.835	689
959.923	1395
960.011	1475
960.100	575
960.188	346
960.276	345
960.365	92
960.453	621
960.541	-108
960.629	771
960.717	326
960.805	-517
960.893	597
960.981	-182
961.069	1224
961.158	318
961.245	846
961.333	-270
961.421	889
961.509	-136
961.597	126
961.685	141
961.773	-569
961.861	-5
961.949	-201
962.036	-1095
962.124	-479
962.212	61
962.299	-279
962.387	-572
962.475	-255
962.562	-664
962.650	-199
962.738	146
962.825	-380
962.913	-345
963.000	349
963.088	62
963.175	88
963.263	-201
963.350	309
963.438	-903
963.525	790
963.612	363
963.700	1913
963.787	5598
963.874	5198
963.962	409
964.049	462
964.136	-163
964.223	-314
964.310	-8
964.398	-802
964.485	-534
964.572	-459
964.659	696
964.746	1068
964.833	113
964.920	-463
965.007	443
965.094	-845
965.181	-365
965.268	-253
965.355	-130
965.441	93
965.528	-53
965.615	494
965.702	-663
965.789	-751
965.875	-379
965.962	-160
966.049	-246
966.136	-219
966.222	187
966.309	175
966.395	-349
966.482	19
966.569	-679
966.655	-190
966.742	-39
966.828	-143
966.915	-60
967.001	346
967.087	-619
967.174	-612
967.260	606
967.347	500
967.433	925
967.519	3628
967.605	2901
967.692	-536
967.778	-250
967.864	-243
967.950	-358
968.036	-508
968.123	42
968.209	-375
968.295	-795
968.381	1036
968.467	555
968.553	-699
968.639	-521
968.725	-790
968.811	179
968.897	981
968.983	-545
969.069	-344
969.154	37
969.240	-433
969.326	-850
969.412	34
969.497	92
969.583	-1443
969.669	75
969.755	-770
969.840	-643
969.926	200
970.012	-458
970.097	-619
970.183	-1140
970.268	-78
970.354	-139
970.439	-296
970.525	1596
970.610	827
970.696	95
970.781	-150
970.866	-626
970.952	-581
971.037	-1045
971.122	-216
971.208	-519
971.293	217
971.378	-828
971.463	-555
971.549	-70
971.634	-648
971.719	-177
971.804	-563
971.889	37
971.974	-30
972.059	113
972.144	-514
972.229	-1395
972.314	-374
972.399	-575
972.484	2
972.569	-80
972.654	486
972.739	358
972.824	1704
972.908	280
972.993	374
973.078	-859
973.163	-278
973.247	-603
973.332	-986
973.417	746
973.501	-64
973.586	-613
973.671	-897
973.755	-740
973.840	-343
973.924	-317
974.009	-371
974.093	-612
974.178	-225
974.262	470
974.346	1419
974.431	-221
974.515	-183
974.600	111
974.684	-742
974.768	-1013
974.852	-346
974.937	-1218
975.021	294
975.105	-380
975.189	-1171
975.273	-79
975.358	-991
975.442	-1144
975.526	369
975.610	-715
975.694	-958
975.778	-327
975.862	-967
975.946	-1882
976.030	282
976.114	-398
976.198	-19
976.281	-661
976.365	-125
976.449	-291
976.533	161
976.617	-509
976.700	-733
976.784	-507
976.868	-571
976.951	77
977.035	377
977.119	-848
977.202	-945
977.286	-512
977.369	84
977.453	-701
977.536	-412
977.620	-971
977.703	570
977.787	-675
977.870	119
977.953	-482
978.037	-913
978.120	-382
978.203	-415
978.287	121
978.370	486
978.453	-153
978.536	-810
978.620	589
978.703	124
978.786	681
978.869	-330
978.952	-1448
979.035	-82
979.118	-678
979.201	-66
979.284	-681
979.367	-1294
979.450	-550
979.533	-391
979.616	-700
979.699	-804
979.782	127
979.865	-576
979.948	-44
980.030	-901
980.113	-467
980.196	-292
980.279	-17
980.361	-745
980.444	-518
980.526	-347
980.609	-528
980.692	-277
980.774	-683
980.857	-1581
980.939	-741
981.022	-1478
981.104	-1248
981.187	-410
981.269	-761
981.352	-886
981.434	-729
981.516	-740
981.599	273
981.681	-192
981.763	-541
981.846	-834
981.928	-710
982.010	-330
982.092	-385
982.174	-668
982.256	-505
982.339	-1216
982.421	-720
982.503	-539
982.585	-491
982.667	-985
982.749	-769
982.831	-521
982.913	-1266
982.995	141
983.077	-1026
983.158	-260
983.240	-1026
983.322	-555
983.404	-420
983.486	-911
983.568	-1044
983.649	-29
983.731	-1209
983.813	-1621
983.894	192
983.976	-866
984.058	-998
984.139	-207
984.221	-391
984.302	226
984.384	-438
984.465	-473
984.547	-745
984.628	-488
984.710	70
984.791	-598
984.872	-872
984.954	-354
985.035	-1470
985.116	-549
985.198	-1069
985.279	-333
985.360	-76
985.441	-401
985.522	-791
985.604	-1063
985.685	-1330
985.766	75
985.847	-472
985.928	-1189
986.009	-1070
986.090	-980
986.171	-746
986.252	-464
986.333	-452
986.414	-556
986.495	-138
986.576	-337
986.656	-393
986.737	-712
986.818	-1061
986.899	-1165
986.980	-1190
987.060	-119
987.141	-1452
987.222	-358
987.302	-979
987.383	-707
987.464	-382
987.544	-592
987.625	-460
987.705	-639
987.786	18
987.866	-638
987.947	322
988.027	-760
988.108	-1047
988.188	-674
988.268	-651
988.349	-477
988.429	-558
988.509	-432
988.589	-961
988.670	-1612
988.750	191
988.830	-542
988.910	264
988.990	-1058
989.070	-681
989.151	-1031
989.231	-1547
989.311	-827
989.391	-242
989.471	-639
989.551	-547
989.631	-174
989.711	-376
989.791	-866
989.870	-1596
989.950	-558
990.030	-410
990.110	-824
990.190	-1065
990.269	-1227
990.349	-1029
990.429	-304
990.509	-352
990.588	-1221
990.668	-773
990.747	-1095
990.827	-772
990.907	-949
990.986	-730
991.066	-1310
991.145	-1782
991.225	-1162
991.304	-1233
991.383	-690
991.463	-176
991.542	-1031
991.622	-997
991.701	-478
991.780	-1227
991.859	-762
991.939	-1690
992.018	-655
992.097	-596
992.176	-335
992.256	-666
992.335	-1200
992.414	-688
992.493	-839
992.572	-838
992.651	-50
992.730	-1060
992.809	-888
992.888	-1194
992.967	-512
993.046	-582
993.125	-1170
993.203	-905
993.282	-436
993.361	-684
993.440	-1116
993.519	-895
993.597	-981
993.676	-1527
993.755	-172
993.834	-983
993.912	-967
993.991	-68
994.069	-558
994.148	-560
994.226	-1223
994.305	-477
994.384	-1090
994.462	-62
994.540	-1298
994.619	-1157
994.697	-994
994.776	-1729
994.854	-244
994.932	-1254
995.011	-392
995.089	-523
995.167	-565
995.245	-1864
995.324	-1617
995.402	264
995.480	-1473
995.558	-615
995.636	-392
995.714	-1393
995.792	-399
995.870	-1242
995.948	-791
996.026	-586
996.104	-1258
996.182	-1420
996.260	-1341
996.338	-506
996.416	-888
996.494	-530
996.572	-81
996.649	-419
996.727	-1055
996.805	-1134
996.883	-1359
996.960	-1227
997.038	-176
997.116	-1748
997.193	-1421
997.271	-557
997.348	-808
997.426	-1203
997.504	-1372
997.581	-569
997.658	-688
997.736	-1254
997.813	-1230
997.891	-684
997.968	-479
998.046	-1575
998.123	-1396
998.200	-948
998.277	-1571
998.355	-1048
998.432	-2081
998.509	-812
998.586	-1348
998.663	-939
998.741	-242
998.818	-1520
998.895	-1420
998.972	-502
999.049	-466
999.126	-1223
999.203	-755
999.280	-1762
999.357	-853
999.434	-473
999.511	-817
999.587	-1019
999.664	-689
999.741	-680
999.818	-652
999.895	-1460
999.971	-1376
1000.048	-1045
1000.125	-737
1000.202	-1140
1000.278	-1080
1000.355	-871
1000.431	-682
1000.508	-1505
1000.584	-1441
1000.661	-1473
1000.738	-1502
1000.814	-1222
1000.890	17
1000.967	-1057
1001.043	-1086
1001.120	-1267
1001.196	-821
1001.272	-1631
1001.349	-188
1001.425	-572
1001.501	-903
1001.577	-938
1001.654	-510
1001.730	-920
1001.806	-1069
1001.882	-1231
1001.958	197
1002.034	-1309
1002.110	-886
1002.186	-1166
1002.262	-1638
1002.338	-1524
1002.414	-707
1002.490	-1098
1002.566	-1048
1002.642	-1098
1002.718	-694
1002.794	-1499
1002.870	-494
1002.945	-1664
1003.021	-1109
1003.097	362
1003.173	-598
1003.248	-1151
1003.324	-556
1003.400	-578
1003.475	-1183
1003.551	-1002
1003.626	-1181
1003.702	-895
1003.777	-475
1003.853	-246
1003.928	-477
1004.004	-877
1004.079	-357
1004.155	-1537
1004.230	-1122
1004.305	-900
1004.381	-1718
1004.456	-928
1004.531	208
1004.607	-1051
1004.682	-990
1004.757	-1171
1004.832	-966
1004.907	-483
1004.982	-288
1005.057	-1223
1005.133	-1062
1005.208	-353
1005.283	-363
1005.358	-509
1005.433	-1009
1005.508	-132
1005.583	-658
1005.657	-1595
1005.732	-1159
1005.807	-851
1005.882	-1407
1005.957	-1448
1006.032	-399
1006.106	-1505
1006.181	-1592
1006.256	-850
1006.331	-2250
1006.405	-1826
1006.480	-605
1006.554	-1458
1006.629	-143
1006.704	-1688
1006.778	-1445
1006.853	-1154
1006.927	-1070
1007.002	-1294
1007.076	-876
1007.150	-1094
1007.225	-721
1007.299	-391
1007.373	-1271
1007.448	-856
1007.522	-288
1007.596	-976
1007.671	-1362
1007.745	-461
1007.819	-1018
1007.893	-1488
1007.967	-1213
1008.041	-1947
1008.115	-753
1008.190	-899
1008.264	-71
1008.338	-1830
1008.412	-655
1008.486	-1378
1008.560	-458
1008.633	-1218
1008.707	-1036
1008.781	-513
1008.855	-2339
1008.929	-318
1009.003	-1719
1009.076	-1950
1009.150	-1395
1009.224	-768
1009.298	-1326
1009.371	-1158
1009.445	-1084
1009.519	-1007
1009.592	-850
1009.666	-1038
1009.739	-1335
1009.813	-1247
1009.886	-166
1009.960	-1664
1010.033	-1116
1010.107	-1176
1010.180	-1456
1010.253	-288
1010.327	-1246
1010.400	-462
1010.473	-1897
1010.547	-455
1010.620	-1284
1010.693	-918
1010.766	-605
1010.840	-960
1010.913	-1544
1010.986	-716
1011.059	-550
1011.132	-1676
1011.205	-164
1011.278	-1395
1011.351	-484
1011.424	-860
1011.497	-996
1011.570	-916
1011.643	-819
1011.716	-1071
1011.789	-512
1011.862	-833
1011.934	-700
1012.007	-2051
1012.080	-469
1012.153	-1782
1012.225	-366
1012.298	-1192
1012.371	-1436
1012.443	-1403
1012.516	-904
1012.588	-880
1012.661	-206
1012.733	-1991
1012.806	-456
1012.879	-1834
1012.951	-996
1013.023	-885
1013.096	-1315
1013.168	-1329
1013.241	-727
1013.313	-1120
1013.385	-320
1013.458	-855
1013.530	-987
1013.602	-996
1013.674	-696
1013.746	-1587
1013.819	-1475
1013.891	-700
1013.963	-1438
1014.035	-906
1014.107	-1080
1014.179	-1031
1014.251	-1213
1014.323	-1094
1014.395	-830
1014.467	-1215
1014.539	-83
1014.611	-928
1014.683	-1919
1014.754	-600
1014.826	-2206
1014.898	-1402
1014.970	-2047
1015.042	-1
1015.113	-887
1015.185	-1427
1015.257	-1621
1015.328	-569
1015.400	-1289
1015.471	-797
1015.543	-1991
1015.615	-706
1015.686	-1750
1015.757	-1140
1015.829	-1241
1015.901	-1113
1015.972	-1137
1016.043	-1581
1016.115	-653
1016.186	-1305
1016.257	-1854
1016.328	-866
1016.400	-1440
1016.471	-1528
1016.542	-933
1016.613	-996
1016.685	-1753
1016.756	-309
1016.827	-798
1016.898	-2131
1016.969	-1458
1017.040	-691
1017.111	-1578
1017.182	-2136
1017.253	-1189
1017.324	-1892
1017.395	-1505
1017.466	-1560
1017.537	-793
1017.608	-1759
1017.678	-1584
1017.749	-1563
1017.820	-1421
1017.891	-1660
1017.961	-1433
1018.032	-945
1018.103	-853
1018.173	-1427
1018.244	-1305
1018.315	-1753
1018.385	-696
1018.456	-1929
1018.526	-953
1018.597	-1164
1018.667	-1037
1018.738	-2409
1018.808	-488
1018.878	-1645
1018.949	-1113
1019.019	-2190
1019.089	-1383
1019.160	-1285
1019.230	-1064
1019.300	-1477
1019.371	-1770
1019.441	-803
1019.511	-1212
1019.581	-1295
1019.651	-1461
1019.721	-1453
1019.791	-1440
1019.861	-1271
1019.931	-375
1020.001	-1429
1020.071	-424
1020.141	-2203
1020.211	-980
1020.281	-1565
1020.351	-1302
1020.421	-1479
1020.491	-1038
1020.560	-907
1020.630	-1248
1020.700	-793
1020.770	-1380
1020.839	-1261
1020.909	-1289
1020.979	-1202
1021.048	-969
1021.118	-1596
1021.187	-984
1021.257	-1722
1021.326	-957
1021.396	-2037
1021.465	-750
1021.535	-1356
1021.604	-2181
1021.674	-909
1021.743	-1689
1021.812	-1474
1021.882	-1607
1021.951	-1588
1022.020	-1501
1022.089	-1504
1022.159	-1109
1022.228	-1660
1022.297	-1853
1022.366	-1884
1022.435	-1518
1022.504	-743
1022.573	-1364
1022.642	-1214
1022.711	-1728
1022.781	-1366
1022.849	-1023
1022.918	-1484
1022.987	-892
1023.056	-1082
1023.125	-1438
1023.194	-1316
1023.263	-1577
1023.331	-1068
1023.400	-2208
1023.469	-1688
1023.538	-871
1023.606	-1894
1023.675	-1513
1023.744	-1604
1023.812	-1595
1023.881	-1460
1023.949	-1830
1024.018	-1187
1024.086	-1546
1024.155	-1321
1024.223	-1607
1024.292	-1615
1024.360	-1065
1024.429	-1355
1024.497	-1346
1024.565	-1486
1024.634	-1562
1024.702	-1035
1024.770	-1813
1024.838	-1871
1024.907	-1332
1024.975	-1740
1025.043	-1157
1025.111	-1963
1025.179	-1977
1025.247	-1832
1025.315	-1403
1025.383	-1562
1025.451	-1584
1025.519	-1269
1025.587	-2078
1025.655	-1090
1025.723	-2072
1025.791	-1556
1025.859	-1760
1025.927	-1561
1025.995	-2509
1026.062	-962
1026.130	-2079
1026.198	-1342
1026.266	-1229
1026.333	-1670
1026.401	-1527
1026.469	-1430
1026.536	-1806
1026.604	-1668
1026.671	-1551
1026.739	-1330
1026.806	-2180
1026.874	-2104
1026.941	-1418
1027.009	-1237
1027.076	-1966
1027.144	-983
1027.211	-2227
1027.278	-1475
1027.345	-320
1027.413	-1462
1027.480	-925
1027.547	-2341
1027.614	-966
1027.682	-1642
1027.749	-1439
1027.816	-850
1027.883	-2051
1027.950	-1182
1028.017	-2134
1028.084	-1280
1028.151	-1851
1028.218	-1619
1028.285	-1258
1028.352	-1736
1028.419	-1366
1028.486	-2302
1028.553	-1738
1028.619	-1730
1028.686	-2120
1028.753	-1652
1028.820	-2007
1028.886	-1296
1028.953	-1696
1029.020	-1734
1029.086	-1652
1029.153	-1794
1029.220	-1772
1029.286	-1753
1029.353	-1999
1029.419	-1410
1029.486	-956
1029.552	-2016
1029.619	-1881
1029.685	-1478
1029.751	-1940
1029.818	-1464
1029.884	-1715
1029.951	-883
1030.017	-1116
1030.083	-1591
1030.149	-1884
1030.216	-1501
1030.282	-1003
1030.348	-1487
1030.414	-1536
1030.480	-1528
1030.546	-1346
1030.612	-1411
1030.678	-2222
1030.744	-976
1030.810	-2411
1030.876	-1757
1030.942	-1695
1031.008	-1944
1031.074	-1429
1031.140	-1975
1031.206	-1600
1031.272	-1608
1031.337	-1995
1031.403	-1472
1031.469	-1374
1031.534	-1555
1031.600	-921
1031.666	-1912
1031.731	-1454
1031.797	-1648
1031.863	-2253
1031.928	-1200
1031.994	-1909
1032.059	-644
1032.125	-2344
1032.190	-2151
1032.256	-1858
1032.321	-1788
1032.386	-1621
1032.452	-910
1032.517	-1144
1032.582	-1463
1032.647	-1540
1032.713	-1600
1032.778	-1062
1032.843	-2019
1032.908	-1522
1032.974	-1737
1033.039	-1673
1033.104	-1127
1033.169	-1361
1033.234	-1558
1033.299	-1271
1033.364	-1473
1033.429	-1399
1033.494	-1886
1033.559	-1712
1033.624	-1863
1033.688	-2036
1033.753	-2023
1033.818	-1998
1033.883	-1993
1033.948	-2030
1034.013	-1399
1034.077	-2040
1034.142	-1341
1034.207	-1835
1034.271	-1678
1034.336	-856
1034.400	-1350
1034.465	-1226
1034.530	-1534
1034.594	-1876
1034.658	-1744
1034.723	-1812
1034.787	-1145
1034.852	-2145
1034.916	-1954
1034.981	-2101
1035.045	-1809
1035.109	-1460
1035.173	-1360
1035.238	-2429
1035.302	-1274
1035.366	-1261
1035.430	-2248
1035.495	-1855
1035.559	-1434
1035.623	-1176
1035.687	-1995
1035.751	-2057
1035.815	-1358
1035.879	-1758
1035.943	-1339
1036.007	-1952
1036.071	-1397
1036.135	-1044
1036.198	-1474
1036.262	-1841
1036.326	-1595
1036.390	-1686
1036.454	-1857
1036.517	-1564
1036.581	-1720
1036.645	-2128
1036.709	-1739
1036.772	-2099
1036.836	-716
1036.900	-1371
1036.963	-1580
1037.026	-1684
1037.090	-1817
1037.154	-2557
1037.217	-1429
1037.280	-2445
1037.344	-1559
1037.407	-1526
1037.471	-1602
1037.534	-1695
1037.597	-1967
1037.661	-1310
1037.724	-2232
1037.787	-1908
1037.850	-1193
1037.913	-1579
1037.977	-1019
1038.040	-1731
1038.103	-1000
1038.166	-1697
1038.229	-1897
1038.292	-1970
1038.355	-1172
1038.418	-1692
1038.481	-1241
1038.544	-2177
1038.607	-368
1038.670	-1494
1038.732	-1487
1038.795	-1709
1038.858	-1888
1038.921	-1596
1038.984	-698
1039.046	-1840
1039.109	-1876
1039.172	-2205
1039.234	-1522
1039.297	-1431
1039.360	-1660
1039.422	-1208
1039.485	-2448
1039.547	-2028
1039.610	-1585
1039.672	-1734
1039.734	-1710
1039.797	-1651
1039.859	-1792
1039.922	-1717
1039.984	-1843
1040.046	-1925
1040.109	-1863
1040.171	-1649
1040.233	-1221
1040.295	-1641
1040.358	-2102
1040.420	-1844
1040.482	-1729
1040.544	-1637
1040.606	-1959
1040.668	-1721
1040.730	-2032
1040.792	-1924
1040.854	-2040
1040.916	-1680
1040.978	-1958
1041.040	-1586
1041.102	-1637
1041.164	-1954
1041.225	-2175
1041.287	-2221
1041.349	-1691
1041.411	-1493
1041.472	-1835
1041.534	-1136
1041.596	-1289
1041.657	-1406
1041.719	-1642
1041.781	-1601
1041.842	-1741
1041.904	-1781
1041.965	-2530
1042.027	-1470
1042.088	-1210
1042.150	-2713
1042.211	-1886
1042.272	-1380
1042.334	-2185
1042.395	-2046
1042.456	-1472
1042.518	-1748
1042.579	-1828
1042.640	-786
1042.701	-1206
1042.763	-1062
1042.824	-1037
1042.885	-2637
1042.946	-1779
1043.007	-709
1043.068	-1215
1043.129	-2604
1043.190	-2028
1043.251	-933
1043.312	-1922
1043.373	-1659
1043.434	-1924
1043.495	-1777
1043.556	-1299
1043.616	-2012
1043.677	-2559
1043.738	-1550
1043.799	-1807
1043.859	-1685
1043.920	-2665
1043.981	-1946
1044.041	-1977
1044.102	-1976
1044.162	-2162
1044.223	-1919
1044.284	-1426
1044.344	-794
1044.405	-2505
1044.465	-2145
1044.525	-1402
1044.586	-1058
1044.646	-1897
1044.707	-1987
1044.767	-1520
1044.827	-1887
1044.887	-1783
1044.948	-1180
1045.008	-1441
1045.068	-1053
1045.128	-2010
1045.188	-1102
1045.249	-1686
1045.309	-1201
1045.369	-1471
1045.429	-1609
1045.489	-1535
1045.549	-1748
1045.609	-1375
1045.669	-1174
1045.729	-2517
1045.789	-1365
1045.848	-1269
1045.908	-1245
1045.968	-959
1046.028	-1101
1046.088	-1495
1046.147	-1118
1046.207	-1649
1046.267	-1194
1046.326	-1465
1046.386	-1840
1046.446	-289
1046.505	-1425
1046.565	-1206
1046.624	-1135
1046.684	-866
1046.743	-481
1046.803	-193
1046.862	277
1046.922	0
