'Start Wavelength	183.907
'End Wavelength	1046.922
'Gate Delay	5.000
'Gate Width (ms)	1.050
'Laser Output Level	0.000
'X Position	0.000
'Y Position	0.000
'Z Position	0.000
'Grid Point Number	1.000
'Shot Number	100.000
183.907	631.000
183.977	-340.000
184.047	361
184.116	370
184.186	-453
184.256	209
184.325	-315
184.395	-4
184.465	792
184.534	-48
184.604	-468
184.674	413
184.743	-82
184.813	906
184.883	225
184.952	210
185.022	233
185.092	391
185.161	-300
185.231	602
185.301	-204
185.370	1154
185.440	-236
185.509	-748
185.579	-916
185.649	849
185.718	235
185.788	-82
185.857	-279
185.927	423
185.996	25
186.066	389
186.136	220
186.205	513
186.275	26
186.344	680
186.414	-52
186.483	268
186.553	691
186.622	1440
186.692	-642
186.761	-195
186.831	617
186.900	-18
186.970	-128
187.039	1042
187.109	1176
187.178	579
187.248	1197
187.317	1272
187.387	332
187.456	534
187.526	767
187.595	86
187.664	627
187.734	612
187.803	1147
187.873	1840
187.942	841
188.012	1080
188.081	1003
188.150	440
188.220	1390
188.289	1860
188.358	713
188.428	650
188.497	-45
188.567	349
188.636	-118
188.705	139
188.775	23
188.844	438
188.913	525
188.983	411
189.052	693
189.121	1084
189.191	1093
189.260	1433
189.329	1047
189.399	779
189.468	791
189.537	981
189.606	653
189.676	1487
189.745	454
189.814	1297
189.883	645
189.953	1920
190.022	603
190.091	3136
190.161	4500
190.230	1670
190.299	950
190.368	276
190.437	422
190.507	884
190.576	573
190.645	817
190.714	470
190.783	646
190.853	1135
190.922	1350
190.991	1286
191.060	1690
191.129	696
191.198	1220
191.268	779
191.337	1486
191.406	554
191.475	1590
191.544	152
191.613	1413
191.682	442
191.752	869
191.821	418
191.890	418
191.959	314
192.028	1416
192.097	745
192.166	1115
192.235	166
192.304	1195
192.373	1270
192.442	680
192.511	152
192.580	1403
192.650	500
192.719	864
192.788	1583
192.857	1280
192.926	106
192.995	1987
193.064	1896
193.133	2343
193.202	3126
193.271	3445
193.340	2871
193.409	2836
193.478	3557
193.547	4314
193.615	4867
193.684	6041
193.753	3298
193.822	3374
193.891	1713
193.960	1898
194.029	877
194.098	2467
194.167	1032
194.236	1140
194.305	1350
194.374	1080
194.443	1008
194.512	1958
194.580	1150
194.649	2083
194.718	2073
194.787	1557
194.856	-96
194.925	2138
194.994	1412
195.062	2095
195.131	1431
195.200	3566
195.269	3432
195.338	3143
195.407	1768
195.475	1872
195.544	2485
195.613	2890
195.682	1554
195.751	3241
195.819	3279
195.888	3082
195.957	3216
196.026	3904
196.094	3458
196.163	3755
196.232	3411
196.301	2761
196.369	2411
196.438	2653
196.507	2081
196.576	1987
196.644	361
196.713	2044
196.782	1843
196.850	1360
196.919	1552
196.988	1694
197.056	1640
197.125	1864
197.194	1110
197.262	1862
197.331	603
197.400	2298
197.468	963
197.537	1345
197.606	1698
197.674	2935
197.743	4743
197.812	2025
197.880	4054
197.949	3390
198.017	3490
198.086	3926
198.155	2508
198.223	2495
198.292	4854
198.360	3335
198.429	1322
198.497	2079
198.566	2694
198.635	6094
198.703	1466
198.772	2068
198.840	4341
198.909	5924
198.977	1829
199.046	2486
199.114	1570
199.183	2204
199.251	1524
199.320	1983
199.388	901
199.457	2239
199.525	2033
199.594	2522
199.662	1976
199.731	1723
199.799	1744
199.867	2423
199.936	2567
200.004	2621
200.073	1449
200.141	1534
200.210	1387
200.278	1416
200.346	2247
200.415	3452
200.483	2997
200.552	2255
200.620	1908
200.688	1671
200.757	1802
200.825	1933
200.893	1775
200.962	2215
201.030	1392
201.098	1711
201.167	2857
201.235	2696
201.303	2080
201.372	3411
201.440	1372
201.508	1917
201.577	2142
201.645	2257
201.713	2184
201.781	2645
201.850	2281
201.918	2669
201.986	1859
202.055	3244
202.123	2118
202.191	2844
202.259	2351
202.327	2393
202.396	2564
202.464	2449
202.532	2763
202.600	6592
202.669	3884
202.737	2226
202.805	1389
202.873	1922
202.941	2294
203.009	1931
203.078	2341
203.146	2549
203.214	2241
203.282	2343
203.350	2570
203.418	1553
203.487	2660
203.555	2269
203.623	2949
203.691	2545
203.759	1461
203.827	2211
203.895	2370
203.963	2536
204.031	2336
204.099	2110
204.168	2503
204.236	3219
204.304	2609
204.372	3320
204.440	2666
204.508	2002
204.576	1335
204.644	2929
204.712	1372
204.780	2806
204.848	2569
204.916	1888
204.984	1821
205.052	3191
205.120	2464
205.188	3123
205.256	1302
205.324	3274
205.392	1913
205.460	3197
205.528	2329
205.596	2644
205.664	2287
205.732	2771
205.799	5267
205.867	9683
205.935	2625
206.003	3953
206.071	2805
206.139	3099
206.207	2990
206.275	3179
206.343	2206
206.411	2938
206.478	2731
206.546	2736
206.614	3028
206.682	3308
206.750	2263
206.818	3100
206.885	3518
206.953	2527
207.021	2943
207.089	2491
207.157	1956
207.225	2812
207.292	2345
207.360	2634
207.428	2598
207.496	2598
207.563	2240
207.631	3084
207.699	1707
207.767	3394
207.834	2701
207.902	3136
207.970	2356
208.038	3244
208.105	2352
208.173	3215
208.241	4273
208.309	3930
208.376	4126
208.444	6618
208.512	3927
208.579	2019
208.647	2635
208.715	4163
208.782	2742
208.850	3782
208.918	2128
208.985	3237
209.053	2950
209.120	4088
209.188	2421
209.256	3574
209.323	3917
209.391	5451
209.459	5220
209.526	4073
209.594	2746
209.661	3275
209.729	3101
209.796	3590
209.864	3971
209.932	2719
209.999	4645
210.067	4595
210.134	3369
210.202	4368
210.269	6377
210.337	5561
210.404	3327
210.472	3545
210.539	3400
210.607	4534
210.674	4946
210.742	4136
210.809	3985
210.877	5024
210.944	6064
211.012	4676
211.079	6127
211.146	3365
211.214	3606
211.281	4752
211.349	5880
211.416	4504
211.484	5303
211.551	4720
211.618	3446
211.686	3717
211.753	3156
211.821	4650
211.888	4571
211.955	5102
212.023	3825
212.090	4449
212.157	3663
212.225	5300
212.292	7211
212.359	12022
212.427	26396
212.494	14173
212.561	6547
212.629	5985
212.696	5132
212.763	4579
212.831	4303
212.898	4802
212.965	3269
213.032	5494
213.100	4964
213.167	5102
213.234	5940
213.301	5562
213.369	3970
213.436	4444
213.503	4383
213.570	5166
213.638	4789
213.705	3979
213.772	3242
213.839	5727
213.906	5660
213.973	6042
214.041	3855
214.108	4239
214.175	4843
214.242	5072
214.309	4288
214.376	5448
214.444	5040
214.511	6783
214.578	5066
214.645	4899
214.712	6848
214.779	6762
214.846	5058
214.913	6182
214.980	7507
215.048	7568
215.115	8375
215.182	7658
215.249	6218
215.316	5612
215.383	4415
215.450	4964
215.517	5270
215.584	4885
215.651	4781
215.718	4881
215.785	6105
215.852	6837
215.919	8380
215.986	7669
216.053	4682
216.120	4311
216.187	5275
216.254	6834
216.321	5687
216.388	6246
216.455	5651
216.522	6306
216.589	8325
216.656	13069
216.722	11336
216.789	9425
216.856	8279
216.923	7984
216.990	6998
217.057	6938
217.124	8357
217.191	8967
217.258	9498
217.324	13270
217.391	13105
217.458	9966
217.525	7477
217.592	6823
217.659	4792
217.725	8202
217.792	8970
217.859	8901
217.926	4493
217.993	4235
218.059	3737
218.126	5118
218.193	3626
218.260	4308
218.327	3812
218.393	4842
218.460	3689
218.527	3631
218.594	3641
218.660	8855
218.727	10696
218.794	4371
218.860	3600
218.927	3272
218.994	2721
219.061	3736
219.127	5060
219.194	8725
219.261	4801
219.327	3435
219.394	2985
219.461	1755
219.527	2120
219.594	6547
219.661	4625
219.727	2957
219.794	3386
219.860	3154
219.927	3027
219.994	5931
220.060	10897
220.127	6984
220.193	4867
220.260	6096
220.326	7981
220.393	14398
220.460	19946
220.526	13968
220.593	6980
220.659	8596
220.726	8029
220.792	15711
220.859	16374
220.925	22944
220.992	31789
221.058	27224
221.125	23050
221.191	18773
221.258	8613
221.324	6741
221.391	6510
221.457	5249
221.524	4487
221.590	6553
221.657	16136
221.723	13221
221.789	11841
221.856	11955
221.922	6244
221.989	5819
222.055	3942
222.121	4442
222.188	7803
222.254	5831
222.321	3648
222.387	3071
222.453	3994
222.520	4970
222.586	2672
222.652	3984
222.719	3359
222.785	5365
222.851	3305
222.918	3388
222.984	3968
223.050	6433
223.116	4411
223.183	4192
223.249	1500
223.315	2273
223.382	3489
223.448	2918
223.514	1405
223.580	2132
223.647	2824
223.713	2033
223.779	2212
223.845	3602
223.911	3951
223.978	2462
224.044	2851
224.110	3098
224.176	2101
224.242	2457
224.309	1785
224.375	2661
224.441	2235
224.507	2470
224.573	1909
224.639	3646
224.705	2075
224.772	3232
224.838	2527
224.904	4640
224.970	3452
225.036	3205
225.102	4052
225.168	4400
225.234	3390
225.300	3842
225.366	3124
225.432	3336
225.499	2339
225.565	4663
225.631	4497
225.697	3886
225.763	3993
225.829	6066
225.895	6322
225.961	10067
226.027	9308
226.093	8239
226.159	9183
226.225	11975
226.291	26761
226.357	47415
226.423	28340
226.489	16410
226.554	9954
226.620	9498
226.686	11655
226.752	21184
226.818	26640
226.884	55858
226.950	49815
227.016	21949
227.082	13755
227.148	10707
227.214	11456
227.279	13055
227.345	9974
227.411	7780
227.477	6546
227.543	12305
227.609	15054
227.674	12021
227.740	7538
227.806	6780
227.872	4637
227.938	6271
228.003	13701
228.069	7116
228.135	2585
228.201	4570
228.267	4266
228.332	6185
228.398	7901
228.464	6627
228.530	2353
228.595	4212
228.661	3081
228.727	8822
228.792	8083
228.858	4722
228.924	4309
228.990	6547
229.055	5470
229.121	7929
229.187	5119
229.252	6152
229.318	3622
229.384	6489
229.449	7779
229.515	3059
229.581	2228
229.646	5645
229.712	4474
229.777	12454
229.843	14505
229.909	10101
229.974	11886
230.040	10771
230.105	5862
230.171	7719
230.236	9161
230.302	16283
230.368	11571
230.433	5750
230.499	5642
230.564	11196
230.630	6536
230.695	4068
230.761	4187
230.826	3030
230.892	9705
230.957	5467
231.023	3731
231.088	3114
231.154	3465
231.219	4452
231.284	6798
231.350	8485
231.415	3892
231.481	3720
231.546	3367
231.612	3635
231.677	2770
231.742	2049
231.808	4684
231.873	2913
231.939	2285
232.004	6621
232.069	8064
232.135	4128
232.200	3313
232.265	3184
232.331	2389
232.396	2962
232.461	2387
232.527	2905
232.592	1698
232.657	3763
232.723	8342
232.788	7802
232.853	3526
232.918	3618
232.984	1870
233.049	2857
233.114	8070
233.179	7566
233.245	10219
233.310	15263
233.375	4872
233.440	4609
233.506	3213
233.571	3549
233.636	2842
233.701	3676
233.766	7625
233.832	14219
233.897	6107
233.962	7088
234.027	10320
234.092	7404
234.157	6955
234.222	6546
234.288	8689
234.353	28552
234.418	28016
234.483	16847
234.548	10532
234.613	8864
234.678	8520
234.743	8313
234.808	29678
234.873	21716
234.938	9570
235.004	7599
235.069	7055
235.134	6125
235.199	5886
235.264	4931
235.329	3343
235.394	4895
235.459	8351
235.524	8259
235.589	5837
235.654	4860
235.719	3763
235.784	5633
235.849	6048
235.913	16232
235.978	18494
236.043	23296
236.108	8835
236.173	8419
236.238	9770
236.303	5570
236.368	5237
236.433	9837
236.498	20163
236.563	12285
236.627	20739
236.692	67474
236.757	59996
236.822	25595
236.887	20560
236.952	15712
237.017	11810
237.081	13913
237.146	16844
237.211	33684
237.276	66246
237.341	112269
237.405	60537
237.470	26354
237.535	20303
237.600	12747
237.664	9374
237.729	9107
237.794	11762
237.859	23623
237.923	19375
237.988	11342
238.053	14524
238.118	17175
238.182	34387
238.247	36270
238.312	20376
238.376	15358
238.441	11897
238.506	11167
238.570	4956
238.635	5840
238.700	5091
238.764	5969
238.829	15301
238.893	22370
238.958	10354
239.023	10890
239.087	6424
239.152	8186
239.216	5417
239.281	6055
239.346	5112
239.410	5210
239.475	6747
239.539	34032
239.604	30073
239.668	9688
239.733	5575
239.797	8663
239.862	18535
239.926	29309
239.991	13368
240.055	7981
240.120	6606
240.184	7093
240.249	5431
240.313	6287
240.378	7037
240.442	21889
240.507	35550
240.571	14122
240.635	16789
240.700	22427
240.764	8934
240.829	7187
240.893	3860
240.957	6622
241.022	18239
241.086	36995
241.151	20263
241.215	8088
241.279	10257
241.344	22282
241.408	10351
241.472	6618
241.537	7931
241.601	7867
241.665	5206
241.730	6231
241.794	8518
241.858	8070
241.922	6781
241.987	6869
242.051	5686
242.115	6627
242.179	7556
242.244	5324
242.308	6655
242.372	7404
242.436	12082
242.501	8161
242.565	4621
242.629	5681
242.693	5992
242.757	4961
242.822	6517
242.886	7821
242.950	7235
243.014	7394
243.078	9300
243.142	10838
243.206	7181
243.271	8258
243.335	8556
243.399	10781
243.463	28946
243.527	85586
243.591	32035
243.655	15688
243.719	8026
243.783	10342
243.847	15286
243.911	20104
243.975	30797
244.040	25909
244.104	13403
244.168	8928
244.232	15498
244.296	23055
244.360	17934
244.424	14125
244.488	11149
244.552	10195
244.615	6749
244.679	6438
244.743	10160
244.807	12380
244.871	7884
244.935	7314
244.999	6326
245.063	8954
245.127	9100
245.191	13467
245.255	13250
245.319	12742
245.383	12683
245.446	10455
245.510	7151
245.574	9481
245.638	10245
245.702	9136
245.766	23608
245.829	14977
245.893	11154
245.957	8333
246.021	10234
246.085	11375
246.149	13543
246.212	29789
246.276	45596
246.340	23510
246.404	16658
246.467	15156
246.531	24920
246.595	15953
246.659	15066
246.722	15186
246.786	19176
246.850	17909
246.913	23551
246.977	11630
247.041	10014
247.104	13839
247.168	11351
247.232	29234
247.295	58504
247.359	32749
247.423	14953
247.486	27423
247.550	18464
247.614	14931
247.677	20699
247.741	13647
247.804	9805
247.868	13710
247.932	25270
247.995	56971
248.059	23828
248.122	12332
248.186	15427
248.249	26345
248.313	84553
248.376	96820
248.440	62367
248.503	26260
248.567	21073
248.630	29950
248.694	41669
248.757	49122
248.821	94081
248.884	63611
248.948	53235
249.011	75298
249.075	107252
249.138	99517
249.202	43610
249.265	27765
249.328	32501
249.392	25228
249.455	18890
249.519	14486
249.582	19360
249.645	31717
249.709	23173
249.772	13311
249.835	13144
249.899	17435
249.962	13817
250.025	13499
250.089	33003
250.152	53031
250.215	27161
250.279	19870
250.342	17775
250.405	18127
250.468	15669
250.532	20600
250.595	28404
250.658	77895
250.721	134508
250.785	54930
250.848	30677
250.911	19643
250.974	16668
251.038	24015
251.101	53191
251.164	30079
251.227	30387
251.290	27080
251.354	31628
251.417	107025
251.480	115996
251.543	71178
251.606	194522
251.669	158335
251.732	65990
251.795	72944
251.859	67885
251.922	130497
251.985	85169
252.048	39312
252.111	30860
252.174	28158
252.237	50874
252.300	111147
252.363	105180
252.426	180430
252.489	91514
252.552	61153
252.615	42426
252.678	35897
252.741	78573
252.804	91722
252.867	175912
252.930	128778
252.993	81911
253.056	50145
253.119	45218
253.182	32576
253.245	38438
253.308	34945
253.371	39713
253.434	42009
253.497	40283
253.559	60633
253.622	48276
253.685	61409
253.748	69846
253.811	32262
253.874	36843
253.937	38203
254.000	26926
254.062	41079
254.125	64360
254.188	63470
254.251	59017
254.314	28305
254.376	47453
254.439	56819
254.502	51244
254.565	44929
254.628	77181
254.690	57825
254.753	33471
254.816	27603
254.878	27526
254.941	42802
255.004	46415
255.067	24046
255.129	27321
255.192	15612
255.255	13812
255.317	19043
255.380	12342
255.443	10324
255.505	10295
255.568	12568
255.631	14058
255.693	13105
255.756	10425
255.819	10102
255.881	8719
255.944	8862
256.006	8490
256.069	10187
256.132	8784
256.194	14104
256.257	38141
256.319	29529
256.382	27308
256.444	15100
256.507	11043
256.569	10067
256.632	10428
256.694	20334
256.757	37770
256.819	106636
256.882	46386
256.944	21598
257.007	19348
257.069	24494
257.132	17699
257.194	12404
257.257	12082
257.319	14765
257.381	12480
257.444	29366
257.506	118834
257.569	154296
257.631	100948
257.693	52277
257.756	24530
257.818	24469
257.880	14624
257.943	13961
258.005	11804
258.067	14307
258.130	12057
258.192	16048
258.254	38786
258.317	23054
258.379	13486
258.441	33800
258.503	33041
258.566	37434
258.628	55344
258.690	15708
258.753	15986
258.815	33698
258.877	17977
258.939	10990
259.001	10536
259.064	10787
259.126	14108
259.188	22883
259.250	13235
259.312	20081
259.375	58799
259.437	41553
259.499	13220
259.561	12626
259.623	15565
259.685	15645
259.747	13482
259.809	34650
259.872	71265
259.934	99196
259.996	112236
260.058	35745
260.120	15424
260.182	12346
260.244	9465
260.306	9612
260.368	10694
260.430	11650
260.492	30354
260.554	65239
260.616	47922
260.678	55097
260.740	80204
260.802	23860
260.864	19865
260.926	16141
260.988	14504
261.050	15309
261.112	42448
261.174	94683
261.236	65694
261.298	23230
261.359	33566
261.421	53428
261.483	18302
261.545	14814
261.607	9834
261.669	10462
261.731	22690
261.793	59383
261.854	29764
261.916	19115
261.978	20666
262.040	25099
262.102	13257
262.164	25342
262.225	21734
262.287	12711
262.349	31010
262.411	28328
262.472	13195
262.534	22945
262.596	54443
262.658	18300
262.719	11665
262.781	15596
262.843	49034
262.904	24888
262.966	16062
263.028	18376
263.090	67668
263.151	181841
263.213	73976
263.275	51705
263.336	21859
263.398	13603
263.459	10850
263.521	12472
263.583	30873
263.644	23472
263.706	10570
263.767	8096
263.829	8014
263.891	7097
263.952	7035
264.014	7407
264.075	19656
264.137	57409
264.198	25436
264.260	11043
264.321	10388
264.383	27410
264.444	78846
264.506	27277
264.567	14860
264.629	27551
264.690	67368
264.752	26105
264.813	15171
264.875	11825
264.936	12968
264.998	10858
265.059	8488
265.120	9307
265.182	14290
265.243	56789
265.305	62045
265.366	17067
265.427	11499
265.489	10972
265.550	8311
265.611	11771
265.673	11769
265.734	13084
265.795	8245
265.857	7377
265.918	8108
265.979	17359
266.040	88677
266.102	82453
266.163	27472
266.224	30007
266.286	15557
266.347	9925
266.408	10853
266.469	11775
266.530	9174
266.592	8159
266.653	18192
266.714	37363
266.775	12464
266.836	8707
266.898	8332
266.959	21246
267.020	15075
267.081	9313
267.142	6290
267.203	5290
267.264	5996
267.326	9532
267.387	6950
267.448	6795
267.509	6761
267.570	7978
267.631	6706
267.692	5891
267.753	6314
267.814	7360
267.875	15515
267.936	41702
267.997	26969
268.058	21791
268.119	11043
268.180	12435
268.241	9605
268.302	7520
268.363	6900
268.424	10645
268.485	11418
268.546	8581
268.607	5955
268.668	5400
268.729	5836
268.790	7813
268.851	9801
268.912	30142
268.972	36675
269.033	20582
269.094	8854
269.155	7652
269.216	6810
269.277	9848
269.338	7361
269.398	7602
269.459	10459
269.520	15844
269.581	21852
269.642	28271
269.702	16863
269.763	12102
269.824	8900
269.885	13065
269.945	22448
270.006	10798
270.067	6489
270.128	7486
270.188	7143
270.249	8302
270.310	6472
270.370	7265
270.431	8352
270.492	6835
270.553	8500
270.613	23204
270.674	42867
270.734	21198
270.795	11543
270.856	17107
270.916	16118
270.977	9194
271.038	12665
271.098	14996
271.159	20801
271.219	24382
271.280	10342
271.340	8762
271.401	11770
271.462	34114
271.522	20185
271.583	11233
271.643	11592
271.704	11032
271.764	13788
271.825	30401
271.885	87843
271.946	120202
272.006	44432
272.066	50024
272.127	89637
272.187	30596
272.248	18002
272.308	18159
272.369	56782
272.429	36610
272.489	33637
272.550	41679
272.610	35476
272.671	30845
272.731	26000
272.791	48330
272.852	25685
272.912	21275
272.972	12036
273.033	11165
273.093	23215
273.153	25013
273.214	16655
273.274	15794
273.334	55515
273.394	100245
273.455	46335
273.515	40384
273.575	92644
273.635	40456
273.696	46778
273.756	87908
273.816	39616
273.876	22985
273.936	44560
273.997	92998
274.057	28197
274.117	20040
274.177	28770
274.237	116011
274.297	107268
274.358	79362
274.418	73182
274.478	63417
274.538	28476
274.598	23523
274.658	69668
274.718	98586
274.778	40345
274.838	22763
274.898	43655
274.958	134583
275.018	97540
275.078	63470
275.138	31468
275.198	18481
275.258	14214
275.318	19342
275.378	35872
275.438	39688
275.498	24742
275.558	50918
275.618	109008
275.678	72084
275.738	47483
275.798	47409
275.858	30586
275.918	14727
275.978	16199
276.038	16860
276.098	12224
276.157	27019
276.217	75373
276.277	38178
276.337	28287
276.397	16025
276.457	19843
276.517	16059
276.576	10306
276.636	10798
276.696	19579
276.756	44416
276.815	36122
276.875	16712
276.935	19964
276.995	19062
277.055	10331
277.114	11533
277.174	15716
277.234	55342
277.293	28830
277.353	16072
277.413	11397
277.472	12666
277.532	13547
277.592	12582
277.651	29414
277.711	55894
277.771	23017
277.830	73406
277.890	66007
277.950	38623
278.009	102026
278.069	43148
278.128	35700
278.188	57645
278.248	28640
278.307	52846
278.367	39603
278.426	17445
278.486	12940
278.545	10825
278.605	8701
278.664	9944
278.724	11793
278.783	30722
278.843	82601
278.902	27709
278.962	18000
279.021	19989
279.081	16335
279.140	16748
279.199	17425
279.259	14016
279.318	13058
279.378	16969
279.437	32281
279.496	116585
279.556	263172
279.615	219518
279.675	59578
279.734	38369
279.793	62826
279.853	104274
279.912	43800
279.971	24134
280.031	22460
280.090	39087
280.149	75645
280.208	51964
280.268	192112
280.327	207972
280.386	55656
280.445	48950
280.505	53844
280.564	27309
280.623	25240
280.682	30816
280.742	51223
280.801	19329
280.860	13883
280.919	16063
280.978	13513
281.037	13643
281.097	11706
281.156	9968
281.215	10563
281.274	13980
281.333	53444
281.392	48275
281.451	12251
281.510	11266
281.569	10189
281.628	9493
281.688	8480
281.747	12532
281.806	16336
281.865	10563
281.924	9114
281.983	10982
282.042	8078
282.101	7451
282.160	8287
282.219	7744
282.278	9838
282.337	37494
282.396	29271
282.454	12371
282.513	14944
282.572	55856
282.631	38180
282.690	13428
282.749	10489
282.808	16534
282.867	16862
282.926	16446
282.985	7958
283.043	8313
283.102	8771
283.161	12355
283.220	31934
283.279	67238
283.338	21517
283.396	12855
283.455	11955
283.514	13482
283.573	21683
283.631	17433
283.690	11557
283.749	10201
283.808	23708
283.866	32907
283.925	11617
283.984	10238
284.043	14923
284.101	18578
284.160	13148
284.219	29583
284.277	17964
284.336	21919
284.395	70755
284.453	63811
284.512	20495
284.570	28633
284.629	23978
284.688	16499
284.746	16035
284.805	16725
284.863	20392
284.922	25814
284.981	25587
285.039	33178
285.098	60177
285.156	149616
285.215	356280
285.273	346744
285.332	170616
285.390	87807
285.449	55874
285.507	37952
285.566	27340
285.624	21995
285.683	18722
285.741	15631
285.799	15566
285.858	15582
285.916	14581
285.975	10816
286.033	9614
286.091	9733
286.150	9497
286.208	11677
286.267	18856
286.325	15560
286.383	23747
286.442	19617
286.500	9578
286.558	8693
286.616	7394
286.675	13383
286.733	12918
286.791	12706
286.850	13951
286.908	21969
286.966	34934
287.024	15281
287.083	8119
287.141	8004
287.199	8952
287.257	17036
287.315	12338
287.374	13836
287.432	33477
287.490	24203
287.548	14093
287.606	12307
287.664	11114
287.723	19587
287.781	35244
287.839	14818
287.897	14637
287.955	15571
288.013	20197
288.071	43688
288.129	141192
288.187	403943
288.245	192070
288.303	61536
288.361	38550
288.419	41902
288.477	32059
288.535	18193
288.593	14552
288.651	13812
288.709	10171
288.767	10961
288.825	12467
288.883	11090
288.941	11953
288.999	9252
289.057	9405
289.115	13468
289.173	11952
289.231	11527
289.289	11023
289.346	8903
289.404	11741
289.462	21774
289.520	23890
289.578	12844
289.636	7131
289.694	6022
289.751	6813
289.809	8203
289.867	9096
289.925	11641
289.983	16068
290.040	9123
290.098	7199
290.156	11105
290.214	15132
290.271	9607
290.329	7465
290.387	6647
290.444	7442
290.502	6280
290.560	9189
290.617	11547
290.675	8520
290.733	9279
290.790	10875
290.848	8717
290.906	8691
290.963	10608
291.021	9825
291.078	10332
291.136	13220
291.194	39140
291.251	93493
291.309	31031
291.366	13206
291.424	12105
291.481	12601
291.539	10140
291.596	8074
291.654	7677
291.711	7555
291.769	10077
291.826	25100
291.884	18233
291.941	9636
291.999	10568
292.056	11644
292.114	14429
292.171	9746
292.228	11283
292.286	14234
292.343	28515
292.401	32686
292.458	20423
292.515	13945
292.573	18869
292.630	18190
292.687	19982
292.745	14896
292.802	23282
292.859	62323
292.917	80098
292.974	51149
293.031	19507
293.089	14415
293.146	12148
293.203	10103
293.260	11698
293.318	20187
293.375	35453
293.432	21112
293.489	11977
293.546	11083
293.604	16975
293.661	37565
293.718	97907
293.775	68734
293.832	35225
293.889	24971
293.947	30643
294.004	24923
294.061	22164
294.118	38331
294.175	77468
294.232	107085
294.289	47046
294.346	20971
294.403	17903
294.460	18298
294.517	17183
294.574	14859
294.631	12772
294.688	17528
294.745	36802
294.802	116094
294.859	159033
294.916	74084
294.973	46482
295.030	33559
295.087	29998
295.144	19874
295.201	16115
295.258	14032
295.315	18053
295.372	41550
295.429	81027
295.486	42629
295.542	31633
295.599	66475
295.656	126762
295.713	88178
295.770	85716
295.827	40298
295.883	22992
295.940	23697
295.997	39265
296.054	40198
296.111	22319
296.167	15078
296.224	13322
296.281	11450
296.338	12158
296.394	12618
296.451	18818
296.508	41260
296.564	85585
296.621	69707
296.678	89677
296.734	138926
296.791	65057
296.848	34678
296.904	35941
296.961	70217
297.018	95667
297.074	80782
297.131	36676
297.187	25185
297.244	32735
297.301	75100
297.357	140608
297.414	56763
297.470	27170
297.527	21569
297.583	18362
297.640	20044
297.696	16824
297.753	13010
297.809	12463
297.866	10673
297.922	10941
297.979	11141
298.035	14184
298.092	21425
298.148	50705
298.204	56324
298.261	32769
298.317	47765
298.374	112823
298.430	71346
298.486	39075
298.543	31216
298.599	25837
298.656	25348
298.712	37896
298.768	77663
298.824	54557
298.881	23432
298.937	16867
298.993	15586
299.050	23453
299.106	22643
299.162	18669
299.218	17454
299.275	13601
299.331	15716
299.387	28534
299.443	82842
299.500	97232
299.556	40886
299.612	23265
299.668	21671
299.724	21270
299.780	21957
299.837	18941
299.893	26917
299.949	76556
300.005	100580
300.061	83921
300.117	136164
300.173	73766
300.229	34911
300.285	41109
300.341	52054
300.397	28073
300.453	17765
300.510	16864
300.566	18913
300.622	20208
300.678	39293
300.734	81570
300.790	80636
300.845	91301
300.901	61327
300.957	82704
301.013	74814
301.069	33424
301.125	23487
301.181	27281
301.237	19623
301.293	16560
301.349	13324
301.405	12780
301.461	13296
301.516	15065
301.572	18652
301.628	35888
301.684	34614
301.740	46410
301.796	66922
301.851	47247
301.907	70527
301.963	76633
302.019	96010
302.074	228364
302.130	241579
302.186	117458
302.242	52351
302.297	38651
302.353	36381
302.409	59725
302.464	58947
302.520	49477
302.576	97563
302.631	118089
302.687	76786
302.743	36811
302.798	23358
302.854	20216
302.910	21181
302.965	28348
303.021	47202
303.076	46835
303.132	52571
303.187	64359
303.243	36631
303.299	20485
303.354	16886
303.410	15712
303.465	15043
303.521	15210
303.576	15745
303.632	19118
303.687	30072
303.743	74258
303.798	71842
303.853	33256
303.909	21141
303.964	20566
304.020	29781
304.075	47908
304.130	42752
304.186	74186
304.241	77406
304.297	63250
304.352	36061
304.358	34813
304.407	24705
304.449	24370
304.463	24271
304.518	26233
304.539	24780
304.573	22493
304.629	24297
304.630	24507
304.684	34731
304.720	54417
304.739	64209
304.794	94571
304.811	82852
304.850	54706
304.902	30512
304.905	28971
304.960	21715
304.992	21072
305.015	20613
305.071	18906
305.083	18058
305.126	15074
305.173	14386
305.181	14292
305.236	13406
305.264	14509
305.292	15699
305.347	17819
305.354	18049
305.402	19363
305.445	20070
305.457	20363
305.512	25767
305.535	27124
305.567	28715
305.622	27241
305.626	27988
305.678	45534
305.716	80174
305.733	92650
305.788	115024
305.807	103621
305.843	82868
305.897	84101
305.898	84040
305.953	88355
305.988	64074
306.008	50464
306.063	32256
306.078	29494
306.118	23458
306.168	18520
306.173	18149
306.228	15718
306.259	15498
306.283	15446
306.338	16290
306.349	16531
306.393	17218
306.440	19063
306.448	19657
306.503	23665
306.530	28704
306.558	43220
306.613	100163
306.620	108281
306.668	137508
306.711	125620
306.723	120501
306.778	88852
306.801	69230
306.833	48108
306.888	28177
306.892	27403
306.943	21327
306.982	19787
306.997	19667
307.052	20978
307.072	22503
307.107	30041
307.162	47467
307.163	47775
307.217	81323
307.253	98182
307.272	99632
307.327	101395
307.343	91077
307.381	68522
307.434	50010
307.436	50790
307.491	94027
307.524	137170
307.546	145181
307.600	118061
307.614	102324
307.655	62965
307.704	35770
307.710	35068
307.765	46208
307.795	58933
307.819	72876
307.874	126470
307.885	127875
307.929	96010
307.975	51072
307.984	47687
308.038	46419
308.065	52488
308.093	79675
308.148	154297
308.156	172331
308.202	262883
308.246	326173
308.257	323196
308.312	189080
308.336	141441
308.366	110643
308.421	79765
308.426	76423
308.475	49426
308.517	35603
308.530	33067
308.585	28088
308.607	27128
308.639	29845
308.694	38316
308.697	39129
308.748	86475
308.787	138240
308.803	138272
308.857	107044
308.877	87221
308.912	66180
308.967	50408
308.967	50275
309.021	51686
309.058	55416
309.076	66259
309.130	110174
309.148	129395
309.185	219776
309.238	371197
309.239	371957
309.293	405185
309.328	368569
309.348	321291
309.402	156409
309.418	117739
309.457	81244
309.508	50617
309.511	49585
309.566	43984
309.598	42796
309.620	48381
309.674	67457
309.688	73243
309.729	70323
309.778	57100
309.783	56035
309.837	43495
309.868	38693
309.892	51464
309.946	88336
309.959	100095
310.001	135564
310.049	167452
310.055	162456
310.109	98326
310.139	60585
310.163	47539
310.218	29311
310.229	26649
310.272	26450
310.319	27315
310.326	27542
310.381	31178
310.409	32477
310.435	32877
310.489	33240
310.499	33489
310.543	37444
310.589	41182
310.598	41129
310.652	42213
310.679	41339
310.706	35293
310.760	22494
310.769	20555
310.814	16406
310.859	13489
310.868	13891
310.923	16103
310.948	17489
310.977	19939
311.031	24908
311.038	25592
311.085	25048
311.128	23665
311.139	23462
311.193	22867
311.218	22504
311.247	20954
311.301	18068
311.308	17696
311.356	20472
311.398	23510
311.410	22831
311.464	19181
311.488	17426
311.518	16793
311.572	15824
311.578	15749
311.626	22272
311.668	28271
311.680	31044
311.734	43207
311.758	48608
311.788	46289
311.842	41683
311.847	41162
311.896	54696
311.937	66718
311.950	65442
312.004	59420
312.027	56464
312.058	44550
312.112	23438
312.117	21363
312.165	21720
312.207	22099
312.297	47713
312.386	38549
312.476	24027
312.566	41347
312.656	21439
312.745	19144
312.835	25774
312.925	29827
313.015	30093
313.104	41835
313.194	17370
313.284	17838
313.374	20643
313.463	20327
313.553	17545
313.643	15747
313.732	14383
313.822	16162
313.912	20625
314.001	23707
314.091	32770
314.180	55161
314.270	32964
314.360	51029
314.449	32552
314.539	20113
314.628	18934
314.718	31714
314.808	50869
314.897	18789
314.987	16649
315.076	22132
315.166	38291
315.255	49320
315.345	34028
315.434	49142
315.524	39615
315.613	39983
315.703	33212
315.792	37232
315.881	67314
315.971	39433
316.060	76984
316.150	174915
316.239	172155
316.328	56430
316.418	19153
316.507	18830
316.597	24535
316.686	25941
316.775	59968
316.865	161072
316.954	29263
317.043	15874
317.133	16604
317.222	15942
317.311	16272
317.400	14648
317.490	20645
317.579	23990
317.668	17354
317.757	25216
317.847	43223
317.936	112272
318.025	62318
318.114	35920
318.203	27878
318.293	30795
318.382	46632
318.471	47568
318.560	75501
318.649	188619
318.738	45252
318.828	32616
318.917	38106
319.006	57287
319.095	162032
319.184	233284
319.273	121958
319.362	60351
319.451	27113
319.540	26955
319.629	48560
319.718	81536
319.807	45665
319.896	81621
319.985	267140
320.074	104162
320.163	49434
320.252	111620
320.341	80116
320.430	61625
320.519	51262
320.608	34448
320.697	31262
320.786	28390
320.875	31479
320.964	39968
321.053	54098
321.142	75959
321.230	81929
321.319	78624
321.408	173227
321.497	92126
321.586	73985
321.675	146760
321.764	132488
321.852	88432
321.941	100108
322.030	64404
322.119	85991
322.207	176945
322.296	217646
322.385	112460
322.474	84866
322.562	178077
322.651	121789
322.740	85465
322.829	152979
322.917	243175
323.006	97448
323.095	66745
323.183	75281
323.272	97429
323.361	128752
323.449	368842
323.538	146461
323.626	311138
323.715	184066
323.804	88612
323.892	295594
323.981	174841
324.069	59215
324.158	176408
324.246	158966
324.335	45438
324.424	57097
324.512	24430
324.601	28793
324.689	35946
324.778	62038
324.866	160181
324.954	44023
325.043	36691
325.131	96700
325.220	193304
325.308	215137
325.397	144710
325.485	82694
325.574	22773
325.662	19378
325.750	21098
325.839	19054
325.927	19490
326.015	36289
326.104	80787
326.192	122713
326.280	25190
326.369	25813
326.457	27895
326.545	45241
326.634	21238
326.722	15098
326.810	15989
326.898	15387
326.987	21384
327.075	50877
327.163	90188
327.251	45718
327.340	19475
327.428	22918
327.516	17809
327.604	20276
327.692	34161
327.781	49455
327.869	101177
327.957	48159
328.045	27808
328.133	19527
328.221	46888
328.309	24234
328.397	17247
328.485	21595
328.574	29924
328.662	87337
328.750	94341
328.838	54795
328.926	22577
329.014	17540
329.102	31214
329.190	91640
329.278	49921
329.366	14302
329.454	17330
329.542	18559
329.630	15816
329.718	15638
329.806	19388
329.893	23986
329.981	24214
330.069	12142
330.157	19264
330.245	34566
330.333	22155
330.421	15991
330.509	30657
330.597	102124
330.684	86391
330.772	48707
330.860	101411
330.948	120121
331.036	41220
331.123	15147
331.211	20730
331.299	36248
331.387	83755
331.475	149468
331.562	52985
331.650	22630
331.738	37440
331.825	69010
331.913	21777
332.001	19632
332.089	38829
332.176	108682
332.264	209756
332.352	155685
332.439	44080
332.527	31901
332.614	35771
332.702	60874
332.790	31218
332.877	90228
332.965	198748
333.052	35114
333.140	37352
333.228	81492
333.315	25317
333.403	35188
333.490	142050
333.578	97315
333.665	33745
333.753	25621
333.840	22012
333.928	37836
334.015	151412
334.103	145153
334.190	321401
334.278	94316
334.365	63083
334.452	34165
334.540	21963
334.627	48158
334.715	72564
334.802	109101
334.889	520735
334.977	414378
335.064	57335
335.151	28178
335.239	34676
335.326	47526
335.413	142077
335.501	176518
335.588	32550
335.675	24551
335.762	41970
335.850	82003
335.937	41004
336.024	112007
336.111	460914
336.199	188884
336.286	36277
336.373	18696
336.460	14890
336.547	19109
336.635	31472
336.722	22888
336.809	25314
336.896	35872
336.983	107731
337.070	243009
337.157	301813
337.245	317199
337.332	215766
337.419	38968
337.506	25799
337.593	34296
337.680	98049
337.767	267655
337.854	85178
337.941	123259
338.028	183398
338.115	56520
338.202	65897
338.289	108912
338.376	325713
338.463	105994
338.550	166179
338.637	158282
338.724	96860
338.811	164424
338.898	33838
338.984	22121
339.071	36010
339.158	25876
339.245	65774
339.332	48853
339.419	115385
339.506	106756
339.593	15986
339.679	14070
339.766	14755
339.853	25342
339.940	40654
340.027	17648
340.113	16247
340.200	26316
340.287	24246
340.374	24213
340.460	35584
340.547	18899
340.634	29347
340.720	94335
340.807	51809
340.894	13931
340.980	20975
341.067	14920
341.154	18646
341.240	21747
341.327	46338
341.414	13564
341.500	10406
341.587	16575
341.674	16746
341.760	32984
341.847	37831
341.933	14255
342.020	7408
342.106	8792
342.193	14823
342.279	26482
342.366	19009
342.452	33415
342.539	19835
342.625	42383
342.712	94529
342.798	40798
342.885	20027
342.971	9215
343.058	8052
343.144	8952
343.230	8725
343.317	9048
343.403	7858
343.490	8267
343.576	9199
343.662	10392
343.749	12627
343.835	15745
343.921	33615
344.008	136049
344.094	273467
344.180	67462
344.267	36768
344.353	116874
344.439	175812
344.525	61848
344.612	17061
344.698	16391
344.784	12995
344.870	9134
344.957	10417
345.043	19119
345.129	16377
345.215	34158
345.301	18653
345.387	12650
345.474	10428
345.560	15070
345.646	32661
345.732	17886
345.818	13962
345.904	13254
345.990	20245
346.076	34169
346.162	88534
346.249	22707
346.335	11585
346.421	13338
346.507	42302
346.593	121923
346.679	36078
346.765	20095
346.851	13675
346.937	14464
347.023	10894
347.108	13071
347.194	10415
347.280	11379
347.366	14743
347.452	40879
347.538	145110
347.624	122134
347.710	149005
347.796	37601
347.882	18368
347.967	16379
348.053	38807
348.139	21500
348.225	12391
348.311	10830
348.397	9432
348.482	14342
348.568	20251
348.654	9301
348.740	9705
348.825	10480
348.911	22868
348.997	80800
349.083	163248
349.168	44847
349.254	12185
349.340	12558
349.425	9718
349.511	18125
349.597	25025
349.682	34333
349.768	96109
349.854	48064
349.939	20519
350.025	14990
350.110	9667
350.196	7213
350.282	7279
350.367	12635
350.453	57078
350.538	54141
350.624	24702
350.709	25143
350.795	12920
350.880	11767
350.966	15781
351.051	47293
351.137	40588
351.222	14274
351.308	34602
351.393	87226
351.479	20372
351.564	8259
351.649	12381
351.735	10103
351.820	7723
351.906	10779
351.991	23864
352.076	66336
352.162	83016
352.247	19172
352.332	13726
352.418	20704
352.503	30902
352.588	131865
352.673	105922
352.759	26643
352.844	13593
352.929	14735
353.014	20776
353.100	15229
353.185	28098
353.270	40090
353.355	37805
353.441	14873
353.526	31082
353.611	41111
353.696	39531
353.781	22978
353.866	11230
353.952	13111
354.037	35036
354.122	75092
354.207	67247
354.292	25014
354.377	11505
354.462	9883
354.547	16347
354.632	18067
354.717	35319
354.802	34489
354.887	12728
354.972	9696
355.057	7644
355.142	7656
355.227	12965
355.312	22675
355.397	48123
355.482	116980
355.567	55361
355.652	42806
355.737	43966
355.822	113344
355.907	85295
355.991	15832
356.076	9993
356.161	11768
356.246	9908
356.331	11572
356.416	30480
356.501	162566
356.585	156367
356.670	25988
356.755	18528
356.840	30319
356.924	131252
357.009	401856
357.094	149774
357.179	40275
357.263	26592
357.348	35657
357.433	38823
357.517	24873
357.602	18699
357.687	13575
357.771	19536
357.856	25646
357.941	24858
358.025	89941
358.110	344189
358.195	153045
358.279	30167
358.364	25418
358.448	88806
358.533	217268
358.617	157695
358.702	157854
358.787	60517
358.871	37214
358.956	29076
359.040	10569
359.125	8127
359.209	8455
359.294	13339
359.378	17487
359.462	27467
359.547	27386
359.631	31242
359.716	12627
359.800	17224
359.885	38535
359.969	17626
360.053	11653
360.138	10923
360.222	18801
360.306	36508
360.391	29365
360.475	34778
360.559	70622
360.644	90840
360.728	68151
360.812	97161
360.896	232398
360.981	138378
361.065	92181
361.149	23193
361.233	22490
361.318	18779
361.402	22005
361.486	16558
361.570	11702
361.654	17645
361.739	45485
361.823	164166
361.907	218407
361.991	40519
362.075	30725
362.159	68006
362.243	45144
362.327	40084
362.411	42194
362.495	41344
362.580	19685
362.664	13528
362.748	10378
362.832	11352
362.916	14880
363.000	50710
363.084	179088
363.168	259137
363.252	67588
363.336	34793
363.420	55195
363.503	205771
363.587	216067
363.671	39843
363.755	31178
363.839	41551
363.923	16311
364.007	37810
364.091	58275
364.175	92506
364.258	284584
364.342	148643
364.426	102551
364.510	61661
364.594	54564
364.677	64212
364.761	203634
364.845	133915
364.929	58072
365.013	49608
365.096	42592
365.180	52868
365.264	87582
365.347	299968
365.431	147270
365.515	53021
365.598	19005
365.682	17143
365.766	60766
365.849	75329
365.933	32746
366.017	53020
366.100	44208
366.184	20887
366.267	21467
366.351	11122
366.435	9521
366.518	8238
366.602	7983
366.685	10880
366.769	16388
366.852	48393
366.936	72309
367.019	29259
367.103	40756
367.186	85985
367.270	20718
367.353	8416
367.436	10457
367.520	9094
367.603	15033
367.687	22709
367.770	42973
367.853	24545
367.937	69745
368.020	104996
368.104	29565
368.187	33839
368.270	43820
368.353	42418
368.437	99337
368.520	295954
368.603	135660
368.687	96151
368.770	151041
368.853	41098
368.936	63101
369.020	72807
369.103	20413
369.186	11631
369.269	12766
369.352	31391
369.436	54307
369.519	29823
369.602	11145
369.685	17117
369.768	21300
369.851	18392
369.934	12182
370.018	20935
370.101	40526
370.184	35662
370.267	30356
370.350	35603
370.433	65378
370.516	116807
370.599	136107
370.682	57383
370.765	100866
370.848	112367
370.931	190309
371.014	97001
371.097	23261
371.180	12335
371.263	8290
371.346	7660
371.429	9014
371.511	13911
371.594	27771
371.677	56340
371.760	80569
371.843	37164
371.926	127206
372.009	268309
372.091	92279
372.174	91534
372.257	162526
372.340	63848
372.423	103964
372.505	139736
372.588	46939
372.671	62887
372.754	179468
372.836	87988
372.919	105772
373.002	202111
373.085	53171
373.167	33350
373.250	80657
373.332	160288
373.415	203783
373.498	384027
373.580	145198
373.663	188052
373.746	228120
373.828	63221
373.911	41323
373.993	49617
374.076	202815
374.159	206060
374.241	79418
374.324	165743
374.406	101143
374.489	121156
374.571	312360
374.654	125634
374.736	74277
374.819	215184
374.901	284853
374.983	269935
375.066	49922
375.148	32916
375.231	154833
375.313	289985
375.395	127842
375.478	27372
375.560	17071
375.643	24826
375.725	85719
375.807	288018
375.890	327004
375.972	243792
376.054	120465
376.136	257779
376.219	93483
376.301	87901
376.383	222339
376.465	81676
376.548	66815
376.630	77267
376.712	195403
376.794	81067
376.877	13878
376.959	11268
377.041	19448
377.123	68202
377.205	79886
377.287	13534
377.369	10386
377.452	13033
377.534	10299
377.616	12824
377.698	10646
377.780	8304
377.862	10995
377.944	12166
378.026	7715
378.108	8783
378.190	8824
378.272	8888
378.354	6422
378.436	9147
378.518	35337
378.600	131701
378.682	79493
378.764	114346
378.846	86451
378.928	43115
379.010	44660
379.091	21111
379.173	10918
379.255	11004
379.337	19011
379.419	57297
379.501	155165
379.583	68152
379.664	23117
379.746	47365
379.828	120287
379.910	149037
379.991	119360
380.073	24760
380.155	21229
380.237	13422
380.318	8895
380.400	10506
380.482	30044
380.564	47206
380.645	47122
380.727	41963
380.809	21636
380.890	16489
380.972	13121
381.053	12435
381.135	17402
381.217	41748
381.298	121595
381.380	61952
381.461	58772
381.543	200037
381.624	220109
381.706	45653
381.787	35021
381.869	31198
381.951	83610
382.032	295539
382.113	179583
382.195	56582
382.276	34772
382.358	68944
382.439	168230
382.521	178526
382.602	269844
382.684	124476
382.765	257338
382.846	203552
382.928	161905
383.009	81322
383.090	55588
383.172	216473
383.253	338810
383.334	171367
383.416	255915
383.497	109492
383.578	38718
383.659	70186
383.741	193787
383.822	511267
383.903	251441
383.984	153329
384.066	317945
384.147	192362
384.228	41372
384.309	34151
384.390	23236
384.471	17997
384.553	25194
384.634	43399
384.715	36533
384.796	18709
384.877	23536
384.958	98067
385.039	117074
385.120	41710
385.201	22338
385.282	49569
385.363	59913
385.444	31904
385.525	35927
385.606	127924
385.687	105869
385.768	49475
385.849	65514
385.930	146684
386.011	219309
386.092	63467
386.173	23274
386.254	30118
386.335	29917
386.416	24220
386.496	74492
386.577	127638
386.658	78557
386.739	49913
386.820	59813
386.901	54087
386.981	35045
387.062	17656
387.143	30877
387.224	114981
387.304	113612
387.385	51372
387.466	46087
387.547	61635
387.627	27956
387.708	46072
387.789	186166
387.869	208154
387.950	53248
388.031	16294
388.111	33000
388.192	118543
388.273	182142
388.353	85218
388.434	28563
388.514	40568
388.595	152005
388.676	196297
388.756	107648
388.837	112896
388.917	65536
388.998	18163
389.078	14624
389.159	12296
389.239	10994
389.320	22386
389.400	23396
389.480	62638
389.561	133175
389.641	53937
389.722	25368
389.802	44871
389.883	58676
389.963	143302
390.043	141940
390.124	75685
390.204	44796
390.284	127249
390.365	85699
390.445	149961
390.525	210910
390.605	123844
390.686	55195
390.766	20676
390.846	12688
390.927	10235
391.007	13469
391.087	23477
391.167	22882
391.247	22217
391.328	70977
391.408	96298
391.488	54452
391.568	15041
391.648	19095
391.728	24803
391.808	24829
391.888	27658
391.969	65036
392.049	104170
392.129	68948
392.209	63688
392.289	120729
392.369	80096
392.449	125132
392.529	63131
392.609	37972
392.689	44851
392.769	116921
392.849	94970
392.929	99709
393.009	220219
393.089	119128
393.169	79221
393.248	248327
393.328	900359
393.408	887667
393.488	225064
393.568	66974
393.648	35210
393.728	25051
393.807	20726
393.887	16802
393.967	16311
394.047	20235
394.127	24773
394.206	36600
394.286	125231
394.366	509974
394.446	487596
394.525	103230
394.605	31707
394.685	47108
394.764	154431
394.844	243094
394.924	142909
395.003	34706
395.083	21408
395.163	18918
395.242	18810
395.322	17431
395.402	12962
395.481	22145
395.561	90357
395.640	235176
395.720	148655
395.799	238237
395.879	165618
395.958	57407
396.038	177695
396.117	667349
396.197	668873
396.276	239963
396.356	113434
396.435	112804
396.515	52886
396.594	45043
396.673	79444
396.753	272811
396.832	816771
396.912	596089
396.991	152721
397.070	42193
397.150	25457
397.229	18585
397.308	21151
397.388	30166
397.467	17223
397.546	11560
397.625	11015
397.705	17664
397.784	19943
397.863	11223
397.942	9385
398.022	15530
398.101	83580
398.180	240309
398.259	140682
398.338	35995
398.417	21587
398.497	19525
398.576	21105
398.655	10305
398.734	9185
398.813	14452
398.892	74331
398.971	237222
399.050	106955
399.129	13911
399.208	9771
399.287	10379
399.366	8580
399.445	12223
399.524	11678
399.603	10410
399.682	23404
399.761	74789
399.840	241412
399.919	173086
399.998	27765
400.077	9283
400.156	8509
400.235	19487
400.313	16363
400.392	24026
400.471	67013
400.550	100231
400.629	32369
400.708	19923
400.786	30930
400.865	92940
400.944	94880
401.023	32590
401.102	8170
401.180	9194
401.259	17404
401.338	25358
401.416	24746
401.495	22355
401.574	24697
401.652	19404
401.731	27775
401.810	25751
401.888	10586
401.967	5154
402.046	7945
402.124	23059
402.203	36275
402.281	15464
402.360	27420
402.438	106928
402.517	78070
402.596	29623
402.674	34862
402.753	18184
402.831	12299
402.910	14170
402.988	59829
403.066	171596
403.145	85383
403.223	53617
403.302	122822
403.380	89336
403.459	92671
403.537	40602
403.615	22305
403.694	6035
403.772	5079
403.850	6653
403.929	5768
404.007	9089
404.085	20388
404.164	22599
404.242	6977
404.320	8577
404.398	16095
404.477	51910
404.555	240593
404.633	186870
404.711	25048
404.789	9253
404.868	11134
404.946	8260
405.024	4951
405.102	4153
405.180	3729
405.258	5244
405.336	8458
405.415	12270
405.493	38060
405.571	26598
405.649	7290
405.727	11000
405.805	22640
405.883	17175
405.961	24139
406.039	40117
406.117	14913
406.195	14983
406.273	64121
406.351	223427
406.429	138527
406.507	46730
406.585	19161
406.663	10810
406.740	15655
406.818	15553
406.896	11250
406.974	9729
407.052	24352
407.130	135115
407.208	173975
407.285	29896
407.363	8251
407.441	8938
407.519	8191
407.596	11551
407.674	31464
407.752	88645
407.830	118143
407.907	59962
407.985	17059
408.063	7872
408.141	7111
408.218	30659
408.296	30139
408.373	12969
408.451	11006
408.529	9810
408.606	4915
408.684	3814
408.762	2820
408.839	2603
408.917	2949
408.994	3404
409.072	2823
409.149	3885
409.227	6660
409.304	7092
409.382	5145
409.459	6292
409.537	10031
409.614	8230
409.692	5807
409.769	6541
409.846	14404
409.924	18036
410.001	9268
410.079	7094
410.156	6510
410.233	5323
410.311	4623
410.388	3408
410.465	5785
410.543	5268
410.620	4334
410.697	7100
410.775	10353
410.852	4394
410.929	9045
411.006	11955
411.083	6495
411.161	11748
411.238	28618
411.315	24483
411.392	6816
411.469	7718
411.547	6513
411.624	2905
411.701	4250
411.778	8644
411.855	21927
411.932	12249
412.009	8138
412.086	7154
412.163	15035
412.240	21875
412.317	25883
412.394	21133
412.471	6962
412.548	5020
412.625	6528
412.702	16340
412.779	29640
412.856	12207
412.933	7256
413.010	5370
413.087	13051
413.164	59884
413.241	77791
413.318	19861
413.395	11869
413.471	17515
413.548	8285
413.625	7691
413.702	20463
413.779	14817
413.855	4387
413.932	3125
414.009	4780
414.086	4598
414.162	5102
414.239	17039
414.316	68796
414.393	125878
414.469	41227
414.546	6813
414.623	4691
414.699	5064
414.776	8527
414.853	5652
414.929	8266
415.006	11302
415.082	22168
415.159	14690
415.236	6815
415.312	6484
415.389	16105
415.465	22276
415.542	11855
415.618	7462
415.695	12822
415.771	11157
415.848	11106
415.924	13653
416.000	14211
416.077	7496
416.153	2899
416.230	1981
416.306	5014
416.383	10795
416.459	7139
416.535	3723
416.612	4919
416.688	4941
416.764	4569
416.841	4118
416.917	7176
416.993	7024
417.069	11750
417.146	16937
417.222	16006
417.298	8493
417.374	7357
417.451	9722
417.527	9981
417.603	11421
417.679	8925
417.755	7056
417.831	2765
417.908	3258
417.984	4059
418.060	4708
418.136	18781
418.212	23405
418.288	9909
418.364	6170
418.440	8327
418.516	14851
418.592	38796
418.668	47701
418.744	45379
418.820	30961
418.896	9845
418.972	4405
419.048	6087
419.124	19508
419.200	14331
419.276	3374
419.352	1620
419.428	2823
419.504	6183
419.579	8493
419.655	6622
419.731	6701
419.807	29842
419.883	50858
419.959	32304
420.034	11729
420.110	22597
420.186	79312
420.262	57245
420.337	16144
420.413	11925
420.489	4593
420.565	4845
420.640	4190
420.716	5239
420.792	2505
420.867	5703
420.943	4479
421.019	13269
421.094	10712
421.170	5802
421.245	2757
421.321	4284
421.397	5282
421.472	14326
421.548	40384
421.623	25454
421.699	8693
421.774	9424
421.850	6686
421.925	15315
422.001	11555
422.076	6524
422.152	9480
422.227	16974
422.302	15983
422.378	20117
422.453	39542
422.529	92576
422.604	283198
422.679	459561
422.755	274485
422.830	84734
422.905	29768
422.981	16803
423.056	11872
423.131	7996
423.207	7456
423.282	11455
423.357	25333
423.432	17369
423.508	17874
423.583	44893
423.658	30129
423.733	14659
423.808	22329
423.883	15970
423.959	11149
424.034	7372
424.109	4800
424.184	2334
424.259	3465
424.334	3540
424.409	3019
424.484	4957
424.559	7629
424.634	5957
424.709	9342
424.784	11727
424.859	8861
424.934	18176
425.009	61781
425.084	94576
425.159	34593
425.234	9039
425.309	2784
425.384	4346
425.459	4638
425.534	8208
425.609	16028
425.683	8788
425.758	5052
425.833	10256
425.908	13317
425.983	38393
426.058	101671
426.132	47665
426.207	19493
426.282	38765
426.357	40857
426.431	10015
426.506	8734
426.581	12997
426.655	10784
426.730	6260
426.805	5285
426.879	7311
426.954	8926
427.029	23414
427.103	90981
427.178	199141
427.253	84950
427.327	18523
427.402	28856
427.476	57913
427.551	20889
427.625	20140
427.700	18067
427.774	12415
427.849	18390
427.923	10169
427.998	8778
428.072	12519
428.147	28557
428.221	69969
428.296	137753
428.370	54485
428.444	21902
428.519	49212
428.593	99192
428.667	78772
428.742	99646
428.816	74814
428.890	147158
428.965	158603
429.039	90021
429.113	116972
429.188	38916
429.262	10389
429.336	20424
429.410	61635
429.485	46198
429.559	80977
429.633	61723
429.707	15326
429.781	41622
429.855	194546
429.930	248598
430.004	224441
430.078	342941
430.152	231104
430.226	165989
430.300	127747
430.374	23984
430.448	20719
430.522	95192
430.596	260934
430.670	130283
430.744	168229
430.818	233291
430.892	54637
430.966	13488
431.040	7904
431.114	6463
431.188	8776
431.262	12452
431.336	15259
431.410	42035
431.484	119984
431.557	64064
431.631	9444
431.705	7471
431.779	25731
431.853	104048
431.927	68121
432.000	11296
432.074	9075
432.148	23439
432.222	21949
432.295	7856
432.369	7308
432.443	19675
432.516	103875
432.590	208957
432.664	84462
432.737	15254
432.811	5343
432.885	2442
432.958	3465
433.032	3089
433.106	3313
433.179	2553
433.253	2382
433.326	2219
433.400	2020
433.473	4014
433.547	2459
433.620	4539
433.694	13666
433.767	20366
433.841	16148
433.914	4383
433.988	3040
434.061	3750
434.134	3330
434.208	2741
434.281	1776
434.355	3031
434.428	5919
434.501	3114
434.575	5876
434.648	9344
434.721	3366
434.795	1236
434.868	1390
434.941	2022
435.014	1432
435.088	1876
435.161	3913
435.234	8425
435.307	11871
435.381	6519
435.454	6358
435.527	7047
435.600	5399
435.673	3486
435.746	2030
435.819	2491
435.892	3459
435.966	2373
436.039	7353
436.112	6978
436.185	3410
436.258	1999
436.331	437
436.404	2716
436.477	1135
436.550	1412
436.623	1847
436.696	1776
436.769	5992
436.842	5569
436.915	11070
436.987	18714
437.060	7468
437.133	2778
437.206	4831
437.279	6778
437.352	3134
437.425	3092
437.498	6164
437.570	13503
437.643	13155
437.716	3265
437.789	2306
437.861	5986
437.934	13060
438.007	7308
438.080	3103
438.152	4387
438.225	14396
438.298	100133
438.370	252711
438.443	99000
438.516	19997
438.588	6716
438.661	4410
438.734	4362
438.806	9314
438.879	10270
438.951	5859
439.024	7671
439.096	5515
439.169	4011
439.241	3880
439.314	5935
439.386	25016
439.459	42055
439.531	56136
439.604	17342
439.676	5060
439.749	2223
439.821	3523
439.893	2948
439.966	9317
440.038	10570
440.110	8179
440.183	5063
440.255	3679
440.327	10781
440.400	63181
440.472	209658
440.544	126772
440.617	19989
440.689	9526
440.761	10928
440.833	16128
440.905	11262
440.978	4362
441.050	3445
441.122	4536
441.194	3894
441.266	4436
441.338	4375
441.411	11100
441.483	65370
441.555	98243
441.627	29673
441.699	32678
441.771	43010
441.843	16038
441.915	5184
441.987	3209
442.059	4035
442.131	11128
442.203	25484
442.275	27563
442.347	19858
442.419	13722
442.491	44454
442.563	103111
442.635	75635
442.706	109799
442.778	81886
442.850	13948
442.922	5003
442.994	13905
443.066	25798
443.137	17903
443.209	9877
443.281	12933
443.353	31283
443.425	82578
443.496	186826
443.568	163852
443.640	66561
443.711	23499
443.783	9637
443.855	9363
443.926	5888
443.998	13373
444.070	24685
444.141	17422
444.213	17171
444.285	23236
444.356	37261
444.428	41732
444.499	13572
444.571	5862
444.642	4796
444.714	7731
444.785	16348
444.857	37058
444.928	104956
445.000	64560
445.071	72471
445.143	81986
445.214	30475
445.285	51290
445.357	154483
445.428	201511
445.500	336543
445.571	262039
445.642	115094
445.714	103423
445.785	144450
445.856	44546
445.928	21349
445.999	15326
446.070	9376
446.141	12948
446.213	20832
446.284	17196
446.355	27990
446.426	19509
446.497	15393
446.569	36383
446.640	46649
446.711	24125
446.782	13707
446.853	40532
446.924	34571
446.995	14921
447.066	18507
447.138	46173
447.209	25527
447.280	5589
447.351	3523
447.422	6075
447.493	18246
447.564	19265
447.635	19934
447.706	10508
447.777	4804
447.847	3411
447.918	7228
447.989	22092
448.060	31539
448.131	78354
448.202	61678
448.273	32077
448.344	18124
448.414	7558
448.485	7608
448.556	5861
448.627	4629
448.698	4433
448.768	4092
448.839	11789
448.910	39394
448.981	36003
449.051	10793
449.122	5159
449.193	4037
449.263	7733
449.334	6697
449.405	8986
449.475	25010
449.546	26569
449.616	44670
449.687	39345
449.758	10958
449.828	7515
449.899	5164
449.969	4831
450.040	6511
450.110	23380
450.181	33887
450.251	11066
450.322	5745
450.392	10351
450.463	9477
450.533	6454
450.604	7530
450.674	9314
450.744	7378
450.815	8123
450.885	7666
450.955	5862
451.026	4979
451.096	10793
451.166	17870
451.237	48492
451.307	118395
451.377	52336
451.447	9893
451.518	7426
451.588	8994
451.658	10157
451.728	24150
451.799	115530
451.869	136119
451.939	38105
452.009	9743
452.079	7204
452.149	10465
452.219	32604
452.289	132308
452.360	106716
452.430	21798
452.500	12757
452.570	15330
452.640	22532
452.710	75658
452.780	124792
452.850	63600
452.920	47939
452.990	21019
453.060	12928
453.129	18566
453.199	31275
453.269	105748
453.339	228705
453.409	351712
453.479	366678
453.549	527705
453.619	605788
453.688	267148
453.758	47648
453.828	18768
453.898	14486
453.968	13534
454.037	10786
454.087	10766
454.107	10714
454.168	8248
454.177	7841
454.247	6278
454.249	6405
454.316	8679
454.330	10783
454.386	18365
454.411	40086
454.456	73426
454.492	92514
454.525	109590
454.574	58042
454.595	36062
454.655	14572
454.665	11406
454.734	18080
454.736	19018
454.804	45706
454.817	63740
454.873	128787
454.898	142674
454.943	164324
454.979	123003
455.013	87624
455.060	49618
455.082	35516
455.141	35698
455.152	34239
455.221	93257
455.222	94777
455.291	155940
455.303	138751
455.360	66676
455.384	52143
455.430	32958
455.465	47447
455.499	55896
455.546	107003
455.569	125850
455.627	88837
455.638	83607
455.707	19824
455.708	19843
455.777	12950
455.789	13226
455.846	14204
455.869	12908
455.916	10671
455.950	12597
455.985	13711
456.031	14642
456.054	15037
456.112	10912
456.124	10404
456.193	10436
456.193	10355
456.262	18691
456.274	20965
456.332	29140
456.355	34975
456.401	42219
456.436	34489
456.470	27409
456.516	14962
456.540	9704
456.597	7893
456.609	7487
456.678	7360
456.678	7318
456.747	7088
456.759	7096
456.817	7031
456.840	7206
456.886	7578
456.920	7894
456.955	8756
457.001	10095
457.024	12405
457.082	21212
457.093	22769
457.162	40619
457.163	40839
457.232	61171
457.243	57543
457.301	34134
457.324	24233
457.370	11774
457.405	10548
457.439	9615
457.485	9652
457.508	9587
457.566	10486
457.577	10640
457.646	11577
457.647	11626
457.715	14265
457.727	14968
457.784	19951
457.808	23380
457.853	26957
457.889	29885
457.922	28306
457.969	20573
457.991	21883
458.050	28560
458.060	29545
458.129	44325
458.130	44766
458.198	39769
458.211	36493
458.267	24202
458.292	18883
458.336	15495
458.372	15426
458.405	18892
458.453	25242
458.474	30499
458.533	49494
458.543	50733
458.611	71277
458.614	71658
458.680	45190
458.694	37042
458.749	22202
458.775	17968
458.818	14424
458.855	13695
458.887	13746
458.936	14743
458.955	14948
459.016	17381
459.024	17452
459.093	16589
459.097	16517
459.162	16783
459.177	17390
459.230	19082
459.257	19880
459.299	19447
459.338	18599
459.368	18487
459.418	18093
459.437	17495
459.499	16005
459.505	15972
459.574	15446
459.579	15468
459.643	15015
459.659	14840
459.711	15229
459.740	15840
459.780	17994
459.820	20606
459.849	22047
459.900	25710
459.917	25485
459.981	24649
459.986	24499
460.054	17469
460.061	16858
460.123	15699
460.141	16144
460.191	19276
460.222	21385
460.260	22825
460.302	25846
460.328	24880
460.382	19608
460.397	19235
460.462	16514
460.465	16503
460.534	20372
460.543	20673
460.602	37164
460.623	43712
460.671	61624
460.703	78240
460.739	74414
460.783	61747
460.808	52040
460.864	23166
460.876	21718
460.944	21905
460.945	21853
461.013	19932
461.024	19466
461.081	19759
461.104	20493
461.150	19974
461.184	19324
461.218	19596
461.264	18592
461.286	18710
461.345	20574
461.355	20810
461.423	23011
461.425	23064
461.491	25792
461.505	26313
461.559	56968
461.585	72343
461.628	127327
461.665	181800
461.696	202659
461.745	256294
461.764	226134
461.825	73192
461.832	70111
461.901	30130
461.905	29480
461.969	26146
461.985	25783
462.037	24679
462.065	23715
462.105	29906
462.145	37000
462.173	59429
462.225	103106
462.241	115128
462.305	176649
462.310	171920
462.378	93235
462.385	80543
462.446	39221
462.465	29675
462.514	23481
462.545	24038
462.582	24009
462.625	23704
462.650	23726
462.705	24108
462.718	25689
462.785	33890
462.786	34352
462.854	62220
462.865	67384
462.922	85801
462.945	94026
462.990	68115
463.025	39878
463.058	33050
463.104	24577
463.126	22992
463.184	23532
463.194	23653
463.262	24987
463.264	25023
463.330	27419
463.344	27889
463.398	32304
463.424	34578
463.466	37205
463.504	40319
463.533	40027
463.583	37909
463.601	39593
463.663	44646
463.669	46039
463.737	63495
463.743	65260
463.805	110668
463.823	123712
463.873	204335
463.903	256476
463.940	273830
463.982	301454
464.008	244188
464.062	94997
464.076	86267
464.142	33031
464.144	32374
464.211	26853
464.221	26614
464.279	29087
464.301	30250
464.347	35642
464.381	39679
464.414	48375
464.461	60286
464.482	61948
464.540	69426
464.550	65872
464.617	35341
464.620	34169
464.685	33540
464.699	34187
464.753	38027
464.779	40033
464.820	43464
464.859	46220
464.888	50807
464.938	58844
464.956	60229
465.018	66766
465.023	65103
465.091	40591
465.098	37757
465.158	34881
465.177	34535
465.226	35512
465.257	36253
465.293	38625
465.336	41267
465.361	45086
465.416	53608
465.428	60545
465.495	98191
465.496	99011
465.563	204600
465.575	223232
465.631	276215
465.654	299649
465.698	178960
465.734	70819
465.765	56201
465.813	34533
465.833	32467
465.893	31588
465.900	31564
465.968	31578
465.972	31519
466.035	30450
466.052	30138
466.102	31873
466.131	32787
466.170	32439
466.210	31928
466.237	32617
466.290	33900
466.304	34559
466.369	37090
466.372	37225
466.439	39355
466.449	39599
466.506	46644
466.528	49231
466.573	79682
466.607	102458
466.641	176045
466.687	278246
466.708	311582
466.766	404797
466.775	370567
466.842	106149
466.845	93389
466.909	53097
466.925	44118
466.977	40388
467.004	38808
467.044	40260
467.083	41692
467.111	44700
467.163	50131
467.178	51199
467.242	55191
467.245	55234
467.312	53951
467.321	53682
467.379	60204
467.400	62394
467.446	75373
467.480	84511
467.559	69616
467.638	52264
467.717	53306
467.796	59031
467.875	67132
467.955	68496
468.034	113794
468.113	332793
468.192	493048
468.271	111966
468.350	47730
468.429	53848
468.508	52748
468.588	49890
468.667	52644
468.746	52274
468.825	51581
468.904	48095
468.983	66606
469.062	137069
469.141	171720
469.220	55513
469.299	49804
469.378	54669
469.456	48495
469.535	49333
469.614	53210
469.693	61944
469.772	95407
469.851	155845
469.930	95184
470.009	45966
470.088	41405
470.166	42096
470.245	49082
470.324	54022
470.403	44750
470.482	41516
470.560	40989
470.639	46025
470.718	55172
470.797	49028
470.875	65277
470.954	110965
471.033	127491
471.111	43383
471.190	36728
471.269	37235
471.347	37315
471.426	44663
471.505	55154
471.583	50697
471.662	42288
471.740	40145
471.819	40654
471.898	39684
471.976	39162
472.055	41335
472.133	53838
472.212	88112
472.290	101575
472.369	55563
472.447	39794
472.526	37473
472.604	37924
472.683	43235
472.761	47261
472.839	41264
472.918	40231
472.996	47210
473.075	64410
473.153	59255
473.231	45029
473.310	59932
473.388	56963
473.466	50091
473.545	46435
473.623	59870
473.701	60073
473.780	41763
473.858	39148
473.936	42506
474.014	40982
474.093	52999
474.171	102828
474.249	170660
474.327	101185
474.405	37847
474.484	35290
474.562	38532
474.640	39826
474.718	45717
474.796	43412
474.874	34504
474.952	32091
475.030	33140
475.108	33482
475.187	35976
475.265	42423
475.343	68677
475.421	80590
475.499	45794
475.577	49248
475.655	76763
475.733	199871
475.811	385249
475.889	349004
475.966	221016
476.044	51374
476.122	64565
476.200	80532
476.278	67291
476.356	49709
476.434	54451
476.512	63792
476.590	85774
476.667	72350
476.745	47374
476.823	47638
476.901	51409
476.979	56869
477.056	50781
477.134	51892
477.212	47417
477.290	46349
477.367	42203
477.445	44151
477.523	45613
477.601	44271
477.678	47471
477.756	70755
477.834	85923
477.911	48154
477.989	47283
478.066	50220
478.144	63333
478.222	63799
478.299	93835
478.377	84637
478.454	41814
478.532	38740
478.609	43363
478.687	45979
478.764	40029
478.842	43389
478.919	47778
478.997	47544
479.074	43957
479.152	64992
479.229	95192
479.307	55976
479.384	36892
479.461	38442
479.539	50802
479.616	65365
479.694	50176
479.771	59909
479.848	65625
479.926	105230
480.003	109887
480.080	43686
480.157	42011
480.235	44335
480.312	44752
480.389	61199
480.467	124769
480.544	163538
480.621	65873
480.698	54219
480.775	67736
480.853	73448
480.930	53458
481.007	54587
481.084	69748
481.161	71846
481.238	70098
481.315	47147
481.392	45850
481.470	47681
481.547	49444
481.624	48904
481.701	48854
481.778	53629
481.855	65135
481.932	109574
482.009	211148
482.086	141950
482.163	52870
482.240	68974
482.317	116124
482.393	90550
482.470	51712
482.547	56917
482.624	47783
482.701	49461
482.778	47378
482.855	39476
482.932	38567
483.009	40055
483.085	42736
483.162	48685
483.239	48965
483.316	40508
483.393	41503
483.469	44461
483.546	60721
483.623	69718
483.699	49585
483.776	53133
483.853	60314
483.930	90400
484.006	281052
484.083	496882
484.160	158684
484.236	121729
484.313	103723
484.389	89685
484.466	76117
484.543	72445
484.619	78674
484.696	83839
484.772	106534
484.849	123788
484.925	79074
485.002	71926
485.078	76586
485.155	80134
485.231	73991
485.308	75175
485.384	82340
485.461	116856
485.537	270112
485.614	343781
485.690	93871
485.766	71382
485.843	73142
485.919	101681
485.995	107197
486.072	67081
486.148	64566
486.224	63714
486.301	72721
486.377	95046
486.453	87237
486.530	74600
486.606	89529
486.682	109686
486.758	202260
486.835	264264
486.911	176499
486.987	336793
487.063	269584
487.139	240831
487.215	163079
487.292	78797
487.368	69291
487.444	78010
487.520	85589
487.596	77326
487.672	93051
487.748	198615
487.824	287455
487.900	112389
487.976	75620
488.052	87066
488.128	95983
488.204	89339
488.280	83737
488.356	106863
488.432	312500
488.508	530731
488.584	142237
488.660	66451
488.736	65358
488.812	68696
488.888	85064
488.964	105623
489.039	225298
489.115	358237
489.191	211938
489.267	78083
489.343	77935
489.418	58550
489.494	54547
489.570	54342
489.646	59821
489.722	62471
489.797	70818
489.873	139101
489.949	395605
490.024	335164
490.100	68685
490.176	59492
490.251	74814
490.327	89833
490.403	58419
490.478	48639
490.554	44973
490.629	46133
490.705	47478
490.781	54771
490.856	62589
490.932	65787
491.007	64134
491.083	65768
491.158	67258
491.234	99825
491.309	299147
491.385	322230
491.460	77448
491.536	75640
491.611	56594
491.686	60088
491.762	78898
491.837	159143
491.913	282194
491.988	403012
492.063	453391
492.139	202937
492.214	133328
492.289	47712
492.365	44625
492.440	57938
492.515	75428
492.590	72649
492.666	52223
492.741	88311
492.816	172677
492.891	83439
492.967	40249
493.042	37354
493.117	36573
493.192	36309
493.267	40768
493.342	51260
493.418	51298
493.493	38087
493.568	37414
493.643	41460
493.718	68002
493.793	128327
493.868	113088
493.943	55529
494.018	43884
494.093	49130
494.168	50064
494.243	36442
494.318	36195
494.393	36213
494.468	35304
494.543	35212
494.618	43896
494.693	42243
494.768	46440
494.842	45798
494.917	33782
494.992	36653
495.067	32493
495.142	32293
495.217	37594
495.292	38762
495.366	50759
495.441	66411
495.516	87382
495.591	103705
495.665	307199
495.740	736766
495.815	312067
495.890	80774
495.964	66235
496.039	63579
496.114	60988
496.188	60777
496.263	62533
496.338	63163
496.412	79750
496.487	92092
496.561	80187
496.636	80487
496.710	66285
496.785	80007
496.860	103241
496.934	66471
497.009	61312
497.083	57679
497.158	58678
497.232	83028
497.307	111266
497.381	74258
497.455	103766
497.530	165065
497.604	89265
497.679	86664
497.753	164472
497.827	212346
497.902	137952
497.976	149923
498.050	351331
498.125	1502041
498.199	1593448
498.273	220341
498.348	116479
498.422	89744
498.496	91344
498.570	87776
498.645	75181
498.719	87780
498.793	120991
498.867	227844
498.941	286757
499.016	627026
499.090	1795058
499.164	687657
499.238	87713
499.312	69252
499.386	83313
499.460	86421
499.534	85506
499.609	106691
499.683	199883
499.757	177753
499.831	297453
499.905	1250844
499.979	1254324
500.053	272854
500.127	245061
500.201	122175
500.275	86721
500.349	87218
500.422	100517
500.496	133655
500.570	247513
500.644	696225
500.718	1442646
500.792	358922
500.866	100659
500.940	146574
501.013	119426
501.087	105412
501.161	162262
501.235	237418
501.309	555724
501.382	1462769
501.456	1277176
501.530	304703
501.603	584793
501.677	227861
501.751	87531
501.825	99151
501.898	200533
501.972	675893
502.046	440086
502.119	113762
502.193	258375
502.266	733524
502.340	367723
502.413	312345
502.487	690672
502.561	433632
502.634	114636
502.708	67581
502.781	62744
502.855	53142
502.928	50594
503.002	53093
503.075	55304
503.149	65357
503.222	67298
503.295	79577
503.369	100652
503.442	137016
503.516	462074
503.589	1317650
503.662	879323
503.736	250163
503.809	602952
503.882	480616
503.956	611679
504.029	566200
504.102	186182
504.175	183947
504.249	81847
504.322	89979
504.395	88114
504.468	59166
504.542	67247
504.615	45379
504.688	39794
504.761	43955
504.834	57987
504.907	58257
504.980	89723
505.053	58362
505.127	65003
505.200	80236
505.273	120345
505.346	69593
505.419	51092
505.492	42701
505.565	36108
505.638	33944
505.711	39268
505.784	40858
505.857	39999
505.930	42571
506.003	43173
506.076	49255
506.149	80526
506.221	115211
506.294	81204
506.367	214060
506.440	803404
506.513	443697
506.586	115600
506.659	60977
506.731	43310
506.804	56385
506.877	79487
506.950	63844
507.022	42378
507.095	73410
507.168	92233
507.241	44314
507.313	33139
507.386	39768
507.459	53801
507.531	36295
507.604	33507
507.677	34392
507.749	27271
507.822	36144
507.894	65845
507.967	69028
508.040	42391
508.112	37683
508.185	39652
508.257	37461
508.330	55517
508.402	43031
508.475	47632
508.547	52512
508.620	53243
508.692	115565
508.765	59767
508.837	33498
508.909	32313
508.982	33663
509.054	38999
509.127	33498
509.199	31787
509.271	30765
509.344	30260
509.416	29737
509.488	32661
509.560	32925
509.633	33665
509.705	39134
509.777	39908
509.849	53404
509.922	38022
509.994	30553
510.066	32017
510.138	33567
510.210	50180
510.283	52611
510.355	44907
510.427	37739
510.499	34520
510.571	35414
510.643	39323
510.715	58369
510.787	54412
510.859	40336
510.931	60930
511.003	62828
511.076	56344
511.148	38239
511.219	41608
511.291	95429
511.363	132531
511.435	39741
511.507	32052
511.579	33749
511.651	32817
511.723	34011
511.795	34237
511.867	37416
511.939	56200
512.010	174891
512.082	131759
512.154	41947
512.226	37498
512.298	44453
512.369	64902
512.441	53185
512.513	55165
512.585	42950
512.656	45866
512.728	56057
512.800	37274
512.871	37953
512.943	40028
513.015	30953
513.086	34779
513.158	37912
513.230	41732
513.301	63813
513.373	71686
513.444	39995
513.516	32807
513.588	34466
513.659	36939
513.731	48171
513.802	42435
513.874	80674
513.945	151587
514.016	55577
514.088	36250
514.159	40116
514.231	53043
514.302	62976
514.374	48066
514.445	59907
514.516	175861
514.588	129981
514.659	64626
514.730	162144
514.802	93769
514.873	39780
514.944	38330
515.016	39231
515.087	50510
515.158	91244
515.229	154758
515.301	41966
515.372	36415
515.443	31867
515.514	30364
515.585	27290
515.656	29882
515.728	28491
515.799	29998
515.870	32642
515.941	35652
516.012	34776
516.083	40075
516.154	46933
516.225	65123
516.296	55715
516.367	45760
516.438	50044
516.509	61796
516.580	76246
516.651	178592
516.722	650416
516.793	347111
516.864	103414
516.935	106335
517.006	107377
517.077	132832
517.148	242625
517.219	537867
517.289	888355
517.360	827118
517.431	320860
517.502	72123
517.573	63172
517.643	61171
517.714	64101
517.785	64999
517.856	65504
517.926	72891
517.997	75903
518.068	84521
518.138	98704
518.209	116818
518.280	322504
518.350	1206077
518.421	472430
518.492	90777
518.562	80582
518.633	94884
518.703	75722
518.774	98346
518.845	201953
518.915	206361
518.986	101733
519.056	99204
519.127	154452
519.197	255747
519.268	780008
519.338	561065
519.408	130563
519.479	105190
519.549	80232
519.620	56935
519.690	47389
519.760	49765
519.831	50641
519.901	53249
519.971	44778
520.042	57071
520.112	78873
520.182	67534
520.253	66513
520.323	52714
520.393	52891
520.463	59761
520.534	59911
520.604	103077
520.674	71485
520.744	81396
520.814	108608
520.885	109995
520.955	224124
521.025	953016
521.095	398873
521.165	73370
521.235	67439
521.305	55767
521.375	45790
521.445	47998
521.515	58735
521.585	65884
521.655	65040
521.725	57254
521.795	55348
521.865	48995
521.935	94989
522.005	92038
522.075	50067
522.145	53934
522.215	72264
522.285	113891
522.355	161125
522.424	351890
522.494	295492
522.564	98412
522.634	130994
522.704	340222
522.774	140505
522.843	53208
522.913	47680
522.983	58129
523.053	48938
523.122	49742
523.192	57780
523.262	186235
523.331	185180
523.401	48601
523.471	35547
523.540	40132
523.610	33446
523.680	33959
523.749	38988
523.819	62468
523.888	68859
523.958	37988
524.027	41883
524.097	48581
524.166	41670
524.236	44832
524.305	45249
524.375	41428
524.444	38288
524.514	43550
524.583	48860
524.653	73502
524.722	81601
524.791	49951
524.861	44024
524.930	39347
524.999	40382
525.069	59332
525.138	60897
525.207	85702
525.277	48438
525.346	44986
525.415	41976
525.484	43080
525.554	65191
525.623	60840
525.692	41804
525.761	48305
525.830	43126
525.900	48304
525.969	73388
526.038	86311
526.107	109648
526.176	286906
526.245	247233
526.314	124765
526.383	188596
526.452	216574
526.522	351397
526.591	453330
526.660	216920
526.729	106660
526.797	101528
526.867	181745
526.935	764700
527.004	998406
527.073	501391
527.142	78284
527.211	49238
527.280	48640
527.349	52472
527.418	33660
527.487	34235
527.555	34405
527.624	30536
527.693	30272
527.762	33180
527.831	31951
527.899	34208
527.968	35765
528.037	37242
528.106	42464
528.174	74944
528.243	77135
528.312	113432
528.380	140187
528.449	50260
528.518	34360
528.586	28484
528.655	29912
528.723	28790
528.792	30413
528.861	40364
528.929	36894
528.998	30335
529.066	28067
529.135	27566
529.203	27533
529.272	27865
529.340	28893
529.409	32398
529.477	33465
529.545	55567
529.614	58840
529.682	63917
529.751	85769
529.819	67822
529.887	50507
529.956	31157
530.024	35372
530.092	26723
530.161	33946
530.229	50902
530.297	32181
530.365	26658
530.434	24602
530.502	24760
530.570	25263
530.638	25074
530.707	28466
530.775	32934
530.843	27327
530.911	28307
530.979	26444
531.047	26398
531.115	29700
531.183	28402
531.252	29196
531.320	32450
531.388	29712
531.456	27580
531.524	25548
531.592	27744
531.660	31239
531.728	28020
531.796	27118
531.864	26116
531.932	30024
532.000	28293
532.067	31453
532.135	31748
532.203	34954
532.271	37627
532.339	55903
532.407	149367
532.475	90638
532.542	48893
532.610	49979
532.678	61808
532.746	211120
532.814	579998
532.881	158264
532.949	40808
533.017	33712
533.084	31124
533.152	30607
533.220	28956
533.287	34004
533.355	27751
533.423	28002
533.490	26807
533.558	28895
533.625	32216
533.693	37157
533.761	33836
533.828	35753
533.896	30829
533.963	53703
534.031	65314
534.098	94040
534.166	51494
534.233	30237
534.300	29503
534.368	31490
534.435	31442
534.503	29956
534.570	28002
534.637	30415
534.705	32024
534.772	34110
534.840	42772
534.907	129634
534.974	174441
535.041	47904
535.109	62338
535.176	35266
535.243	26867
535.310	29951
535.378	28876
535.445	26651
535.512	25747
535.579	28277
535.646	28551
535.714	29809
535.781	31605
535.848	31798
535.915	35117
535.982	32595
536.049	32282
536.116	33593
536.183	32370
536.250	32630
536.317	34217
536.384	38148
536.451	54627
536.518	58578
536.585	42202
536.652	53833
536.719	72165
536.786	64133
536.853	47560
536.920	71608
536.987	116032
537.053	89869
537.120	286208
537.187	259778
537.254	44212
537.321	36041
537.388	35986
537.454	32954
537.521	31352
537.588	29532
537.654	34681
537.721	37296
537.788	35548
537.855	30442
537.921	31179
537.988	33811
538.055	34214
538.121	35028
538.188	36027
538.254	49313
538.321	98957
538.388	65589
538.454	36657
538.521	32397
538.587	29554
538.654	30698
538.720	29785
538.787	31361
538.853	36822
538.920	52848
538.986	58655
539.053	46198
539.119	42557
539.185	38560
539.252	40906
539.318	61951
539.385	46931
539.451	43953
539.517	41228
539.583	47481
539.650	102062
539.716	258683
539.782	78721
539.849	37768
539.915	37274
539.981	37818
540.047	44231
540.114	42475
540.180	41402
540.246	39805
540.312	50300
540.378	100645
540.444	102272
540.510	92062
540.576	257849
540.643	94385
540.709	39534
540.775	36622
540.841	37597
540.907	57407
540.973	88663
541.039	58836
541.105	63413
541.171	39823
541.237	36346
541.303	38318
541.369	40813
541.435	49033
541.500	87083
541.566	59683
541.632	33450
541.698	32086
541.764	31985
541.830	32643
541.896	34561
541.961	35790
542.027	35540
542.093	34077
542.159	35630
542.224	41329
542.290	51408
542.356	84409
542.421	102967
542.487	48119
542.553	40932
542.618	52302
542.684	42128
542.750	40423
542.815	46512
542.881	79733
542.947	234791
543.012	166670
543.078	38663
543.143	35517
543.209	40298
543.274	39781
543.340	41531
543.405	86515
543.471	141373
543.536	43868
543.602	37462
543.667	38231
543.732	34249
543.798	34125
543.863	35874
543.928	32383
543.994	29741
544.059	32703
544.124	30983
544.190	32489
544.255	33140
544.320	33913
544.386	36840
544.451	49228
544.516	58002
544.581	53976
544.646	142882
544.712	223280
544.777	59948
544.842	55971
544.907	67058
544.972	52319
545.037	48095
545.102	53900
545.168	54005
545.233	56815
545.298	58017
545.363	72158
545.428	67774
545.493	94697
545.558	200048
545.623	96298
545.688	57337
545.753	53224
545.818	50389
545.883	54122
545.947	52137
546.012	62378
546.077	68378
546.142	54686
546.207	51970
546.272	64717
546.337	68496
546.401	55985
546.466	52510
546.531	52126
546.596	59446
546.661	57650
546.725	52687
546.790	50513
546.855	52179
546.919	51974
546.984	55874
547.049	63286
547.113	82026
547.178	66722
547.243	73845
547.307	80179
547.372	95281
547.436	115397
547.501	75410
547.565	72217
547.630	80122
547.695	86659
547.759	122520
547.823	100033
547.888	68871
547.952	68060
548.017	71857
548.081	87328
548.146	136695
548.210	110557
548.274	72815
548.339	67667
548.403	63861
548.468	62043
548.532	62800
548.596	66040
548.660	66523
548.725	73847
548.789	95831
548.853	103164
548.917	78479
548.982	124782
549.046	132651
549.110	69671
549.174	64697
549.238	65539
549.303	63464
549.367	68204
549.431	66942
549.495	65299
549.559	64739
549.623	69780
549.687	80305
549.751	100964
549.815	89564
549.879	84176
549.943	78411
550.007	85153
550.071	86228
550.135	95339
550.199	85751
550.263	78729
550.327	88374
550.391	138249
550.455	93205
550.519	81834
550.582	85577
550.646	104268
550.710	109449
550.774	89501
550.838	91991
550.901	97043
550.965	102641
551.029	107460
551.093	120388
551.156	155631
551.220	314028
551.284	365883
551.347	172779
551.411	379989
551.475	443626
551.538	116958
551.602	90526
551.666	83861
551.729	77687
551.793	77282
551.856	77640
551.920	73422
551.983	73348
552.047	74201
552.110	70129
552.174	72824
552.237	73485
552.301	71960
552.364	68984
552.428	69987
552.491	70895
552.554	70860
552.618	71936
552.681	74159
552.745	75240
552.808	88101
552.871	96149
552.934	78547
552.998	75379
553.061	85519
553.124	72763
553.187	66964
553.251	71855
553.314	74701
553.377	69178
553.440	72569
553.503	75841
553.567	77550
553.630	69760
553.693	71697
553.756	74696
553.819	67614
553.882	68933
553.945	68830
554.008	65977
554.071	64504
554.134	67276
554.197	64137
554.260	60000
554.323	67577
554.386	68736
554.449	67938
554.512	65518
554.575	63785
554.638	69172
554.701	66738
554.764	60916
554.827	63940
554.889	60398
554.952	56252
555.015	57041
555.078	59062
555.141	57834
555.203	57306
555.266	57984
555.329	61034
555.391	56409
555.454	59777
555.517	61416
555.580	56836
555.642	52764
555.705	54201
555.768	55127
555.830	55338
555.893	51005
555.955	51719
556.018	53856
556.080	55026
556.143	53869
556.206	55242
556.268	61534
556.330	61322
556.393	58585
556.455	61824
556.518	107564
556.580	115061
556.643	53820
556.705	51054
556.767	50341
556.830	55379
556.892	57500
556.955	80697
557.017	63675
557.079	53679
557.142	51433
557.204	57656
557.266	100870
557.328	88814
557.391	52032
557.453	50189
557.515	50358
557.577	60248
557.639	61682
557.701	48429
557.764	47805
557.826	51048
557.888	58842
557.950	57016
558.012	52906
558.074	61174
558.136	99698
558.198	208075
558.260	100312
558.322	65060
558.384	60916
558.446	67981
558.508	76428
558.570	95643
558.632	131087
558.694	181777
558.756	147090
558.818	361309
558.880	927290
558.942	301680
559.003	221063
559.065	123465
559.127	68621
559.189	69108
559.251	73393
559.312	87883
559.374	176008
559.436	582668
559.498	302640
559.559	78607
559.621	71372
559.683	80938
559.744	128245
559.806	318733
559.868	442078
559.929	121829
559.991	87778
560.052	104617
560.114	215667
560.176	150672
560.237	136223
560.299	211484
560.360	81218
560.422	64243
560.483	60095
560.545	58897
560.606	59780
560.667	58186
560.729	56558
560.790	55563
560.852	56411
560.913	56903
560.974	55308
561.036	55922
561.097	55682
561.158	56771
561.220	57000
561.281	58778
561.342	58971
561.403	64759
561.465	74834
561.526	140120
561.587	178408
561.648	70917
561.709	57944
561.771	56806
561.832	54641
561.893	54387
561.954	53637
562.015	52323
562.076	53357
562.137	55453
562.198	54333
562.259	54325
562.320	53635
562.381	57749
562.442	71261
562.503	62623
562.564	52270
562.625	51604
562.686	52580
562.747	55167
562.808	53916
562.869	59137
562.930	77559
562.991	75089
563.051	67030
563.112	61864
563.173	58954
563.234	57539
563.294	54671
563.355	55980
563.416	57524
563.477	56524
563.537	60962
563.598	66274
563.659	61644
563.720	61158
563.780	61810
563.841	63150
563.901	59267
563.962	59527
564.023	59743
564.083	62647
564.144	64062
564.204	64851
564.265	67320
564.325	84295
564.386	182757
564.446	169549
564.507	63823
564.567	56989
564.628	55717
564.688	56322
564.749	59183
564.809	74075
564.869	96460
564.930	63190
564.990	52780
565.050	52774
565.111	53494
565.171	51312
565.231	49981
565.292	51165
565.352	50221
565.412	53434
565.472	55937
565.532	56658
565.593	53605
565.653	51247
565.713	53978
565.773	55353
565.833	62518
565.893	73964
565.953	57936
566.013	56515
566.074	61762
566.134	90304
566.194	166400
566.254	161403
566.314	94367
566.374	59488
566.434	57014
566.494	55594
566.554	52647
566.614	52405
566.673	53723
566.733	56787
566.793	58508
566.853	57387
566.913	54863
566.973	57754
567.033	57720
567.092	57738
567.152	57919
567.212	61190
567.272	63217
567.331	70043
567.391	64056
567.451	69162
567.511	110603
567.570	116161
567.630	57571
567.690	54770
567.749	51959
567.809	52177
567.868	55211
567.928	60507
567.988	71389
568.047	59628
568.107	52341
568.166	54000
568.226	56406
568.285	64918
568.345	59447
568.404	55385
568.464	53647
568.523	51970
568.582	53259
568.642	57374
568.701	59366
568.761	65869
568.820	79472
568.879	86533
568.939	109045
568.998	75837
569.057	52996
569.116	51802
569.176	47895
569.235	47146
569.294	47810
569.353	48643
569.413	51688
569.472	55011
569.531	48492
569.590	49831
569.649	47985
569.708	46221
569.767	49585
569.827	53657
569.886	48922
569.945	47697
570.004	49666
570.063	51360
570.122	55398
570.181	61605
570.240	77336
570.299	71685
570.358	55913
570.417	51085
570.475	49932
570.534	50452
570.593	50412
570.652	50962
570.711	52698
570.770	55427
570.829	64649
570.887	54967
570.946	56852
571.005	50791
571.064	49616
571.122	56638
571.181	73471
571.240	58746
571.299	51607
571.357	61932
571.416	67731
571.475	78969
571.533	84446
571.592	59579
571.650	68110
571.709	53165
571.768	50215
571.826	47921
571.885	46851
571.943	48030
572.002	52584
572.060	60223
572.119	44955
572.177	45051
572.236	42999
572.294	43032
572.352	43483
572.411	43124
572.469	42256
572.528	42634
572.586	41627
572.644	45611
572.703	46901
572.761	46604
572.819	45720
572.877	44504
572.936	42419
572.994	42303
573.052	43392
573.110	44009
573.169	43282
573.227	41665
573.285	41641
573.343	41684
573.401	43871
573.459	45269
573.517	43476
573.576	43905
573.634	42896
573.692	45641
573.750	44198
573.808	47483
573.866	54013
573.924	79339
573.982	77953
574.040	51419
574.098	46167
574.155	44479
574.213	39369
574.271	40811
574.329	40678
574.387	39998
574.445	40449
574.503	38959
574.560	37524
574.618	37694
574.676	35936
574.734	37368
574.792	38694
574.849	37954
574.907	34359
574.965	36853
575.022	36465
575.080	37699
575.138	37718
575.195	41131
575.253	43104
575.311	43512
575.368	37136
575.426	38056
575.483	38454
575.541	38670
575.598	38637
575.656	44405
575.713	43380
575.771	39105
575.828	39438
575.886	42191
575.943	44263
576.001	48276
576.058	48124
576.115	52030
576.173	66287
576.230	75919
576.287	69799
576.345	56030
576.402	51629
576.459	50786
576.517	55207
576.574	64358
576.631	71593
576.688	56762
576.746	47546
576.803	47804
576.860	45611
576.917	46841
576.974	46462
577.031	44514
577.089	47637
577.146	49749
577.203	48954
577.260	50664
577.317	60003
577.374	74901
577.431	67655
577.488	51995
577.545	45147
577.602	43965
577.659	43212
577.716	42091
577.773	41949
577.830	41775
577.886	40957
577.943	41857
578.000	44480
578.057	49785
578.114	45867
578.171	40973
578.227	41634
578.284	42577
578.341	46700
578.398	47521
578.454	53782
578.511	67771
578.568	81454
578.625	66641
578.681	47885
578.738	42298
578.794	43074
578.851	41118
578.908	40535
578.964	44166
579.021	42732
579.077	42559
579.134	41900
579.190	40196
579.247	38745
579.303	41388
579.360	37906
579.416	38189
579.473	37159
579.529	38336
579.586	37633
579.642	39489
579.698	42307
579.755	43663
579.811	40027
579.867	39423
579.924	38950
579.980	40034
580.036	42107
580.093	40939
580.149	42131
580.205	43496
580.261	45208
580.317	49088
580.374	57274
580.430	72846
580.486	66768
580.542	52138
580.598	46866
580.619	45908
580.654	44292
580.692	44415
580.710	44556
580.765	41802
580.767	41755
580.823	44329
580.838	43967
580.879	43200
580.911	42706
580.935	42406
580.984	41094
580.991	40965
581.047	41985
581.057	42508
581.103	45016
581.130	45024
581.159	45137
581.203	46910
581.215	47410
581.270	48691
581.276	48505
581.326	47090
581.349	46635
581.382	46066
581.422	46022
581.438	46050
581.494	49071
581.494	49028
581.550	47682
581.567	47486
581.606	47111
581.640	46804
581.661	46690
581.713	45057
581.717	44963
581.773	45013
581.786	45057
581.829	45090
581.859	45087
581.885	45279
581.932	45083
581.940	45028
581.996	45905
582.004	45754
582.052	45021
582.077	44331
582.107	43687
582.150	45170
582.163	45650
582.219	45979
582.223	46022
582.274	46917
582.296	48485
582.330	50775
582.368	50893
582.386	50851
582.441	43793
582.441	43795
582.497	43415
582.514	43234
582.552	42938
582.587	42846
582.608	42854
582.659	42996
582.663	42997
582.719	43271
582.732	43445
582.774	44328
582.805	45374
582.830	46067
582.877	44693
582.885	44475
582.941	42424
582.950	42470
582.996	42730
583.023	43074
583.052	43736
583.095	43914
583.107	43927
583.162	46543
583.168	46711
583.218	48024
583.240	47204
583.273	45562
583.313	43723
583.328	43389
583.384	45032
583.385	45090
583.439	46139
583.458	45657
583.494	44583
583.531	43383
583.549	42872
583.603	43385
583.605	43399
583.660	43683
583.676	43738
583.715	44363
583.748	46563
583.770	48091
583.820	48848
583.825	48773
583.881	45855
583.893	45748
583.936	46061
583.965	45505
583.991	45112
584.038	45028
584.046	45103
584.101	48421
584.110	48381
584.156	46965
584.183	45830
584.211	44491
584.255	42982
584.266	42747
584.321	41049
584.328	41309
584.376	44519
584.400	45237
584.431	45080
584.472	43568
584.486	43128
584.541	42900
584.545	42769
584.596	41326
584.617	43056
584.651	46853
584.689	48843
584.706	49003
584.761	47952
584.762	47940
584.816	46915
584.834	47050
584.871	47249
584.906	47117
584.926	47321
584.978	47237
584.980	47236
585.035	49323
585.051	49619
585.090	50650
585.123	51745
585.145	52181
585.195	54244
585.200	54471
585.254	54377
585.267	54835
585.309	55665
585.340	56675
585.364	58081
585.412	60397
585.419	60643
585.473	62652
585.484	63724
585.528	70730
585.556	77177
585.583	87242
585.628	111784
585.637	120331
585.692	204717
585.700	221053
585.747	282757
585.772	234935
585.801	154478
585.845	80109
585.856	70102
585.910	60142
585.917	59244
585.965	57730
585.989	57145
586.019	56668
586.061	56367
586.074	56507
586.128	58026
586.133	58385
586.183	64201
586.205	66259
586.237	68403
586.277	70087
586.292	70123
586.346	69711
586.349	69618
586.401	68784
586.421	69716
586.455	75651
586.493	86644
586.509	99620
586.564	151980
586.565	154095
586.618	267509
586.637	275425
586.672	207638
586.709	116550
586.727	90190
586.781	65850
586.781	65832
586.835	60951
586.853	59790
586.889	59127
586.925	58286
586.944	57782
586.996	58492
586.998	58557
587.052	60293
587.068	60424
587.106	60240
587.140	60344
587.161	60491
587.212	61180
587.215	61311
587.269	64022
587.284	64403
587.323	63996
587.356	63936
587.377	64009
587.427	63287
587.431	63237
587.485	63426
587.499	63399
587.539	64916
587.571	65630
587.593	65602
587.643	66783
587.648	67180
587.702	71085
587.715	72137
587.755	73990
587.786	74248
587.810	72768
587.858	68252
587.864	68350
587.917	71963
587.930	73036
587.971	80379
588.001	86414
588.025	85622
588.073	76503
588.079	75786
588.133	71870
588.145	71580
588.187	73057
588.217	73972
588.241	76030
588.288	80402
588.295	80894
588.348	84868
588.360	85795
588.402	90466
588.431	93406
588.456	96250
588.503	103371
588.510	104518
588.564	113370
588.575	115655
588.617	125804
588.646	132567
588.671	142058
588.718	164011
588.725	170389
588.778	226677
588.789	241294
588.832	367129
588.861	467671
588.886	625454
588.932	970584
588.939	995341
588.993	1116562
589.004	1105390
589.047	712068
589.075	454694
589.100	343143
589.147	196420
589.154	189752
589.207	157004
589.218	151443
589.261	148224
589.290	148002
589.314	153610
589.361	168335
589.368	175423
589.421	241570
589.433	259183
589.475	434464
589.504	576888
589.528	717589
589.576	994820
589.582	969249
589.635	579020
589.647	494105
589.689	280847
589.718	163822
589.742	149387
589.790	131254
589.795	134448
589.849	168688
589.861	179605
589.902	212204
589.932	223250
589.955	187100
590.004	102765
590.009	100342
590.062	87703
590.075	84557
590.115	81908
590.146	80237
590.168	80714
590.218	81829
590.222	82286
590.275	87591
590.289	89057
590.328	89881
590.360	89025
590.381	86778
590.431	81423
590.435	81481
590.488	82146
590.503	82247
590.541	82936
590.574	83276
590.594	82388
590.645	79509
590.647	79533
590.700	78440
590.716	77913
590.753	77807
590.787	77924
590.806	77712
590.859	76855
590.859	76919
590.912	75877
590.930	75545
590.965	76781
591.001	77973
591.018	77860
591.071	76897
591.072	76811
591.124	77631
591.143	77783
591.177	79297
591.214	80912
591.230	81559
591.283	83296
591.285	83282
591.336	86999
591.356	88373
591.389	87399
591.427	85430
591.442	84454
591.495	80800
591.498	80466
591.547	80590
591.569	80500
591.600	80410
591.640	80027
591.653	81239
591.706	86342
591.711	86797
591.759	99215
591.782	105703
591.811	114017
591.853	125543
591.864	120376
591.917	91351
591.924	87227
591.969	86537
591.995	86161
592.022	88819
592.066	92925
592.075	97537
592.127	125377
592.137	130539
592.180	151494
592.208	163824
592.233	141553
592.279	97861
592.285	96600
592.338	86063
592.350	83574
592.390	82772
592.421	82039
592.443	82372
592.491	82829
592.495	83114
592.548	85613
592.562	86195
592.600	85275
592.633	84269
592.653	84037
592.704	82715
592.705	83192
592.775	83413
592.846	85281
592.916	85591
592.987	92523
593.058	90386
593.128	84530
593.199	81453
593.270	80042
593.341	79596
593.411	82242
593.482	81118
593.553	80286
593.623	80074
593.694	89152
593.764	104362
593.835	85108
593.906	80777
593.976	86163
594.047	98612
594.117	130419
594.188	129203
594.258	79298
594.329	78767
594.399	80415
594.470	77387
594.540	77774
594.611	77557
594.681	78353
594.751	82270
594.822	84180
594.892	88964
594.963	93763
595.033	93260
595.103	96368
595.174	118012
595.244	209692
595.314	268774
595.384	105854
595.455	91285
595.525	93271
595.595	94554
595.665	97860
595.736	95884
595.806	93900
595.876	90736
595.946	90682
596.016	87607
596.087	90907
596.157	92144
596.227	92260
596.297	97266
596.367	102971
596.437	123193
596.507	195467
596.577	254224
596.647	115868
596.717	97005
596.787	97952
596.857	95890
596.927	97112
596.997	93911
597.067	93707
597.137	99142
597.207	97913
597.277	97205
597.347	99696
597.417	95494
597.487	95692
597.557	101723
597.626	104067
597.696	120058
597.766	169709
597.836	245275
597.906	124569
597.975	96173
598.045	94795
598.115	92971
598.185	95621
598.254	102054
598.324	102736
598.394	102264
598.464	104507
598.533	99655
598.603	90923
598.672	95190
598.742	97112
598.812	96748
598.881	97682
598.951	92533
599.020	92419
599.090	89113
599.159	92449
599.229	89430
599.299	87384
599.368	91618
599.437	88989
599.507	94138
599.576	100816
599.646	91192
599.715	89302
599.785	94949
599.854	113983
599.924	131845
599.993	113103
600.062	92719
600.132	91177
600.201	95479
600.270	102659
600.340	95847
600.409	91584
600.478	94299
600.547	94313
600.617	95705
600.686	90916
600.755	86789
600.824	88567
600.894	86479
600.963	80907
601.032	80652
601.101	82444
601.170	80215
601.239	84538
601.308	87565
601.378	82093
601.447	79821
601.516	76492
601.585	78948
601.654	87378
601.723	82238
601.792	83874
601.861	82310
601.930	83085
601.999	85206
602.068	78630
602.137	87443
602.206	82781
602.275	80634
602.343	92342
602.412	90275
602.481	77752
602.550	75437
602.619	76719
602.688	80376
602.756	78886
602.825	74537
602.894	76260
602.963	79957
603.032	81215
603.100	77093
603.169	77615
603.238	80364
603.307	77956
603.375	74330
603.444	77939
603.513	77854
603.581	76234
603.650	77810
603.719	77033
603.787	78202
603.856	81183
603.924	79322
603.993	82318
604.061	80207
604.130	83198
604.198	83186
604.267	84589
604.335	82458
604.404	82866
604.472	82733
604.541	84074
604.609	83199
604.678	82538
604.746	82717
604.815	84049
604.883	85713
604.951	85357
605.020	83282
605.088	88154
605.156	90445
605.225	86989
605.293	86754
605.361	89327
605.429	87383
605.498	89906
605.566	91970
605.634	93858
605.702	95736
605.771	96504
605.839	96032
605.907	95068
605.975	91982
606.043	92798
606.111	91169
606.180	91739
606.248	90041
606.316	96750
606.384	106855
606.452	135118
606.520	118707
606.588	99217
606.656	90762
606.724	92787
606.792	89640
606.860	83340
606.928	76774
606.996	78102
607.064	74945
607.132	78371
607.200	80306
607.267	84436
607.335	80682
607.403	82540
607.471	83248
607.539	81670
607.607	80201
607.674	75603
607.742	80635
607.810	83545
607.878	76808
607.946	76257
608.013	77989
608.081	80100
608.149	76288
608.216	80344
608.284	82889
608.352	84556
608.419	102499
608.487	161936
608.555	104119
608.622	78823
608.690	79684
608.757	84167
608.825	86439
608.893	88896
608.960	93750
609.028	123358
609.095	179033
609.163	100717
609.230	92091
609.298	84654
609.365	72655
609.432	78050
609.500	81194
609.567	89644
609.635	96333
609.702	99677
609.769	103687
609.837	117682
609.904	88079
609.971	76313
610.039	83973
610.106	104802
610.173	177088
610.241	358842
610.308	185712
610.375	88524
610.442	78773
610.509	74427
610.577	74179
610.644	76479
610.711	75345
610.778	78111
610.845	79050
610.912	82859
610.980	83032
611.047	83563
611.114	85153
611.181	80767
611.248	78053
611.315	83739
611.382	83234
611.449	84440
611.516	87001
611.583	88145
611.650	89005
611.717	92553
611.784	92082
611.851	95024
611.918	100839
611.984	117645
612.051	174893
612.118	336208
612.185	783112
612.252	415944
612.319	119385
612.386	105976
612.452	103897
612.519	126277
612.586	194892
612.653	126959
612.719	93610
612.786	92298
612.853	86071
612.919	85691
612.986	84910
613.053	80947
613.120	77573
613.186	77708
613.253	80547
613.319	76891
613.386	77810
613.453	80423
613.519	86231
613.586	101045
613.652	122353
613.719	107949
613.785	101491
613.852	84862
613.918	77009
613.985	77834
614.051	77894
614.118	82478
614.184	78903
614.250	74526
614.317	75564
614.383	76923
614.449	75704
614.516	81406
614.582	90356
614.648	80720
614.715	75918
614.781	78940
614.847	86352
614.914	91444
614.980	85852
615.046	78069
615.112	76350
615.179	76994
615.245	77900
615.311	79943
615.377	81528
615.443	84913
615.509	86158
615.575	87469
615.642	86427
615.708	94810
615.774	98518
615.840	111310
615.906	124608
615.972	141072
616.038	204931
616.104	422026
616.170	1009544
616.236	738220
616.302	183474
616.368	147274
616.434	117734
616.500	116965
616.565	125364
616.631	139528
616.697	117971
616.763	124495
616.829	170840
616.895	268971
616.961	237907
617.026	125771
617.092	99478
617.158	99130
617.224	96121
617.289	96741
617.355	98506
617.421	106990
617.487	100749
617.552	94866
617.618	90886
617.684	91205
617.749	91176
617.815	87962
617.880	85396
617.946	87547
618.012	87758
618.077	87690
618.143	85228
618.208	87391
618.274	91792
618.339	98076
618.405	89328
618.470	91893
618.536	97641
618.601	117249
618.667	104052
618.732	93399
618.798	89152
618.863	89899
618.928	89350
618.994	99016
619.059	104916
619.124	125004
619.190	102370
619.255	95006
619.320	97503
619.386	93999
619.451	87676
619.516	88222
619.581	89377
619.647	91283
619.712	90262
619.777	87330
619.842	87265
619.907	90201
619.972	92059
620.038	92361
620.103	90069
620.168	86020
620.233	86661
620.298	88327
620.363	85333
620.428	87740
620.493	90605
620.558	87164
620.623	86972
620.688	86406
620.753	85125
620.818	87389
620.883	86990
620.948	87053
621.013	87430
621.078	92481
621.143	97710
621.207	103359
621.272	101004
621.337	107171
621.402	126471
621.467	183004
621.532	182070
621.596	122641
621.661	107866
621.726	105984
621.791	106977
621.855	111455
621.920	121866
621.985	147241
622.049	171678
622.114	156031
622.179	123425
622.243	128337
622.308	120300
622.373	121552
622.437	119043
622.502	113889
622.566	114423
622.631	119163
622.695	115577
622.760	117499
622.824	110810
622.889	113972
622.953	121343
623.018	147546
623.082	138454
623.147	116178
623.211	109068
623.276	113171
623.340	105536
623.404	103408
623.469	104489
623.533	104451
623.597	102664
623.662	103203
623.726	101195
623.790	98383
623.854	101040
623.919	102391
623.983	100333
624.047	102624
624.111	97620
624.176	98136
624.240	102655
624.304	105227
624.368	99912
624.432	102254
624.496	103050
624.560	106685
624.625	113086
624.689	101165
624.753	97420
624.817	97036
624.881	96178
624.945	93917
625.009	94876
625.073	94124
625.137	100518
625.201	112421
625.265	110581
625.329	96930
625.393	102590
625.456	101778
625.520	108799
625.584	127139
625.648	167025
625.712	297971
625.776	733754
625.839	769241
625.903	255267
625.967	150599
626.031	280250
626.095	439751
626.158	133513
626.222	88414
626.286	83665
626.349	84815
626.413	81404
626.477	90008
626.540	81055
626.604	83089
626.668	80387
626.731	79988
626.795	91775
626.858	88481
626.922	81487
626.986	79913
627.049	77469
627.113	78426
627.176	74809
627.240	76768
627.303	77046
627.366	78573
627.430	75489
627.493	79742
627.557	86138
627.620	79602
627.684	81216
627.747	81424
627.810	77738
627.874	76415
627.937	73888
628.000	80263
628.064	78379
628.127	69955
628.190	73336
628.253	75382
628.317	71305
628.380	72430
628.443	69940
628.506	71379
628.569	68384
628.632	67315
628.696	66542
628.759	68502
628.822	65107
628.885	64240
628.948	64821
629.011	67237
629.074	66018
629.137	63440
629.200	64774
629.263	70465
629.326	62046
629.389	63789
629.452	66990
629.515	72945
629.578	66311
629.641	70465
629.704	69672
629.767	67870
629.830	60484
629.892	63166
629.955	61260
630.018	66671
630.081	66725
630.144	76000
630.207	66100
630.269	74356
630.332	92077
630.395	72652
630.458	56188
630.520	60531
630.583	57845
630.646	55307
630.708	56734
630.771	57803
630.834	57747
630.896	56299
630.959	54658
631.021	57423
631.084	60575
631.146	74751
631.209	88313
631.272	58378
631.334	53402
631.397	53693
631.459	52695
631.522	54608
631.584	56147
631.646	56583
631.709	60755
631.771	78954
631.834	60630
631.896	53896
631.958	47441
632.021	52275
632.083	52629
632.145	56982
632.208	52468
632.270	53195
632.332	49999
632.395	52530
632.457	56056
632.519	53059
632.581	50096
632.643	49201
632.706	51381
632.768	50260
632.830	49527
632.892	48012
632.954	50772
633.016	53034
633.078	47097
633.141	47861
633.203	48481
633.265	50487
633.327	47163
633.389	47501
633.451	56719
633.513	64241
633.575	73529
633.637	62932
633.698	53905
633.760	49484
633.822	46763
633.884	46992
633.946	46642
634.008	48085
634.070	45194
634.132	46964
634.193	48282
634.255	49595
634.317	48060
634.379	49813
634.441	48433
634.502	48051
634.564	44109
634.626	43514
634.687	42762
634.749	45514
634.811	44054
634.873	39990
634.934	41734
634.996	44655
635.057	43500
635.119	44493
635.181	45585
635.242	45485
635.304	41810
635.365	45148
635.427	43942
635.488	43416
635.550	43045
635.611	43675
635.673	43792
635.734	49057
635.796	46488
635.857	49319
635.918	45086
635.980	49953
636.041	48595
636.102	50653
636.164	45964
636.225	47316
636.286	45704
636.348	46031
636.409	41428
636.470	42755
636.531	46324
636.593	64725
636.654	52297
636.715	38595
636.776	38917
636.838	37920
636.899	43615
636.960	41329
637.021	36092
637.082	39992
637.143	39515
637.204	37251
637.265	36961
637.326	37025
637.387	35784
637.448	34823
637.509	36953
637.570	36393
637.631	36757
637.692	34955
637.753	32062
637.814	36341
637.875	33815
637.936	36287
637.997	36180
638.058	39323
638.119	44026
638.179	39061
638.240	36456
638.301	36580
638.362	35622
638.423	39767
638.483	37052
638.544	33565
638.605	35447
638.666	32832
638.726	35109
638.787	35514
638.848	33940
638.908	34277
638.969	33964
639.030	37324
639.090	33081
639.151	33984
639.211	35566
639.272	44195
639.332	61513
639.393	42060
639.453	36045
639.514	37105
639.574	33413
639.635	31418
639.695	34027
639.756	33157
639.816	32064
639.877	38707
639.937	55866
639.997	64568
640.058	33776
640.118	31529
640.178	30386
640.239	29666
640.299	30234
640.359	29794
640.420	29754
640.480	31956
640.540	30444
640.600	31254
640.661	32765
640.721	33922
640.781	39180
640.841	32092
640.901	32933
640.961	33099
641.021	33442
641.082	36378
641.142	46108
641.202	34168
641.262	28561
641.322	31870
641.382	30427
641.442	31997
641.502	30154
641.562	31418
641.622	29825
641.682	31984
641.742	29878
641.802	33252
641.861	36116
641.921	36354
641.981	36041
642.041	36042
642.101	40490
642.161	30761
642.221	28545
642.280	29029
642.340	28088
642.400	28435
642.460	29681
642.519	30240
642.579	28235
642.639	32192
642.698	27153
642.758	31566
642.818	30136
642.877	29619
642.937	30442
642.997	34702
643.056	43114
643.116	31029
643.175	30806
643.235	28358
643.294	28669
643.354	30526
643.414	30332
643.473	33798
643.532	35777
643.592	40571
643.651	51983
643.711	80290
643.770	143082
643.830	330278
643.889	629638
643.948	135819
644.008	39865
644.067	33235
644.126	29556
644.186	29606
644.245	27402
644.304	25722
644.363	28525
644.423	25475
644.482	26892
644.541	27398
644.600	25140
644.659	31304
644.719	33090
644.778	41555
644.837	50081
644.896	82839
644.955	152315
645.014	58325
645.073	30471
645.132	31863
645.191	29086
645.250	25981
645.309	29887
645.368	29677
645.427	30695
645.486	34535
645.545	45957
645.604	28486
645.663	26541
645.722	26753
645.781	26668
645.840	28447
645.898	31033
645.957	37882
646.016	45740
646.075	72605
646.134	124917
646.192	323925
646.251	420360
646.310	67310
646.369	32444
646.427	29714
646.486	26589
646.545	26350
646.603	24800
646.662	26195
646.721	25236
646.779	23082
646.838	24030
646.896	27607
646.955	27494
647.014	36422
647.072	48686
647.131	101006
647.189	49802
647.248	25588
647.306	22733
647.365	23982
647.423	20843
647.481	23767
647.540	20065
647.598	22951
647.657	20537
647.715	23282
647.773	21941
647.832	24214
647.890	22958
647.948	24370
648.007	23998
648.065	22164
648.123	22149
648.181	25091
648.240	21866
648.298	21992
648.356	24237
648.414	25270
648.472	25184
648.531	25680
648.589	23403
648.647	23544
648.705	24175
648.763	24578
648.821	23845
648.879	22306
648.937	23866
648.995	26327
649.053	27652
649.111	35099
649.169	43988
649.227	60007
649.285	106462
649.343	266918
649.401	126251
649.459	71095
649.516	45096
649.574	27363
649.632	29382
649.690	31734
649.748	34642
649.806	31441
649.863	39837
649.921	75154
649.979	48665
650.037	23823
650.094	21707
650.152	23117
650.210	20548
650.268	22778
650.325	22172
650.383	20775
650.440	19799
650.498	22861
650.556	21449
650.613	19372
650.671	21974
650.728	23939
650.786	28598
650.843	23182
650.901	19833
650.958	21058
651.016	19825
651.073	21483
651.131	20251
651.188	22158
651.246	22688
651.303	21038
651.360	20117
651.418	20996
651.475	21263
651.532	17835
651.590	20409
651.647	19907
651.704	21405
651.762	20837
651.819	20672
651.876	20925
651.933	19409
651.990	20810
652.048	19400
652.105	20574
652.162	19644
652.219	18230
652.276	19035
652.333	19368
652.390	16905
652.448	18389
652.505	18925
652.562	18169
652.619	17845
652.676	19692
652.733	18063
652.790	18266
652.847	15553
652.904	17440
652.961	17368
653.017	17182
653.074	17391
653.131	16952
653.188	16582
653.245	17572
653.302	16653
653.359	18209
653.415	17628
653.472	18346
653.529	17963
653.586	17328
653.642	17983
653.699	16836
653.756	16729
653.813	17064
653.869	16238
653.926	16475
653.983	16940
654.039	17457
654.096	17281
654.152	20229
654.209	18850
654.266	22049
654.322	20707
654.379	25432
654.435	27272
654.492	29813
654.548	42325
654.605	66287
654.661	28244
654.717	21627
654.774	25476
654.830	23325
654.887	21229
654.943	22563
655.000	20147
655.056	21597
655.112	22726
655.168	22878
655.225	24118
655.281	30631
655.337	44896
655.394	84187
655.450	53407
655.506	46590
655.562	86550
655.618	55442
655.675	21503
655.731	21280
655.787	20059
655.843	21333
655.899	18589
655.955	21646
656.011	19951
656.067	17904
656.123	19562
656.179	20637
656.235	21665
656.291	19090
656.347	22347
656.403	23247
656.459	24775
656.515	31687
656.571	29184
656.627	23211
656.683	21222
656.739	19950
656.795	18581
656.850	20513
656.906	22863
656.962	20220
657.018	16857
657.074	20428
657.129	20501
657.185	21823
657.241	24294
657.297	21559
657.352	18812
657.408	19322
657.464	24585
657.519	23344
657.575	16474
657.630	19144
657.686	17971
657.742	19478
657.797	18561
657.853	20076
657.908	20023
657.964	17306
658.019	18822
658.075	21237
658.130	19225
658.186	18029
658.241	17810
658.297	17893
658.352	18711
658.407	19078
658.463	18432
658.518	19518
658.573	18783
658.629	16862
658.684	16422
658.739	16924
658.795	15240
658.850	17495
658.905	17211
658.960	17496
659.016	15835
659.071	17789
659.126	18701
659.181	21069
659.236	27488
659.291	27074
659.346	22163
659.401	21683
659.457	18251
659.512	17500
659.567	19336
659.622	19694
659.677	19497
659.732	20495
659.787	21241
659.842	29068
659.897	38356
659.952	20597
660.007	18294
660.061	19543
660.116	19725
660.171	17748
660.226	17032
660.281	19022
660.336	16099
660.391	17476
660.445	17179
660.500	19533
660.555	18420
660.610	18627
660.664	17861
660.719	17957
660.774	18093
660.828	19003
660.883	18377
660.938	19433
660.992	18203
661.047	17973
661.101	17183
661.156	17676
661.211	17512
661.265	18229
661.320	18808
661.374	18414
661.429	16915
661.483	19151
661.538	18001
661.592	18668
661.647	18049
661.701	18014
661.755	17710
661.810	19714
661.864	18396
661.919	18763
661.973	19458
662.027	19358
662.081	16252
662.136	19630
662.190	21642
662.244	23008
662.299	19996
662.353	19343
662.407	18491
662.461	20930
662.515	19948
662.569	20994
662.624	20792
662.678	21225
662.732	19161
662.786	21373
662.840	22206
662.894	21829
662.948	17370
663.002	18579
663.056	17688
663.110	18055
663.164	19502
663.218	17818
663.272	18585
663.326	20282
663.380	20512
663.434	22386
663.488	20380
663.542	21117
663.595	20941
663.649	21328
663.703	18139
663.757	20717
663.811	18714
663.864	19729
663.918	19185
663.972	19325
664.026	18653
664.079	19410
664.133	19565
664.187	17921
664.240	17479
664.294	19163
664.348	19699
664.401	19088
664.455	17920
664.508	18518
664.562	18222
664.615	19367
664.669	17984
664.722	19255
664.776	17811
664.829	20326
664.883	19562
664.936	22096
664.990	22088
665.043	22834
665.097	24946
665.150	26125
665.203	23184
665.257	22517
665.310	21604
665.363	23252
665.417	23665
665.470	23382
665.523	21150
665.576	22431
665.630	21581
665.683	22371
665.736	22336
665.789	22789
665.842	21472
665.895	22771
665.949	21222
666.002	21296
666.055	20977
666.108	23057
666.161	21964
666.214	23772
666.267	22498
666.320	25919
666.373	23088
666.426	24199
666.479	24733
666.532	30108
666.585	35458
666.638	38560
666.691	33124
666.744	36546
666.796	37041
666.849	31429
666.902	23935
666.955	22750
667.008	20843
667.060	19853
667.113	18499
667.166	19968
667.219	19894
667.271	20983
667.324	19524
667.377	21415
667.430	19839
667.482	21423
667.535	20000
667.587	23579
667.640	23616
667.693	28310
667.745	33223
667.798	34547
667.850	24748
667.903	23658
667.955	22753
668.008	24089
668.060	27271
668.113	28071
668.165	27002
668.218	26510
668.270	24545
668.322	24885
668.375	23989
668.427	25270
668.479	23328
668.532	25231
668.584	25772
668.636	23109
668.689	24015
668.741	24434
668.793	23425
668.845	24084
668.898	26168
668.950	23525
669.002	24576
669.054	24465
669.106	24962
669.158	25227
669.211	22855
669.263	23488
669.315	25017
669.367	24439
669.419	25262
669.471	26057
669.523	24115
669.575	26455
669.627	25007
669.679	23748
669.731	23278
669.783	23497
669.835	23522
669.886	23226
669.938	22648
669.990	22179
670.042	20578
670.094	20776
670.146	21458
670.197	21373
670.249	21893
670.301	21983
670.353	22164
670.404	22058
670.456	23222
670.508	24144
670.560	25478
670.611	28572
670.663	30110
670.715	47559
670.766	58854
670.818	30437
670.869	22355
670.921	21562
670.972	22122
671.024	21600
671.075	21507
671.127	22841
671.178	21286
671.230	22996
671.281	21773
671.333	24389
671.384	25511
671.436	27555
671.487	28895
671.538	31465
671.590	32835
671.641	41212
671.692	48518
671.744	68634
671.795	48084
671.846	31287
671.897	28662
671.949	28987
672.000	26582
672.051	26092
672.102	26489
672.153	26295
672.204	25501
672.256	25837
672.307	24590
672.358	27015
672.409	25678
672.460	23917
672.511	23789
672.562	25600
672.613	24238
672.664	24868
672.715	24582
672.766	25101
672.817	23547
672.868	24431
672.919	23926
672.970	23849
673.021	24314
673.071	22221
673.122	23611
673.173	23754
673.224	22966
673.275	23373
673.326	22381
673.376	22172
673.427	22353
673.478	23036
673.528	21395
673.579	22355
673.630	23028
673.680	22804
673.731	22365
673.782	21119
673.832	23738
673.883	24881
673.934	22861
673.984	22435
674.035	23123
674.085	23978
674.136	26615
674.186	30309
674.237	37914
674.287	56766
674.338	29823
674.388	25140
674.438	23139
674.489	26882
674.539	26232
674.589	25549
674.640	25293
674.690	24562
674.740	26696
674.791	28123
674.841	25592
674.891	25825
674.942	22496
674.992	23088
675.042	20934
675.092	20411
675.142	22006
675.193	21851
675.243	20982
675.293	22990
675.343	23260
675.393	24659
675.443	22496
675.493	20632
675.543	20801
675.593	23791
675.643	22272
675.693	20602
675.743	22157
675.793	21268
675.843	20067
675.893	22380
675.943	20652
675.993	20813
676.043	22825
676.093	21400
676.142	19965
676.192	22923
676.242	21154
676.292	21287
676.341	23513
676.391	25202
676.441	19395
676.491	20487
676.540	19112
676.590	19794
676.640	19530
676.689	20833
676.739	17430
676.789	18853
676.838	18818
676.888	20276
676.937	19479
676.987	18653
677.037	18274
677.086	17306
677.136	18347
677.185	19324
677.235	16612
677.284	18796
677.333	19212
677.383	18512
677.432	17778
677.482	18512
677.531	19850
677.580	20736
677.630	17454
677.679	17421
677.728	19473
677.778	18491
677.827	17492
677.876	17127
677.925	16775
677.975	19436
678.024	18820
678.073	19221
678.122	20678
678.171	20831
678.220	20028
678.269	22758
678.319	22092
678.368	22013
678.417	20866
678.466	22376
678.515	22024
678.564	23244
678.613	20624
678.662	21754
678.711	20500
678.760	19703
678.809	20303
678.857	21165
678.906	20415
678.955	20668
679.004	20350
679.053	20728
679.102	19429
679.151	22066
679.199	19150
679.248	19607
679.297	20837
679.346	22174
679.394	19593
679.443	19325
679.492	18656
679.540	19330
679.589	21807
679.638	20192
679.686	17138
679.735	18634
679.784	19320
679.832	20803
679.881	18195
679.929	17877
679.978	16820
680.026	18673
680.075	18085
680.123	18465
680.172	17397
680.220	15646
680.268	18762
680.317	17030
680.365	17973
680.414	17144
680.462	17758
680.510	17948
680.559	15572
680.607	16867
680.655	16606
680.703	19022
680.752	17258
680.800	15037
680.848	16588
680.896	16561
680.945	16349
680.993	18315
681.041	16421
681.089	15650
681.137	14752
681.185	15711
681.233	17234
681.258	17179
681.281	16985
681.329	16262
681.377	16714
681.380	16934
681.425	18259
681.473	21650
681.502	20048
681.521	18654
681.569	19647
681.617	20041
681.624	20272
681.665	20640
681.713	19816
681.745	20335
681.761	20364
681.809	20040
681.857	20565
681.867	20499
681.904	19704
681.952	21896
681.989	22100
682.000	21970
682.048	22084
682.096	20773
682.111	21353
682.143	22137
682.191	20914
682.233	22838
682.239	22980
682.286	22078
682.334	22511
682.354	22430
682.382	22039
682.430	23705
682.476	23110
682.477	22967
682.525	24228
682.572	23578
682.598	23561
682.620	23400
682.667	23142
682.715	26663
682.720	26608
682.763	24830
682.810	25370
682.841	25913
682.857	25940
682.905	25274
682.952	24567
682.963	25137
683.000	26731
683.047	26818
683.085	26595
683.095	26366
683.142	25555
683.190	26349
683.206	26252
683.237	25925
683.284	27122
683.328	27334
683.332	27225
683.379	28490
683.426	27906
683.449	27508
683.473	26943
683.521	27828
683.568	29044
683.571	29031
683.615	27408
683.662	28536
683.693	28298
683.709	28129
683.757	28843
683.804	29721
683.814	30209
683.851	31354
683.898	29445
683.936	30108
683.945	30199
683.992	30811
684.039	32451
684.057	32373
684.086	31889
684.133	33159
684.179	32481
684.180	32362
684.227	33126
684.274	32963
684.300	33378
684.321	33563
684.368	31739
684.415	34099
684.422	33981
684.462	32556
684.509	32771
684.543	32538
684.556	32494
684.603	32607
684.649	32662
684.665	32916
684.696	33600
684.743	34482
684.786	36936
684.790	37153
684.837	38102
684.883	43022
684.908	44048
684.930	43714
684.977	44137
685.023	40791
685.029	40826
685.070	40112
685.117	39153
685.150	39685
685.164	40503
685.210	43358
685.257	45142
685.272	45073
685.303	43376
685.350	42841
685.393	42625
685.396	42650
685.443	43705
685.490	46038
685.514	46825
685.536	46745
685.583	45025
685.629	44421
685.636	44338
685.675	43823
685.722	44163
685.757	44915
685.768	45329
685.815	46569
685.861	46491
685.878	47001
685.908	48464
685.954	50949
686.000	54727
686.000	54822
686.047	63142
686.093	75152
686.121	76663
686.139	71860
686.185	61540
686.232	53861
686.242	52436
686.278	51205
686.324	47606
686.363	44302
686.370	44076
686.416	45002
686.463	46295
686.484	45937
686.509	45425
686.555	45187
686.601	43920
686.606	44009
686.647	45155
686.693	45187
686.727	46140
686.739	46407
686.785	45627
686.831	46454
686.848	46279
686.877	45476
686.923	45032
686.969	43924
686.969	43918
687.015	46063
687.061	47139
687.090	47766
687.107	47810
687.153	47067
687.199	47131
687.211	46786
687.245	47730
687.291	52450
687.332	55932
687.336	56005
687.382	55732
687.428	52616
687.453	52064
687.474	50623
687.520	48777
687.565	46387
687.574	45612
687.611	45127
687.657	45904
687.695	46666
687.702	46865
687.748	47493
687.794	48764
687.816	48980
687.839	48349
687.885	46368
687.931	45502
687.937	45343
687.976	46388
688.022	48351
688.058	49263
688.067	49262
688.113	49633
688.158	48866
688.179	48884
688.204	49346
688.249	50136
688.295	51157
688.300	51308
688.340	53126
688.386	54104
688.421	54623
688.431	54298
688.477	52987
688.522	52024
688.542	51657
688.567	51700
688.613	51469
688.658	50778
688.663	50687
688.703	51180
688.749	52376
688.784	52775
688.794	52639
688.839	51956
688.884	51145
688.905	50701
688.930	50742
688.975	50696
689.020	52334
689.026	52325
689.065	52731
689.110	52444
689.146	52841
689.155	52651
689.201	50938
689.246	49022
689.267	48993
689.291	50445
689.336	51902
689.381	53833
689.388	53825
689.426	52413
689.471	52124
689.509	50768
689.516	50581
689.561	50245
689.606	49993
689.630	49837
689.651	50454
689.696	50426
689.741	51839
689.750	51970
689.785	51765
689.830	51109
689.871	50203
689.875	50152
689.920	50276
689.965	49515
689.992	48781
690.010	48900
690.054	50162
690.099	51335
690.112	51430
690.144	51165
690.189	50433
690.233	50030
690.233	50087
690.278	50212
690.323	49771
690.354	49611
690.367	49861
690.412	50614
690.457	51705
690.474	51896
690.501	51531
690.546	50311
690.590	49431
690.595	49316
690.635	49595
690.680	49544
690.716	49512
690.724	49676
690.769	50255
690.813	51234
690.836	50720
690.857	50229
690.902	51217
690.946	51027
690.957	51061
690.991	51854
691.035	52451
691.077	53140
691.080	53395
691.124	56563
691.168	60566
691.198	62777
691.213	63734
691.257	66904
691.301	68318
691.318	69366
691.346	66194
691.390	59553
691.434	54105
691.439	53386
691.478	54441
691.522	56101
691.559	56395
691.567	56460
691.611	56888
691.655	56929
691.680	57399
691.699	57856
691.743	58203
691.787	58690
691.800	58651
691.831	59657
691.875	61294
691.919	63107
691.921	63047
691.964	65351
692.008	68093
692.041	69478
692.052	69302
692.096	68521
692.139	68191
692.162	67284
692.183	66304
692.227	65380
692.271	63962
692.282	63551
692.315	64006
692.359	64036
692.402	64530
692.403	64643
692.447	64552
692.490	64940
692.523	65122
692.534	65611
692.578	67259
692.622	67941
692.643	68356
692.666	66694
692.709	63374
692.753	60240
692.763	59249
692.797	58969
692.840	58994
692.884	58871
692.884	58990
692.928	60531
692.971	61974
693.004	63218
693.015	63378
693.059	62954
693.102	62627
693.124	62386
693.146	63553
693.189	66145
693.233	68744
693.245	69245
693.276	69434
693.320	69134
693.363	69063
693.365	68939
693.407	69708
693.450	70411
693.485	70446
693.493	70617
693.537	71451
693.580	71349
693.605	71856
693.624	70409
693.667	65331
693.710	60984
693.725	59326
693.753	60062
693.797	61134
693.840	61905
693.845	61951
693.883	60976
693.926	58898
693.966	57229
693.970	57293
694.013	56660
694.056	56102
694.086	55786
694.099	57251
694.142	61813
694.185	66033
694.206	67660
694.229	69495
694.272	73329
694.315	77480
694.326	78097
694.358	75755
694.401	73128
694.444	70206
694.446	69939
694.487	68926
694.530	67222
694.566	65927
694.573	65521
694.616	61439
694.659	57682
694.686	55300
694.702	55271
694.745	54932
694.787	54472
694.806	54191
694.830	55200
694.873	56477
694.916	58005
694.926	58177
694.959	57672
695.002	57349
695.044	56464
695.046	56329
695.087	57992
695.130	59226
695.166	60342
695.172	60536
695.215	60615
695.258	61088
695.286	61071
695.301	61058
695.343	60788
695.386	60231
695.406	60026
695.428	59584
695.471	58116
695.514	56871
695.526	56380
695.556	57274
695.599	58522
695.641	59409
695.646	59389
695.684	58871
695.726	58108
695.766	57541
695.769	57748
695.811	58556
695.854	59445
695.886	60017
695.896	59744
695.938	57951
695.981	56380
696.005	55151
696.023	55848
696.065	57508
696.108	59295
696.125	59805
696.150	60381
696.192	61101
696.235	61847
696.245	61899
696.277	60548
696.319	58342
696.361	56464
696.365	56161
696.404	56490
696.446	56803
696.485	56808
696.488	56997
696.530	57940
696.572	58738
696.604	59375
696.614	59233
696.656	57506
696.698	56290
696.724	55150
696.740	55198
696.783	55421
696.825	55379
696.844	55319
696.867	55903
696.909	56385
696.951	57252
696.964	57319
696.992	56642
697.034	55419
697.076	54321
697.083	54015
697.118	55329
697.160	56519
697.202	57872
697.203	57767
697.244	57320
697.286	56924
697.323	56108
697.327	56125
697.369	55261
697.411	54271
697.442	53467
697.453	54136
697.494	56315
697.536	58555
697.562	59714
697.578	59604
697.620	59069
697.661	58341
697.682	57950
697.703	58766
697.744	59882
697.786	61249
697.801	61540
697.828	61879
697.869	62196
697.911	62411
697.921	62348
697.952	61272
697.994	59573
698.035	57915
698.040	57552
698.077	56406
698.118	55100
698.160	53678
698.160	53533
698.201	55297
698.243	56912
698.279	58254
698.284	58376
698.325	58122
698.367	57861
698.399	57471
698.408	57158
698.449	55073
698.491	53024
698.518	51532
698.532	51998
698.573	52944
698.614	53961
698.638	54382
698.656	54928
698.697	55909
698.738	56844
698.757	57162
698.779	58267
698.820	60056
698.862	61867
698.877	62380
698.903	63908
698.944	66093
698.985	68273
698.996	68705
699.026	67130
699.067	64704
699.116	61649
699.235	57285
699.354	54218
699.474	63041
699.593	83721
699.713	71669
699.832	60002
699.951	60548
700.070	54446
700.190	55912
700.309	59847
700.428	79962
700.547	59400
700.667	60068
700.786	79102
700.905	57866
701.024	71050
701.143	61923
701.262	46843
701.381	48763
701.500	53129
701.619	55565
701.738	47534
701.857	46741
701.976	46590
702.095	45731
702.214	53487
702.333	53828
702.452	48096
702.571	45322
702.690	46202
702.809	44741
702.928	42170
703.047	47199
703.165	44215
703.284	44418
703.403	48411
703.522	68577
703.640	61697
703.759	90096
703.878	146706
703.997	57100
704.115	49379
704.234	47075
704.353	44114
704.471	41581
704.590	39638
704.708	39934
704.827	40467
704.946	50373
705.064	63122
705.183	48102
705.301	67979
705.420	104414
705.538	84999
705.656	66018
705.775	60107
705.893	68047
706.012	73599
706.130	73331
706.249	73426
706.367	82574
706.485	89092
706.604	81884
706.722	81796
706.840	108384
706.958	89535
707.077	67943
707.195	66100
707.313	63921
707.431	63501
707.549	65162
707.668	68407
707.786	71122
707.904	62647
708.022	59761
708.140	59102
708.258	58730
708.376	61340
708.494	60845
708.612	72916
708.730	116983
708.848	104290
708.966	91906
709.084	83482
709.202	83319
709.320	87361
709.438	89741
709.556	90456
709.674	85470
709.791	82819
709.909	83149
710.027	83273
710.145	80267
710.263	86609
710.380	88446
710.498	81106
710.616	85847
710.733	87573
710.851	99748
710.969	98842
711.086	87896
711.204	81883
711.322	89154
711.439	93740
711.557	97405
711.674	85698
711.792	86716
711.909	76828
712.027	74316
712.144	77190
712.262	79386
712.379	102107
712.497	144970
712.614	132690
712.732	107401
712.849	104025
712.966	124706
713.084	141318
713.201	111069
713.318	107410
713.436	101903
713.553	104446
713.670	108870
713.787	131458
713.905	129219
714.022	100489
714.139	99379
714.256	103301
714.373	111029
714.490	118394
714.608	170789
714.725	468801
714.842	393907
714.959	102314
715.076	92181
715.193	86973
715.310	83099
715.427	84884
715.544	78943
715.661	83638
715.778	85451
715.895	97393
716.011	97294
716.128	84100
716.245	85527
716.362	91378
716.479	93448
716.596	78862
716.713	80722
716.829	77161
716.946	78145
717.063	74286
717.180	75091
717.296	72519
717.413	75292
717.530	74372
717.646	71905
717.763	72681
717.880	70470
717.996	70576
718.113	73337
718.229	71180
718.346	65936
718.462	68859
718.579	85981
718.695	128730
718.812	127539
718.928	147695
719.045	84547
719.161	65412
719.277	61577
719.394	62444
719.510	67236
719.626	67697
719.743	84339
719.859	73795
719.975	81759
720.092	159652
720.208	251517
720.324	83070
720.440	69241
720.557	84016
720.673	118093
720.789	211333
720.905	508913
721.021	130333
721.137	66294
721.253	71815
721.369	76323
721.486	97631
721.602	151642
721.718	64610
721.834	53499
721.950	59102
722.066	55369
722.181	54609
722.297	59826
722.413	53314
722.529	54625
722.645	53270
722.761	54543
722.877	52248
722.993	50230
723.108	54038
723.224	51536
723.340	55659
723.456	45914
723.571	52887
723.687	48612
723.803	50625
723.918	47847
724.034	52206
724.150	53970
724.265	72856
724.381	197789
724.497	221491
724.612	52850
724.728	47961
724.843	51731
724.959	71918
725.074	189133
725.190	189455
725.305	65924
725.421	52018
725.536	39679
725.651	41566
725.767	40843
725.882	39736
725.997	40693
726.113	43296
726.228	39792
726.343	39828
726.459	37635
726.574	48847
726.689	41692
726.804	44578
726.920	42678
727.035	43068
727.150	45789
727.265	40805
727.380	44879
727.495	37347
727.610	32237
727.725	37217
727.841	35789
727.956	39634
728.071	55533
728.186	38703
728.301	32802
728.416	37218
728.531	31784
728.645	30768
728.760	36309
728.875	34036
728.990	32024
729.105	35450
729.220	35347
729.335	33558
729.449	31374
729.564	29503
729.679	29732
729.794	32470
729.908	44712
730.023	35619
730.138	26383
730.253	29727
730.367	27293
730.482	28064
730.596	30343
730.711	30067
730.826	26121
730.940	25612
731.055	30360
731.169	25805
731.284	25256
731.398	29909
731.513	44475
731.627	39082
731.742	51480
731.856	53827
731.970	25751
732.085	28497
732.199	29131
732.313	34535
732.428	56798
732.542	131198
732.656	71532
732.771	28512
732.885	26651
732.999	30870
733.113	36053
733.227	32349
733.342	23660
733.456	25014
733.570	22706
733.684	26717
733.798	26391
733.912	23024
734.026	21027
734.140	24675
734.254	38040
734.368	101071
734.482	113900
734.596	24192
734.710	22485
734.824	22123
734.938	21028
735.052	25190
735.166	36452
735.280	25223
735.393	22540
735.507	26989
735.621	51994
735.735	129647
735.849	33799
735.962	22670
736.076	29676
736.190	32284
736.303	62854
736.417	81795
736.531	25685
736.644	29149
736.758	17869
736.872	18585
736.985	18398
737.099	17037
737.212	16435
737.326	18240
737.439	17805
737.553	18108
737.666	18556
737.780	16638
737.893	17253
738.007	17088
738.120	16174
738.233	17784
738.347	15545
738.460	16961
738.573	19088
738.687	19018
738.800	19607
738.913	26226
739.026	19330
739.140	19064
739.253	15089
739.366	16123
739.479	15744
739.592	15449
739.705	17963
739.818	17017
739.932	13925
740.045	15266
740.158	16163
740.271	18500
740.384	14860
740.497	14199
740.610	15987
740.723	16058
740.836	14898
740.949	16446
741.062	26857
741.174	21608
741.287	19171
741.400	15007
741.513	15041
741.626	18120
741.739	16048
741.851	15460
741.964	14711
742.077	15983
742.189	16193
742.302	18824
742.415	16353
742.527	14732
742.640	13855
742.753	13422
742.865	12273
742.978	14551
743.090	14984
743.203	16331
743.316	14520
743.428	12126
743.541	12580
743.653	12071
743.766	13704
743.878	17625
743.990	40694
744.103	27190
744.215	14758
744.327	14074
744.440	18788
744.552	31652
744.664	14234
744.777	11990
744.889	12157
745.001	12360
745.113	12292
745.226	10122
745.338	12002
745.450	11957
745.562	12247
745.674	10973
745.786	10186
745.898	10843
746.010	10748
746.122	10506
746.234	9753
746.347	10382
746.459	11244
746.570	11103
746.682	11512
746.794	12333
746.906	12085
747.018	11161
747.130	9995
747.242	11357
747.354	12214
747.466	15529
747.577	10549
747.689	11222
747.801	10873
747.913	9758
748.024	9408
748.136	9676
748.248	8784
748.359	9823
748.471	9712
748.583	9925
748.694	10261
748.806	16253
748.918	34533
749.029	16461
749.141	13621
749.252	13106
749.364	17491
749.475	42548
749.587	32505
749.698	12287
749.809	10072
749.921	9251
750.032	9177
750.144	8641
750.255	7343
750.366	8480
750.478	9589
750.589	10680
750.700	11737
750.811	11344
750.923	17349
751.034	43658
751.145	34539
751.256	10474
751.367	8693
751.479	9163
751.590	8893
751.701	7810
751.812	7977
751.923	8758
752.034	8658
752.145	7243
752.256	8555
752.367	7717
752.478	7775
752.589	8804
752.700	8267
752.811	8184
752.922	9189
753.032	11568
753.143	12312
753.254	7770
753.365	9118
753.476	8126
753.586	7924
753.697	8030
753.808	7276
753.919	8401
754.029	7786
754.140	8248
754.251	9303
754.361	9200
754.472	9751
754.582	10027
754.693	7958
754.804	8080
754.914	7081
755.025	7546
755.135	7887
755.246	7470
755.356	7738
755.466	7866
755.577	7813
755.687	9098
755.798	7285
755.908	8017
756.018	7059
756.129	7987
756.239	7833
756.349	7446
756.460	7821
756.570	7859
756.680	8707
756.790	10891
756.900	11200
757.011	7693
757.121	7217
757.231	6980
757.341	7695
757.451	7487
757.561	7196
757.671	7114
757.781	6487
757.891	9116
758.001	12318
758.111	8289
758.221	8156
758.331	12601
758.441	10226
758.551	19539
758.661	13347
758.771	9952
758.880	11229
758.990	12159
759.100	10484
759.210	10287
759.320	11040
759.429	9517
759.539	9849
759.649	9483
759.758	9529
759.868	10099
759.978	9019
760.087	11282
760.197	10389
760.307	9483
760.416	9059
760.526	9389
760.635	9425
760.745	9336
760.854	9160
760.964	9988
761.073	8529
761.182	9529
761.292	9693
761.401	18239
761.511	11173
761.620	10021
761.729	12144
761.839	14086
761.948	12093
762.057	13306
762.166	10943
762.276	9785
762.385	9765
762.494	9714
762.603	9183
762.712	11289
762.822	11122
762.931	10947
763.040	10055
763.149	9220
763.258	10166
763.367	11078
763.476	10274
763.585	10300
763.694	10734
763.803	12373
763.912	13671
764.021	10421
764.130	9884
764.238	10074
764.347	10635
764.456	9765
764.565	10058
764.674	9683
764.783	9482
764.891	8720
765.000	10953
765.109	10649
765.217	10845
765.326	17317
765.435	24801
765.543	11157
765.652	9150
765.761	10916
765.869	11709
765.978	13043
766.086	18453
766.195	25384
766.303	69670
766.412	232340
766.520	116218
766.629	20024
766.737	16979
766.846	13958
766.954	12661
767.062	14331
767.171	15326
767.279	14331
767.387	12745
767.496	13130
767.604	12462
767.712	12259
767.820	11847
767.928	13057
768.037	12618
768.145	14640
768.253	13625
768.361	11670
768.469	11912
768.577	12260
768.685	13410
768.793	12332
768.901	12225
769.009	12013
769.117	11688
769.225	12147
769.333	14578
769.441	14889
769.549	16819
769.657	28361
769.765	86641
769.873	147997
769.981	27976
770.088	13771
770.196	11818
770.304	11836
770.412	13444
770.519	14794
770.627	13347
770.735	14785
770.842	13545
770.950	12978
771.058	12731
771.165	12225
771.273	12378
771.380	13510
771.488	12933
771.595	13381
771.703	12194
771.810	12570
771.918	12419
772.025	12814
772.133	11667
772.240	12233
772.348	12820
772.455	13569
772.562	11700
772.670	11943
772.777	11926
772.884	11277
772.991	12678
773.099	11290
773.206	10764
773.313	12764
773.420	10875
773.528	10377
773.635	10695
773.742	12118
773.849	12013
773.956	10360
774.063	10985
774.170	10554
774.277	13667
774.384	12047
774.491	12806
774.598	13033
774.705	13961
774.812	17311
774.919	14498
775.026	15606
775.133	12974
775.239	13548
775.346	12940
775.453	12229
775.560	12022
775.667	13365
775.773	12440
775.880	13444
775.987	13560
776.093	12534
776.200	12435
776.307	11410
776.413	12004
776.520	12338
776.627	12620
776.733	13601
776.840	11865
776.946	14351
777.053	13691
777.159	16848
777.266	12250
777.372	16302
777.478	14726
777.585	13099
777.691	10905
777.798	11910
777.904	13853
778.010	19920
778.117	16942
778.223	13647
778.329	14166
778.435	11377
778.542	12838
778.648	11457
778.754	11051
778.860	12674
778.966	14883
779.072	13350
779.178	12856
779.284	11400
779.391	10721
779.497	10026
779.603	11456
779.708	10610
779.815	11351
779.920	11826
780.026	12146
780.132	10447
780.238	10367
780.344	11170
780.450	10661
780.556	9889
780.661	10637
780.767	11276
780.873	9552
780.979	10904
781.085	12301
781.190	10309
781.296	9269
781.402	10104
781.507	7951
781.613	9866
781.719	10102
781.824	8771
781.930	10451
782.035	10580
782.141	10246
782.246	10281
782.352	8825
782.457	9063
782.563	9598
782.668	9631
782.773	11485
782.879	11279
782.984	11604
783.090	14598
783.195	21792
783.300	14740
783.405	13714
783.511	13916
783.616	11166
783.721	12524
783.826	10491
783.932	12084
784.037	11491
784.142	12499
784.247	11734
784.352	10389
784.457	9528
784.562	9739
784.667	9412
784.772	9986
784.877	9768
784.982	9733
785.087	9249
785.192	12072
785.297	10016
785.402	9070
785.507	9002
785.611	9245
785.716	11351
785.821	9745
785.926	8047
786.031	8783
786.135	9966
786.240	9347
786.345	8000
786.450	8885
786.554	7961
786.659	8433
786.763	7070
786.868	9784
786.973	9668
787.077	7571
787.182	8494
787.286	9164
787.391	7442
787.495	7601
787.600	7410
787.704	7978
787.809	8483
787.913	7312
788.017	8254
788.122	8270
788.226	6601
788.330	7015
788.435	7940
788.539	8027
788.643	6976
788.747	7218
788.852	7605
788.956	6694
789.060	7326
789.164	6922
789.268	5898
789.372	7162
789.476	7097
789.580	6923
789.684	6958
789.788	6888
789.892	7521
789.996	10355
790.100	8347
790.204	8713
790.308	11491
790.412	10270
790.516	8504
790.620	9780
790.724	9275
790.828	8365
790.931	9476
791.035	9405
791.139	6881
791.242	6579
791.346	8937
791.450	7410
791.554	7157
791.657	6867
791.761	8208
791.864	7810
791.968	7091
792.072	7676
792.175	8263
792.279	8192
792.382	7798
792.486	9541
792.589	12147
792.693	11354
792.796	6582
792.899	7164
793.003	7366
793.106	5436
793.209	6543
793.313	8227
793.416	4409
793.519	9192
793.623	13869
793.726	19980
793.829	9421
793.932	7401
794.035	6661
794.138	8172
794.242	9185
794.345	16307
794.448	14590
794.551	18232
794.654	13975
794.757	10715
794.860	21418
794.963	14687
795.066	6044
795.169	6762
795.272	5075
795.375	6153
795.477	5310
795.580	6512
795.683	4202
795.786	5442
795.889	5909
795.991	8988
796.094	15406
796.197	12605
796.300	8002
796.402	4716
796.505	5469
796.608	5453
796.710	6085
796.813	5590
796.915	5393
797.018	6208
797.120	4853
797.223	4627
797.326	6330
797.428	5311
797.530	7053
797.633	8896
797.735	15219
797.838	42642
797.940	25946
798.042	5059
798.145	5814
798.247	6227
798.349	3425
798.452	5725
798.554	5239
798.656	5173
798.758	6095
798.860	4724
798.962	4680
799.065	5656
799.167	4539
799.269	7466
799.371	8084
799.473	9697
799.575	18199
799.677	23049
799.779	12021
799.881	16417
799.983	9085
800.085	5890
800.187	5319
800.289	6925
800.390	7379
800.492	4706
800.594	5295
800.696	4426
800.798	5075
800.899	4841
801.001	3853
801.103	4348
801.205	4058
801.306	4682
801.408	3834
801.509	4497
801.611	4949
801.713	4377
801.814	4066
801.916	4530
802.017	4011
802.119	4861
802.220	5177
802.322	6348
802.423	20687
802.525	12895
802.626	5550
802.727	5094
802.829	5767
802.930	3536
803.031	6018
803.133	3291
803.234	3878
803.335	4542
803.436	3328
803.538	4366
803.639	2789
803.740	4894
803.841	3330
803.942	4032
804.043	4348
804.144	3842
804.245	3481
804.346	3594
804.447	4256
804.548	9480
804.649	9799
804.750	4813
804.851	2957
804.952	3738
805.053	3111
805.154	2673
805.255	3943
805.355	3917
805.456	2569
805.557	2859
805.658	2590
805.758	4917
805.859	2984
805.960	3109
806.061	3243
806.161	3488
806.262	3561
806.362	5261
806.463	4782
806.564	5439
806.664	6501
806.765	15766
806.865	12006
806.966	5578
807.066	2312
807.166	3876
807.267	3701
807.367	2691
807.468	3822
807.568	2253
807.668	3637
807.769	4143
807.869	2872
807.969	3707
808.069	2882
808.170	3116
808.270	3717
808.370	5379
808.470	9165
808.570	6525
808.670	2285
808.770	3067
808.870	2383
808.970	3235
809.070	1824
809.170	2178
809.271	3277
809.370	2565
809.470	3478
809.570	1614
809.670	2233
809.770	3255
809.870	3129
809.970	3862
810.070	2720
810.169	3183
810.269	1184
810.369	3699
810.469	2443
810.568	2488
810.668	2468
810.768	2341
810.867	2695
810.967	1993
811.066	2805
811.166	2911
811.265	2876
811.365	1734
811.464	1699
811.564	2992
811.663	2727
811.763	868
811.862	1751
811.962	2254
812.061	1852
812.160	1134
812.260	1830
812.359	3155
812.458	1049
812.557	3170
812.657	1447
812.756	3609
812.855	2762
812.954	2859
813.053	3892
813.153	4090
813.252	2071
813.351	2799
813.450	1706
813.549	1568
813.648	2675
813.747	1521
813.846	1488
813.945	1470
814.044	1960
814.143	2526
814.242	2513
814.341	1628
814.439	2099
814.538	2264
814.637	1988
814.736	2007
814.835	1775
814.933	2117
815.032	2417
815.131	1759
815.229	1666
815.328	1967
815.427	1973
815.525	3494
815.624	2769
815.722	2336
815.821	2331
815.919	2986
816.018	1837
816.116	3116
816.215	2056
816.313	3031
816.412	2170
816.510	2167
816.609	3124
816.707	3402
816.805	2277
816.904	1995
817.002	2978
817.100	2774
817.198	2865
817.296	2119
817.395	2032
817.493	3895
817.591	2609
817.689	3363
817.787	3229
817.885	4484
817.983	5732
818.081	12386
818.179	24748
818.277	60388
818.375	39343
818.473	10359
818.571	5345
818.669	5140
818.767	4376
818.865	3415
818.963	4019
819.061	6188
819.158	10001
819.256	22730
819.354	55439
819.452	118392
819.549	55657
819.647	13061
819.745	5761
819.842	6090
819.940	4639
820.038	2512
820.135	2116
820.233	4574
820.330	2333
820.428	2607
820.525	2864
820.623	3824
820.720	3026
820.818	3174
820.915	1982
821.012	3019
821.110	1110
821.207	3385
821.304	2237
821.402	2540
821.499	3058
821.596	4754
821.693	3844
821.791	4993
821.888	7920
821.985	20554
822.082	13551
822.179	5052
822.276	2333
822.373	2880
822.470	2536
822.567	2480
822.664	2021
822.761	3238
822.858	1360
822.955	2885
823.052	2093
823.149	2884
823.246	2385
823.343	2322
823.440	2035
823.536	1541
823.633	1922
823.730	1914
823.827	2407
823.923	1446
824.020	3565
824.117	2957
824.213	1617
824.310	2099
824.407	1682
824.503	2172
824.600	2275
824.696	2356
824.793	2882
824.889	1815
824.986	1869
825.082	2215
825.179	1566
825.275	1893
825.371	1219
825.468	2778
825.564	408
825.660	2943
825.757	1475
825.853	2678
825.949	1555
826.045	1705
826.142	1536
826.238	2797
826.334	1906
826.430	545
826.526	2024
826.622	2124
826.718	3337
826.814	2599
826.910	2953
827.006	1765
827.102	1794
827.198	1880
827.294	1870
827.390	2795
827.486	1961
827.582	1025
827.678	750
827.774	2779
827.869	518
827.965	2405
828.061	835
828.157	2435
828.252	2101
828.348	541
828.444	2494
828.539	982
828.635	1824
828.731	3091
828.826	1141
828.922	2262
829.017	1964
829.113	2991
829.208	1972
829.304	2436
829.399	3238
829.495	1902
829.590	3130
829.685	2064
829.781	1708
829.876	1989
829.971	1094
830.066	1606
830.162	1849
830.257	1932
830.352	1161
830.447	3565
830.543	5036
830.638	4608
830.733	3944
830.828	1536
830.923	3374
831.018	3771
831.113	5426
831.208	4999
831.303	3479
831.398	2211
831.493	1884
831.588	2129
831.683	731
831.778	1419
831.873	2467
831.967	3090
832.062	663
832.157	1203
832.252	2903
832.346	2507
832.441	4592
832.536	6105
832.631	16955
832.725	11612
832.820	2084
832.914	2299
833.009	2331
833.104	4468
833.198	5971
833.293	2808
833.387	4425
833.482	3062
833.576	1420
833.670	2011
833.765	1763
833.859	2890
833.954	3111
834.048	2184
834.142	1979
834.237	2145
834.331	1464
834.425	3007
834.519	1982
834.613	2385
834.708	1739
834.802	2129
834.896	1558
834.990	1963
835.084	1788
835.178	2501
835.272	3805
835.366	2822
835.460	2064
835.554	1528
835.648	1521
835.742	2079
835.836	2618
835.930	1949
836.024	4063
836.117	6048
836.211	7102
836.305	14677
836.399	21081
836.493	4085
836.586	3552
836.680	932
836.774	1671
836.867	3902
836.961	688
837.055	1103
837.148	2216
837.242	2786
837.335	2049
837.429	3605
837.522	5138
837.616	10886
837.709	25682
837.803	17672
837.896	5063
837.989	6769
838.083	15573
838.176	38707
838.269	31248
838.363	5619
838.456	3774
838.549	7276
838.642	11014
838.735	20728
838.829	8711
838.922	3451
839.015	2555
839.108	1039
839.201	1857
839.294	3543
839.387	4429
839.480	7172
839.573	13337
839.666	19232
839.759	4146
839.852	1651
839.945	1926
840.038	1608
840.131	2566
840.223	1909
840.316	3200
840.409	2097
840.502	940
840.594	2563
840.687	1508
840.780	3289
840.873	3168
840.965	7038
841.058	12944
841.150	33405
841.243	21423
841.336	5129
841.428	3021
841.521	3688
841.613	7129
841.706	6792
841.798	3263
841.890	2579
841.983	1761
842.075	3847
842.167	3998
842.260	5746
842.352	12113
842.444	19458
842.537	39556
842.629	50780
842.721	9084
842.813	2958
842.905	2698
842.997	5451
843.090	7450
843.182	15754
843.274	37142
843.366	80976
843.458	152943
843.550	87958
843.642	13995
843.734	8022
843.826	14000
843.918	9179
844.009	3758
844.101	2919
844.193	3526
844.285	3990
844.377	2187
844.469	4067
844.560	3401
844.652	3534
844.744	2771
844.835	3211
844.927	6001
845.019	10380
845.110	6015
845.202	3779
845.293	1842
845.385	943
845.476	1916
845.568	3161
845.659	3536
845.751	3610
845.842	1905
845.934	1639
846.025	2049
846.116	2764
846.208	2470
846.299	2819
846.390	3271
846.482	4540
846.573	7466
846.664	12618
846.755	17799
846.846	13101
846.937	2308
847.029	2300
847.120	2073
847.211	2455
847.302	2825
847.393	1887
847.484	1978
847.575	2034
847.666	1712
847.757	2495
847.847	2165
847.938	2970
848.029	1646
848.120	1900
848.211	2254
848.302	1839
848.392	1112
848.483	2283
848.574	1466
848.664	1824
848.755	1166
848.846	1308
848.936	1527
849.027	2162
849.118	1823
849.208	2564
849.299	4316
849.389	6435
849.480	10938
849.570	19638
849.661	32354
849.751	48098
849.841	15512
849.932	3375
850.022	2394
850.112	3018
850.203	1175
850.293	888
850.383	1709
850.474	2588
850.564	1690
850.654	2573
850.744	1414
850.834	1909
850.924	1412
851.014	2525
851.104	2606
851.194	3016
851.284	4621
851.374	6311
851.464	4723
851.554	5577
851.644	8940
851.734	16951
851.824	10203
851.914	2774
852.004	2377
852.094	525
852.183	1537
852.273	2473
852.363	1600
852.452	2550
852.542	2569
852.632	2461
852.721	2945
852.811	2690
852.901	2036
852.990	1988
853.080	1944
853.169	1773
853.259	2755
853.348	3198
853.438	2290
853.527	5337
853.617	6536
853.706	11933
853.795	23347
853.885	52735
853.974	92805
854.063	175765
854.152	253628
854.242	81329
854.331	13908
854.420	6920
854.509	6125
854.598	7412
854.687	9318
854.777	9020
854.866	3482
854.955	3330
855.044	2263
855.133	2192
855.222	2162
855.311	1603
855.400	2594
855.488	2145
855.577	1793
855.666	2778
855.755	2405
855.844	2334
855.933	1083
856.021	1897
856.110	2388
856.199	2223
856.288	1636
856.376	1701
856.465	1175
856.554	2089
856.642	1669
856.731	2146
856.819	2655
856.908	2385
856.996	1178
857.085	1785
857.173	1237
857.262	1753
857.350	1845
857.438	1934
857.527	2377
857.615	2289
857.703	2175
857.792	2200
857.880	786
857.968	1273
858.056	1743
858.145	2243
858.233	1578
858.321	1728
858.409	2211
858.497	1506
858.585	1181
858.673	1198
858.761	985
858.849	1137
858.937	1331
859.025	2101
859.113	2253
859.201	1540
859.289	2283
859.377	1460
859.465	2015
859.552	2637
859.640	2274
859.728	4056
859.816	1258
859.903	2147
859.991	1698
860.079	1916
860.166	1742
860.254	1706
860.342	1733
860.429	1103
860.517	1212
860.604	2108
860.692	1074
860.779	1391
860.867	1814
860.954	1549
861.042	3421
861.129	3170
861.216	1205
861.304	574
861.391	1840
861.478	1555
861.565	2247
861.653	2896
861.740	2066
861.827	2200
861.914	1509
862.001	1097
862.089	1938
862.176	2289
862.263	1114
862.350	1222
862.437	955
862.524	1502
862.611	1294
862.698	1796
862.785	1781
862.871	2162
862.958	1345
863.045	1567
863.132	1243
863.219	1178
863.306	307
863.392	2611
863.479	1792
863.566	1897
863.652	1344
863.739	1314
863.826	1296
863.912	612
863.999	1943
864.086	2401
864.172	2102
864.259	545
864.345	1041
864.432	1807
864.518	1867
864.604	1614
864.691	1200
864.777	1955
864.863	1836
864.950	2381
865.036	1578
865.122	2848
865.209	2181
865.295	2823
865.381	2487
865.467	3525
865.553	4788
865.639	6905
865.726	11668
865.812	24159
865.898	47746
865.984	70384
866.070	138477
866.156	131801
866.242	29507
866.328	7278
866.414	3409
866.499	3554
866.585	3546
866.671	3443
866.757	2559
866.843	2606
866.928	2396
867.014	2619
867.100	3645
867.186	4730
867.271	6836
867.357	11507
867.442	15966
867.528	6505
867.614	2074
867.699	2680
867.785	2934
867.870	3855
867.956	4917
868.041	5302
868.127	6476
868.212	9728
868.297	4457
868.383	3660
868.468	5649
868.553	9023
868.639	11468
868.724	23147
868.809	18530
868.894	4793
868.979	2192
869.065	4441
869.150	3872
869.235	2187
869.320	749
869.405	1638
869.490	860
869.575	1747
869.660	1704
869.745	2264
869.830	964
869.915	1315
870.000	1278
870.085	1288
870.169	1696
870.254	1331
870.339	692
870.424	841
870.509	1317
870.593	2029
870.678	690
870.763	2296
870.847	1206
870.932	1692
871.016	1140
871.101	1378
871.186	1179
871.270	1875
871.355	758
871.439	2259
871.523	1013
871.608	1401
871.692	404
871.777	2576
871.861	2215
871.945	315
872.030	824
872.114	1300
872.198	729
872.282	1182
872.367	983
872.451	488
872.535	884
872.619	952
872.703	496
872.787	1575
872.871	547
872.955	545
873.039	1212
873.123	808
873.207	2209
873.291	2607
873.375	2707
873.459	1256
873.543	660
873.627	1556
873.711	1097
873.794	998
873.878	1405
873.962	1546
874.045	727
874.129	1151
874.137	1088
874.213	454
874.245	807
874.296	1380
874.352	783
874.380	491
874.460	1385
874.464	1420
874.547	880
874.568	865
874.631	803
874.676	829
874.714	869
874.784	1120
874.798	1164
874.881	1852
874.892	1711
874.965	766
874.999	797
875.048	826
875.107	1686
875.131	2042
875.215	1369
875.215	1369
875.298	1490
875.323	1352
875.381	1029
875.430	1598
875.465	2028
875.538	1973
875.548	1950
875.631	1115
875.646	971
875.714	298
875.753	581
875.798	969
875.861	812
875.881	722
875.964	1278
875.968	1275
876.047	1480
876.076	1754
876.130	2078
876.183	1884
876.213	1862
876.291	2794
876.296	2843
876.379	2022
876.398	2046
876.462	2318
876.506	2660
876.545	2840
876.613	2091
876.628	1948
876.711	868
876.721	877
876.794	960
876.828	1122
876.877	1358
876.935	2070
876.960	2409
877.043	2005
877.043	2007
877.125	2310
877.150	2485
877.208	2876
877.258	2471
877.291	2226
877.365	2156
877.374	2141
877.456	2099
877.472	2098
877.539	2113
877.579	2410
877.622	2687
877.687	2762
877.704	2801
877.787	3079
877.794	2994
877.869	2098
877.901	2164
877.952	2139
878.008	1435
878.034	1177
878.115	1821
878.117	1834
878.199	1197
878.222	1211
878.282	1153
878.329	1183
878.364	1250
878.437	1181
878.447	1167
878.529	583
878.544	629
878.611	759
878.651	908
878.694	1283
878.758	1145
878.776	1013
878.858	1584
878.865	1578
878.941	1490
878.972	1408
879.023	1620
879.078	1854
879.105	1836
879.185	2500
879.187	2514
879.269	2526
879.292	2100
879.351	818
879.399	702
879.433	826
879.506	1327
879.516	1385
879.598	864
879.613	837
879.680	698
879.720	1157
879.762	1555
879.827	713
879.844	488
879.926	1227
879.933	1225
880.007	1194
880.040	1233
880.089	1643
880.147	1904
880.171	1816
880.253	3232
880.254	3236
880.335	4198
880.360	4400
880.417	5401
880.467	8555
880.499	10701
880.574	12338
880.580	12147
880.662	4034
880.680	3152
880.744	1771
880.787	1376
880.825	998
880.893	675
880.907	708
880.989	1051
881.000	967
881.070	496
881.106	658
881.152	679
881.213	622
881.233	614
881.315	315
881.319	334
881.396	1192
881.426	1245
881.478	1042
881.532	1093
881.559	1104
881.639	503
881.641	495
881.722	1078
881.745	1074
881.803	1274
881.852	1610
881.885	1678
881.958	1989
881.966	2048
882.047	2492
882.064	2566
882.129	3040
882.171	3836
882.210	4947
882.277	7006
882.291	7050
882.372	3284
882.383	2975
882.454	1222
882.489	804
882.535	594
882.596	562
882.616	704
882.697	1119
882.702	1123
882.778	1163
882.808	1358
882.859	1399
882.914	1293
882.940	1289
883.020	1292
883.021	1295
883.102	1106
883.127	1108
883.183	885
883.233	616
883.264	663
883.339	970
883.345	975
883.426	445
883.445	585
883.507	1372
883.551	1452
883.587	1345
883.657	1615
883.668	1684
883.749	1487
883.763	1492
883.830	1354
883.869	1186
883.910	955
883.975	900
883.991	907
884.072	1052
884.081	1000
884.152	977
884.187	1122
884.233	1173
884.292	1243
884.314	1356
884.394	1373
884.398	1390
884.475	1041
884.504	858
884.555	1123
884.610	1484
884.636	1337
884.716	796
884.716	801
884.797	1320
884.821	1442
884.877	947
884.927	484
884.958	556
885.033	1239
885.038	1262
885.118	1076
885.139	1022
885.199	1130
885.244	1312
885.279	1110
885.350	717
885.359	778
885.439	1343
885.456	1322
885.520	813
885.561	824
885.600	908
885.667	990
885.680	1034
885.760	1361
885.773	1373
885.840	1374
885.878	1435
885.920	1619
885.984	1772
886.000	1746
886.080	1491
886.089	1504
886.160	1791
886.195	1844
886.240	2098
886.300	2275
886.320	2153
886.400	1814
886.406	1802
886.480	2102
886.511	2208
886.560	2845
886.616	3192
886.640	2954
886.720	2438
886.722	2416
886.800	1448
886.827	1218
886.879	1716
886.932	2004
886.959	1866
887.038	1822
887.039	1822
887.119	1081
887.143	941
887.198	1467
887.248	1911
887.278	1963
887.354	1791
887.358	1781
887.437	1657
887.459	1632
887.517	2093
887.564	2425
887.596	2113
887.669	1321
887.676	1314
887.755	1171
887.774	1143
887.835	1512
887.880	1851
887.914	1758
887.985	1393
887.994	1414
888.073	1623
888.090	1656
888.153	1736
888.195	1796
888.232	1549
888.300	1021
888.311	1152
888.391	2122
888.405	2294
888.470	1661
888.510	1207
888.549	1449
888.615	1982
888.628	1958
888.708	1673
888.720	1631
888.787	1905
888.825	2015
888.866	1919
888.930	1808
888.945	1831
889.024	1945
889.035	1958
889.103	2050
889.140	2069
889.182	1942
889.245	1757
889.261	1795
889.340	1966
889.349	1984
889.419	1422
889.454	1125
889.498	1080
889.559	1028
889.577	1175
889.656	1823
889.664	1888
889.735	1650
889.768	1534
889.814	1786
889.873	2117
889.978	1759
890.083	1866
890.187	1510
890.292	1810
890.397	847
890.501	2168
890.606	994
890.710	2762
890.815	2305
890.919	1177
891.024	2085
891.128	2307
891.233	2021
891.337	2343
891.442	1651
891.546	1942
891.650	1169
891.755	1259
891.859	2608
891.963	3043
892.068	1933
892.172	1840
892.276	1243
892.380	2005
892.484	2009
892.589	1891
892.693	1697
892.797	1844
892.901	1434
893.005	1615
893.109	1439
893.213	1671
893.317	1257
893.421	1438
893.525	1132
893.629	1482
893.733	1806
893.837	2083
893.941	1014
894.045	2350
894.148	1084
894.252	1984
894.356	1302
894.460	2210
894.564	1168
894.667	1444
894.771	969
894.875	1670
894.978	1694
895.082	1063
895.186	1685
895.289	1384
895.393	1797
895.496	1531
895.600	820
895.703	1813
895.807	1529
895.910	2077
896.014	1140
896.117	1193
896.221	1730
896.324	1658
896.427	1051
896.531	1252
896.634	2100
896.737	2496
896.840	1088
896.944	1332
897.047	1655
897.150	958
897.253	1508
897.356	814
897.460	959
897.563	1976
897.666	1302
897.769	1990
897.872	930
897.975	1112
898.078	930
898.181	1569
898.284	1223
898.387	2410
898.490	2095
898.593	2160
898.695	1712
898.798	2798
898.901	1916
899.004	2575
899.107	1096
899.209	1272
899.312	1639
899.415	2582
899.518	1278
899.620	1793
899.723	2011
899.826	3802
899.928	5258
900.031	973
900.133	1286
900.236	652
900.338	486
900.441	2019
900.543	2251
900.646	2180
900.748	1086
900.851	1923
900.953	1906
901.055	2085
901.158	1458
901.260	1261
901.362	1230
901.465	1486
901.567	1108
901.669	1754
901.771	1298
901.873	1264
901.976	475
902.078	2018
902.180	1705
902.282	1770
902.384	1636
902.486	2750
902.588	1419
902.690	2907
902.792	2149
902.894	1682
902.996	1047
903.098	1924
903.200	358
903.302	1763
903.404	1109
903.505	1401
903.607	1265
903.709	2188
903.811	925
903.913	1584
904.014	1258
904.116	1462
904.218	351
904.319	1878
904.421	1939
904.523	1697
904.624	1440
904.726	1913
904.827	1503
904.929	1019
905.030	941
905.132	1645
905.233	1318
905.335	1845
905.436	1284
905.537	1468
905.639	1385
905.740	1531
905.841	638
905.943	1097
906.044	840
906.145	1073
906.247	468
906.348	1665
906.449	1617
906.550	1636
906.651	1713
906.752	1722
906.854	932
906.955	1622
907.056	634
907.157	2509
907.258	1804
907.359	866
907.460	1697
907.561	1038
907.662	1361
907.762	1504
907.863	786
907.964	2233
908.065	1156
908.166	736
908.267	893
908.367	1027
908.468	1633
908.569	1847
908.670	2168
908.770	2886
908.871	3190
908.971	3861
909.072	3318
909.173	1395
909.273	1472
909.374	1279
909.474	1428
909.575	1224
909.675	1228
909.776	1460
909.876	733
909.977	773
910.077	1868
910.177	1202
910.278	1606
910.378	1436
910.478	1026
910.579	1809
910.679	1071
910.779	1554
910.879	1535
910.980	821
911.080	301
911.180	939
911.280	60
911.380	1585
911.480	769
911.580	1497
911.680	1009
911.780	1920
911.880	2135
911.980	1924
912.080	193
912.180	1553
912.280	1472
912.380	1191
912.480	967
912.580	904
912.679	870
912.779	1169
912.879	829
912.979	1194
913.078	934
913.178	1716
913.278	1091
913.377	1006
913.477	1067
913.577	1784
913.676	1802
913.776	759
913.875	388
913.975	1149
914.074	720
914.174	1431
914.273	849
914.373	1786
914.472	1530
914.572	784
914.671	1302
914.770	578
914.870	613
914.969	796
915.068	-137
915.167	670
915.267	575
915.366	1251
915.465	1045
915.564	1702
915.663	971
915.763	481
915.862	1706
915.961	1292
916.060	974
916.159	951
916.258	497
916.357	795
916.456	1532
916.555	1232
916.654	1595
916.752	1851
916.851	938
916.950	1064
917.049	689
917.148	944
917.247	1049
917.345	1547
917.444	1017
917.543	1342
917.642	1143
917.740	1125
917.839	558
917.937	482
918.036	1546
918.135	675
918.233	327
918.332	1411
918.430	889
918.529	383
918.627	945
918.726	763
918.824	614
918.923	1509
919.021	636
919.119	679
919.218	656
919.316	1998
919.414	1017
919.512	1860
919.611	811
919.709	957
919.807	1494
919.905	1046
920.003	1258
920.102	961
920.200	469
920.298	999
920.396	1149
920.494	1047
920.592	982
920.690	742
920.788	1146
920.886	1882
920.984	1661
921.082	1468
921.180	1701
921.277	1463
921.375	1463
921.473	2346
921.571	1576
921.669	928
921.766	1511
921.864	1816
921.962	1914
922.060	1687
922.157	1407
922.255	1113
922.352	1609
922.450	1655
922.548	574
922.645	1430
922.743	1941
922.840	2367
922.938	2867
923.035	2382
923.133	2145
923.230	2920
923.327	3771
923.425	2880
923.522	2875
923.619	2393
923.717	2029
923.814	2545
923.911	2801
924.008	2832
924.106	2456
924.203	2512
924.300	1629
924.397	2435
924.494	3006
924.591	3608
924.688	2291
924.786	2785
924.883	2442
924.979	2411
925.077	2819
925.173	2757
925.270	2672
925.367	2613
925.464	2785
925.561	3227
925.658	3253
925.755	2732
925.852	3059
925.948	3044
926.045	2792
926.142	2387
926.239	2617
926.335	2389
926.432	2123
926.529	2467
926.625	1542
926.722	2353
926.818	2230
926.915	2529
927.011	1720
927.108	1640
927.204	2168
927.301	1765
927.397	1885
927.494	2686
927.590	746
927.687	2291
927.783	2122
927.879	1679
927.976	1908
928.072	2193
928.168	1818
928.264	1934
928.361	2125
928.457	2691
928.553	1776
928.649	2364
928.745	1505
928.841	1174
928.937	1407
929.033	1751
929.129	1199
929.225	1704
929.321	727
929.417	2097
929.513	1203
929.609	1650
929.705	1235
929.801	1978
929.897	1664
929.993	1327
930.089	1595
930.184	1613
930.280	2135
930.376	2190
930.471	1448
930.567	1989
930.663	2050
930.758	1341
930.854	1472
930.950	2072
931.045	1511
931.141	2186
931.236	2441
931.332	1841
931.427	1260
931.523	1626
931.618	1825
931.714	1497
931.809	1876
931.905	1923
932.000	1268
932.095	1118
932.191	1315
932.286	1531
932.381	1006
932.476	1301
932.572	849
932.667	1756
932.762	1356
932.857	1907
932.952	1079
933.047	1816
933.142	1314
933.237	1600
933.332	2095
933.427	2168
933.522	494
933.617	1447
933.712	732
933.807	1657
933.902	1174
933.997	2002
934.092	1083
934.187	1982
934.282	1504
934.376	1847
934.471	1098
934.566	1106
934.661	432
934.755	994
934.850	895
934.945	2218
935.039	1191
935.134	982
935.228	1281
935.323	1915
935.417	1285
935.512	930
935.606	1286
935.701	1716
935.795	1212
935.890	1319
935.984	1279
936.079	1070
936.173	796
936.267	1152
936.362	1266
936.456	1296
936.550	1306
936.644	1526
936.738	581
936.833	1656
936.927	1243
937.021	622
937.115	1155
937.209	327
937.303	2007
937.397	1536
937.491	2341
937.585	1141
937.679	791
937.773	1425
937.867	792
937.961	1339
938.055	1637
938.149	1220
938.243	651
938.337	989
938.430	622
938.524	1846
938.618	1806
938.712	1204
938.805	689
938.899	1224
938.993	1057
939.086	1503
939.180	1235
939.274	2028
939.367	873
939.461	1001
939.554	358
939.648	1314
939.741	1773
939.835	1254
939.928	901
940.022	866
940.115	1216
940.208	642
940.302	1638
940.395	1460
940.488	394
940.582	961
940.675	795
940.768	484
940.861	543
940.954	1378
941.048	535
941.141	1160
941.234	1587
941.327	2041
941.420	2528
941.513	1850
941.606	766
941.699	1371
941.792	1304
941.885	862
941.978	527
942.071	503
942.164	-180
942.257	895
942.349	636
942.442	1554
942.535	168
942.628	1067
942.721	885
942.813	954
942.906	1634
942.999	1739
943.091	861
943.184	865
943.277	1159
943.369	858
943.462	1364
943.554	905
943.647	219
943.739	1757
943.832	1062
943.924	-26
944.017	860
944.109	453
944.201	616
944.294	1210
944.386	1149
944.478	420
944.571	999
944.663	809
944.755	839
944.847	714
944.940	727
945.032	80
945.124	405
945.216	1289
945.308	324
945.400	1093
945.492	517
945.584	896
945.676	1205
945.768	1337
945.860	1327
945.952	1175
946.044	1343
946.136	1475
946.228	966
946.320	318
946.412	994
946.503	1158
946.595	909
946.687	704
946.779	-7
946.870	1257
946.962	750
947.054	661
947.145	1251
947.237	912
947.329	1324
947.420	802
947.512	-212
947.603	10
947.695	792
947.786	636
947.878	-65
947.969	1666
948.061	-60
948.152	12
948.243	367
948.335	1191
948.426	441
948.517	564
948.609	1079
948.700	490
948.791	403
948.882	852
948.973	742
949.065	704
949.156	12
949.247	60
949.338	-61
949.429	-929
949.520	598
949.611	670
949.702	1308
949.793	552
949.884	471
949.975	242
950.066	154
950.157	425
950.247	473
950.338	-341
950.429	1071
950.520	1375
950.611	2134
950.701	1189
950.792	1631
950.883	1581
950.973	572
951.064	1223
951.155	1192
951.245	738
951.336	109
951.427	719
951.517	1570
951.608	819
951.698	119
951.788	322
951.879	205
951.969	296
952.060	736
952.150	678
952.240	1353
952.331	-817
952.421	1228
952.511	482
952.602	861
952.692	-66
952.782	326
952.872	1181
952.962	287
953.052	222
953.143	-327
953.233	1074
953.323	740
953.413	-211
953.503	648
953.593	482
953.683	932
953.773	-1090
953.863	276
953.953	245
954.042	582
954.132	181
954.222	1023
954.312	721
954.402	1418
954.492	3043
954.581	5392
954.671	1458
954.761	-182
954.850	1648
954.940	-403
955.030	434
955.119	-112
955.209	553
955.298	-262
955.388	-28
955.477	786
955.567	-284
955.656	363
955.746	532
955.835	-136
955.925	199
956.014	842
956.103	717
956.193	538
956.282	267
956.371	129
956.461	638
956.550	-135
956.639	614
956.728	-845
956.817	620
956.906	539
956.995	2040
957.085	364
957.174	568
957.263	-154
957.352	560
957.441	497
957.530	-44
957.619	563
957.708	1232
957.796	-60
957.885	62
957.974	978
958.063	61
958.152	183
958.241	-231
958.329	-374
958.418	-588
958.507	-78
958.596	831
958.684	11
958.773	671
958.861	207
958.950	575
959.039	598
959.127	37
959.216	328
959.304	300
959.393	-773
959.481	296
959.570	51
959.658	809
959.746	838
959.835	3695
959.923	6944
960.011	2639
960.100	425
960.188	611
960.276	-49
960.365	615
960.453	-21
960.541	-601
960.629	247
960.717	-329
960.805	-42
960.893	-244
960.981	-727
961.069	544
961.158	-327
961.245	884
961.333	-212
961.421	420
961.509	-415
961.597	-238
961.685	-34
961.773	-914
961.861	-303
961.949	-227
962.036	-396
962.124	461
962.212	-232
962.299	62
962.387	490
962.475	-54
962.562	-332
962.650	544
962.738	877
962.825	621
962.913	8
963.000	-140
963.088	-715
963.175	1367
963.263	688
963.350	679
963.438	1573
963.525	2986
963.612	6388
963.700	19175
963.787	35563
963.874	14269
963.962	1264
964.049	750
964.136	265
964.223	-970
964.310	403
964.398	1126
964.485	-30
964.572	2928
964.659	6081
964.746	4771
964.833	812
964.920	1009
965.007	568
965.094	737
965.181	540
965.268	206
965.355	386
965.441	-202
965.528	-811
965.615	1318
965.702	339
965.789	79
965.875	-535
965.962	301
966.049	-16
966.136	848
966.222	175
966.309	185
966.395	68
966.482	629
966.569	99
966.655	105
966.742	-1276
966.828	540
966.915	-449
967.001	287
967.087	675
967.174	814
967.260	1847
967.347	4544
967.433	13885
967.519	22762
967.605	6453
967.692	610
967.778	-615
967.864	-158
967.950	-407
968.036	235
968.123	-812
968.209	369
968.295	-566
968.381	1026
968.467	366
968.553	-881
968.639	1105
968.725	1111
968.811	4516
968.897	2677
968.983	-181
969.069	-201
969.154	988
969.240	311
969.326	-783
969.412	243
969.497	-185
969.583	-879
969.669	97
969.755	45
969.840	-431
969.926	1312
970.012	30
970.097	2030
970.183	1069
970.268	724
970.354	4055
970.439	7583
970.525	14391
970.610	3485
970.696	961
970.781	-316
970.866	-710
970.952	831
971.037	-61
971.122	-584
971.208	-214
971.293	755
971.378	-1282
971.463	316
971.549	298
971.634	182
971.719	718
971.804	1589
971.889	2353
971.974	-233
972.059	-103
972.144	-196
972.229	-495
972.314	308
972.399	-163
972.484	-142
972.569	1130
972.654	3157
972.739	7713
972.824	8246
972.908	1325
972.993	-48
973.078	33
973.163	-410
973.247	-166
973.332	-1310
973.417	883
973.501	-980
973.586	-1036
973.671	239
973.755	-381
973.840	1127
973.924	648
974.009	791
974.093	308
974.178	3181
974.262	5461
974.346	5777
974.431	326
974.515	-226
974.600	271
974.684	706
974.768	-102
974.852	-63
974.937	-1267
975.021	145
975.105	-42
975.189	179
975.273	-397
975.358	-90
975.442	-1194
975.526	-394
975.610	-1177
975.694	-561
975.778	645
975.862	-430
975.946	-1481
976.030	409
976.114	-1226
976.198	221
976.281	-103
976.365	543
976.449	-182
976.533	520
976.617	-938
976.700	-530
976.784	801
976.868	1119
976.951	3723
977.035	1714
977.119	548
977.202	-168
977.286	-549
977.369	151
977.453	-87
977.536	-211
977.620	-995
977.703	-149
977.787	-296
977.870	1052
977.953	370
978.037	-632
978.120	1942
978.203	3955
978.287	7797
978.370	3763
978.453	-277
978.536	990
978.620	2543
978.703	5133
978.786	1227
978.869	-659
978.952	-1989
979.035	1259
979.118	-209
979.201	-969
979.284	-643
979.367	-1016
979.450	-24
979.533	-840
979.616	-819
979.699	-367
979.782	-931
979.865	172
979.948	-760
980.030	-41
980.113	-619
980.196	-799
980.279	-554
980.361	-463
980.444	-976
980.526	322
980.609	-187
980.692	-644
980.774	32
980.857	-1296
980.939	378
981.022	-96
981.104	-792
981.187	-17
981.269	-577
981.352	-11
981.434	-581
981.516	-815
981.599	71
981.681	-263
981.763	-383
981.846	-1202
981.928	-485
982.010	-349
982.092	-781
982.174	192
982.256	-1007
982.339	-208
982.421	-416
982.503	462
982.585	-1366
982.667	-491
982.749	-368
982.831	342
982.913	-1462
982.995	209
983.077	-1219
983.158	1927
983.240	-742
983.322	-10
983.404	-38
983.486	-522
983.568	-192
983.649	-467
983.731	-208
983.813	-474
983.894	11
983.976	-163
984.058	-576
984.139	195
984.221	-1060
984.302	-165
984.384	-162
984.465	-729
984.547	-736
984.628	-706
984.710	-269
984.791	-693
984.872	-1235
984.954	-723
985.035	-959
985.116	-373
985.198	-323
985.279	630
985.360	-1564
985.441	-439
985.522	168
985.604	-862
985.685	-1480
985.766	543
985.847	-330
985.928	-712
986.009	-615
986.090	-313
986.171	147
986.252	-621
986.333	-779
986.414	-882
986.495	-280
986.576	-735
986.656	-689
986.737	-70
986.818	-770
986.899	-326
986.980	-834
987.060	55
987.141	-829
987.222	-132
987.302	-114
987.383	564
987.464	-547
987.544	-89
987.625	-1194
987.705	588
987.786	-448
987.866	-201
987.947	-637
988.027	-356
988.108	-768
988.188	245
988.268	-197
988.349	196
988.429	-541
988.509	-20
988.589	-779
988.670	-1663
988.750	518
988.830	-717
988.910	-311
988.990	192
989.070	-967
989.151	-119
989.231	-1179
989.311	419
989.391	-686
989.471	-639
989.551	-991
989.631	-625
989.711	-29
989.791	-1586
989.870	-721
989.950	602
990.030	21
990.110	-582
990.190	-1060
990.269	-281
990.349	-377
990.429	-234
990.509	-114
990.588	-1230
990.668	-570
990.747	-746
990.827	-392
990.907	-356
990.986	-847
991.066	-350
991.145	-79
991.225	-324
991.304	-752
991.383	-141
991.463	-804
991.542	15
991.622	-1236
991.701	-667
991.780	-1249
991.859	-299
991.939	-460
992.018	-82
992.097	-375
992.176	-766
992.256	-641
992.335	-1259
992.414	346
992.493	-1412
992.572	-374
992.651	728
992.730	-689
992.809	286
992.888	-1525
992.967	-709
993.046	324
993.125	-1274
993.203	-1358
993.282	-129
993.361	-715
993.440	-1151
993.519	-1498
993.597	-845
993.676	-1437
993.755	-389
993.834	-726
993.912	-1736
993.991	-201
994.069	-600
994.148	-988
994.226	-699
994.305	-421
994.384	-522
994.462	-455
994.540	-1522
994.619	-1807
994.697	-666
994.776	-1604
994.854	47
994.932	-947
995.011	397
995.089	-595
995.167	-53
995.245	-733
995.324	-1612
995.402	-390
995.480	-1507
995.558	-735
995.636	-1093
995.714	-1112
995.792	338
995.870	-914
995.948	-1318
996.026	-443
996.104	-1910
996.182	-502
996.260	-689
996.338	-687
996.416	-1149
996.494	-562
996.572	174
996.649	-1843
996.727	-603
996.805	-104
996.883	-1074
996.960	-984
997.038	-753
997.116	-1099
997.193	-1716
997.271	-521
997.348	-967
997.426	-811
997.504	-2313
997.581	-527
997.658	-478
997.736	-2177
997.813	-1658
997.891	-102
997.968	-788
998.046	-681
998.123	195
998.200	-1197
998.277	-663
998.355	-394
998.432	-2407
998.509	-832
998.586	-7
998.663	-609
998.741	-847
998.818	-733
998.895	-1704
998.972	-804
999.049	-1510
999.126	-1683
999.203	100
999.280	-1382
999.357	-1417
999.434	-1460
999.511	-711
999.587	-1018
999.664	-1119
999.741	-347
999.818	-647
999.895	-451
999.971	-586
1000.048	-1577
1000.125	232
1000.202	-393
1000.278	-49
1000.355	-752
1000.431	-1197
1000.508	-1408
1000.584	-1187
1000.661	-1179
1000.738	-1653
1000.814	-945
1000.890	-1392
1000.967	-1406
1001.043	-706
1001.120	-2334
1001.196	-455
1001.272	-1531
1001.349	-981
1001.425	-274
1001.501	-845
1001.577	-1582
1001.654	-985
1001.730	-1202
1001.806	-1031
1001.882	-1201
1001.958	-1400
1002.034	-556
1002.110	-562
1002.186	-855
1002.262	-1623
1002.338	-2252
1002.414	-495
1002.490	-74
1002.566	-1623
1002.642	-1673
1002.718	-289
1002.794	-1032
1002.870	-1179
1002.945	-1477
1003.021	-1483
1003.097	-1117
1003.173	-576
1003.248	-1365
1003.324	-1477
1003.400	-1761
1003.475	-1473
1003.551	-1008
1003.626	-1104
1003.702	-1651
1003.777	-1641
1003.853	-999
1003.928	-1175
1004.004	-1556
1004.079	-292
1004.155	-847
1004.230	-1349
1004.305	-266
1004.381	-1047
1004.456	-1785
1004.531	-752
1004.607	-1504
1004.682	-727
1004.757	-1032
1004.832	-841
1004.907	-1060
1004.982	-582
1005.057	-1999
1005.133	-760
1005.208	-2263
1005.283	-1903
1005.358	-90
1005.433	-1837
1005.508	-1389
1005.583	-1322
1005.657	-1297
1005.732	-483
1005.807	-1700
1005.882	-1531
1005.957	-1430
1006.032	-732
1006.106	-1782
1006.181	-1428
1006.256	-1401
1006.331	-2108
1006.405	-956
1006.480	-1127
1006.554	-2003
1006.629	-1682
1006.704	-1980
1006.778	-1306
1006.853	-1399
1006.927	-1418
1007.002	-1620
1007.076	-728
1007.150	-1672
1007.225	-1276
1007.299	-1642
1007.373	-2156
1007.448	-1664
1007.522	-1094
1007.596	-1903
1007.671	-1188
1007.745	-1315
1007.819	-2596
1007.893	-2167
1007.967	-1676
1008.041	-1620
1008.115	-1536
1008.190	-1813
1008.264	-356
1008.338	-1755
1008.412	-1957
1008.486	-1215
1008.560	-1446
1008.633	-1886
1008.707	-1337
1008.781	-408
1008.855	-1324
1008.929	-1796
1009.003	-2148
1009.076	-1648
1009.150	-2304
1009.224	-2005
1009.298	-1282
1009.371	-1673
1009.445	-1225
1009.519	-1649
1009.592	-1869
1009.666	-1716
1009.739	-719
1009.813	-2207
1009.886	-400
1009.960	-2601
1010.033	-1370
1010.107	-1451
1010.180	-979
1010.253	-1381
1010.327	-2192
1010.400	-1798
1010.473	-1468
1010.547	-725
1010.620	-2574
1010.693	-516
1010.766	-2172
1010.840	-1879
1010.913	-1588
1010.986	-2219
1011.059	-1958
1011.132	-1199
1011.205	-1448
1011.278	-1891
1011.351	-1424
1011.424	-1050
1011.497	-1634
1011.570	-1760
1011.643	-1131
1011.716	-2035
1011.789	-1306
1011.862	-1951
1011.934	-781
1012.007	-2419
1012.080	-1279
1012.153	-1543
1012.225	-814
1012.298	-1778
1012.371	-909
1012.443	-1363
1012.516	-2374
1012.588	-1551
1012.661	-1047
1012.733	-2791
1012.806	-647
1012.879	-1315
1012.951	-1619
1013.023	-2164
1013.096	-857
1013.168	-1580
1013.241	-801
1013.313	-2399
1013.385	-1694
1013.458	-2024
1013.530	-2180
1013.602	-1955
1013.674	-1130
1013.746	-2494
1013.819	-1559
1013.891	-1385
1013.963	-1784
1014.035	-1183
1014.107	-1562
1014.179	-1518
1014.251	-1124
1014.323	-2047
1014.395	-1564
1014.467	-1838
1014.539	-1520
1014.611	-1503
1014.683	-1298
1014.754	-1787
1014.826	-1877
1014.898	-1462
1014.970	-2734
1015.042	-897
1015.113	-797
1015.185	-1241
1015.257	-1868
1015.328	-1272
1015.400	-1918
1015.471	-1329
1015.543	-2898
1015.615	-2174
1015.686	-1891
1015.757	-1106
1015.829	-1659
1015.901	-1985
1015.972	-1152
1016.043	-2340
1016.115	-1209
1016.186	-1091
1016.257	-1578
1016.328	-1163
1016.400	-114
1016.471	-1522
1016.542	-1901
1016.613	-1578
1016.685	-1183
1016.756	-1931
1016.827	-1689
1016.898	-2123
1016.969	-1405
1017.040	-2373
1017.111	-2256
1017.182	-1856
1017.253	-440
1017.324	-1270
1017.395	-635
1017.466	-1202
1017.537	-1224
1017.608	-2067
1017.678	-1250
1017.749	-1719
1017.820	-1812
1017.891	-2334
1017.961	-1817
1018.032	-772
1018.103	-1640
1018.173	-1552
1018.244	-2483
1018.315	-1634
1018.385	-589
1018.456	-1844
1018.526	-1810
1018.597	-1922
1018.667	-1257
1018.738	-1615
1018.808	-1783
1018.878	-1010
1018.949	-1177
1019.019	-1470
1019.089	-1442
1019.160	-1280
1019.230	-2030
1019.300	-2111
1019.371	-1301
1019.441	-1226
1019.511	-1336
1019.581	-1504
1019.651	-1526
1019.721	-1643
1019.791	-1763
1019.861	-2166
1019.931	-1035
1020.001	-1567
1020.071	-1428
1020.141	-1641
1020.211	-1543
1020.281	-1783
1020.351	-1955
1020.421	-595
1020.491	-1284
1020.560	-1601
1020.630	-1444
1020.700	-1609
1020.770	-2362
1020.839	-2057
1020.909	-1047
1020.979	-1720
1021.048	-1555
1021.118	-1667
1021.187	-1182
1021.257	-1639
1021.326	-1045
1021.396	-1436
1021.465	-714
1021.535	-2016
1021.604	-2490
1021.674	-1252
1021.743	-1882
1021.812	-1981
1021.882	-1076
1021.951	-1344
1022.020	-1313
1022.089	-1080
1022.159	-1117
1022.228	-1459
1022.297	-2089
1022.366	-2035
1022.435	-1572
1022.504	-2536
1022.573	-2472
1022.642	-1414
1022.711	-820
1022.781	-1438
1022.849	-580
1022.918	-2414
1022.987	-1315
1023.056	-2349
1023.125	-1346
1023.194	-1700
1023.263	-972
1023.331	-1411
1023.400	-2204
1023.469	-1724
1023.538	-978
1023.606	-2282
1023.675	-1031
1023.744	-1842
1023.812	-1551
1023.881	-1182
1023.949	-1115
1024.018	-1869
1024.086	-1571
1024.155	-1360
1024.223	-1808
1024.292	-624
1024.360	-534
1024.429	-1584
1024.497	-1913
1024.565	-1411
1024.634	-1454
1024.702	-1533
1024.770	-1059
1024.838	-1719
1024.907	-602
1024.975	-1992
1025.043	-1645
1025.111	-2054
1025.179	-1255
1025.247	-1744
1025.315	-665
1025.383	-1359
1025.451	-1003
1025.519	-1934
1025.587	-2111
1025.655	-2383
1025.723	-867
1025.791	-603
1025.859	-1214
1025.927	-834
1025.995	-1575
1026.062	-1923
1026.130	-1886
1026.198	-2858
1026.266	-1612
1026.333	-1339
1026.401	-895
1026.469	-813
1026.536	-1044
1026.604	-1548
1026.671	-1615
1026.739	-1233
1026.806	-907
1026.874	-2078
1026.941	-1081
1027.009	-1537
1027.076	-2046
1027.144	-916
1027.211	-1857
1027.278	-2026
1027.345	-2083
1027.413	-1517
1027.480	-1722
1027.547	-2215
1027.614	-2202
1027.682	-159
1027.749	-1299
1027.816	-1697
1027.883	-1401
1027.950	-2215
1028.017	-2217
1028.084	-811
1028.151	-2432
1028.218	-1481
1028.285	-1611
1028.352	-1725
1028.419	-1686
1028.486	-1538
1028.553	-1472
1028.619	-1175
1028.686	-1938
1028.753	-1734
1028.820	-1679
1028.886	-2784
1028.953	-1540
1029.020	-2034
1029.086	-1779
1029.153	-2015
1029.220	-1402
1029.286	-1093
1029.353	-1350
1029.419	-2040
1029.486	-1102
1029.552	-1342
1029.619	-2145
1029.685	-1882
1029.751	-1362
1029.818	-983
1029.884	-1753
1029.951	-807
1030.017	-2057
1030.083	-1819
1030.149	-1648
1030.216	-1586
1030.282	-616
1030.348	-1836
1030.414	-1656
1030.480	-1833
1030.546	-1727
1030.612	-1415
1030.678	-1924
1030.744	-1714
1030.810	-977
1030.876	-1094
1030.942	-1171
1031.008	-1486
1031.074	-1289
1031.140	-1770
1031.206	-1244
1031.272	-2294
1031.337	-821
1031.403	-1173
1031.469	-1330
1031.534	-1860
1031.600	-1469
1031.666	-2117
1031.731	-2183
1031.797	-2530
1031.863	-2048
1031.928	-1743
1031.994	-1495
1032.059	-1061
1032.125	-1767
1032.190	-2043
1032.256	-1460
1032.321	-2210
1032.386	-1027
1032.452	-1527
1032.517	-1911
1032.582	-2003
1032.647	-1330
1032.713	-1871
1032.778	-1103
1032.843	-1445
1032.908	-2112
1032.974	-1777
1033.039	-1668
1033.104	-1369
1033.169	-1495
1033.234	-2195
1033.299	-879
1033.364	-1302
1033.429	-519
1033.494	-1509
1033.559	-1514
1033.624	-1716
1033.688	-1199
1033.753	-1973
1033.818	-1056
1033.883	-1049
1033.948	-1243
1034.013	-1402
1034.077	-1323
1034.142	-1120
1034.207	-770
1034.271	-177
1034.336	-67
1034.400	-310
1034.465	-625
1034.530	-1299
1034.594	-1364
1034.658	-1835
1034.723	-1960
1034.787	-1359
1034.852	-1154
1034.916	-1832
1034.981	-1860
1035.045	-1363
1035.109	-1776
1035.173	-1463
1035.238	-2496
1035.302	-1336
1035.366	-1754
1035.430	-1846
1035.495	-1300
1035.559	-1423
1035.623	-1500
1035.687	-2852
1035.751	-1151
1035.815	-1194
1035.879	-2266
1035.943	-2352
1036.007	-2016
1036.071	-1858
1036.135	-1131
1036.198	-1823
1036.262	-1937
1036.326	-874
1036.390	-1335
1036.454	-1723
1036.517	-1454
1036.581	-1365
1036.645	-881
1036.709	-1062
1036.772	-1575
1036.836	-1262
1036.900	-1156
1036.963	-2295
1037.026	-1108
1037.090	-2146
1037.154	-1680
1037.217	-1492
1037.280	-1294
1037.344	-1763
1037.407	-2308
1037.471	-1030
1037.534	-1265
1037.597	-1289
1037.661	-2111
1037.724	-1693
1037.787	-1844
1037.850	-1474
1037.913	-3108
1037.977	-1106
1038.040	-1040
1038.103	-1606
1038.166	-1924
1038.229	-1807
1038.292	-1546
1038.355	-1102
1038.418	-1632
1038.481	-1320
1038.544	-1303
1038.607	-1530
1038.670	-1832
1038.732	-1017
1038.795	-2096
1038.858	-2080
1038.921	-1292
1038.984	-1697
1039.046	-1605
1039.109	-2244
1039.172	-1969
1039.234	-2295
1039.297	-1739
1039.360	-618
1039.422	-1294
1039.485	-2032
1039.547	-1850
1039.610	-1273
1039.672	-2078
1039.734	-2292
1039.797	-1391
1039.859	-2390
1039.922	-1593
1039.984	-1912
1040.046	-1566
1040.109	-2782
1040.171	-1614
1040.233	-2698
1040.295	-2075
1040.358	-1491
1040.420	-1801
1040.482	-1562
1040.544	-1686
1040.606	-1734
1040.668	-1729
1040.730	-1811
1040.792	-1725
1040.854	-2473
1040.916	-1170
1040.978	-1657
1041.040	-1276
1041.102	-2174
1041.164	-2328
1041.225	-1116
1041.287	-1547
1041.349	-2651
1041.411	-1544
1041.472	-2569
1041.534	-1468
1041.596	-2232
1041.657	-711
1041.719	-1863
1041.781	-2407
1041.842	-1857
1041.904	-1079
1041.965	-1975
1042.027	-1889
1042.088	-1285
1042.150	-1235
1042.211	-1182
1042.272	-1211
1042.334	-1812
1042.395	-1883
1042.456	-1856
1042.518	-2205
1042.579	-2130
1042.640	-1767
1042.701	-2275
1042.763	-1954
1042.824	-2140
1042.885	-2041
1042.946	-1896
1043.007	-1742
1043.068	-1667
1043.129	-1781
1043.190	-1874
1043.251	-1016
1043.312	-2120
1043.373	-718
1043.434	-1742
1043.495	-1912
1043.556	-2525
1043.616	-1648
1043.677	-1889
1043.738	-1421
1043.799	-1837
1043.859	-1575
1043.920	-2143
1043.981	-2235
1044.041	-1664
1044.102	-1856
1044.162	-1793
1044.223	-1082
1044.284	-1812
1044.344	-1824
1044.405	-1640
1044.465	-1763
1044.525	-1864
1044.586	-1863
1044.646	-1913
1044.707	-1536
1044.767	-1560
1044.827	-1260
1044.887	-1311
1044.948	-1418
1045.008	-1801
1045.068	-1390
1045.128	-1279
1045.188	-1766
1045.249	-1148
1045.309	-1042
1045.369	-1443
1045.429	-1159
1045.489	-1744
1045.549	-1466
1045.609	-2862
1045.669	-1343
1045.729	-2320
1045.789	-2109
1045.848	-1412
1045.908	-1195
1045.968	-828
1046.028	-1310
1046.088	-1199
1046.147	-687
1046.207	-1455
1046.267	-1818
1046.326	-1307
1046.386	-2373
1046.446	-1409
1046.505	-945
1046.565	-824
1046.624	-389
1046.684	-1249
1046.743	-565
1046.803	-650
1046.862	-227
1046.922	0
