'Start Wavelength	183.907
'End Wavelength	1046.922
'Gate Delay	5.000
'Gate Width (ms)	1.050
'Laser Output Level	0.000
'X Position	0.000
'Y Position	0.000
'Z Position	0.000
'Grid Point Number	1.000
'Shot Number	100.000
183.907	946.000
183.977	-466.000
184.047	-90
184.116	-598
184.186	99
184.256	-571
184.325	-250
184.395	-897
184.465	1496
184.534	-357
184.604	-28
184.674	-100
184.743	-230
184.813	-363
184.883	491
184.952	-125
185.022	331
185.092	-391
185.161	43
185.231	-42
185.301	-542
185.370	-313
185.440	-686
185.509	122
185.579	-144
185.649	280
185.718	-317
185.788	45
185.857	-404
185.927	-66
185.996	-221
186.066	-661
186.136	-95
186.205	256
186.275	-119
186.344	379
186.414	755
186.483	-1377
186.553	216
186.622	224
186.692	246
186.761	83
186.831	-511
186.900	-452
186.970	204
187.039	-554
187.109	-415
187.178	248
187.248	119
187.317	-711
187.387	168
187.456	113
187.526	174
187.595	281
187.664	-1119
187.734	229
187.803	-62
187.873	-300
187.942	-367
188.012	160
188.081	-395
188.150	-21
188.220	-1119
188.289	-873
188.358	-477
188.428	430
188.497	481
188.567	-617
188.636	-695
188.705	152
188.775	-179
188.844	-1216
188.913	642
188.983	-80
189.052	-893
189.121	309
189.191	-618
189.260	151
189.329	-789
189.399	237
189.468	-552
189.537	-46
189.606	-397
189.676	-892
189.745	-297
189.814	-760
189.883	-538
189.953	-171
190.022	-946
190.091	856
190.161	1169
190.230	-313
190.299	-184
190.368	11
190.437	-174
190.507	-305
190.576	259
190.645	-715
190.714	-396
190.783	-706
190.853	-226
190.922	-329
190.991	-9
191.060	99
191.129	-420
191.198	-114
191.268	-7
191.337	-107
191.406	-320
191.475	-466
191.544	438
191.613	-1396
191.682	-260
191.752	-85
191.821	104
191.890	-576
191.959	-625
192.028	-143
192.097	-490
192.166	91
192.235	-561
192.304	193
192.373	-549
192.442	-155
192.511	-543
192.580	-455
192.650	-427
192.719	-709
192.788	200
192.857	109
192.926	-346
192.995	-1195
193.064	-111
193.133	176
193.202	-266
193.271	-431
193.340	-664
193.409	-102
193.478	-400
193.547	-833
193.615	-556
193.684	-484
193.753	-726
193.822	63
193.891	-376
193.960	-322
194.029	-474
194.098	-590
194.167	-492
194.236	-466
194.305	-305
194.374	-296
194.443	-235
194.512	-437
194.580	274
194.649	100
194.718	57
194.787	-496
194.856	-808
194.925	-824
194.994	-23
195.062	-621
195.131	-512
195.200	-78
195.269	-311
195.338	-483
195.407	-290
195.475	-1426
195.544	-243
195.613	-780
195.682	-110
195.751	-706
195.819	-367
195.888	-1028
195.957	355
196.026	-1072
196.094	-320
196.163	-861
196.232	-48
196.301	-576
196.369	-38
196.438	-669
196.507	945
196.576	-713
196.644	-176
196.713	-447
196.782	-268
196.850	-407
196.919	-678
196.988	-409
197.056	-818
197.125	-748
197.194	-540
197.262	175
197.331	-177
197.400	-528
197.468	-139
197.537	-963
197.606	126
197.674	432
197.743	1250
197.812	-726
197.880	523
197.949	-425
198.017	463
198.086	-543
198.155	-667
198.223	-708
198.292	573
198.360	-395
198.429	-1039
198.497	-599
198.566	-215
198.635	318
198.703	-129
198.772	605
198.840	-313
198.909	466
198.977	-822
199.046	276
199.114	368
199.183	-255
199.251	-221
199.320	-798
199.388	-197
199.457	-871
199.525	-651
199.594	-648
199.662	-862
199.731	-257
199.799	-66
199.867	-858
199.936	-109
200.004	-202
200.073	332
200.141	-15
200.210	-1300
200.278	-724
200.346	-241
200.415	-861
200.483	-621
200.552	-835
200.620	-670
200.688	-425
200.757	-537
200.825	38
200.893	-388
200.962	-814
201.030	-591
201.098	-365
201.167	45
201.235	-708
201.303	-360
201.372	-738
201.440	-866
201.508	-66
201.577	-264
201.645	-362
201.713	-882
201.781	-668
201.850	118
201.918	-511
201.986	-453
202.055	-360
202.123	-157
202.191	-212
202.259	224
202.327	-866
202.396	-1317
202.464	-545
202.532	-955
202.600	-365
202.669	-155
202.737	-431
202.805	-649
202.873	-457
202.941	36
203.009	-596
203.078	-924
203.146	-826
203.214	-72
203.282	-1716
203.350	-220
203.418	-951
203.487	-685
203.555	-1000
203.623	254
203.691	-869
203.759	-240
203.827	-431
203.895	-451
203.963	-381
204.031	-1545
204.099	-994
204.168	-350
204.236	6
204.304	-384
204.372	-1076
204.440	163
204.508	15
204.576	-707
204.644	-572
204.712	-882
204.780	-512
204.848	-1000
204.916	-977
204.984	-291
205.052	-186
205.120	-669
205.188	-398
205.256	-786
205.324	-619
205.392	-158
205.460	45
205.528	-36
205.596	-529
205.664	-529
205.732	-931
205.799	28
205.867	1036
205.935	-213
206.003	329
206.071	-433
206.139	-407
206.207	-437
206.275	-641
206.343	490
206.411	-105
206.478	-93
206.546	-526
206.614	-774
206.682	143
206.750	-630
206.818	180
206.885	-126
206.953	-1361
207.021	87
207.089	-225
207.157	-790
207.225	555
207.292	-999
207.360	-399
207.428	-56
207.496	-1203
207.563	-793
207.631	-236
207.699	-1028
207.767	-984
207.834	-693
207.902	-418
207.970	-678
208.038	-204
208.105	-507
208.173	-294
208.241	818
208.309	4
208.376	-1053
208.444	479
208.512	-133
208.579	-783
208.647	-297
208.715	-88
208.782	-544
208.850	171
208.918	-653
208.985	-414
209.053	460
209.120	-190
209.188	-613
209.256	-397
209.323	-905
209.391	-756
209.459	730
209.526	-333
209.594	465
209.661	14
209.729	-44
209.796	201
209.864	-467
209.932	-1499
209.999	855
210.067	-526
210.134	122
210.202	-313
210.269	459
210.337	-192
210.404	-215
210.472	-572
210.539	115
210.607	-863
210.674	383
210.742	-403
210.809	631
210.877	-911
210.944	51
211.012	-1068
211.079	1289
211.146	-586
211.214	33
211.281	-246
211.349	67
211.416	667
211.484	2
211.551	-59
211.618	201
211.686	-468
211.753	-669
211.821	886
211.888	-200
211.955	-423
212.023	89
212.090	174
212.157	549
212.225	-464
212.292	716
212.359	1954
212.427	7082
212.494	2011
212.561	932
212.629	961
212.696	215
212.763	-557
212.831	31
212.898	1298
212.965	296
213.032	54
213.100	-98
213.167	-466
213.234	640
213.301	51
213.369	142
213.436	274
213.503	-319
213.570	12
213.638	-478
213.705	83
213.772	-620
213.839	81
213.906	32
213.973	485
214.041	-12
214.108	-149
214.175	-130
214.242	-451
214.309	-512
214.376	-347
214.444	-521
214.511	-405
214.578	78
214.645	364
214.712	-192
214.779	63
214.846	386
214.913	218
214.980	192
215.048	-52
215.115	526
215.182	-168
215.249	-526
215.316	-399
215.383	777
215.450	375
215.517	-515
215.584	479
215.651	-625
215.718	-287
215.785	261
215.852	135
215.919	772
215.986	-241
216.053	63
216.120	-327
216.187	-289
216.254	397
216.321	8
216.388	744
216.455	413
216.522	40
216.589	170
216.656	-18
216.722	-226
216.789	83
216.856	163
216.923	-631
216.990	832
217.057	-400
217.124	-200
217.191	422
217.258	-254
217.324	-8
217.391	351
217.458	-572
217.525	-96
217.592	-25
217.659	-882
217.725	1272
217.792	299
217.859	67
217.926	-522
217.993	542
218.059	910
218.126	535
218.193	320
218.260	-451
218.327	525
218.393	569
218.460	717
218.527	-287
218.594	343
218.660	44
218.727	430
218.794	-314
218.860	805
218.927	-244
218.994	396
219.061	-428
219.127	146
219.194	-386
219.261	254
219.327	-649
219.394	756
219.461	-1145
219.527	-147
219.594	449
219.661	244
219.727	-107
219.794	712
219.860	225
219.927	816
219.994	542
220.060	-224
220.127	697
220.193	-203
220.260	-27
220.326	791
220.393	164
220.460	388
220.526	359
220.593	-278
220.659	1002
220.726	588
220.792	2551
220.859	908
220.925	745
220.992	240
221.058	2385
221.125	4001
221.191	2756
221.258	629
221.324	689
221.391	251
221.457	74
221.524	707
221.590	353
221.657	4707
221.723	3547
221.789	2654
221.856	2819
221.922	1561
221.989	1274
222.055	222
222.121	-466
222.188	2625
222.254	273
222.321	418
222.387	237
222.453	651
222.520	15
222.586	32
222.652	386
222.719	324
222.785	1026
222.851	77
222.918	-373
222.984	378
223.050	544
223.116	-399
223.183	638
223.249	541
223.315	316
223.382	582
223.448	124
223.514	-79
223.580	415
223.647	-27
223.713	295
223.779	216
223.845	618
223.911	1184
223.978	135
224.044	645
224.110	941
224.176	643
224.242	710
224.309	-219
224.375	549
224.441	410
224.507	17
224.573	-924
224.639	934
224.705	-199
224.772	509
224.838	76
224.904	629
224.970	415
225.036	251
225.102	-343
225.168	206
225.234	375
225.300	57
225.366	369
225.432	557
225.499	-443
225.565	529
225.631	110
225.697	187
225.763	1632
225.829	924
225.895	1024
225.961	1202
226.027	1265
226.093	736
226.159	1384
226.225	1205
226.291	868
226.357	450
226.423	876
226.489	1121
226.554	854
226.620	1449
226.686	204
226.752	202
226.818	443
226.884	792
226.950	980
227.016	174
227.082	1657
227.148	992
227.214	741
227.279	-16
227.345	211
227.411	146
227.477	429
227.543	324
227.609	-272
227.674	536
227.740	592
227.806	694
227.872	845
227.938	643
228.003	1208
228.069	679
228.135	73
228.201	816
228.267	232
228.332	222
228.398	-492
228.464	477
228.530	1309
228.595	450
228.661	-195
228.727	-527
228.792	1313
228.858	-11
228.924	-61
228.990	2153
229.055	-216
229.121	819
229.187	-18
229.252	-590
229.318	397
229.384	85
229.449	-72
229.515	-1582
229.581	-992
229.646	1718
229.712	701
229.777	161
229.843	-220
229.909	919
229.974	1919
230.040	1520
230.105	2232
230.171	762
230.236	2435
230.302	3764
230.368	3192
230.433	30
230.499	1755
230.564	3108
230.630	833
230.695	762
230.761	2294
230.826	589
230.892	1636
230.957	195
231.023	137
231.088	970
231.154	911
231.219	1609
231.284	684
231.350	1052
231.415	402
231.481	1382
231.546	1033
231.612	427
231.677	629
231.742	-534
231.808	1998
231.873	327
231.939	-825
232.004	1578
232.069	1915
232.135	31
232.200	1092
232.265	822
232.331	1168
232.396	535
232.461	454
232.527	342
232.592	-164
232.657	782
232.723	678
232.788	1203
232.853	1217
232.918	-130
232.984	757
233.049	699
233.114	317
233.179	301
233.245	933
233.310	-212
233.375	-171
233.440	218
233.506	350
233.571	-36
233.636	790
233.701	809
233.766	109
233.832	341
233.897	170
233.962	-630
234.027	1681
234.092	-228
234.157	-124
234.222	99
234.288	381
234.353	660
234.418	1680
234.483	2144
234.548	1531
234.613	1058
234.678	1766
234.743	729
234.808	2364
234.873	-25
234.938	2070
235.004	951
235.069	1270
235.134	1151
235.199	2049
235.264	1753
235.329	17
235.394	1455
235.459	1784
235.524	-2
235.589	1552
235.654	1128
235.719	-171
235.784	1070
235.849	1665
235.913	197
235.978	989
236.043	1242
236.108	1400
236.173	-104
236.238	1350
236.303	699
236.368	65
236.433	923
236.498	631
236.563	759
236.627	1434
236.692	2685
236.757	1704
236.822	1276
236.887	1149
236.952	1973
237.017	659
237.081	2052
237.146	43
237.211	2006
237.276	1103
237.341	1346
237.405	575
237.470	451
237.535	1461
237.600	979
237.664	1362
237.729	-81
237.794	-23
237.859	1371
237.923	584
237.988	702
238.053	901
238.118	506
238.182	1375
238.247	2206
238.312	-162
238.376	1153
238.441	-1031
238.506	2479
238.570	-42
238.635	1757
238.700	707
238.764	459
238.829	1245
238.893	570
238.958	1791
239.023	340
239.087	817
239.152	1148
239.216	498
239.281	863
239.346	1195
239.410	519
239.475	550
239.539	910
239.604	-135
239.668	1393
239.733	686
239.797	62
239.862	231
239.926	383
239.991	1461
240.055	826
240.120	652
240.184	763
240.249	-46
240.313	893
240.378	834
240.442	559
240.507	211
240.571	713
240.635	826
240.700	-254
240.764	-49
240.829	613
240.893	-369
240.957	613
241.022	586
241.086	655
241.151	-1060
241.215	-469
241.279	702
241.344	-145
241.408	2165
241.472	1171
241.537	3061
241.601	2826
241.665	2034
241.730	1377
241.794	2641
241.858	1309
241.922	2530
241.987	1935
242.051	1375
242.115	787
242.179	1932
242.244	1321
242.308	1759
242.372	1500
242.436	1543
242.501	1168
242.565	967
242.629	1813
242.693	2347
242.757	807
242.822	1788
242.886	1715
242.950	1900
243.014	-187
243.078	999
243.142	1032
243.206	1075
243.271	1511
243.335	287
243.399	3476
243.463	7276
243.527	22883
243.591	7017
243.655	2270
243.719	998
243.783	2448
243.847	4104
243.911	4621
243.975	1535
244.040	-240
244.104	2247
244.168	834
244.232	15
244.296	2102
244.360	3911
244.424	-425
244.488	1508
244.552	1382
244.615	-452
244.679	914
244.743	-141
244.807	-193
244.871	941
244.935	1338
244.999	-515
245.063	230
245.127	859
245.191	3341
245.255	2616
245.319	1065
245.383	-485
245.446	1618
245.510	-566
245.574	983
245.638	1185
245.702	-835
245.766	239
245.829	1510
245.893	-376
245.957	529
246.021	1009
246.085	152
246.149	319
246.212	1311
246.276	635
246.340	571
246.404	1120
246.467	1191
246.531	-363
246.595	1942
246.659	2032
246.722	626
246.786	1274
246.850	1132
246.913	321
246.977	-656
247.041	487
247.104	-41
247.168	1036
247.232	345
247.295	371
247.359	310
247.423	103
247.486	284
247.550	768
247.614	374
247.677	-43
247.741	-186
247.804	913
247.868	1158
247.932	-976
247.995	568
248.059	-105
248.122	-783
248.186	1560
248.249	882
248.313	2021
248.376	1908
248.440	717
248.503	-586
248.567	1824
248.630	86
248.694	984
248.757	3092
248.821	3836
248.884	4025
248.948	2142
249.011	2355
249.075	3313
249.138	3652
249.202	2485
249.265	1535
249.328	3488
249.392	2185
249.455	3117
249.519	2241
249.582	1748
249.645	3153
249.709	1528
249.772	1996
249.835	1351
249.899	879
249.962	1736
250.025	1481
250.089	3172
250.152	2128
250.215	1830
250.279	1601
250.342	2306
250.405	2547
250.468	1234
250.532	3010
250.595	6088
250.658	23502
250.721	38704
250.785	11656
250.848	6804
250.911	3271
250.974	4827
251.038	3432
251.101	4185
251.164	2938
251.227	3736
251.290	4211
251.354	7770
251.417	32266
251.480	31595
251.543	23390
251.606	63157
251.669	46153
251.732	16142
251.795	10173
251.859	13243
251.922	35500
251.985	20669
252.048	7958
252.111	5046
252.174	2834
252.237	4254
252.300	5289
252.363	15031
252.426	42758
252.489	15106
252.552	5685
252.615	3716
252.678	4102
252.741	5936
252.804	16326
252.867	46300
252.930	17664
252.993	5961
253.056	4416
253.119	3078
253.182	3120
253.245	9698
253.308	4568
253.371	1896
253.434	1307
253.497	1206
253.559	941
253.622	418
253.685	-367
253.748	621
253.811	-32
253.874	1609
253.937	-370
254.000	1036
254.062	-420
254.125	-439
254.188	1106
254.251	758
254.314	-398
254.376	-89
254.439	494
254.502	28
254.565	-649
254.628	786
254.690	-94
254.753	-838
254.816	-363
254.878	-344
254.941	499
255.004	-33
255.067	-267
255.129	-128
255.192	-198
255.255	-858
255.317	-165
255.380	68
255.443	-515
255.505	-849
255.568	28
255.631	-176
255.693	119
255.756	-991
255.819	738
255.881	-1050
255.944	210
256.006	-978
256.069	-816
256.132	-205
256.194	-445
256.257	-436
256.319	311
256.382	-732
256.444	1127
256.507	1823
256.569	237
256.632	1025
256.694	571
256.757	1228
256.819	1917
256.882	1272
256.944	1794
257.007	1631
257.069	1356
257.132	659
257.194	1350
257.257	653
257.319	265
257.381	-340
257.444	1740
257.506	763
257.569	623
257.631	918
257.693	1018
257.756	1335
257.818	433
257.880	168
257.943	1359
258.005	-318
258.067	264
258.130	-51
258.192	734
258.254	405
258.317	800
258.379	1158
258.441	104
258.503	1357
258.566	41
258.628	1333
258.690	-738
258.753	1136
258.815	1661
258.877	936
258.939	685
259.001	2268
259.064	1715
259.126	954
259.188	1619
259.250	1684
259.312	434
259.375	657
259.437	442
259.499	1160
259.561	570
259.623	897
259.685	1033
259.747	1376
259.809	339
259.872	1529
259.934	2171
259.996	1499
260.058	519
260.120	307
260.182	816
260.244	716
260.306	27
260.368	1013
260.430	609
260.492	1155
260.554	1087
260.616	-571
260.678	324
260.740	-292
260.802	594
260.864	1354
260.926	-671
260.988	239
261.050	-167
261.112	882
261.174	1252
261.236	140
261.298	153
261.359	604
261.421	1060
261.483	238
261.545	751
261.607	-1013
261.669	1252
261.731	1141
261.793	281
261.854	276
261.916	48
261.978	400
262.040	37
262.102	383
262.164	-369
262.225	984
262.287	669
262.349	-517
262.411	-551
262.472	715
262.534	-625
262.596	343
262.658	-357
262.719	-744
262.781	564
262.843	-55
262.904	-633
262.966	1439
263.028	1224
263.090	8848
263.151	26854
263.213	6908
263.275	1227
263.336	-27
263.398	1335
263.459	-825
263.521	343
263.583	191
263.644	-540
263.706	-254
263.767	-1473
263.829	78
263.891	-306
263.952	-300
264.014	-462
264.075	-55
264.137	-831
264.198	-76
264.260	-1359
264.321	-89
264.383	-709
264.444	-1015
264.506	-969
264.567	-120
264.629	625
264.690	-1469
264.752	-1055
264.813	-80
264.875	-410
264.936	76
264.998	-943
265.059	77
265.120	12
265.182	-504
265.243	-420
265.305	-527
265.366	-220
265.427	-127
265.489	-155
265.550	-942
265.611	-708
265.673	-1030
265.734	-825
265.795	1098
265.857	-1140
265.918	-1317
265.979	212
266.040	-226
266.102	-15
266.163	-165
266.224	-127
266.286	-729
266.347	-1361
266.408	-373
266.469	-686
266.530	-661
266.592	-237
266.653	-485
266.714	-54
266.775	-711
266.836	-376
266.898	-392
266.959	-647
267.020	471
267.081	1211
267.142	500
267.203	196
267.264	-478
267.326	1158
267.387	200
267.448	-356
267.509	183
267.570	-593
267.631	-160
267.692	-958
267.753	228
267.814	-513
267.875	102
267.936	-308
267.997	-81
268.058	-101
268.119	-1126
268.180	-725
268.241	-448
268.302	-256
268.363	-657
268.424	109
268.485	159
268.546	-709
268.607	-51
268.668	-182
268.729	-210
268.790	200
268.851	-79
268.912	-803
268.972	-752
269.033	-897
269.094	-1021
269.155	-101
269.216	-478
269.277	-280
269.338	22
269.398	149
269.459	-164
269.520	602
269.581	-269
269.642	52
269.702	-506
269.763	-97
269.824	-43
269.885	-394
269.945	-230
270.006	425
270.067	-1129
270.128	655
270.188	1
270.249	-91
270.310	-924
270.370	386
270.431	-168
270.492	-391
270.553	7
270.613	55
270.674	-213
270.734	-1113
270.795	146
270.856	302
270.916	-1756
270.977	-324
271.038	-410
271.098	-378
271.159	-309
271.219	-898
271.280	315
271.340	-86
271.401	-621
271.462	137
271.522	130
271.583	-536
271.643	-511
271.704	-645
271.764	-95
271.825	-237
271.885	905
271.946	441
272.006	-174
272.066	326
272.127	345
272.187	-389
272.248	-633
272.308	-1376
272.369	360
272.429	-144
272.489	-553
272.550	-944
272.610	371
272.671	-185
272.731	-403
272.791	-216
272.852	-676
272.912	-235
272.972	-234
273.033	23
273.093	-57
273.153	184
273.214	-656
273.274	-226
273.334	-669
273.394	-635
273.455	-46
273.515	-873
273.575	-297
273.635	-381
273.696	-145
273.756	-679
273.816	-889
273.876	146
273.936	-515
273.997	-182
274.057	-1043
274.117	-867
274.177	-159
274.237	-1090
274.297	-174
274.358	-271
274.418	-180
274.478	-806
274.538	-819
274.598	-635
274.658	-627
274.718	-559
274.778	-40
274.838	-666
274.898	-1570
274.958	-653
275.018	-742
275.078	-68
275.138	-204
275.198	-571
275.258	-670
275.318	-1193
275.378	-1235
275.438	-1074
275.498	-467
275.558	-435
275.618	-351
275.678	-998
275.738	-76
275.798	-702
275.858	-754
275.918	-1557
275.978	-33
276.038	-58
276.098	-565
276.157	-669
276.217	-681
276.277	-345
276.337	-782
276.397	-1150
276.457	261
276.517	109
276.576	-960
276.636	-1627
276.696	-692
276.756	-576
276.815	-736
276.875	-814
276.935	-1321
276.995	-699
277.055	-473
277.114	-781
277.174	-1452
277.234	-255
277.293	-1037
277.353	-1828
277.413	-628
277.472	-772
277.532	-1249
277.592	6
277.651	-1119
277.711	-1141
277.771	-1318
277.830	-783
277.890	-858
277.950	-1400
278.009	-539
278.069	-80
278.128	47
278.188	-706
278.248	-805
278.307	-659
278.367	905
278.426	-742
278.486	-521
278.545	-48
278.605	-470
278.664	-586
278.724	-125
278.783	-513
278.843	-369
278.902	-464
278.962	-1575
279.021	-528
279.081	532
279.140	-718
279.199	-723
279.259	-1180
279.318	-124
279.378	-1154
279.437	23
279.496	503
279.556	8897
279.615	4102
279.675	845
279.734	-533
279.793	-330
279.853	823
279.912	-264
279.971	-441
280.031	-865
280.090	-327
280.149	-991
280.208	-613
280.268	3486
280.327	3497
280.386	-722
280.445	-105
280.505	-945
280.564	-580
280.623	-668
280.682	-517
280.742	-839
280.801	-1589
280.860	-1067
280.919	-585
280.978	-508
281.037	-1536
281.097	-670
281.156	-480
281.215	-1591
281.274	-407
281.333	-522
281.392	-1175
281.451	-392
281.510	-82
281.569	-489
281.628	-866
281.688	-509
281.747	-731
281.806	-32
281.865	-522
281.924	-993
281.983	-1084
282.042	-715
282.101	-791
282.160	-824
282.219	-1810
282.278	-553
282.337	-1489
282.396	-507
282.454	-1160
282.513	-691
282.572	-197
282.631	-886
282.690	-800
282.749	-765
282.808	-1030
282.867	-916
282.926	-700
282.985	-147
283.043	-1058
283.102	-672
283.161	-941
283.220	-28
283.279	-670
283.338	-705
283.396	-1702
283.455	-42
283.514	-429
283.573	-1222
283.631	-99
283.690	-605
283.749	-943
283.808	-940
283.866	-204
283.925	-1314
283.984	-713
284.043	-168
284.101	-984
284.160	-1406
284.219	-901
284.277	627
284.336	-1152
284.395	-742
284.453	-970
284.512	-720
284.570	-634
284.629	-672
284.688	-1366
284.746	-878
284.805	-1102
284.863	-178
284.922	-655
284.981	-1298
285.039	-885
285.098	-361
285.156	-273
285.215	7469
285.273	5083
285.332	130
285.390	-782
285.449	-913
285.507	-1299
285.566	-217
285.624	-1066
285.683	-607
285.741	-1527
285.799	-1338
285.858	-1408
285.916	-608
285.975	-1298
286.033	-634
286.091	-922
286.150	-902
286.208	-1047
286.267	-1042
286.325	-1037
286.383	-732
286.442	-1275
286.500	-940
286.558	-698
286.616	-1471
286.675	-189
286.733	-1654
286.791	-747
286.850	-159
286.908	-1105
286.966	-1258
287.024	-1510
287.083	-1514
287.141	-757
287.199	313
287.257	-612
287.315	-826
287.374	-496
287.432	-706
287.490	-551
287.548	-716
287.606	-515
287.664	155
287.723	-419
287.781	353
287.839	32
287.897	-4
287.955	2217
288.013	3700
288.071	12754
288.129	47480
288.187	114193
288.245	52075
288.303	16903
288.361	9349
288.419	5853
288.477	4097
288.535	2204
288.593	1377
288.651	-171
288.709	574
288.767	-367
288.825	-1204
288.883	-607
288.941	-110
288.999	-1031
289.057	-690
289.115	-1129
289.173	-211
289.231	-598
289.289	-646
289.346	-1384
289.404	-703
289.462	-1249
289.520	-855
289.578	-1449
289.636	-990
289.694	-1470
289.751	-694
289.809	-837
289.867	-920
289.925	-944
289.983	-338
290.040	-816
290.098	-1293
290.156	-1463
290.214	-621
290.271	-1139
290.329	-267
290.387	-783
290.444	-1198
290.502	-1612
290.560	-895
290.617	-753
290.675	-915
290.733	-1479
290.790	-1375
290.848	-1078
290.906	-513
290.963	-1091
291.021	-1055
291.078	-1497
291.136	-1204
291.194	-1268
291.251	-1015
291.309	-1174
291.366	-1303
291.424	-1441
291.481	-1609
291.539	-896
291.596	-768
291.654	-1308
291.711	-725
291.769	-1203
291.826	-850
291.884	-829
291.941	-1297
291.999	-1234
292.056	-960
292.114	-1815
292.171	-1776
292.228	-1908
292.286	-875
292.343	-1204
292.401	-1013
292.458	-1371
292.515	-852
292.573	-1558
292.630	-869
292.687	-1036
292.745	-1303
292.802	-1387
292.859	-1369
292.917	-717
292.974	-877
293.031	-1483
293.089	-1216
293.146	-920
293.203	-1438
293.260	-1872
293.318	-1967
293.375	-902
293.432	-1434
293.489	-828
293.546	-1166
293.604	-1324
293.661	-1565
293.718	-748
293.775	-1440
293.832	-1549
293.889	-970
293.947	-1322
294.004	-1325
294.061	-1662
294.118	-1525
294.175	-678
294.232	-968
294.289	-1016
294.346	-1241
294.403	-1053
294.460	-825
294.517	-1042
294.574	-1479
294.631	-1798
294.688	-1144
294.745	-1223
294.802	-786
294.859	-1648
294.916	-1685
294.973	-1522
295.030	-1238
295.087	-1930
295.144	-1810
295.201	-848
295.258	-1030
295.315	-1868
295.372	-817
295.429	-1895
295.486	-1730
295.542	-1155
295.599	-1495
295.656	-1269
295.713	-1467
295.770	-1751
295.827	-1754
295.883	-1113
295.940	-1236
295.997	-1402
296.054	-1134
296.111	-1726
296.167	-948
296.224	-1140
296.281	-1622
296.338	-1567
296.394	-1428
296.451	-1826
296.508	-1002
296.564	-1132
296.621	-905
296.678	-501
296.734	-880
296.791	-1780
296.848	-390
296.904	-1223
296.961	-1208
297.018	-340
297.074	253
297.131	-704
297.187	-1425
297.244	-1130
297.301	-1401
297.357	-956
297.414	-1324
297.470	-1576
297.527	-1366
297.583	-1603
297.640	-706
297.696	-1466
297.753	-759
297.809	-1670
297.866	-1397
297.922	-1527
297.979	-1876
298.035	-1621
298.092	-919
298.148	-1323
298.204	-1206
298.261	-1970
298.317	-742
298.374	-398
298.430	-1405
298.486	-939
298.543	-1463
298.599	-885
298.656	-800
298.712	1269
298.768	11922
298.824	10773
298.881	910
298.937	-142
298.993	-828
299.050	-1116
299.106	-907
299.162	-1344
299.218	-1278
299.275	-1000
299.331	-2094
299.387	-1629
299.443	-757
299.500	-903
299.556	-1993
299.612	-1300
299.668	-1113
299.724	-1487
299.780	-1355
299.837	-1996
299.893	-1425
299.949	-1404
300.005	-1391
300.061	-1451
300.117	-1279
300.173	-1478
300.229	-1677
300.285	-1120
300.341	-725
300.397	-1356
300.453	-2104
300.510	-765
300.566	-1108
300.622	-1589
300.678	-1637
300.734	-1493
300.790	-1346
300.845	-1477
300.901	-1248
300.957	-1420
301.013	-1167
301.069	-1521
301.125	-1250
301.181	-1489
301.237	-1487
301.293	-1228
301.349	-1053
301.405	-1547
301.461	-1416
301.516	-1765
301.572	-1649
301.628	-1527
301.684	-1672
301.740	-1762
301.796	-652
301.851	-1683
301.907	-2130
301.963	-1713
302.019	-1935
302.074	88
302.130	1137
302.186	-958
302.242	-692
302.297	-1303
302.353	-1416
302.409	-896
302.464	-1340
302.520	-576
302.576	-816
302.631	-742
302.687	-668
302.743	-1786
302.798	-992
302.854	-1881
302.910	-1109
302.965	-1639
303.021	-1495
303.076	-1209
303.132	-1480
303.187	-1673
303.243	-1464
303.299	-1290
303.354	-1700
303.410	-1395
303.465	-1796
303.521	-1952
303.576	-1038
303.632	-1754
303.687	-1211
303.743	-1330
303.798	-1138
303.853	-904
303.909	-1556
303.964	-1800
304.020	-1630
304.075	-1441
304.130	-1435
304.186	-1719
304.241	-706
304.297	-1344
304.352	-1401
304.358	-1419
304.407	-1567
304.449	-1060
304.463	-885
304.518	-1453
304.539	-1612
304.573	-1884
304.629	-1075
304.630	-1082
304.684	-1469
304.720	-1416
304.739	-1382
304.794	-715
304.811	-853
304.850	-1186
304.902	-997
304.905	-984
304.960	-1180
304.992	-1240
305.015	-1289
305.071	-768
305.083	-920
305.126	-1505
305.173	-1229
305.181	-1173
305.236	-1286
305.264	-1068
305.292	-867
305.347	-997
305.354	-972
305.402	-778
305.445	-1524
305.457	-1735
305.512	-1876
305.535	-1659
305.567	-1373
305.622	-1323
305.626	-1314
305.678	-1145
305.716	-1351
305.733	-1447
305.788	-902
305.807	-869
305.843	-764
305.897	-644
305.898	-642
305.953	-915
305.988	-629
306.008	-471
306.063	-564
306.078	-688
306.118	-935
306.168	-920
306.173	-920
306.228	-583
306.259	-471
306.283	-416
306.338	-1522
306.349	-1334
306.393	-634
306.440	-1143
306.448	-1203
306.503	-655
306.530	-724
306.558	-854
306.613	-1251
306.620	-1194
306.668	-796
306.711	-863
306.723	-897
306.778	-1269
306.801	-1151
306.833	-870
306.888	-515
306.892	-523
306.943	-705
306.982	-626
306.997	-580
307.052	-733
307.072	-607
307.107	-441
307.162	-931
307.163	-933
307.217	-763
307.253	-698
307.272	-703
307.327	-564
307.343	-592
307.381	-602
307.434	-909
307.436	-914
307.491	-285
307.524	-61
307.546	-14
307.600	-574
307.614	-626
307.655	-869
307.704	-857
307.710	-805
307.765	-471
307.795	-551
307.819	-762
307.874	-834
307.885	-830
307.929	-546
307.975	-425
307.984	-455
308.038	-614
308.065	-596
308.093	-321
308.148	-23
308.156	136
308.202	750
308.246	489
308.257	362
308.312	-289
308.336	-374
308.366	-222
308.421	-383
308.426	-380
308.475	-394
308.517	-377
308.530	-440
308.585	-881
308.607	-936
308.639	-673
308.694	-497
308.697	-467
308.748	26
308.787	-57
308.803	-214
308.857	-608
308.877	-647
308.912	-411
308.967	-1
308.967	0
309.021	36
309.058	-104
309.076	-70
309.130	94
309.148	161
309.185	854
309.238	2540
309.239	2552
309.293	2125
309.328	1549
309.348	1185
309.402	175
309.418	14
309.457	-67
309.508	-634
309.511	-621
309.566	93
309.598	472
309.620	457
309.674	151
309.688	132
309.729	185
309.778	-111
309.783	-135
309.837	-34
309.868	-165
309.892	-232
309.946	-131
309.959	-121
310.001	-30
310.049	-34
310.055	-24
310.109	-246
310.139	-115
310.163	-76
310.218	60
310.229	17
310.272	223
310.319	430
310.326	349
310.381	-354
310.409	-628
310.435	-749
310.489	-866
310.499	-935
310.543	-520
310.589	26
310.598	22
310.652	46
310.679	-63
310.706	8
310.760	181
310.769	216
310.814	323
310.859	481
310.868	453
310.923	20
310.948	-121
310.977	78
311.031	372
311.038	421
311.085	370
311.128	193
311.139	127
311.193	-77
311.218	-243
311.247	-11
311.301	496
311.308	553
311.356	375
311.398	113
311.410	121
311.464	227
311.488	274
311.518	378
311.572	509
311.578	525
311.626	365
311.668	165
311.680	138
311.734	-3
311.758	-37
311.788	-33
311.842	-125
311.847	-131
311.896	16
311.937	143
311.950	207
312.004	475
312.027	586
312.058	512
312.112	377
312.117	361
312.165	421
312.207	466
312.297	183
312.386	515
312.476	479
312.566	344
312.656	-89
312.745	258
312.835	508
312.925	-89
313.015	386
313.104	543
313.194	122
313.284	236
313.374	-130
313.463	646
313.553	-375
313.643	152
313.732	189
313.822	417
313.912	13
314.001	488
314.091	1024
314.180	-494
314.270	-500
314.360	296
314.449	-141
314.539	-637
314.628	152
314.718	233
314.808	-254
314.897	768
314.987	146
315.076	187
315.166	-295
315.255	666
315.345	141
315.434	-116
315.524	75
315.613	-372
315.703	95
315.792	-296
315.881	-69
315.971	23
316.060	951
316.150	-99
316.239	590
316.328	314
316.418	227
316.507	261
316.597	600
316.686	-240
316.775	43
316.865	-254
316.954	-225
317.043	303
317.133	-397
317.222	-216
317.311	482
317.400	-1161
317.490	1475
317.579	37
317.668	-317
317.757	-103
317.847	-183
317.936	268
318.025	173
318.114	-162
318.203	-61
318.293	-197
318.382	-16
318.471	-435
318.560	-32
318.649	37
318.738	-166
318.828	-480
318.917	29
319.006	196
319.095	-85
319.184	269
319.273	165
319.362	272
319.451	-41
319.540	-687
319.629	-596
319.718	212
319.807	-568
319.896	-289
319.985	862
320.074	-73
320.163	87
320.252	-134
320.341	228
320.430	-430
320.519	129
320.608	-503
320.697	431
320.786	-292
320.875	-162
320.964	202
321.053	-309
321.142	254
321.230	-25
321.319	-285
321.408	152
321.497	40
321.586	326
321.675	-317
321.764	-355
321.852	-65
321.941	138
322.030	-155
322.119	256
322.207	-256
322.296	863
322.385	435
322.474	-267
322.562	-107
322.651	313
322.740	-9
322.829	151
322.917	-583
323.006	-301
323.095	10
323.183	-751
323.272	-382
323.361	-256
323.449	535
323.538	-249
323.626	29
323.715	411
323.804	-627
323.892	289
323.981	-32
324.069	307
324.158	126
324.246	624
324.335	-63
324.424	-405
324.512	338
324.601	10
324.689	824
324.778	122
324.866	248
324.954	-92
325.043	223
325.131	-1342
325.220	3
325.308	546
325.397	-184
325.485	259
325.574	-171
325.662	-58
325.750	-256
325.839	-24
325.927	-755
326.015	614
326.104	-487
326.192	58
326.280	-162
326.369	-189
326.457	-484
326.545	-287
326.634	-395
326.722	-114
326.810	-310
326.898	-32
326.987	-385
327.075	-1006
327.163	69
327.251	465
327.340	-214
327.428	308
327.516	15
327.604	238
327.692	-313
327.781	15
327.869	-573
327.957	-400
328.045	-475
328.133	785
328.221	-574
328.309	-50
328.397	164
328.485	533
328.574	8
328.662	204
328.750	-209
328.838	-761
328.926	413
329.014	170
329.102	-697
329.190	-12
329.278	-526
329.366	-591
329.454	-302
329.542	-222
329.630	-741
329.718	-362
329.806	-649
329.893	-31
329.981	-864
330.069	-302
330.157	-84
330.245	-391
330.333	411
330.421	-431
330.509	60
330.597	152
330.684	-158
330.772	35
330.860	-95
330.948	-325
331.036	94
331.123	401
331.211	-700
331.299	-58
331.387	508
331.475	-316
331.562	-198
331.650	-112
331.738	-151
331.825	-364
331.913	-736
332.001	297
332.089	-773
332.176	-851
332.264	-313
332.352	-23
332.439	-217
332.527	-603
332.614	-97
332.702	533
332.790	-825
332.877	-51
332.965	57
333.052	-428
333.140	-677
333.228	-698
333.315	-481
333.403	-324
333.490	-318
333.578	-644
333.665	-85
333.753	-16
333.840	-700
333.928	-390
334.015	77
334.103	-129
334.190	-474
334.278	-384
334.365	-450
334.452	120
334.540	-882
334.627	-1174
334.715	-136
334.802	-646
334.889	768
334.977	-411
335.064	-390
335.151	-351
335.239	-179
335.326	-433
335.413	-616
335.501	299
335.588	-935
335.675	-238
335.762	-942
335.850	-169
335.937	-723
336.024	-205
336.111	306
336.199	223
336.286	-737
336.373	62
336.460	-320
336.547	-838
336.635	-756
336.722	-390
336.809	-816
336.896	-501
336.983	-276
337.070	315
337.157	-426
337.245	13
337.332	-319
337.419	-334
337.506	-486
337.593	-78
337.680	-429
337.767	-994
337.854	-773
337.941	-285
338.028	-767
338.115	-976
338.202	310
338.289	-200
338.376	417
338.463	-289
338.550	-738
338.637	-462
338.724	-976
338.811	259
338.898	-290
338.984	-647
339.071	-1081
339.158	-121
339.245	-114
339.332	40
339.419	-79
339.506	889
339.593	-789
339.679	-350
339.766	-653
339.853	-584
339.940	-355
340.027	-739
340.113	-107
340.200	-369
340.287	-781
340.374	-167
340.460	-572
340.547	-1111
340.634	-173
340.720	285
340.807	-336
340.894	-111
340.980	-156
341.067	-803
341.154	-545
341.240	-849
341.327	-290
341.414	-193
341.500	-515
341.587	439
341.674	30
341.760	-895
341.847	-729
341.933	-286
342.020	-1189
342.106	30
342.193	-746
342.279	-334
342.366	-909
342.452	-112
342.539	-402
342.625	-1185
342.712	-379
342.798	-488
342.885	-947
342.971	-733
343.058	-898
343.144	-749
343.230	-203
343.317	-390
343.403	-856
343.490	-717
343.576	-423
343.662	-572
343.749	-918
343.835	-206
343.921	-714
344.008	-287
344.094	48
344.180	-281
344.267	-1193
344.353	-312
344.439	-218
344.525	-1158
344.612	227
344.698	-1056
344.784	-1592
344.870	-212
344.957	-1336
345.043	224
345.129	-1432
345.215	-538
345.301	-525
345.387	-1162
345.474	-917
345.560	-1172
345.646	-1325
345.732	-181
345.818	-876
345.904	-713
345.990	-754
346.076	-719
346.162	-1320
346.249	314
346.335	-525
346.421	255
346.507	-1001
346.593	-818
346.679	-1730
346.765	291
346.851	-498
346.937	-1610
347.023	52
347.108	134
347.194	-1349
347.280	-884
347.366	-879
347.452	-779
347.538	-1405
347.624	158
347.710	-406
347.796	-686
347.882	-605
347.967	-837
348.053	-1483
348.139	-798
348.225	-1134
348.311	-1261
348.397	-1111
348.482	-295
348.568	-421
348.654	-1012
348.740	-1492
348.825	-2324
348.911	667
348.997	-164
349.083	-577
349.168	-906
349.254	-1217
349.340	-364
349.425	-1375
349.511	-1009
349.597	-1503
349.682	-1039
349.768	201
349.854	-1177
349.939	-217
350.025	-885
350.110	-1113
350.196	-850
350.282	-1649
350.367	-589
350.453	-468
350.538	-1153
350.624	-1291
350.709	-641
350.795	-759
350.880	-922
350.966	-73
351.051	-431
351.137	-329
351.222	-367
351.308	-909
351.393	-1400
351.479	-1707
351.564	-1444
351.649	-116
351.735	-584
351.820	-998
351.906	-842
351.991	-974
352.076	-1611
352.162	-980
352.247	-688
352.332	-1016
352.418	-1252
352.503	-1012
352.588	-919
352.673	-926
352.759	-889
352.844	-1502
352.929	-1008
353.014	-1449
353.100	-384
353.185	-1066
353.270	-1197
353.355	-356
353.441	129
353.526	-1000
353.611	-925
353.696	-688
353.781	-88
353.866	-1088
353.952	221
354.037	-1866
354.122	-442
354.207	-843
354.292	-986
354.377	-914
354.462	-1169
354.547	-1666
354.632	-897
354.717	-531
354.802	-1380
354.887	-1686
354.972	-622
355.057	-798
355.142	-972
355.227	-614
355.312	-643
355.397	-1123
355.482	-859
355.567	-1241
355.652	312
355.737	-969
355.822	-651
355.907	-2074
355.991	-58
356.076	-1426
356.161	-622
356.246	-1300
356.331	-810
356.416	-1558
356.501	605
356.585	-1126
356.670	-1394
356.755	235
356.840	-343
356.924	-622
357.009	-1330
357.094	-604
357.179	-1031
357.263	-1045
357.348	-215
357.433	-792
357.517	-1657
357.602	-1278
357.687	-1148
357.771	-730
357.856	-1067
357.941	-459
358.025	-566
358.110	722
358.195	734
358.279	-1216
358.364	-391
358.448	-708
358.533	32
358.617	-640
358.702	-97
358.787	-990
358.871	-1379
358.956	-849
359.040	-1353
359.125	-1377
359.209	-315
359.294	-879
359.378	-1108
359.462	-1303
359.547	-1018
359.631	-1889
359.716	-1833
359.800	-1401
359.885	-378
359.969	-1745
360.053	123
360.138	-1450
360.222	-917
360.306	-988
360.391	-1022
360.475	-737
360.559	-737
360.644	-684
360.728	-1531
360.812	-526
360.896	-475
360.981	-588
361.065	-1638
361.149	-774
361.233	-975
361.318	-1138
361.402	-1163
361.486	-243
361.570	-1500
361.654	-1277
361.739	-875
361.823	-1114
361.907	-402
361.991	-1442
362.075	-1498
362.159	-2965
362.243	-302
362.327	-1770
362.411	-63
362.495	-1706
362.580	-888
362.664	-1083
362.748	-1401
362.832	-1267
362.916	-2936
363.000	-39
363.084	-1035
363.168	-1382
363.252	-1405
363.336	-1268
363.420	-616
363.503	-1526
363.587	-1050
363.671	-932
363.755	-2271
363.839	167
363.923	-1274
364.007	-313
364.091	-1078
364.175	-2956
364.258	1118
364.342	-1846
364.426	370
364.510	-2364
364.594	385
364.677	-769
364.761	-1803
364.845	-808
364.929	-1464
365.013	-1638
365.096	-908
365.180	-1777
365.264	-732
365.347	-389
365.431	-1132
365.515	-2006
365.598	-1969
365.682	-463
365.766	-2298
365.849	-1200
365.933	-1167
366.017	-648
366.100	-1449
366.184	-2306
366.267	462
366.351	-1144
366.435	-1495
366.518	-1431
366.602	-595
366.685	-1211
366.769	-1061
366.852	-235
366.936	-898
367.019	-1205
367.103	-2204
367.186	-1221
367.270	-891
367.353	-1530
367.436	-1102
367.520	-1013
367.603	-620
367.687	-1985
367.770	-1576
367.853	-708
367.937	-579
368.020	-709
368.104	-2614
368.187	-845
368.270	-825
368.353	-1769
368.437	-911
368.520	-488
368.603	-820
368.687	-1934
368.770	-897
368.853	-1436
368.936	-773
369.020	-645
369.103	-646
369.186	-2138
369.269	-1661
369.352	-958
369.436	-1930
369.519	-869
369.602	-1517
369.685	-206
369.768	-2042
369.851	-507
369.934	-1732
370.018	-1760
370.101	-2196
370.184	1359
370.267	-632
370.350	-1429
370.433	-1127
370.516	-1393
370.599	-1547
370.682	-2742
370.765	171
370.848	-194
370.931	-1944
371.014	249
371.097	-1606
371.180	-1160
371.263	-1152
371.346	-2672
371.429	-715
371.511	-1480
371.594	-1303
371.677	-1198
371.760	-518
371.843	-1528
371.926	-357
372.009	-191
372.091	842
372.174	-1891
372.257	-1652
372.340	-1115
372.423	-1116
372.505	-765
372.588	-1172
372.671	-1009
372.754	-2296
372.836	-1228
372.919	-922
373.002	-852
373.085	-2403
373.167	-1068
373.250	-1129
373.332	-1448
373.415	675
373.498	-1163
373.580	-522
373.663	-1193
373.746	-995
373.828	-1765
373.911	-24
373.993	-1742
374.076	-803
374.159	-2095
374.241	-1051
374.324	-1171
374.406	-1331
374.489	-1395
374.571	-411
374.654	-1318
374.736	-1053
374.819	-1678
374.901	451
374.983	-374
375.066	-1153
375.148	-1377
375.231	-1423
375.313	-162
375.395	-1468
375.478	-1348
375.560	-1370
375.643	-885
375.725	-1689
375.807	-1591
375.890	314
375.972	-1783
376.054	-1397
376.136	-972
376.219	-1572
376.301	-1206
376.383	-1578
376.465	-751
376.548	-1420
376.630	-933
376.712	15
376.794	-1701
376.877	-1007
376.959	-2002
377.041	175
377.123	-1829
377.205	-953
377.287	-1841
377.369	196
377.452	-1899
377.534	-829
377.616	-1491
377.698	-757
377.780	-2392
377.862	-910
377.944	-816
378.026	-2097
378.108	-657
378.190	-1304
378.272	-421
378.354	-870
378.436	-1871
378.518	-2006
378.600	-1411
378.682	-1002
378.764	-2091
378.846	-1186
378.928	-1432
379.010	-1733
379.091	-838
379.173	-1067
379.255	-1848
379.337	-1404
379.419	-1571
379.501	-684
379.583	-1669
379.664	-1583
379.746	-2119
379.828	125
379.910	-1879
379.991	-1398
380.073	-1534
380.155	-1257
380.237	-1581
380.318	-1179
380.400	-2107
380.482	-1089
380.564	-1527
380.645	-1565
380.727	-1606
380.809	-130
380.890	-1692
380.972	-2259
381.053	-1635
381.135	-850
381.217	-1174
381.298	34
381.380	-627
381.461	-964
381.543	-2343
381.624	-814
381.706	-1072
381.787	-1401
381.869	-1975
381.951	-1370
382.032	-2253
382.113	1303
382.195	-2622
382.276	-42
382.358	-1934
382.439	-1240
382.521	-839
382.602	135
382.684	-1047
382.765	-883
382.846	-1787
382.928	-706
383.009	-1345
383.090	-517
383.172	-1139
383.253	-292
383.334	-1193
383.416	-739
383.497	-812
383.578	-1300
383.659	-1617
383.741	-1988
383.822	-350
383.903	-2132
383.984	-1900
384.066	495
384.147	-2019
384.228	-608
384.309	-1715
384.390	-1775
384.471	-1545
384.553	-1902
384.634	-1496
384.715	-899
384.796	-1646
384.877	-1638
384.958	-845
385.039	-2745
385.120	-2076
385.201	-344
385.282	-1440
385.363	-471
385.444	-1462
385.525	-844
385.606	-1616
385.687	-909
385.768	-1092
385.849	-1591
385.930	123
386.011	-272
386.092	-1590
386.173	-800
386.254	-1111
386.335	-759
386.416	-1415
386.496	-1080
386.577	-1452
386.658	-1700
386.739	-2418
386.820	-597
386.901	-1974
386.981	-1189
387.062	-799
387.143	-2055
387.224	-1380
387.304	-488
387.385	-873
387.466	-3069
387.547	-584
387.627	-1909
387.708	-1594
387.789	-752
387.869	-2543
387.950	-269
388.031	-1797
388.111	-3669
388.192	-663
388.273	-611
388.353	-1051
388.434	-1007
388.514	-1272
388.595	-677
388.676	-1554
388.756	-685
388.837	-1932
388.917	-963
388.998	-2991
389.078	-685
389.159	-1296
389.239	-2737
389.320	-150
389.400	-2912
389.480	-793
389.561	-1954
389.641	-880
389.722	-1621
389.802	-1507
389.883	-1632
389.963	-308
390.043	-1022
390.124	-2196
390.204	-1464
390.284	-939
390.365	-382
390.445	8443
390.525	60873
390.605	54841
390.686	4773
390.766	96
390.846	-461
390.927	-1799
391.007	-2078
391.087	-541
391.167	-1176
391.247	-2488
391.328	-1200
391.408	-154
391.488	-464
391.568	-3013
391.648	-1370
391.728	-1439
391.808	-539
391.888	-1880
391.969	-1338
392.049	-2361
392.129	-1014
392.209	-1693
392.289	-370
392.369	-1259
392.449	-1748
392.529	-2287
392.609	-114
392.689	-1388
392.769	-1684
392.849	-1404
392.929	-73
393.009	-2008
393.089	-2289
393.169	-2144
393.248	-812
393.328	13017
393.408	12100
393.488	1107
393.568	-854
393.648	-1048
393.728	-1489
393.807	-1600
393.887	-848
393.967	-1311
394.047	-1363
394.127	-2221
394.206	-1279
394.286	-1165
394.366	391
394.446	1184
394.525	-2029
394.605	-2248
394.685	-1283
394.764	-836
394.844	-2051
394.924	-2275
395.003	-1634
395.083	-1510
395.163	-1310
395.242	-2115
395.322	-1231
395.402	-3268
395.481	-352
395.561	-2118
395.640	-1174
395.720	-1022
395.799	-1167
395.879	-2657
395.958	-1714
396.038	-466
396.117	2800
396.197	2473
396.276	-54
396.356	-2077
396.435	-1787
396.515	-1323
396.594	-2453
396.673	-988
396.753	1266
396.832	8589
396.912	3783
396.991	-2053
397.070	-1307
397.150	-2926
397.229	-831
397.308	-2269
397.388	-1424
397.467	-762
397.546	-1105
397.625	-3175
397.705	-444
397.784	-1203
397.863	-1733
397.942	-1447
398.022	-2042
398.101	-2243
398.180	-1446
398.259	-1993
398.338	-1080
398.417	-2275
398.497	-1685
398.576	-1200
398.655	-2407
398.734	-749
398.813	-1506
398.892	-1341
398.971	-1140
399.050	-2544
399.129	-3126
399.208	-1747
399.287	-588
399.366	-2221
399.445	-1566
399.524	-1002
399.603	-2984
399.682	-1145
399.761	-1897
399.840	-602
399.919	-729
399.998	-1657
400.077	-2633
400.156	-2425
400.235	920
400.313	-1874
400.392	-2518
400.471	-324
400.550	-752
400.629	-2098
400.708	-821
400.786	-1740
400.865	-1423
400.944	-2685
401.023	466
401.102	-1795
401.180	-593
401.259	-1334
401.338	-1641
401.416	-1255
401.495	-2825
401.574	-1476
401.652	-2376
401.731	-1374
401.810	-1849
401.888	-1756
401.967	-1751
402.046	-1569
402.124	-1197
402.203	-2568
402.281	-646
402.360	-1728
402.438	-1437
402.517	-2316
402.596	-1179
402.674	-2022
402.753	-1802
402.831	-626
402.910	-1512
402.988	-2144
403.066	-2246
403.145	-722
403.223	-449
403.302	-2867
403.380	-1211
403.459	-1655
403.537	-1231
403.615	-1606
403.694	-2133
403.772	-1160
403.850	-2091
403.929	-2035
404.007	-2071
404.085	-355
404.164	-1877
404.242	-2332
404.320	-983
404.398	-1053
404.477	-1800
404.555	-409
404.633	-1958
404.711	-1482
404.789	-952
404.868	-1786
404.946	-1643
405.024	-1801
405.102	-1905
405.180	-1792
405.258	-2908
405.336	-887
405.415	-2598
405.493	-991
405.571	-1361
405.649	-3088
405.727	-2401
405.805	-1020
405.883	-1560
405.961	-807
406.039	-1292
406.117	-2528
406.195	-870
406.273	-2706
406.351	-1237
406.429	-954
406.507	-2409
406.585	-2176
406.663	-1375
406.740	-1425
406.818	-2131
406.896	-2691
406.974	-939
407.052	-2480
407.130	-1510
407.208	-1291
407.285	-1286
407.363	-2346
407.441	-1242
407.519	-1681
407.596	-1212
407.674	-1658
407.752	-2126
407.830	-866
407.907	-1465
407.985	-2668
408.063	-1215
408.141	-1862
408.218	-851
408.296	-2083
408.373	-1617
408.451	-1118
408.529	-1565
408.606	-1228
408.684	-1432
408.762	-1839
408.839	-1667
408.917	-1432
408.994	-1596
409.072	-2310
409.149	-2291
409.227	-845
409.304	-1824
409.382	-1898
409.459	-2479
409.537	-1704
409.614	-1529
409.692	-2322
409.769	-2313
409.846	-2905
409.924	-983
410.001	-3426
410.079	-1175
410.156	-443
410.233	-1422
410.311	-919
410.388	-1674
410.465	-2080
410.543	-2325
410.620	-1438
410.697	-1311
410.775	-1937
410.852	-2737
410.929	-803
411.006	-548
411.083	-2279
411.161	-1854
411.238	-1382
411.315	-645
411.392	-2693
411.469	-823
411.547	-1454
411.624	-2705
411.701	-2177
411.778	-1818
411.855	-1312
411.932	-2100
412.009	-1452
412.086	-1075
412.163	-1914
412.240	-2496
412.317	-1736
412.394	-1867
412.471	-796
412.548	-2345
412.625	-2428
412.702	-1747
412.779	-2270
412.856	-1243
412.933	-2624
413.010	-788
413.087	-1045
413.164	-2489
413.241	-1331
413.318	-2990
413.395	-972
413.471	-2130
413.548	-1543
413.625	-1347
413.702	-2624
413.779	-1077
413.855	-998
413.932	-2132
414.009	-3125
414.086	-1889
414.162	-1338
414.239	-1671
414.316	-1297
414.393	-517
414.469	-2531
414.546	-2039
414.623	-1723
414.699	-1534
414.776	-1910
414.853	-1531
414.929	-1495
415.006	-2099
415.082	-2619
415.159	-1949
415.236	-1565
415.312	-1259
415.389	-1440
415.465	-1954
415.542	-1607
415.618	-2426
415.695	-762
415.771	-1313
415.848	-1558
415.924	-1960
416.000	-1566
416.077	-1155
416.153	-2368
416.230	-1614
416.306	-2166
416.383	-1203
416.459	-1869
416.535	-1764
416.612	-2297
416.688	-2167
416.764	-2380
416.841	-2084
416.917	-2570
416.993	-1104
417.069	-1705
417.146	-3143
417.222	-2220
417.298	-1388
417.374	-2532
417.451	-1532
417.527	-1812
417.603	-2238
417.679	-2373
417.755	-1551
417.831	-2202
417.908	-1990
417.984	-2245
418.060	-2343
418.136	-1539
418.212	-2468
418.288	-1878
418.364	-1694
418.440	-2476
418.516	-1263
418.592	-2635
418.668	-2026
418.744	-2009
418.820	-2051
418.896	-2204
418.972	-2309
419.048	-2251
419.124	-1104
419.200	-2866
419.276	-1434
419.352	-2283
419.428	-1241
419.504	-2350
419.579	-1363
419.655	-2176
419.731	-1691
419.807	-1207
419.883	-3227
419.959	-2717
420.034	-1989
420.110	-2076
420.186	-1659
420.262	-949
420.337	-1798
420.413	-2694
420.489	-1234
420.565	-1726
420.640	-2208
420.716	-2080
420.792	-2642
420.867	-847
420.943	-2485
421.019	-2297
421.094	-2361
421.170	-1168
421.245	-1820
421.321	-1673
421.397	-2585
421.472	-1424
421.548	-2903
421.623	-1606
421.699	-1308
421.774	-2031
421.850	-2242
421.925	-1840
422.001	-1848
422.076	-2259
422.152	-2143
422.227	-2206
422.302	-1348
422.378	-1642
422.453	-2784
422.529	-1367
422.604	309
422.679	4325
422.755	296
422.830	-1653
422.905	-1715
422.981	-2384
423.056	-1821
423.131	-1608
423.207	-1762
423.282	-2313
423.357	-1856
423.432	-1512
423.508	-1584
423.583	-2264
423.658	-2409
423.733	-1547
423.808	-2323
423.883	-1652
423.959	-2223
424.034	-2423
424.109	-1288
424.184	-2115
424.259	-1493
424.334	-1527
424.409	-1789
424.484	-1944
424.559	-1912
424.634	-2466
424.709	-2120
424.784	-2083
424.859	-2252
424.934	-2164
425.009	-1674
425.084	-2104
425.159	-2363
425.234	-1848
425.309	-2023
425.384	-1103
425.459	-2561
425.534	-1283
425.609	-2084
425.683	-2178
425.758	-2214
425.833	-1438
425.908	-1134
425.983	-2339
426.058	-1922
426.132	-2715
426.207	-2449
426.282	-1283
426.357	-3516
426.431	-1323
426.506	-1486
426.581	-1570
426.655	-1351
426.730	-1922
426.805	-2289
426.879	-1746
426.954	-2243
427.029	-1722
427.103	-1845
427.178	-2440
427.253	-1907
427.327	-2193
427.402	-2067
427.476	-1768
427.551	-2152
427.625	-1807
427.700	-1768
427.774	-2641
427.849	-1854
427.923	-2677
427.998	-2067
428.072	-1750
428.147	-1263
428.221	-2354
428.296	-1424
428.370	-2392
428.444	-2089
428.519	-1999
428.593	-2717
428.667	-1975
428.742	-1585
428.816	-1691
428.890	-657
428.965	-1378
429.039	-2133
429.113	-1829
429.188	-2153
429.262	-2610
429.336	-2018
429.410	-2519
429.485	-1757
429.559	-1937
429.633	-1892
429.707	-1730
429.781	-2102
429.855	-2049
429.930	-1086
430.004	-3215
430.078	-2165
430.152	-2209
430.226	-2047
430.300	-1274
430.374	-3068
430.448	-1936
430.522	-1938
430.596	-3241
430.670	-1968
430.744	-1720
430.818	-1165
430.892	-1765
430.966	-2119
431.040	-1702
431.114	-2295
431.188	-2175
431.262	-1903
431.336	-2307
431.410	-1613
431.484	-2459
431.557	-1492
431.631	-2559
431.705	-1640
431.779	-2379
431.853	-1734
431.927	-2531
432.000	-2235
432.074	-1861
432.148	-2238
432.222	-1733
432.295	-1828
432.369	-2092
432.443	-2212
432.516	-1831
432.590	-2135
432.664	-1685
432.737	-1990
432.811	-2548
432.885	-1895
432.958	-1326
433.032	-1938
433.106	-2380
433.179	-1953
433.253	-2502
433.326	-2117
433.400	-2047
433.473	-1275
433.547	-1857
433.620	-1754
433.694	-2755
433.767	-1465
433.841	-2924
433.914	-2185
433.988	-2674
434.061	-1825
434.134	-2173
434.208	-2037
434.281	-2205
434.355	-2919
434.428	-1627
434.501	-1914
434.575	-2620
434.648	-2054
434.721	-2639
434.795	-2973
434.868	-1964
434.941	-1409
435.014	-2736
435.088	-2085
435.161	-2226
435.234	-1875
435.307	-2254
435.381	-1244
435.454	-2384
435.527	-2130
435.600	-3023
435.673	-1961
435.746	-1984
435.819	-1941
435.892	-1892
435.966	-2002
436.039	-3070
436.112	-2247
436.185	-2029
436.258	-2019
436.331	-2585
436.404	-2107
436.477	-2286
436.550	-2238
436.623	-1923
436.696	-2275
436.769	-2323
436.842	-1225
436.915	-2973
436.987	-2510
437.060	-2067
437.133	-2122
437.206	-2651
437.279	-2167
437.352	-2118
437.425	-2576
437.498	-1847
437.570	-2626
437.643	-2373
437.716	-2603
437.789	-2117
437.861	-2435
437.934	-2418
438.007	-2672
438.080	-2275
438.152	-2233
438.225	-1730
438.298	-3029
438.370	-1467
438.443	-1862
438.516	-2198
438.588	-2165
438.661	-2610
438.734	-2113
438.806	-2595
438.879	-1954
438.951	-2842
439.024	-2003
439.096	-3544
439.169	-2460
439.241	-1969
439.314	-2590
439.386	-1901
439.459	-1764
439.531	-1895
439.604	-2393
439.676	-1794
439.749	-2055
439.821	-2292
439.893	-2216
439.966	-2442
440.038	-2406
440.110	-2071
440.183	-2372
440.255	-3028
440.327	-2511
440.400	-2056
440.472	-2802
440.544	-2749
440.617	-2212
440.689	-1954
440.761	-1902
440.833	-2700
440.905	-1676
440.978	-2341
441.050	-2739
441.122	-1783
441.194	-1862
441.266	-2878
441.338	-2790
441.411	-2537
441.483	-2040
441.555	-2483
441.627	-1950
441.699	-2335
441.771	-2060
441.843	-2276
441.915	-2020
441.987	-1548
442.059	-2508
442.131	-2688
442.203	-1928
442.275	-2136
442.347	-2063
442.419	-2828
442.491	-2480
442.563	-2375
442.635	-1941
442.706	-2419
442.778	-1793
442.850	-2727
442.922	-3189
442.994	-2479
443.066	-2618
443.137	-2489
443.209	-3083
443.281	-2727
443.353	-2131
443.425	-2050
443.496	-2323
443.568	-2394
443.640	-2236
443.711	-2406
443.783	-2232
443.855	-1918
443.926	-1431
443.998	-1988
444.070	-2356
444.141	-1814
444.213	-2675
444.285	-2269
444.356	-2016
444.428	-2498
444.499	-2164
444.571	-2888
444.642	-2209
444.714	-2602
444.785	-2102
444.857	-2571
444.928	-2188
445.000	-1935
445.071	-2220
445.143	-2239
445.214	-2282
445.285	-2077
445.357	-2698
445.428	-2720
445.500	-2291
445.571	-1870
445.642	-1830
445.714	-2865
445.785	-2147
445.856	-2641
445.928	-1930
445.999	-2913
446.070	-2913
446.141	-2162
446.213	-2475
446.284	-3224
446.355	-2868
446.426	-2374
446.497	-2336
446.569	-2605
446.640	-2315
446.711	-2429
446.782	-2151
446.853	-2247
446.924	-2371
446.995	-2260
447.066	-2946
447.138	-2328
447.209	-1866
447.280	-2956
447.351	-3127
447.422	-2749
447.493	-2583
447.564	-2282
447.635	-2062
447.706	-2460
447.777	-2452
447.847	-2945
447.918	-2842
447.989	-3117
448.060	-2626
448.131	-1881
448.202	-2271
448.273	-2789
448.344	-2110
448.414	-2244
448.485	-3134
448.556	-2969
448.627	-2897
448.698	-1339
448.768	-3154
448.839	-3178
448.910	-2043
448.981	-2619
449.051	-2257
449.122	-2537
449.193	-1607
449.263	-1977
449.334	-2304
449.405	-2073
449.475	-2422
449.546	-3105
449.616	-2385
449.687	-2485
449.758	-1720
449.828	-2875
449.899	-2529
449.969	-2729
450.040	-2157
450.110	-2633
450.181	-2331
450.251	-2645
450.322	-1701
450.392	-2475
450.463	-2220
450.533	-2655
450.604	-1329
450.674	-2200
450.744	-2138
450.815	-2274
450.885	-2389
450.955	-2102
451.026	-2379
451.096	-3087
451.166	-2776
451.237	-2839
451.307	-2453
451.377	-2190
451.447	-2478
451.518	-2099
451.588	-3104
451.658	-2380
451.728	-2404
451.799	-2622
451.869	-2496
451.939	-2930
452.009	-1955
452.079	-1816
452.149	-1628
452.219	-2594
452.289	-2331
452.360	-2997
452.430	-2737
452.500	-2380
452.570	-2825
452.640	-1994
452.710	-2136
452.780	-1960
452.850	-2130
452.920	-2556
452.990	-2029
453.060	-2798
453.129	-2800
453.199	-2666
453.269	-3133
453.339	-2871
453.409	-2644
453.479	-2462
453.549	-1845
453.619	-2712
453.688	-2042
453.758	-2061
453.828	-2473
453.898	-2195
453.968	-3475
454.037	-2571
454.087	-2344
454.107	-2258
454.168	-2951
454.177	-3066
454.247	-2720
454.249	-2692
454.316	-2227
454.330	-2273
454.386	-2480
454.411	-2594
454.456	-2817
454.492	-2818
454.525	-2858
454.574	-2362
454.595	-2147
454.655	-2264
454.665	-2288
454.734	-1935
454.736	-1926
454.804	-1890
454.817	-2020
454.873	-2651
454.898	-2445
454.943	-2053
454.979	-2166
455.013	-2312
455.060	-2280
455.082	-2288
455.141	-2639
455.152	-2701
455.221	-1890
455.222	-1889
455.291	-2427
455.303	-2362
455.360	-2168
455.384	-2241
455.430	-2342
455.465	-2259
455.499	-2273
455.546	-2493
455.569	-2588
455.627	-2108
455.638	-2015
455.707	-2272
455.708	-2263
455.777	-2507
455.789	-2494
455.846	-2483
455.869	-2320
455.916	-2085
455.950	-2283
455.985	-2441
456.031	-2415
456.054	-2443
456.112	-2712
456.124	-2761
456.193	-2002
456.193	-2007
456.262	-2280
456.274	-2150
456.332	-1720
456.355	-1959
456.401	-2355
456.436	-2087
456.470	-1867
456.516	-2138
456.540	-2287
456.597	-2043
456.609	-1984
456.678	-1951
456.678	-1958
456.747	-2387
456.759	-2373
456.817	-2107
456.840	-2112
456.886	-2271
456.920	-2125
456.955	-1910
457.001	-1919
457.024	-2013
457.082	-1771
457.093	-1702
457.162	-2067
457.163	-2059
457.232	-2110
457.243	-2011
457.301	-1677
457.324	-1876
457.370	-2212
457.405	-1907
457.439	-1560
457.485	-1889
457.508	-2059
457.566	-1783
457.577	-1779
457.646	-1672
457.647	-1670
457.715	-1643
457.727	-1591
457.784	-1802
457.808	-1929
457.853	-1974
457.889	-1993
457.922	-2039
457.969	-1988
457.991	-2027
458.050	-2391
458.060	-2424
458.129	-1574
458.130	-1578
458.198	-2262
458.211	-2211
458.267	-2043
458.292	-2021
458.336	-1811
458.372	-1741
458.405	-1801
458.453	-2168
458.474	-2265
458.533	-1490
458.543	-1390
458.611	-1556
458.614	-1551
458.680	-1605
458.694	-1694
458.749	-1962
458.775	-1792
458.818	-1767
458.855	-1761
458.887	-1533
458.936	-1691
458.955	-1832
459.016	-1684
459.024	-1603
459.093	-1162
459.097	-1123
459.162	-1410
459.177	-1598
459.230	-2008
459.257	-1837
459.299	-1367
459.338	-1082
459.368	-1100
459.418	-1788
459.437	-1930
459.499	-1174
459.505	-1099
459.574	-1469
459.579	-1483
459.643	-1840
459.659	-1799
459.711	-1656
459.740	-1626
459.780	-1622
459.820	-1456
459.849	-1422
459.900	-1549
459.917	-1493
459.981	-1296
459.986	-1292
460.054	-1260
460.061	-1258
460.123	-1228
460.141	-1190
460.191	-1060
460.222	-877
460.260	-872
460.302	-1145
460.328	-1271
460.382	-1523
460.397	-1513
460.462	-710
460.465	-698
460.534	-1297
460.543	-1309
460.602	-1338
460.623	-1370
460.671	-995
460.703	-751
460.739	-1072
460.783	-1620
460.808	-1643
460.864	-1267
460.876	-1161
460.944	-789
460.945	-796
461.013	-1231
461.024	-1323
461.081	-1041
461.104	-929
461.150	-1255
461.184	-1153
461.218	-694
461.264	-886
461.286	-1233
461.345	-1577
461.355	-1526
461.423	-1013
461.425	-1018
461.491	-1180
461.505	-1022
461.559	-802
461.585	-785
461.628	-894
461.665	-1216
461.696	-1273
461.745	-1000
461.764	-942
461.825	-1242
461.832	-1246
461.901	-981
461.905	-961
461.969	-1454
461.985	-1518
462.037	-453
462.065	-59
462.105	-638
462.145	-1069
462.173	-798
462.225	-579
462.241	-805
462.305	-1272
462.310	-1222
462.378	-572
462.385	-509
462.446	-733
462.465	-814
462.514	-833
462.545	-781
462.582	-748
462.625	-745
462.650	-676
462.705	-636
462.718	-741
462.785	-1227
462.786	-1221
462.854	-579
462.865	-558
462.922	-1038
462.945	-1105
462.990	-831
463.025	-669
463.058	-648
463.104	-594
463.126	-504
463.184	-528
463.194	-569
463.262	-672
463.264	-678
463.330	-1016
463.344	-1113
463.398	-269
463.424	236
463.466	-536
463.504	-1203
463.533	-732
463.583	-191
463.601	-341
463.663	-747
463.669	-752
463.737	-708
463.743	-709
463.805	-573
463.823	-610
463.873	-406
463.903	-184
463.940	-519
463.982	-871
464.008	-570
464.062	-98
464.076	-174
464.142	-275
464.144	-275
464.211	-522
464.221	-598
464.279	-1034
464.301	-1127
464.347	-810
464.381	-553
464.414	-735
464.461	-1083
464.482	-813
464.540	0
464.550	0
464.617	-218
464.620	-218
464.685	-49
464.699	-74
464.753	-246
464.779	-334
464.820	-843
464.859	-1224
464.888	-1105
464.938	-992
464.956	-648
465.018	515
465.023	472
465.091	-31
465.098	-88
465.158	-202
465.177	-257
465.226	87
465.257	314
465.293	-66
465.336	-502
465.361	-378
465.416	-120
465.428	-115
465.495	-49
465.496	-47
465.563	-499
465.575	-538
465.631	-220
465.654	-127
465.698	-140
465.734	-119
465.765	17
465.813	183
465.833	82
465.893	-311
465.900	-345
465.968	-536
465.972	-562
466.035	-139
466.052	-19
466.102	10
466.131	45
466.170	60
466.210	2
466.237	74
466.290	296
466.304	291
466.369	162
466.372	143
466.439	-501
466.449	-611
466.506	-435
466.528	-325
466.573	-292
466.607	-348
466.641	-133
466.687	242
466.708	167
466.766	-160
466.775	-108
466.842	349
466.845	365
466.909	95
466.925	23
466.977	437
467.004	650
467.044	412
467.083	175
467.111	380
467.163	763
467.178	571
467.242	-264
467.245	-238
467.312	290
467.321	358
467.379	75
467.400	-32
467.446	450
467.480	797
467.559	86
467.638	129
467.717	-531
467.796	221
467.875	-86
467.955	-957
468.034	152
468.113	271
468.192	575
468.271	551
468.350	-38
468.429	-34
468.508	672
468.588	741
468.667	565
468.746	-275
468.825	-226
468.904	540
468.983	7
469.062	-138
469.141	245
469.220	418
469.299	356
469.378	-529
469.456	453
469.535	362
469.614	-1004
469.693	-139
469.772	290
469.851	1274
469.930	751
470.009	-140
470.088	-162
470.166	-212
470.245	160
470.324	-388
470.403	-12
470.482	-272
470.560	-634
470.639	-632
470.718	-343
470.797	607
470.875	64
470.954	280
471.033	277
471.111	-21
471.190	190
471.269	111
471.347	-334
471.426	761
471.505	-683
471.583	217
471.662	1119
471.740	163
471.819	483
471.898	-26
471.976	171
472.055	-249
472.133	-35
472.212	1013
472.290	167
472.369	-767
472.447	106
472.526	78
472.604	913
472.683	488
472.761	9
472.839	-136
472.918	-267
472.996	-637
473.075	378
473.153	-224
473.231	-391
473.310	12
473.388	859
473.466	387
473.545	441
473.623	42
473.701	91
473.780	363
473.858	-960
473.936	1767
474.014	401
474.093	-249
474.171	1078
474.249	362
474.327	-369
474.405	-617
474.484	-264
474.562	376
474.640	-264
474.718	555
474.796	-379
474.874	430
474.952	45
475.030	-401
475.108	56
475.187	-723
475.265	-176
475.343	66
475.421	545
475.499	-225
475.577	163
475.655	495
475.733	159
475.811	-922
475.889	-504
475.966	72
476.044	113
476.122	-470
476.200	-177
476.278	-212
476.356	-520
476.434	14
476.512	100
476.590	423
476.667	741
476.745	-159
476.823	-107
476.901	65
476.979	42
477.056	-75
477.134	451
477.212	-82
477.290	-14
477.367	289
477.445	77
477.523	120
477.601	-954
477.678	-56
477.756	-92
477.834	393
477.911	694
477.989	388
478.066	-263
478.144	-442
478.222	-489
478.299	-122
478.377	62
478.454	804
478.532	235
478.609	325
478.687	372
478.764	93
478.842	-163
478.919	-955
478.997	630
479.074	33
479.152	668
479.229	443
479.307	-334
479.384	382
479.461	177
479.539	-576
479.616	-339
479.694	69
479.771	-125
479.848	-869
479.926	-1858
480.003	1230
480.080	317
480.157	-362
480.235	-30
480.312	628
480.389	-119
480.467	-869
480.544	149
480.621	-448
480.698	-940
480.775	-543
480.853	-82
480.930	450
481.007	-526
481.084	123
481.161	-429
481.238	425
481.315	182
481.392	-61
481.470	-442
481.547	-911
481.624	-518
481.701	692
481.778	143
481.855	-223
481.932	-191
482.009	288
482.086	-172
482.163	-546
482.240	-212
482.317	-686
482.393	-570
482.470	25
482.547	-573
482.624	-77
482.701	-52
482.778	-360
482.855	364
482.932	174
483.009	470
483.085	-313
483.162	186
483.239	302
483.316	-70
483.393	5
483.469	-123
483.546	-656
483.623	-584
483.699	-460
483.776	-1194
483.853	-318
483.930	-493
484.006	-511
484.083	875
484.160	194
484.236	70
484.313	186
484.389	-336
484.466	552
484.543	-96
484.619	-179
484.696	21
484.772	-240
484.849	541
484.925	-357
485.002	610
485.078	132
485.155	-248
485.231	13
485.308	-424
485.384	-614
485.461	-195
485.537	-521
485.614	1970
485.690	32
485.766	-156
485.843	358
485.919	506
485.995	-260
486.072	779
486.148	-119
486.224	-1087
486.301	-374
486.377	340
486.453	383
486.530	457
486.606	549
486.682	-267
486.758	340
486.835	-580
486.911	-444
486.987	73
487.063	-85
487.139	67
487.215	-458
487.292	-37
487.368	-418
487.444	-456
487.520	-703
487.596	-935
487.672	579
487.748	290
487.824	-576
487.900	62
487.976	-30
488.052	-264
488.128	-89
488.204	-948
488.280	398
488.356	-687
488.432	-110
488.508	-82
488.584	-164
488.660	12
488.736	-184
488.812	-146
488.888	-6
488.964	-213
489.039	-324
489.115	31
489.191	493
489.267	-652
489.343	458
489.418	-354
489.494	-600
489.570	-1644
489.646	1533
489.722	-289
489.797	-6
489.873	-523
489.949	-669
490.024	-553
490.100	167
490.176	-491
490.251	202
490.327	-391
490.403	-699
490.478	-277
490.554	-71
490.629	226
490.705	43
490.781	690
490.856	17
490.932	-539
491.007	-372
491.083	-1746
491.158	-627
491.234	-691
491.309	442
491.385	-690
491.460	-945
491.536	377
491.611	-105
491.686	542
491.762	-305
491.837	-573
491.913	196
491.988	155
492.063	-461
492.139	-124
492.214	-665
492.289	302
492.365	-45
492.440	-316
492.515	-696
492.590	95
492.666	-693
492.741	-630
492.816	-121
492.891	-756
492.967	-323
493.042	-1110
493.117	-317
493.192	-520
493.267	444
493.342	-464
493.418	-79
493.493	-719
493.568	361
493.643	43
493.718	-675
493.793	619
493.868	-183
493.943	-176
494.018	174
494.093	-854
494.168	157
494.243	-419
494.318	380
494.393	-115
494.468	-527
494.543	-404
494.618	652
494.693	-1292
494.768	444
494.842	-448
494.917	441
494.992	-12
495.067	-756
495.142	-896
495.217	-868
495.292	-59
495.366	-135
495.441	-1071
495.516	789
495.591	-106
495.665	-1300
495.740	-12
495.815	-190
495.890	-818
495.964	-1791
496.039	1417
496.114	-839
496.188	-1201
496.263	-270
496.338	-976
496.412	-883
496.487	505
496.561	-494
496.636	-337
496.710	-473
496.785	-498
496.860	-823
496.934	130
497.009	-204
497.083	-478
497.158	197
497.232	-342
497.307	64
497.381	208
497.455	-439
497.530	85
497.604	582
497.679	70
497.753	-38
497.827	-705
497.902	-1338
497.976	912
498.050	415
498.125	420
498.199	-215
498.273	-719
498.348	-617
498.422	-339
498.496	-1031
498.570	158
498.645	-1127
498.719	-800
498.793	-410
498.867	-229
498.941	145
499.016	-1050
499.090	-346
499.164	654
499.238	133
499.312	122
499.386	-108
499.460	50
499.534	-81
499.609	-183
499.683	-469
499.757	-175
499.831	-84
499.905	-357
499.979	556
500.053	59
500.127	-7
500.201	-1362
500.275	535
500.349	-794
500.422	753
500.496	-77
500.570	-112
500.644	497
500.718	536
500.792	62
500.866	52
500.940	671
501.013	623
501.087	-786
501.161	-140
501.235	-1034
501.309	638
501.382	-267
501.456	626
501.530	857
501.603	-142
501.677	46
501.751	-1017
501.825	525
501.898	-787
501.972	-320
502.046	-106
502.119	-819
502.193	-37
502.266	-771
502.340	-582
502.413	29
502.487	-778
502.561	-422
502.634	-116
502.708	-675
502.781	-1048
502.855	488
502.928	-1079
503.002	-996
503.075	-543
503.149	-520
503.222	-128
503.295	-631
503.369	343
503.442	84
503.516	124
503.589	-576
503.662	-848
503.736	-135
503.809	196
503.882	-180
503.956	-146
504.029	-697
504.102	-580
504.175	-787
504.249	-942
504.322	-572
504.395	-49
504.468	-265
504.542	-375
504.615	-239
504.688	-102
504.761	-1466
504.834	305
504.907	-1375
504.980	-1242
505.053	-603
505.127	-2202
505.200	1922
505.273	-425
505.346	-548
505.419	-815
505.492	225
505.565	-674
505.638	66
505.711	-403
505.784	-1054
505.857	-596
505.930	1635
506.003	-1053
506.076	1282
506.149	-1084
506.221	-2089
506.294	910
506.367	-1558
506.440	-1321
506.513	538
506.586	-485
506.659	-601
506.731	122
506.804	-1029
506.877	-1069
506.950	-523
507.022	482
507.095	-1867
507.168	451
507.241	300
507.313	-1153
507.386	-1229
507.459	9
507.531	-855
507.604	-346
507.677	517
507.749	-1502
507.822	669
507.894	-573
507.967	-391
508.040	-743
508.112	-161
508.185	-106
508.257	-1627
508.330	1125
508.402	-637
508.475	-159
508.547	-1258
508.620	-616
508.692	-577
508.765	157
508.837	-1373
508.909	-481
508.982	-225
509.054	1304
509.127	-1015
509.199	-720
509.271	-1403
509.344	-708
509.416	-318
509.488	-365
509.560	-802
509.633	-603
509.705	-635
509.777	-740
509.849	-395
509.922	-2229
509.994	-600
510.066	285
510.138	-1950
510.210	1588
510.283	-497
510.355	-364
510.427	-782
510.499	-185
510.571	-293
510.643	-796
510.715	257
510.787	-2020
510.859	852
510.931	-92
511.003	277
511.076	463
511.148	-1705
511.219	-898
511.291	205
511.363	421
511.435	-633
511.507	-433
511.579	-1051
511.651	-413
511.723	-1380
511.795	-175
511.867	5
511.939	-67
512.010	-443
512.082	-595
512.154	-1424
512.226	-779
512.298	-523
512.369	-392
512.441	-235
512.513	28
512.585	-1244
512.656	400
512.728	-562
512.800	-720
512.871	557
512.943	-207
513.015	-1796
513.086	411
513.158	287
513.230	-1563
513.301	-572
513.373	-23
513.444	-1111
513.516	-882
513.588	-1269
513.659	-523
513.731	-758
513.802	-1925
513.874	27
513.945	-587
514.016	-1945
514.088	356
514.159	-1165
514.231	236
514.302	-517
514.374	-271
514.445	-1274
514.516	666
514.588	-675
514.659	-583
514.730	-647
514.802	-558
514.873	-2020
514.944	1069
515.016	-643
515.087	-1037
515.158	-927
515.229	-717
515.301	-1857
515.372	-245
515.443	-1323
515.514	-946
515.585	-827
515.656	32
515.728	-185
515.799	-1164
515.870	-562
515.941	-267
516.012	-1797
516.083	236
516.154	-1645
516.225	372
516.296	1014
516.367	-412
516.438	-962
516.509	-715
516.580	-1288
516.651	160
516.722	-1669
516.793	77
516.864	-979
516.935	165
517.006	-127
517.077	-370
517.148	-463
517.219	-164
517.289	-1144
517.360	-1076
517.431	691
517.502	-1939
517.573	180
517.643	-89
517.714	-843
517.785	-816
517.856	-2111
517.926	128
517.997	-367
518.068	-1976
518.138	1245
518.209	-771
518.280	-1659
518.350	2108
518.421	-892
518.492	-203
518.562	-697
518.633	-872
518.703	-3129
518.774	876
518.845	-621
518.915	-98
518.986	-518
519.056	332
519.127	-883
519.197	-1417
519.268	-1237
519.338	55
519.408	-579
519.479	-708
519.549	-1068
519.620	514
519.690	-914
519.760	-1009
519.831	-174
519.901	-1054
519.971	-548
520.042	-855
520.112	-1564
520.182	-249
520.253	-853
520.323	-538
520.393	-1062
520.463	1118
520.534	-2673
520.604	1374
520.674	284
520.744	-1148
520.814	-1268
520.885	349
520.955	-1063
521.025	-1152
521.095	-544
521.165	256
521.235	-1377
521.305	-1836
521.375	-305
521.445	-211
521.515	-1650
521.585	24
521.655	-2455
521.725	726
521.795	93
521.865	-2885
521.935	908
522.005	-1256
522.075	-704
522.145	-317
522.215	-1737
522.285	-146
522.355	-623
522.424	-196
522.494	-880
522.564	-919
522.634	-732
522.704	316
522.774	-1344
522.843	-521
522.913	-976
522.983	-709
523.053	-831
523.122	6
523.192	-1139
523.262	-473
523.331	-1506
523.401	191
523.471	-549
523.540	-106
523.610	-880
523.680	178
523.749	-482
523.819	-639
523.888	-2191
523.958	-952
524.027	-735
524.097	-461
524.166	161
524.236	-1227
524.305	1150
524.375	-976
524.444	-1099
524.514	1200
524.583	-927
524.653	-1615
524.722	-93
524.791	-1793
524.861	301
524.930	-1813
524.999	-1193
525.069	-549
525.138	-634
525.207	-1644
525.277	-663
525.346	-504
525.415	2
525.484	-137
525.554	-1699
525.623	-271
525.692	-1644
525.761	-697
525.830	-742
525.900	-982
525.969	-463
526.038	419
526.107	-2198
526.176	939
526.245	-1884
526.314	-267
526.383	127
526.452	-2617
526.522	1397
526.591	-343
526.660	-1268
526.729	-802
526.797	-193
526.867	-1789
526.935	381
527.004	-801
527.073	-1456
527.142	-1198
527.211	-472
527.280	-277
527.349	-1038
527.418	-1151
527.487	-39
527.555	-1458
527.624	-1399
527.693	-2115
527.762	40
527.831	-2280
527.899	-309
527.968	-900
528.037	-2541
528.106	-713
528.174	-712
528.243	244
528.312	-867
528.380	-1516
528.449	-1224
528.518	713
528.586	-2064
528.655	790
528.723	-1040
528.792	-766
528.861	-1585
528.929	-1866
528.998	-239
529.066	-1317
529.135	45
529.203	-1895
529.272	-2037
529.340	-318
529.409	941
529.477	-1483
529.545	-1002
529.614	951
529.682	-2441
529.751	-1108
529.819	1259
529.887	-1019
529.956	-1275
530.024	37
530.092	-1659
530.161	213
530.229	-1556
530.297	-1311
530.365	680
530.434	39
530.502	-1756
530.570	-373
530.638	-2588
530.707	-371
530.775	379
530.843	-978
530.911	-839
530.979	-411
531.047	-897
531.115	-567
531.183	-807
531.252	361
531.320	-1311
531.388	-1495
531.456	-702
531.524	-2027
531.592	-439
531.660	743
531.728	-1676
531.796	-1517
531.864	-438
531.932	-988
532.000	-988
532.067	-764
532.135	-106
532.203	-426
532.271	-1985
532.339	-667
532.407	-37
532.475	-1231
532.542	-662
532.610	-449
532.678	-2547
532.746	159
532.814	-443
532.881	-1039
532.949	-654
533.017	-759
533.084	-651
533.152	72
533.220	-986
533.287	-1617
533.355	-1344
533.423	-431
533.490	-1394
533.558	-1463
533.625	-1561
533.693	-1577
533.761	-600
533.828	-518
533.896	-2418
533.963	95
534.031	-842
534.098	-1291
534.166	-2293
534.233	-1298
534.300	-545
534.368	-559
534.435	-1656
534.503	-445
534.570	-425
534.637	-1937
534.705	-1520
534.772	-457
534.840	-1575
534.907	208
534.974	-776
535.041	-40
535.109	-1411
535.176	-1388
535.243	-774
535.310	-702
535.378	-1462
535.445	-842
535.512	-1285
535.579	-344
535.646	-581
535.714	-1383
535.781	-303
535.848	-257
535.915	15
535.982	-2043
536.049	-1267
536.116	706
536.183	-1364
536.250	-393
536.317	-1977
536.384	-553
536.451	-552
536.518	-934
536.585	-1728
536.652	141
536.719	-353
536.786	-2522
536.853	-1277
536.920	219
536.987	-206
537.053	-2197
537.120	618
537.187	487
537.254	-1344
537.321	-1557
537.388	101
537.454	-1555
537.521	-1227
537.588	-1270
537.654	-376
537.721	-959
537.788	-674
537.855	-1690
537.921	-882
537.988	-996
538.055	-698
538.121	-1118
538.188	60
538.254	109
538.321	-587
538.388	-259
538.454	-601
538.521	-1167
538.587	-1472
538.654	-900
538.720	-924
538.787	-396
538.853	-659
538.920	-426
538.986	-769
539.053	-1274
539.119	38
539.185	-927
539.252	293
539.318	-1943
539.385	36
539.451	-2411
539.517	-505
539.583	-745
539.650	-1343
539.716	-1362
539.782	-398
539.849	-1138
539.915	723
539.981	-1003
540.047	-1564
540.114	-1458
540.180	72
540.246	-2045
540.312	-1774
540.378	-2015
540.444	-386
540.510	-846
540.576	-551
540.643	-1261
540.709	-2164
540.775	-1266
540.841	-374
540.907	-79
540.973	-743
541.039	-1258
541.105	-905
541.171	-734
541.237	-1388
541.303	-550
541.369	152
541.435	-568
541.500	-723
541.566	-1926
541.632	-540
541.698	-1310
541.764	-449
541.830	-784
541.896	-1456
541.961	119
542.027	-1699
542.093	-1370
542.159	-367
542.224	-1612
542.290	-478
542.356	-1178
542.421	-622
542.487	-239
542.553	-1001
542.618	-1534
542.684	-1189
542.750	-1290
542.815	-879
542.881	-975
542.947	-1122
543.012	279
543.078	-1205
543.143	-1056
543.209	-1012
543.274	-1245
543.340	-407
543.405	-821
543.471	-1140
543.536	-1051
543.602	-729
543.667	-2556
543.732	559
543.798	-1474
543.863	-351
543.928	-2184
543.994	-1110
544.059	-511
544.124	-435
544.190	-1380
544.255	-820
544.320	-295
544.386	-1333
544.451	-333
544.516	-897
544.581	-1209
544.646	-1998
544.712	-31
544.777	-978
544.842	-1300
544.907	-738
544.972	-963
545.037	-845
545.102	-751
545.168	-1503
545.233	-570
545.298	-118
545.363	-1912
545.428	-993
545.493	453
545.558	-1522
545.623	-759
545.688	-1574
545.753	-339
545.818	-918
545.883	318
545.947	-749
546.012	-261
546.077	-1264
546.142	-21
546.207	-1354
546.272	-843
546.337	-1722
546.401	-158
546.466	-740
546.531	-1930
546.596	-773
546.661	-1328
546.725	-482
546.790	-1708
546.855	-478
546.919	-1858
546.984	-473
547.049	-2009
547.113	-966
547.178	-1260
547.243	-626
547.307	-1239
547.372	-899
547.436	-2386
547.501	-943
547.565	-867
547.630	-18
547.695	-1072
547.759	-1134
547.823	-1735
547.888	-938
547.952	-867
548.017	-896
548.081	-1693
548.146	-975
548.210	-268
548.274	-1817
548.339	-969
548.403	214
548.468	-314
548.532	-1553
548.596	8
548.660	-1584
548.725	-126
548.789	-1000
548.853	-273
548.917	-1165
548.982	-1131
549.046	-125
549.110	-1548
549.174	-798
549.238	-1714
549.303	-1785
549.367	694
549.431	-680
549.495	-836
549.559	-945
549.623	-33
549.687	-1167
549.751	-413
549.815	-1093
549.879	-742
549.943	-2093
550.007	-1079
550.071	-397
550.135	-994
550.199	-1297
550.263	-1174
550.327	-682
550.391	-1200
550.455	-1945
550.519	-692
550.582	-430
550.646	-1000
550.710	-1264
550.774	-561
550.838	-1271
550.901	-1080
550.965	-482
551.029	-1808
551.093	176
551.156	-1705
551.220	-1489
551.284	-1546
551.347	-515
551.411	-791
551.475	-738
551.538	-906
551.602	197
551.666	-1178
551.729	-1555
551.793	150
551.856	-850
551.920	-691
551.983	-999
552.047	-1644
552.110	-663
552.174	-1088
552.237	-584
552.301	-453
552.364	-868
552.428	-216
552.491	-1827
552.554	-162
552.618	-518
552.681	-577
552.745	-1277
552.808	-693
552.871	-487
552.934	-202
552.998	-1913
553.061	-903
553.124	-1010
553.187	-510
553.251	-927
553.314	-1113
553.377	-1952
553.440	-215
553.503	-705
553.567	-1352
553.630	-1351
553.693	-657
553.756	-1113
553.819	-109
553.882	-741
553.945	-949
554.008	-1017
554.071	-1007
554.134	-516
554.197	-1216
554.260	-1059
554.323	242
554.386	-905
554.449	-1881
554.512	217
554.575	-914
554.638	-325
554.701	-1008
554.764	-741
554.827	-551
554.889	-1517
554.952	-401
555.015	-2231
555.078	-1339
555.141	148
555.203	-1593
555.266	-1339
555.329	-621
555.391	-1397
555.454	-1739
555.517	-1014
555.580	-948
555.642	-1827
555.705	-1529
555.768	-1294
555.830	-449
555.893	-1134
555.955	-810
556.018	-975
556.080	-1288
556.143	-30
556.206	-1391
556.268	-1058
556.330	-645
556.393	-1035
556.455	-1083
556.518	-1456
556.580	-1479
556.643	-1227
556.705	-508
556.767	-1857
556.830	-853
556.892	-1184
556.955	-1114
557.017	-1039
557.079	-918
557.142	-1677
557.204	-1227
557.266	-202
557.328	-941
557.391	-1345
557.453	-589
557.515	-451
557.577	-577
557.639	-547
557.701	-100
557.764	-1317
557.826	-888
557.888	-702
557.950	-1665
558.012	-1521
558.074	-1685
558.136	-989
558.198	-441
558.260	-403
558.322	-2120
558.384	-1373
558.446	-631
558.508	-880
558.570	-835
558.632	-1439
558.694	-791
558.756	-761
558.818	-972
558.880	-271
558.942	-1405
559.003	-1013
559.065	-1524
559.127	-631
559.189	-1664
559.251	-1505
559.312	-547
559.374	-1238
559.436	-1126
559.498	-1233
559.559	-2039
559.621	-693
559.683	-820
559.744	-657
559.806	-1223
559.868	-1125
559.929	-2449
559.991	-123
560.052	-1510
560.114	-1369
560.176	-1502
560.237	-971
560.299	-1533
560.360	-1476
560.422	-220
560.483	-747
560.545	-426
560.606	-1066
560.667	-1249
560.729	-1695
560.790	-1228
560.852	-657
560.913	-646
560.974	-1376
561.036	-440
561.097	-349
561.158	-965
561.220	-634
561.281	-1457
561.342	-1901
561.403	-214
561.465	-1921
561.526	-1562
561.587	-58
561.648	-851
561.709	-1109
561.771	-694
561.832	-1265
561.893	-549
561.954	-1011
562.015	-1381
562.076	-476
562.137	-909
562.198	-539
562.259	-454
562.320	-1491
562.381	-1344
562.442	-768
562.503	-1374
562.564	-653
562.625	-243
562.686	-1495
562.747	-1595
562.808	-989
562.869	-1266
562.930	-1391
562.991	-1281
563.051	-1168
563.112	-739
563.173	-1687
563.234	-637
563.294	-1280
563.355	-1207
563.416	-770
563.477	-1243
563.537	-875
563.598	-159
563.659	-919
563.720	-2030
563.780	-1425
563.841	-860
563.901	-592
563.962	-998
564.023	-654
564.083	-951
564.144	-921
564.204	-1284
564.265	-927
564.325	-1711
564.386	-661
564.446	-617
564.507	-815
564.567	-662
564.628	-1120
564.688	-1337
564.749	-1430
564.809	-962
564.869	-377
564.930	-1440
564.990	-823
565.050	-1958
565.111	-1123
565.171	-1272
565.231	-1131
565.292	-726
565.352	-1055
565.412	-154
565.472	-1698
565.532	-623
565.593	-1569
565.653	-1369
565.713	-976
565.773	-1167
565.833	-1753
565.893	-532
565.953	-792
566.013	-1201
566.074	-2067
566.134	-453
566.194	-1267
566.254	-1581
566.314	-1064
566.374	-960
566.434	-974
566.494	-1168
566.554	-858
566.614	-1480
566.673	-1826
566.733	-918
566.793	-1323
566.853	-1121
566.913	-662
566.973	-1526
567.033	-464
567.092	-1139
567.152	-995
567.212	-1251
567.272	-1492
567.331	-971
567.391	-874
567.451	-1096
567.511	-1717
567.570	-1451
567.630	-1222
567.690	-738
567.749	-750
567.809	-1477
567.868	-767
567.928	-1683
567.988	-1665
568.047	-1807
568.107	-1500
568.166	-1504
568.226	-571
568.285	-994
568.345	-1696
568.404	-1062
568.464	-744
568.523	-1066
568.582	-1010
568.642	-1085
568.701	-1568
568.761	-1303
568.820	-1271
568.879	-262
568.939	-1499
568.998	-1000
569.057	-1170
569.116	-1090
569.176	-1900
569.235	-1012
569.294	-903
569.353	-1525
569.413	-1046
569.472	-1994
569.531	-1279
569.590	-1295
569.649	-1247
569.708	-1534
569.767	-425
569.827	-2051
569.886	-1671
569.945	-1140
570.004	-775
570.063	-1006
570.122	-1639
570.181	-1171
570.240	-1975
570.299	-1020
570.358	-1323
570.417	-1196
570.475	-861
570.534	-311
570.593	-1130
570.652	-1936
570.711	-1483
570.770	-952
570.829	-333
570.887	-1498
570.946	-930
571.005	-2138
571.064	-631
571.122	-519
571.181	-2200
571.240	-1618
571.299	-1477
571.357	-704
571.416	-1278
571.475	-1831
571.533	-1574
571.592	-2434
571.650	-803
571.709	-2088
571.768	-1578
571.826	-867
571.885	-1305
571.943	-1524
572.002	-1483
572.060	-837
572.119	-1476
572.177	-876
572.236	-791
572.294	-1474
572.352	-1420
572.411	-1742
572.469	-1123
572.528	-1182
572.586	-831
572.644	-905
572.703	-863
572.761	-1513
572.819	-1427
572.877	-975
572.936	-1749
572.994	-1047
573.052	-1359
573.110	-1567
573.169	-1402
573.227	-1539
573.285	-507
573.343	-455
573.401	-1035
573.459	-526
573.517	-1739
573.576	-1153
573.634	-1077
573.692	-590
573.750	-1146
573.808	-1967
573.866	-1402
573.924	-891
573.982	-850
574.040	-1139
574.098	-1093
574.155	-825
574.213	-1281
574.271	-1407
574.329	-1847
574.387	-837
574.445	-1550
574.503	-1561
574.560	-1945
574.618	-1948
574.676	-2025
574.734	-524
574.792	-1649
574.849	-1589
574.907	-1476
574.965	-1256
575.022	-1246
575.080	-1073
575.138	-561
575.195	-1962
575.253	-1714
575.311	-1574
575.368	-345
575.426	-1026
575.483	-391
575.541	-1005
575.598	-1465
575.656	-1575
575.713	-1406
575.771	-1769
575.828	-1383
575.886	-1525
575.943	-1097
576.001	-1404
576.058	-1572
576.115	-1285
576.173	-1641
576.230	-1122
576.287	-2212
576.345	-890
576.402	-1652
576.459	-1093
576.517	-1620
576.574	-1038
576.631	-2072
576.688	-499
576.746	-1614
576.803	-1259
576.860	-1752
576.917	-1025
576.974	-1272
577.031	-1835
577.089	-1299
577.146	-1400
577.203	-1139
577.260	-744
577.317	-830
577.374	-2033
577.431	-1540
577.488	-1247
577.545	-2312
577.602	-1672
577.659	-931
577.716	-760
577.773	-1577
577.830	-1149
577.886	-1372
577.943	-1382
578.000	-1991
578.057	-1774
578.114	-488
578.171	-1660
578.227	-1058
578.284	-1736
578.341	-1125
578.398	-1351
578.454	-1039
578.511	-738
578.568	-657
578.625	-2417
578.681	-1585
578.738	-1732
578.794	-1900
578.851	-463
578.908	-1175
578.964	-1785
579.021	-1262
579.077	-1293
579.134	-1549
579.190	-1054
579.247	-1183
579.303	-1209
579.360	-1331
579.416	-1876
579.473	-1403
579.529	-1423
579.586	-1716
579.642	-1410
579.698	-1092
579.755	-1204
579.811	-1107
579.867	-441
579.924	-1554
579.980	-936
580.036	-1368
580.093	-1223
580.149	-1568
580.205	-1428
580.261	-1708
580.317	-1355
580.374	-2089
580.430	-1729
580.486	-1703
580.542	-1305
580.598	-1452
580.619	-1195
580.654	-751
580.692	-1461
580.710	-1815
580.765	-1041
580.767	-1019
580.823	-940
580.838	-902
580.879	-820
580.911	-802
580.935	-790
580.984	-1357
580.991	-1432
581.047	-489
581.057	-649
581.103	-1425
581.130	-1282
581.159	-1108
581.203	-1164
581.215	-1184
581.270	-1751
581.276	-1717
581.326	-1433
581.349	-1407
581.382	-1372
581.422	-865
581.438	-656
581.494	-1392
581.494	-1393
581.550	-1753
581.567	-1603
581.606	-1294
581.640	-1162
581.661	-1056
581.713	-912
581.717	-907
581.773	-1054
581.786	-1049
581.829	-1088
581.859	-1287
581.885	-1418
581.932	-1536
581.940	-1555
581.996	-1072
582.004	-1067
582.052	-1141
582.077	-1263
582.107	-1371
582.150	-894
582.163	-768
582.219	-1150
582.223	-1174
582.274	-1433
582.296	-1517
582.330	-1660
582.368	-1326
582.386	-1101
582.441	-1157
582.441	-1159
582.497	-1451
582.514	-1454
582.552	-1247
582.587	-1338
582.608	-1475
582.659	-1437
582.663	-1427
582.719	-1096
582.732	-1095
582.774	-1096
582.805	-963
582.830	-866
582.877	-1074
582.885	-1109
582.941	-2226
582.950	-2101
582.996	-1472
583.023	-1208
583.052	-849
583.095	-792
583.107	-803
583.162	-1316
583.168	-1266
583.218	-874
583.240	-1217
583.273	-1647
583.313	-1173
583.328	-1024
583.384	-1440
583.385	-1439
583.439	-1229
583.458	-1021
583.494	-869
583.531	-1254
583.549	-1268
583.603	-1567
583.605	-1587
583.660	-1033
583.676	-1220
583.715	-1546
583.748	-1041
583.770	-777
583.820	-1303
583.825	-1345
583.881	-985
583.893	-1122
583.936	-1578
583.965	-1358
583.991	-1229
584.038	-1095
584.046	-1041
584.101	-1046
584.110	-1050
584.156	-1124
584.183	-1326
584.211	-1622
584.255	-1202
584.266	-1047
584.321	-827
584.328	-888
584.376	-1447
584.400	-1048
584.431	-503
584.472	-759
584.486	-898
584.541	-790
584.545	-782
584.596	-456
584.617	-722
584.651	-1062
584.689	-1295
584.706	-1547
584.761	-1499
584.762	-1500
584.816	-884
584.834	-711
584.871	-615
584.906	-1018
584.926	-1229
584.978	-1405
584.980	-1402
585.035	-1001
585.051	-756
585.090	-398
585.123	-880
585.145	-1089
585.195	-1263
585.200	-1277
585.254	-1182
585.267	-1177
585.309	-1088
585.340	-1262
585.364	-1428
585.412	-511
585.419	-379
585.473	-455
585.484	-543
585.528	-973
585.556	-795
585.583	-619
585.628	-971
585.637	-1033
585.692	-778
585.700	-848
585.747	-962
585.772	-591
585.801	-532
585.845	-1099
585.856	-1123
585.910	-1107
585.917	-1029
585.965	-519
585.989	-601
586.019	-699
586.061	-954
586.074	-1124
586.128	-945
586.133	-972
586.183	-828
586.205	-765
586.237	-879
586.277	-1129
586.292	-1058
586.346	-783
586.349	-749
586.401	-491
586.421	-523
586.455	-390
586.493	-176
586.509	-178
586.564	-859
586.565	-853
586.618	-281
586.637	-301
586.672	-167
586.709	-566
586.727	-976
586.781	-629
586.781	-624
586.835	-1058
586.853	-823
586.889	-268
586.925	-673
586.944	-978
586.996	-606
586.998	-582
587.052	-345
587.068	-327
587.106	-641
587.140	-874
587.161	-785
587.212	-474
587.215	-481
587.269	-394
587.284	-550
587.323	-671
587.356	-659
587.377	-713
587.427	-384
587.431	-340
587.485	-216
587.499	-167
587.539	-181
587.571	-369
587.593	-410
587.643	-187
587.648	-215
587.702	-266
587.715	-540
587.755	-963
587.786	-721
587.810	-598
587.858	-873
587.864	-890
587.917	-891
587.930	-850
587.971	-649
588.001	-564
588.025	-290
588.073	506
588.079	539
588.133	-106
588.145	-41
588.187	78
588.217	-103
588.241	-98
588.288	-146
588.295	-138
588.348	410
588.360	330
588.402	370
588.431	752
588.456	692
588.503	546
588.510	576
588.564	532
588.575	607
588.617	1239
588.646	1399
588.671	1433
588.718	2186
588.725	2421
588.778	3815
588.789	4159
588.832	7969
588.861	11456
588.886	20075
588.932	38854
588.939	41161
588.993	61732
589.004	61743
589.047	28646
589.075	10103
589.100	6056
589.147	2009
589.154	1983
589.207	2013
589.218	1934
589.261	1601
589.290	1569
589.314	2051
589.361	3064
589.368	3174
589.421	4251
589.433	4558
589.475	10980
589.504	16181
589.528	24342
589.576	43738
589.582	42631
589.635	20881
589.647	16422
589.689	6295
589.718	1324
589.742	1290
589.790	613
589.795	518
589.849	-166
589.861	-273
589.902	87
589.932	257
589.955	-127
590.004	-880
590.009	-829
590.062	-205
590.075	-152
590.115	-317
590.146	-212
590.168	-131
590.218	-144
590.222	-182
590.275	-609
590.289	-781
590.328	-199
590.360	399
590.381	236
590.431	-389
590.435	-374
590.488	-281
590.503	-170
590.541	-259
590.574	-362
590.594	-215
590.645	91
590.647	89
590.700	-389
590.716	-405
590.753	-260
590.787	-292
590.806	-383
590.859	-386
590.859	-371
590.912	300
590.930	505
590.965	-258
591.001	-1001
591.018	-921
591.071	-681
591.072	-683
591.124	-815
591.143	-887
591.177	-481
591.214	-87
591.230	-221
591.283	-575
591.285	-592
591.336	226
591.356	467
591.389	391
591.427	409
591.442	337
591.495	78
591.498	42
591.547	-348
591.569	-484
591.600	-376
591.640	-249
591.653	-218
591.706	-120
591.711	-117
591.759	-415
591.782	-576
591.811	-436
591.853	-157
591.864	-110
591.917	-8
591.924	1
591.969	49
591.995	102
592.022	-151
592.066	-620
592.075	-604
592.127	-510
592.137	-493
592.180	-197
592.208	2
592.233	-223
592.279	-703
592.285	-586
592.338	439
592.350	664
592.390	328
592.421	69
592.443	221
592.491	545
592.495	537
592.548	400
592.562	358
592.600	297
592.633	254
592.653	208
592.704	91
592.705	96
592.775	351
592.846	170
592.916	18
592.987	75
593.058	548
593.128	-1049
593.199	1258
593.270	-891
593.341	490
593.411	-781
593.482	-7
593.553	-238
593.623	395
593.694	-146
593.764	250
593.835	-389
593.906	446
593.976	-297
594.047	-364
594.117	987
594.188	128
594.258	-143
594.329	54
594.399	-194
594.470	175
594.540	-13
594.611	244
594.681	220
594.751	-149
594.822	320
594.892	105
594.963	-238
595.033	426
595.103	-49
595.174	-14
595.244	-266
595.314	-414
595.384	-527
595.455	-216
595.525	-8
595.595	387
595.665	-534
595.736	241
595.806	314
595.876	-269
595.946	-759
596.016	444
596.087	-684
596.157	274
596.227	36
596.297	42
596.367	-303
596.437	423
596.507	-268
596.577	-602
596.647	-223
596.717	216
596.787	-15
596.857	-273
596.927	-588
596.997	472
597.067	151
597.137	-484
597.207	-241
597.277	85
597.347	-330
597.417	-577
597.487	343
597.557	102
597.626	-1034
597.696	-325
597.766	-395
597.836	-70
597.906	-988
597.975	-59
598.045	-161
598.115	573
598.185	59
598.254	1294
598.324	-380
598.394	-318
598.464	-519
598.533	213
598.603	-469
598.672	428
598.742	-138
598.812	498
598.881	-427
598.951	442
599.020	-387
599.090	-282
599.159	8
599.229	88
599.299	-336
599.368	238
599.437	-516
599.507	-210
599.576	-762
599.646	171
599.715	255
599.785	641
599.854	-662
599.924	373
599.993	-400
600.062	-373
600.132	-430
600.201	-19
600.270	-436
600.340	-123
600.409	-914
600.478	730
600.547	-120
600.617	-339
600.686	-1425
600.755	-77
600.824	-653
600.894	-472
600.963	-239
601.032	-308
601.101	-1057
601.170	-415
601.239	-298
601.308	139
601.378	44
601.447	122
601.516	-520
601.585	277
601.654	-400
601.723	-187
601.792	-536
601.861	-199
601.930	-86
601.999	-550
602.068	-356
602.137	-215
602.206	-166
602.275	261
602.343	-705
602.412	215
602.481	-643
602.550	123
602.619	-712
602.688	-328
602.756	-1205
602.825	-252
602.894	-2
602.963	-490
603.032	-782
603.100	-647
603.169	335
603.238	117
603.307	84
603.375	361
603.444	-402
603.513	-566
603.581	-608
603.650	9
603.719	-905
603.787	-927
603.856	-203
603.924	-1075
603.993	73
604.061	-466
604.130	210
604.198	-751
604.267	87
604.335	-234
604.404	-579
604.472	-415
604.541	-849
604.609	-123
604.678	-428
604.746	-821
604.815	-758
604.883	-158
604.951	-128
605.020	-234
605.088	-526
605.156	-581
605.225	-148
605.293	-403
605.361	-195
605.429	90
605.498	-427
605.566	-111
605.634	-138
605.702	-716
605.771	-928
605.839	-324
605.907	-801
605.975	42
606.043	-396
606.111	-82
606.180	-126
606.248	-594
606.316	-94
606.384	-1064
606.452	-580
606.520	-228
606.588	-883
606.656	-41
606.724	-1087
606.792	75
606.860	-875
606.928	-412
606.996	25
607.064	-28
607.132	-853
607.200	-391
607.267	-906
607.335	-716
607.403	-662
607.471	-848
607.539	-237
607.607	-67
607.674	-571
607.742	-534
607.810	-1005
607.878	4
607.946	-1215
608.013	-756
608.081	-1284
608.149	-557
608.216	-1042
608.284	488
608.352	-477
608.419	-1121
608.487	-91
608.555	-849
608.622	-180
608.690	-488
608.757	-479
608.825	-383
608.893	-410
608.960	682
609.028	-1022
609.095	-19
609.163	-840
609.230	-293
609.298	-239
609.365	-813
609.432	-484
609.500	-479
609.567	-613
609.635	-694
609.702	231
609.769	-32
609.837	-975
609.904	209
609.971	-1128
610.039	732
610.106	-410
610.173	-1197
610.241	-725
610.308	573
610.375	-907
610.442	-1655
610.509	-678
610.577	353
610.644	-533
610.711	-583
610.778	-1049
610.845	-537
610.912	-1430
610.980	-368
611.047	-625
611.114	-274
611.181	-179
611.248	-717
611.315	52
611.382	-830
611.449	-877
611.516	-647
611.583	-576
611.650	-301
611.717	-524
611.784	-641
611.851	-417
611.918	-746
611.984	-1190
612.051	334
612.118	-291
612.185	-191
612.252	-673
612.319	-584
612.386	-562
612.452	-515
612.519	-985
612.586	306
612.653	-454
612.719	-316
612.786	-1111
612.853	-589
612.919	-1615
612.986	143
613.053	-379
613.120	-512
613.186	-1798
613.253	1079
613.319	-1033
613.386	-992
613.453	-1110
613.519	113
613.586	-1172
613.652	287
613.719	-258
613.785	-495
613.852	-542
613.918	-874
613.985	-56
614.051	-1244
614.118	-994
614.184	-591
614.250	-894
614.317	5
614.383	-278
614.449	-1090
614.516	-1075
614.582	-281
614.648	-1000
614.715	-386
614.781	-866
614.847	-484
614.914	-1160
614.980	-1094
615.046	-811
615.112	-875
615.179	-900
615.245	-165
615.311	-222
615.377	-168
615.443	-1476
615.509	-590
615.575	-421
615.642	49
615.708	-1179
615.774	-325
615.840	-792
615.906	-742
615.972	-809
616.038	-375
616.104	-55
616.170	-101
616.236	-1514
616.302	832
616.368	-851
616.434	-1344
616.500	-278
616.565	-163
616.631	-1013
616.697	-1166
616.763	-404
616.829	-518
616.895	-746
616.961	-520
617.026	-846
617.092	-873
617.158	90
617.224	-662
617.289	-656
617.355	-931
617.421	-2221
617.487	-591
617.552	-990
617.618	-1108
617.684	-1516
617.749	1017
617.815	-1179
617.880	-634
617.946	-921
618.012	108
618.077	-1042
618.143	-1020
618.208	-352
618.274	-489
618.339	-1491
618.405	-1054
618.470	-831
618.536	-1085
618.601	-1053
618.667	-1016
618.732	-764
618.798	-591
618.863	-198
618.928	-1001
618.994	-484
619.059	-619
619.124	-1752
619.190	-333
619.255	-654
619.320	-1082
619.386	-1131
619.451	-671
619.516	-263
619.581	-507
619.647	-861
619.712	-609
619.777	-912
619.842	-446
619.907	-859
619.972	-544
620.038	-772
620.103	-863
620.168	-1644
620.233	196
620.298	-1223
620.363	-343
620.428	-1506
620.493	-529
620.558	-800
620.623	-1053
620.688	-1170
620.753	-1082
620.818	-1233
620.883	-667
620.948	-1334
621.013	-1280
621.078	-771
621.143	-2208
621.207	644
621.272	-1173
621.337	-1127
621.402	-448
621.467	-499
621.532	-324
621.596	-429
621.661	492
621.726	-1025
621.791	-937
621.855	-1365
621.920	-656
621.985	-1698
622.049	-789
622.114	-2338
622.179	-658
622.243	-1335
622.308	-1193
622.373	-9
622.437	-369
622.502	-1229
622.566	-838
622.631	-2287
622.695	144
622.760	-1512
622.824	-212
622.889	-1191
622.953	-1249
623.018	-796
623.082	-391
623.147	-1124
623.211	64
623.276	-542
623.340	-987
623.404	-620
623.469	-792
623.533	-157
623.597	-1562
623.662	-1363
623.726	-1317
623.790	-1412
623.854	-1232
623.919	-1443
623.983	-1303
624.047	-995
624.111	-623
624.176	-945
624.240	-1119
624.304	-244
624.368	-781
624.432	-685
624.496	-382
624.560	-1244
624.625	-1588
624.689	-838
624.753	-1179
624.817	-389
624.881	-1458
624.945	-805
625.009	-778
625.073	-1174
625.137	-2186
625.201	-1697
625.265	-931
625.329	-1193
625.393	-1499
625.456	-1120
625.520	-612
625.584	-1289
625.648	-1082
625.712	-1552
625.776	-1666
625.839	-1619
625.903	-950
625.967	-1944
626.031	771
626.095	-1045
626.158	-1529
626.222	-2178
626.286	10
626.349	-1739
626.413	-2005
626.477	-401
626.540	-499
626.604	-1594
626.668	27
626.731	-1822
626.795	-1722
626.858	-1288
626.922	-1139
626.986	-1101
627.049	-1646
627.113	-1383
627.176	-573
627.240	-792
627.303	-1016
627.366	-1141
627.430	12
627.493	-974
627.557	-2087
627.620	-84
627.684	-751
627.747	-1007
627.810	-1881
627.874	-954
627.937	-1782
628.000	-2
628.064	-734
628.127	-3314
628.190	-182
628.253	-786
628.317	-1491
628.380	-1306
628.443	-1934
628.506	-2123
628.569	-998
628.632	-1473
628.696	273
628.759	-735
628.822	-846
628.885	-1527
628.948	-882
629.011	-1587
629.074	-1279
629.137	-1017
629.200	-1527
629.263	-252
629.326	-1569
629.389	-1482
629.452	-1164
629.515	-855
629.578	-1390
629.641	-299
629.704	-1355
629.767	-1697
629.830	-662
629.892	-909
629.955	-1092
630.018	-72
630.081	-1810
630.144	-504
630.207	-2135
630.269	-443
630.332	-1373
630.395	-1314
630.458	-166
630.520	-1976
630.583	124
630.646	-860
630.708	-856
630.771	-1874
630.834	-136
630.896	-1579
630.959	-1026
631.021	-2088
631.084	-904
631.146	-808
631.209	-1023
631.272	-1049
631.334	-679
631.397	-1473
631.459	-1801
631.522	-683
631.584	-1043
631.646	-840
631.709	-629
631.771	-1476
631.834	-833
631.896	-698
631.958	-1704
632.021	-1291
632.083	-1480
632.145	-943
632.208	-794
632.270	-920
632.332	-2304
632.395	-1903
632.457	-653
632.519	-1599
632.581	789
632.643	-1498
632.706	-565
632.768	-2439
632.830	-328
632.892	-1063
632.954	-1074
633.016	-406
633.078	-1334
633.141	-1528
633.203	-285
633.265	-964
633.327	-982
633.389	-1633
633.451	-506
633.513	-1816
633.575	-685
633.637	-1839
633.698	-1849
633.760	-980
633.822	-1111
633.884	-1316
633.946	-446
634.008	-2000
634.070	-1056
634.132	-1057
634.193	-1058
634.255	-1089
634.317	-1259
634.379	-701
634.441	-949
634.502	-1985
634.564	-119
634.626	-1087
634.687	-1136
634.749	-741
634.811	-762
634.873	-2151
634.934	-760
634.996	-1532
635.057	-1705
635.119	-2554
635.181	-1492
635.242	-774
635.304	-2334
635.365	152
635.427	-1420
635.488	-1774
635.550	-1984
635.611	-456
635.673	-3432
635.734	-1026
635.796	-1510
635.857	-1427
635.918	-2498
635.980	-1361
636.041	-1895
636.102	-1585
636.164	-1361
636.225	-580
636.286	-2727
636.348	-441
636.409	-1634
636.470	-1971
636.531	34
636.593	-2182
636.654	-794
636.715	-1107
636.776	-1014
636.838	-1811
636.899	-168
636.960	-1369
637.021	-1156
637.082	-755
637.143	-1024
637.204	-1824
637.265	-1538
637.326	-1350
637.387	-566
637.448	-1824
637.509	-1072
637.570	-1430
637.631	-440
637.692	-2875
637.753	-1598
637.814	-1553
637.875	-1041
637.936	45
637.997	-1141
638.058	-2158
638.119	-378
638.179	-1070
638.240	-1961
638.301	-992
638.362	-1987
638.423	-1374
638.483	-537
638.544	-2385
638.605	-957
638.666	-3139
638.726	-712
638.787	-1169
638.848	-1294
638.908	-1239
638.969	-632
639.030	-1710
639.090	-2288
639.151	-2354
639.211	-874
639.272	-1634
639.332	-1490
639.393	-1172
639.453	-1965
639.514	-864
639.574	-1277
639.635	-1277
639.695	-565
639.756	-2136
639.816	-615
639.877	-1533
639.937	-49
639.997	-961
640.058	-1767
640.118	-2495
640.178	-567
640.239	-1644
640.299	-723
640.359	-1835
640.420	-857
640.480	-1111
640.540	-1506
640.600	-2015
640.661	-448
640.721	-2029
640.781	257
640.841	-3201
640.901	-805
640.961	-517
641.021	-1173
641.082	-2506
641.142	-1772
641.202	-747
641.262	-2661
641.322	-1029
641.382	-2638
641.442	-1045
641.502	-904
641.562	-964
641.622	-996
641.682	-1221
641.742	-1371
641.802	-1783
641.861	-463
641.921	-1415
641.981	-491
642.041	-564
642.101	-1410
642.161	-2396
642.221	-2086
642.280	-1127
642.340	-1098
642.400	-2094
642.460	-187
642.519	-1437
642.579	-551
642.639	-220
642.698	-3747
642.758	223
642.818	-695
642.877	-1757
642.937	-2005
642.997	-1164
643.056	-1247
643.116	-2702
643.175	-46
643.235	-1689
643.294	-602
643.354	-1008
643.414	-853
643.473	-1356
643.532	-1584
643.592	-2162
643.651	-1850
643.711	-1043
643.770	-794
643.830	-1722
643.889	-1619
643.948	-1674
644.008	-1300
644.067	-1671
644.126	-1715
644.186	-1455
644.245	-328
644.304	-2336
644.363	162
644.423	-2154
644.482	-988
644.541	-1199
644.600	-3330
644.659	-1513
644.719	-1794
644.778	-2173
644.837	-2206
644.896	-1662
644.955	-1076
645.014	-1976
645.073	-1018
645.132	-1575
645.191	-274
645.250	-2093
645.309	-82
645.368	-2223
645.427	-119
645.486	-2170
645.545	-391
645.604	-2312
645.663	-227
645.722	-2229
645.781	-1056
645.840	-2092
645.898	-1518
645.957	-730
646.016	-2007
646.075	-1696
646.134	-1775
646.192	-973
646.251	-967
646.310	-1837
646.369	-1952
646.427	-1910
646.486	-1980
646.545	-1272
646.603	-525
646.662	-1402
646.721	-1186
646.779	-2305
646.838	-1836
646.896	-1182
646.955	-1355
647.014	-1197
647.072	-1600
647.131	-1092
647.189	-1681
647.248	-1175
647.306	-637
647.365	-1255
647.423	-1845
647.481	315
647.540	-2657
647.598	-1065
647.657	-1259
647.715	-1228
647.773	-2497
647.832	-537
647.890	-2087
647.948	-2071
648.007	-806
648.065	-2591
648.123	-1522
648.181	-265
648.240	-1194
648.298	-2190
648.356	-1416
648.414	-1592
648.472	-1262
648.531	-1312
648.589	-1221
648.647	-2121
648.705	-1298
648.763	-1579
648.821	-1068
648.879	-2015
648.937	-800
648.995	-1702
649.053	-1292
649.111	-1435
649.169	-595
649.227	-1263
649.285	-1901
649.343	-2083
649.401	-1427
649.459	-738
649.516	-75
649.574	-2951
649.632	-623
649.690	-1077
649.748	-1100
649.806	-2933
649.863	-213
649.921	-1444
649.979	-1664
650.037	-1093
650.094	-2625
650.152	-1248
650.210	-1559
650.268	-1459
650.325	-805
650.383	-2564
650.440	-1645
650.498	-1042
650.556	-2348
650.613	-1737
650.671	-334
650.728	-1384
650.786	-1498
650.843	-1453
650.901	-3179
650.958	-1035
651.016	-1285
651.073	-1573
651.131	-1672
651.188	-2811
651.246	-1225
651.303	-2357
651.360	63
651.418	-2085
651.475	-896
651.532	-2233
651.590	-1119
651.647	-2594
651.704	-1378
651.762	-2290
651.819	-1068
651.876	-2095
651.933	-1024
651.990	-1039
652.048	-3083
652.105	-2114
652.162	-1067
652.219	-1506
652.276	-1730
652.333	-491
652.390	-2079
652.448	-1591
652.505	-1484
652.562	-1270
652.619	-1690
652.676	-1527
652.733	-759
652.790	-1835
652.847	-2470
652.904	-965
652.961	-2409
653.017	-2654
653.074	-536
653.131	-1482
653.188	-2004
653.245	-1986
653.302	-1110
653.359	-2055
653.415	-626
653.472	-2972
653.529	-946
653.586	-1999
653.642	-2005
653.699	-964
653.756	-2213
653.813	-2570
653.869	-1343
653.926	-1870
653.983	-1823
654.039	-1336
654.096	-2157
654.152	-925
654.209	-2296
654.266	-1121
654.322	-2095
654.379	-1594
654.435	-1360
654.492	-1955
654.548	-1600
654.605	-2336
654.661	-56
654.717	-1639
654.774	-1491
654.830	-1497
654.887	-1527
654.943	-2751
655.000	-1652
655.056	-1512
655.112	-595
655.168	-2794
655.225	-1421
655.281	-1636
655.337	-1549
655.394	-1867
655.450	-1866
655.506	-1523
655.562	-1548
655.618	-979
655.675	-2177
655.731	-1811
655.787	-1328
655.843	-491
655.899	-1933
655.955	-1062
656.011	-423
656.067	-1293
656.123	-942
656.179	-767
656.235	570
656.291	-1966
656.347	-188
656.403	-1675
656.459	-1821
656.515	-1526
656.571	-779
656.627	-1431
656.683	-1506
656.739	-1619
656.795	-1731
656.850	-1272
656.906	-956
656.962	-1494
657.018	-1853
657.074	-1777
657.129	-1800
657.185	-2019
657.241	-1594
657.297	-2273
657.352	-1588
657.408	-2653
657.464	-839
657.519	-2219
657.575	-2135
657.630	-1594
657.686	-1505
657.742	-2611
657.797	-1634
657.853	-2041
657.908	-1128
657.964	-2441
658.019	-1284
658.075	-1823
658.130	-1279
658.186	-2410
658.241	-659
658.297	-2756
658.352	-1688
658.407	-1343
658.463	-2223
658.518	-1628
658.573	-1147
658.629	-2236
658.684	-1864
658.739	-1122
658.795	-2164
658.850	-1586
658.905	-886
658.960	-1777
659.016	-2342
659.071	-1755
659.126	-1813
659.181	-3068
659.236	-701
659.291	-1092
659.346	-1184
659.401	-1621
659.457	-1464
659.512	-2854
659.567	-1512
659.622	-2167
659.677	-1811
659.732	-2321
659.787	-1314
659.842	-2104
659.897	-1762
659.952	-1884
660.007	-1608
660.061	-1825
660.116	-1906
660.171	-1898
660.226	-1226
660.281	-980
660.336	-2246
660.391	-1481
660.445	-1702
660.500	-2064
660.555	-1598
660.610	-2189
660.664	-1118
660.719	-1415
660.774	-1797
660.828	-1988
660.883	-697
660.938	-1210
660.992	-2359
661.047	-1816
661.101	-1445
661.156	-2459
661.211	-2026
661.265	-2106
661.320	-2288
661.374	-2063
661.429	-1969
661.483	-1319
661.538	-2682
661.592	-2030
661.647	-1692
661.701	-2387
661.755	-853
661.810	-1444
661.864	-2532
661.919	-2144
661.973	-1646
662.027	-2359
662.081	-1782
662.136	-2582
662.190	-1235
662.244	-1194
662.299	-1511
662.353	-1223
662.407	-1442
662.461	-1832
662.515	-1867
662.569	-2332
662.624	-1427
662.678	-2054
662.732	-1091
662.786	-1808
662.840	-1741
662.894	-2508
662.948	-1419
663.002	-1377
663.056	-1447
663.110	-2366
663.164	-1732
663.218	-2516
663.272	-1604
663.326	-2275
663.380	-2048
663.434	-1905
663.488	-1855
663.542	-1779
663.595	-1814
663.649	-2176
663.703	-1600
663.757	-2363
663.811	-1841
663.864	-2304
663.918	-1817
663.972	-2168
664.026	-1585
664.079	-2288
664.133	-779
664.187	-1667
664.240	-1811
664.294	-2446
664.348	-2245
664.401	-1354
664.455	-1750
664.508	-2442
664.562	-1610
664.615	-2224
664.669	-2190
664.722	-1340
664.776	-1325
664.829	-1676
664.883	-2069
664.936	-2046
664.990	-1793
665.043	-1361
665.097	-2544
665.150	-1074
665.203	-2473
665.257	-2120
665.310	-1919
665.363	-2457
665.417	-1713
665.470	-1730
665.523	-1690
665.576	-1712
665.630	-1760
665.683	-2704
665.736	-1224
665.789	-2293
665.842	-2346
665.895	-1007
665.949	-1615
666.002	-2161
666.055	-1831
666.108	-1704
666.161	-1293
666.214	-955
666.267	-1398
666.320	-2524
666.373	-770
666.426	-2459
666.479	-2451
666.532	-1949
666.585	-2693
666.638	-2662
666.691	-1283
666.744	-1982
666.796	-2724
666.849	-2061
666.902	-1472
666.955	-2590
667.008	-2262
667.060	-2894
667.113	-1692
667.166	-2880
667.219	-1502
667.271	-2260
667.324	-2144
667.377	-1951
667.430	-1350
667.482	-1834
667.535	-1839
667.587	-1792
667.640	-1979
667.693	-2430
667.745	-2176
667.798	-1304
667.850	-2496
667.903	-1336
667.955	-1848
668.008	-2451
668.060	-1628
668.113	-2257
668.165	-1369
668.218	-2215
668.270	-1096
668.322	-1719
668.375	-2042
668.427	-2259
668.479	-1892
668.532	-2334
668.584	-1548
668.636	-1729
668.689	-1414
668.741	-2543
668.793	-1763
668.845	-2168
668.898	-1124
668.950	-1660
669.002	-2248
669.054	-2819
669.106	-2364
669.158	-1642
669.211	-1976
669.263	-1776
669.315	-1096
669.367	-2310
669.419	-2577
669.471	-791
669.523	-1961
669.575	-2204
669.627	-2063
669.679	-2593
669.731	-1595
669.783	-1640
669.835	-1526
669.886	-2084
669.938	-1798
669.990	-2233
670.042	-2185
670.094	-1924
670.146	-2418
670.197	-2312
670.249	-962
670.301	-2559
670.353	-1463
670.404	-1175
670.456	-1498
670.508	-1577
670.560	-781
670.611	-586
670.663	871
670.715	2672
670.766	6324
670.818	893
670.869	-1707
670.921	-1216
670.972	-1811
671.024	-2522
671.075	-2170
671.127	-1670
671.178	-2923
671.230	-2381
671.281	-1767
671.333	-2082
671.384	-2484
671.436	-2298
671.487	-1263
671.538	-2664
671.590	-1249
671.641	-1795
671.692	-1968
671.744	-2047
671.795	-1628
671.846	-2492
671.897	-1432
671.949	-2497
672.000	-1539
672.051	-2417
672.102	-830
672.153	-2206
672.204	-1248
672.256	-2524
672.307	-1171
672.358	-1698
672.409	-1247
672.460	-1722
672.511	-1763
672.562	-2378
672.613	-2417
672.664	-2025
672.715	-1737
672.766	-2199
672.817	-1460
672.868	-1881
672.919	-1407
672.970	-2123
673.021	-2529
673.071	-2460
673.122	-1457
673.173	-2236
673.224	-1897
673.275	-2276
673.326	-1995
673.376	-1469
673.427	-2371
673.478	-2145
673.528	-1295
673.579	-2234
673.630	-1703
673.680	-1564
673.731	-2013
673.782	-2433
673.832	-2077
673.883	-1987
673.934	-1615
673.984	-2665
674.035	-2142
674.085	-1926
674.136	-1918
674.186	-1932
674.237	-1324
674.287	-2926
674.338	-1811
674.388	-2688
674.438	-2565
674.489	-2345
674.539	-1191
674.589	-2781
674.640	-1802
674.690	-2046
674.740	-2420
674.791	-2352
674.841	-2329
674.891	-2371
674.942	-1363
674.992	-2195
675.042	-1744
675.092	-2333
675.142	-2085
675.193	-2932
675.243	-2301
675.293	-2221
675.343	-2650
675.393	-2843
675.443	-1775
675.493	-1555
675.543	-1781
675.593	-2631
675.643	-1961
675.693	-2443
675.743	-1789
675.793	-2176
675.843	-2061
675.893	-2739
675.943	-1933
675.993	-1772
676.043	-2715
676.093	-1597
676.142	-1849
676.192	-2125
676.242	-1922
676.292	-2667
676.341	-2524
676.391	-1951
676.441	-1906
676.491	-2913
676.540	-2674
676.590	-2242
676.640	-1008
676.689	-2455
676.739	-2358
676.789	-1493
676.838	-2750
676.888	-1838
676.937	-1940
676.987	-3021
677.037	-2411
677.086	-1586
677.136	-1756
677.185	-2537
677.235	-2167
677.284	-2767
677.333	-2245
677.383	-2739
677.432	-2463
677.482	-2012
677.531	-2357
677.580	-1676
677.630	-2153
677.679	-2553
677.728	-2221
677.778	-2852
677.827	-1994
677.876	-2236
677.925	-2257
677.975	-2395
678.024	-2045
678.073	-2378
678.122	-1565
678.171	-2427
678.220	-2107
678.269	-2581
678.319	-1903
678.368	-2670
678.417	-2504
678.466	-2243
678.515	-1826
678.564	-2356
678.613	-2020
678.662	-2660
678.711	-2097
678.760	-2147
678.809	-2557
678.857	-2056
678.906	-1279
678.955	-2168
679.004	-1413
679.053	-2430
679.102	-2483
679.151	-1862
679.199	-1948
679.248	-2763
679.297	-951
679.346	-2617
679.394	-1622
679.443	-2192
679.492	-1737
679.540	-2367
679.589	-1938
679.638	-2437
679.686	-1691
679.735	-1761
679.784	-1861
679.832	-3072
679.881	-2415
679.929	-2696
679.978	-2108
680.026	-2492
680.075	-2111
680.123	-2764
680.172	-1875
680.220	-2610
680.268	-1574
680.317	-2701
680.365	-2463
680.414	-2886
680.462	-1603
680.510	-2044
680.559	-1980
680.607	-2282
680.655	-2688
680.703	-2713
680.752	-1616
680.800	-2250
680.848	-2580
680.896	-2292
680.945	-1516
680.993	-2846
681.041	-2340
681.089	-2350
681.137	-2037
681.185	-2729
681.233	-1751
681.258	-1859
681.281	-1964
681.329	-2532
681.377	-3054
681.380	-2997
681.425	-2019
681.473	-1505
681.502	-1774
681.521	-1970
681.569	-2156
681.617	-1785
681.624	-1879
681.665	-2487
681.713	-1222
681.745	-1619
681.761	-1817
681.809	-2273
681.857	-2307
681.867	-2242
681.904	-2013
681.952	-2671
681.989	-2405
682.000	-2330
682.048	-1910
682.096	-2620
682.111	-2393
682.143	-1927
682.191	-1800
682.233	-2303
682.239	-2380
682.286	-1934
682.334	-2814
682.354	-2548
682.382	-2200
682.430	-2415
682.476	-1665
682.477	-1652
682.525	-2248
682.572	-1820
682.598	-2184
682.620	-2479
682.667	-1405
682.715	-1641
682.720	-1609
682.763	-1385
682.810	-2023
682.841	-2061
682.857	-2071
682.905	-2299
682.952	-1431
682.963	-1599
683.000	-2231
683.047	-2089
683.085	-1663
683.095	-1536
683.142	-2138
683.190	-2227
683.206	-2026
683.237	-1712
683.284	-1826
683.328	-2102
683.332	-2126
683.379	-2096
683.426	-2418
683.449	-2426
683.473	-2442
683.521	-2111
683.568	-2188
683.571	-2161
683.615	-1819
683.662	-2205
683.693	-1942
683.709	-1796
683.757	-1914
683.804	-1292
683.814	-1525
683.851	-2385
683.898	-1657
683.936	-1967
683.945	-2045
683.992	-1542
684.039	-1849
684.057	-1687
684.086	-1391
684.133	-1474
684.179	-1401
684.180	-1403
684.227	-1368
684.274	-1598
684.300	-1675
684.321	-1712
684.368	-1756
684.415	-1863
684.422	-1860
684.462	-1877
684.509	-2250
684.543	-1978
684.556	-1891
684.603	-2281
684.649	-2246
684.665	-2261
684.696	-2239
684.743	-1623
684.786	-2350
684.790	-2416
684.837	-1719
684.883	-1862
684.908	-1676
684.930	-1523
684.977	-1736
685.023	-1902
685.029	-1917
685.070	-1982
685.117	-1834
685.150	-1927
685.164	-1970
685.210	-1886
685.257	-1968
685.272	-1816
685.303	-1485
685.350	-2596
685.393	-1954
685.396	-1911
685.443	-2364
685.490	-1524
685.514	-1870
685.536	-2108
685.583	-1614
685.629	-1476
685.636	-1486
685.675	-1603
685.722	-1713
685.757	-1282
685.768	-1169
685.815	-1890
685.861	-1373
685.878	-1602
685.908	-1941
685.954	-1725
686.000	-2313
686.000	-2323
686.047	-1724
686.093	-2405
686.121	-2051
686.139	-1818
686.185	-1988
686.232	-2028
686.242	-1958
686.278	-1620
686.324	-1674
686.363	-1539
686.370	-1546
686.416	-1465
686.463	-1563
686.484	-2072
686.509	-2520
686.555	-2107
686.601	-1635
686.606	-1571
686.647	-1170
686.693	-1629
686.727	-1892
686.739	-1960
686.785	-1007
686.831	-1726
686.848	-1469
686.877	-1070
686.923	-1645
686.969	-1866
686.969	-1867
687.015	-1526
687.061	-1643
687.090	-1678
687.107	-1659
687.153	-1347
687.199	-1911
687.211	-1717
687.245	-1122
687.291	-939
687.332	-1653
687.336	-1747
687.382	-1709
687.428	-1496
687.453	-1513
687.474	-1430
687.520	-1762
687.565	-763
687.574	-973
687.611	-1828
687.657	-1570
687.695	-1369
687.702	-1339
687.748	-1329
687.794	-862
687.816	-1205
687.839	-1596
687.885	-1614
687.931	-1664
687.937	-1678
687.976	-1625
688.022	-1639
688.058	-957
688.067	-810
688.113	-1704
688.158	-1255
688.179	-1398
688.204	-1545
688.249	-1593
688.295	-1547
688.300	-1551
688.340	-1600
688.386	-1347
688.421	-1390
688.431	-1403
688.477	-1724
688.522	-1374
688.542	-1352
688.567	-1334
688.613	-1927
688.658	-1896
688.663	-1811
688.703	-1093
688.749	-1716
688.784	-1727
688.794	-1723
688.839	-1683
688.884	-1105
688.905	-1304
688.930	-1508
688.975	-982
689.020	-1034
689.026	-1014
689.065	-1011
689.110	-1550
689.146	-1352
689.155	-1268
689.201	-1541
689.246	-978
689.267	-1077
689.291	-1263
689.336	-693
689.381	-1445
689.388	-1411
689.426	-1024
689.471	-986
689.509	-853
689.516	-876
689.561	-1038
689.606	-1021
689.630	-1266
689.651	-1395
689.696	-1304
689.741	-1341
689.750	-1283
689.785	-1151
689.830	-1082
689.871	-1276
689.875	-1286
689.920	-1229
689.965	-919
689.992	-1145
690.010	-1329
690.054	-1088
690.099	-1724
690.112	-1629
690.144	-1324
690.189	-1498
690.233	-1424
690.233	-1421
690.278	-1358
690.323	-1483
690.354	-1249
690.367	-1133
690.412	-966
690.457	-880
690.474	-756
690.501	-812
690.546	-1230
690.590	-1237
690.595	-1299
690.635	-1348
690.680	-882
690.716	-1062
690.724	-1137
690.769	-653
690.813	-480
690.836	-529
690.857	-627
690.902	-926
690.946	-1243
690.957	-1254
690.991	-1384
691.035	-1391
691.077	-1447
691.080	-1429
691.124	-1201
691.168	-873
691.198	-706
691.213	-711
691.257	-1243
691.301	-1187
691.318	-1285
691.346	-1343
691.390	-950
691.434	-1006
691.439	-1009
691.478	-1229
691.522	-1257
691.559	-1241
691.567	-1194
691.611	-1560
691.655	-1337
691.680	-1239
691.699	-1124
691.743	-782
691.787	-745
691.800	-759
691.831	-979
691.875	-941
691.919	-901
691.921	-922
691.964	-1530
692.008	-1013
692.041	-1174
692.052	-1096
692.096	-744
692.139	-133
692.162	4
692.183	-317
692.227	-859
692.271	-1089
692.282	-1271
692.315	-1250
692.359	-988
692.402	-589
692.403	-585
692.447	-824
692.490	-512
692.523	-675
692.534	-734
692.578	-913
692.622	-827
692.643	-910
692.666	-1033
692.709	-915
692.753	-1334
692.763	-1341
692.797	-1190
692.840	-645
692.884	-620
692.884	-618
692.928	-726
692.971	-708
693.004	-769
693.015	-822
693.059	-921
693.102	-1016
693.124	-924
693.146	-724
693.189	-748
693.233	-617
693.245	-695
693.276	-974
693.320	-476
693.363	-1003
693.365	-997
693.407	-684
693.450	-690
693.485	-434
693.493	-353
693.537	-687
693.580	-609
693.605	-628
693.624	-747
693.667	-557
693.710	-840
693.725	-888
693.753	-735
693.797	-961
693.840	-649
693.845	-640
693.883	-721
693.926	-605
693.966	-591
693.970	-584
694.013	-516
694.056	-590
694.086	-718
694.099	-703
694.142	-464
694.185	-288
694.206	-232
694.229	-361
694.272	-529
694.315	-569
694.326	-630
694.358	-569
694.401	-625
694.444	-458
694.446	-463
694.487	-557
694.530	-424
694.566	-430
694.573	-415
694.616	-317
694.659	-225
694.686	-142
694.702	-132
694.745	-259
694.787	-364
694.806	-393
694.830	-519
694.873	-471
694.916	-916
694.926	-984
694.959	-971
695.002	-936
695.044	-692
695.046	-700
695.087	-839
695.130	-555
695.166	-651
695.172	-663
695.215	-657
695.258	-637
695.286	-709
695.301	-790
695.343	-720
695.386	-916
695.406	-1000
695.428	-879
695.471	-460
695.514	-328
695.526	-252
695.556	-265
695.599	-284
695.641	-422
695.646	-423
695.684	-401
695.726	-478
695.766	-599
695.769	-594
695.811	-393
695.854	-536
695.886	-425
695.896	-376
695.938	-151
695.981	-285
696.005	-284
696.023	-349
696.065	-357
696.108	-448
696.125	-513
696.150	-496
696.192	-340
696.235	-250
696.245	-237
696.277	-234
696.319	-333
696.361	-382
696.365	-388
696.404	-555
696.446	-768
696.485	-940
696.488	-910
696.530	-631
696.572	-118
696.604	-21
696.614	-69
696.656	104
696.698	-65
696.724	-86
696.740	-132
696.783	-376
696.825	-436
696.844	-510
696.867	-454
696.909	-334
696.951	-317
696.964	-270
696.992	-238
697.034	-316
697.076	-376
697.083	-389
697.118	-241
697.160	24
697.202	129
697.203	129
697.244	-131
697.286	-664
697.323	-942
697.327	-875
697.369	-407
697.411	143
697.442	490
697.453	431
697.494	158
697.536	-93
697.562	-221
697.578	-162
697.620	-79
697.661	4
697.682	17
697.703	-17
697.744	-14
697.786	40
697.801	-0
697.828	-28
697.869	-52
697.911	-10
697.921	-13
697.952	-107
697.994	-213
698.035	-357
698.040	-376
698.077	-267
698.118	-201
698.160	-86
698.160	-91
698.201	-110
698.243	-159
698.279	-156
698.284	-137
698.325	-15
698.367	57
698.399	146
698.408	117
698.449	-101
698.491	-244
698.518	-369
698.532	-372
698.573	-383
698.614	-394
698.638	-404
698.656	-356
698.697	-267
698.738	-150
698.757	-102
698.779	-54
698.820	16
698.862	108
698.877	136
698.903	282
698.944	506
698.985	739
698.996	798
699.026	597
699.067	312
699.116	-30
699.235	-126
699.354	-639
699.474	-739
699.593	329
699.713	-232
699.832	93
699.951	520
700.070	265
700.190	-522
700.309	174
700.428	-217
700.547	448
700.667	210
700.786	46
700.905	234
701.024	-206
701.143	-927
701.262	341
701.381	-257
701.500	-197
701.619	79
701.738	685
701.857	202
701.976	158
702.095	1
702.214	273
702.333	555
702.452	472
702.571	-735
702.690	-379
702.809	265
702.928	186
703.047	-378
703.165	198
703.284	140
703.403	-35
703.522	-408
703.640	66
703.759	-303
703.878	319
703.997	-477
704.115	-652
704.234	-536
704.353	292
704.471	-263
704.590	-53
704.708	-284
704.827	-275
704.946	-339
705.064	-85
705.183	-504
705.301	-144
705.420	487
705.538	75
705.656	-163
705.775	-317
705.893	-512
706.012	265
706.130	-468
706.249	-114
706.367	-732
706.485	119
706.604	-271
706.722	-155
706.840	-59
706.958	-375
707.077	63
707.195	811
707.313	-376
707.431	316
707.549	-424
707.668	-153
707.786	5
707.904	-509
708.022	-556
708.140	-167
708.258	-33
708.376	360
708.494	-287
708.612	534
708.730	-143
708.848	-704
708.966	-325
709.084	595
709.202	-339
709.320	-33
709.438	-268
709.556	-144
709.674	-80
709.791	442
709.909	-179
710.027	169
710.145	-361
710.263	113
710.380	-835
710.498	577
710.616	-417
710.733	-794
710.851	60
710.969	-446
711.086	-136
711.204	-27
711.322	-353
711.439	-63
711.557	-707
711.674	-500
711.792	-1213
711.909	474
712.027	159
712.144	287
712.262	309
712.379	760
712.497	13
712.614	539
712.732	-37
712.849	102
712.966	-284
713.084	-82
713.201	-454
713.318	31
713.436	-381
713.553	-69
713.670	132
713.787	561
713.905	-565
714.022	-429
714.139	-440
714.256	-227
714.373	-840
714.490	-299
714.608	155
714.725	222
714.842	3
714.959	237
715.076	-908
715.193	-852
715.310	-413
715.427	369
715.544	311
715.661	317
715.778	60
715.895	-895
716.011	-25
716.128	-713
716.245	-93
716.362	492
716.479	-150
716.596	163
716.713	-311
716.829	-512
716.946	-579
717.063	727
717.180	-744
717.296	-270
717.413	-616
717.530	526
717.646	-364
717.763	55
717.880	-400
717.996	-741
718.113	-729
718.229	-82
718.346	-647
718.462	-444
718.579	-588
718.695	597
718.812	412
718.928	-267
719.045	-227
719.161	46
719.277	-259
719.394	-240
719.510	-76
719.626	-826
719.743	86
719.859	97
719.975	-541
720.092	502
720.208	-582
720.324	371
720.440	-1058
720.557	-57
720.673	-614
720.789	154
720.905	-930
721.021	-199
721.137	-1094
721.253	126
721.369	272
721.486	247
721.602	-666
721.718	-194
721.834	10
721.950	-487
722.066	-1268
722.181	219
722.297	-754
722.413	-131
722.529	-119
722.645	-278
722.761	-443
722.877	-960
722.993	-508
723.108	-189
723.224	-841
723.340	122
723.456	385
723.571	631
723.687	-1564
723.803	-376
723.918	-365
724.034	-207
724.150	-190
724.265	-176
724.381	-875
724.497	-191
724.612	-592
724.728	-503
724.843	-13
724.959	243
725.074	-390
725.190	-6
725.305	-982
725.421	-157
725.536	-200
725.651	-222
725.767	-621
725.882	-578
725.997	-862
726.113	-166
726.228	-320
726.343	-471
726.459	-530
726.574	-587
726.689	-832
726.804	-215
726.920	-170
727.035	145
727.150	88
727.265	-302
727.380	-804
727.495	257
727.610	-715
727.725	-73
727.841	-813
727.956	-287
728.071	-230
728.186	-290
728.301	-886
728.416	-208
728.531	-1048
728.645	219
728.760	-98
728.875	-191
728.990	-322
729.105	-1041
729.220	-635
729.335	-41
729.449	-671
729.564	-295
729.679	-889
729.794	-538
729.908	-821
730.023	-289
730.138	-827
730.253	-979
730.367	-478
730.482	228
730.596	-267
730.711	113
730.826	-461
730.940	170
731.055	-1264
731.169	-699
731.284	-400
731.398	-345
731.513	-231
731.627	-995
731.742	-432
731.856	-125
731.970	-786
732.085	-156
732.199	-644
732.313	-177
732.428	-640
732.542	-112
732.656	-1299
732.771	-700
732.885	-1349
732.999	307
733.113	-198
733.227	73
733.342	-609
733.456	-307
733.570	-845
733.684	20
733.798	-1208
733.912	-227
734.026	-588
734.140	-221
734.254	-305
734.368	258
734.482	-823
734.596	-494
734.710	-879
734.824	-435
734.938	-670
735.052	-260
735.166	-800
735.280	-484
735.393	-445
735.507	340
735.621	-174
735.735	88
735.849	-520
735.962	-875
736.076	-1004
736.190	-417
736.303	-1035
736.417	-126
736.531	-1314
736.644	129
736.758	-198
736.872	-794
736.985	-308
737.099	-541
737.212	-1009
737.326	618
737.439	-946
737.553	-185
737.666	-597
737.780	-410
737.893	-391
738.007	-816
738.120	-956
738.233	-157
738.347	-784
738.460	431
738.573	-810
738.687	-477
738.800	-510
738.913	276
739.026	-851
739.140	-424
739.253	-760
739.366	210
739.479	-1853
739.592	-1387
739.705	-201
739.818	-950
739.932	-1143
740.045	-712
740.158	-459
740.271	124
740.384	-1058
740.497	-177
740.610	-882
740.723	-94
740.836	-418
740.949	183
741.062	-121
741.174	73
741.287	-573
741.400	-408
741.513	-510
741.626	0
741.739	-1104
741.851	-627
741.964	-827
742.077	-753
742.189	-121
742.302	1307
742.415	-400
742.527	-481
742.640	-855
742.753	-971
742.865	-1102
742.978	-386
743.090	34
743.203	-498
743.316	-785
743.428	-661
743.541	-689
743.653	-127
743.766	-104
743.878	-233
743.990	-233
744.103	479
744.215	426
744.327	-131
744.440	5
744.552	-615
744.664	-748
744.777	-380
744.889	-993
745.001	-536
745.113	-760
745.226	-1159
745.338	-193
745.450	333
745.562	-231
745.674	-690
745.786	-733
745.898	227
746.010	-1367
746.122	-904
746.234	-719
746.347	-654
746.459	-810
746.570	-45
746.682	337
746.794	1734
746.906	-668
747.018	-763
747.130	-739
747.242	-707
747.354	-1038
747.466	-414
747.577	-1220
747.689	-468
747.801	-263
747.913	-465
748.024	-1024
748.136	-885
748.248	-1268
748.359	-524
748.471	-737
748.583	-901
748.694	-1256
748.806	-645
748.918	-494
749.029	-254
749.141	291
749.252	-342
749.364	-1045
749.475	-1182
749.587	-1451
749.698	-61
749.809	1
749.921	-1637
750.032	-691
750.144	-450
750.255	-1241
750.366	-1051
750.478	-1110
750.589	-286
750.700	-967
750.811	-520
750.923	-372
751.034	-869
751.145	-630
751.256	-372
751.367	-1615
751.479	-418
751.590	-998
751.701	-270
751.812	-885
751.923	-291
752.034	-593
752.145	382
752.256	-1239
752.367	-622
752.478	-850
752.589	-869
752.700	-880
752.811	-34
752.922	-1288
753.032	-507
753.143	-808
753.254	-692
753.365	-370
753.476	-814
753.586	-1200
753.697	-672
753.808	-1210
753.919	-1312
754.029	-508
754.140	-1019
754.251	-719
754.361	-1035
754.472	-39
754.582	-843
754.693	-1328
754.804	-953
754.914	-1366
755.025	-896
755.135	-1018
755.246	-690
755.356	-1051
755.466	-735
755.577	-172
755.687	-482
755.798	-897
755.908	-84
756.018	-778
756.129	110
756.239	-1010
756.349	-302
756.460	-312
756.570	-1201
756.680	-953
756.790	-1159
756.900	-664
757.011	-492
757.121	-545
757.231	-1310
757.341	-605
757.451	-42
757.561	-1499
757.671	-586
757.781	-1545
757.891	-155
758.001	-966
758.111	157
758.221	-1108
758.331	-368
758.441	-1326
758.551	-1425
758.661	-1144
758.771	-1098
758.880	-678
758.990	-1981
759.100	-1007
759.210	-1041
759.320	-439
759.429	-1015
759.539	-1144
759.649	-1104
759.758	-751
759.868	-665
759.978	-1767
760.087	-223
760.197	-653
760.307	-506
760.416	-1002
760.526	-1256
760.635	-1401
760.745	-1100
760.854	-1339
760.964	-213
761.073	-828
761.182	-1018
761.292	-331
761.401	-207
761.511	-1255
761.620	-421
761.729	-410
761.839	-1056
761.948	-1025
762.057	-569
762.166	-562
762.276	-1881
762.385	117
762.494	-574
762.603	-888
762.712	-465
762.822	-1939
762.931	-493
763.040	-911
763.149	-818
763.258	-545
763.367	-44
763.476	-1106
763.585	-275
763.694	100
763.803	-391
763.912	-553
764.021	-956
764.130	-349
764.238	-399
764.347	-1556
764.456	-1109
764.565	-1744
764.674	-772
764.783	-1778
764.891	-1252
765.000	-729
765.109	-312
765.217	-591
765.326	-101
765.435	-1336
765.543	-197
765.652	-666
765.761	-1025
765.869	-914
765.978	-270
766.086	-1018
766.195	-1041
766.303	1196
766.412	9124
766.520	4198
766.629	-678
766.737	-856
766.846	-994
766.954	-1047
767.062	124
767.171	-1493
767.279	182
767.387	-1343
767.496	-774
767.604	-1199
767.712	-104
767.820	-1332
767.928	-62
768.037	-1563
768.145	-267
768.253	-149
768.361	-1278
768.469	-1325
768.577	-647
768.685	-894
768.793	-480
768.901	-2025
769.009	-388
769.117	-1282
769.225	-628
769.333	-1085
769.441	166
769.549	-437
769.657	69
769.765	1467
769.873	6329
769.981	-543
770.088	-1925
770.196	-1046
770.304	-47
770.412	-675
770.519	-377
770.627	-2731
770.735	-885
770.842	-950
770.950	-802
771.058	-1078
771.165	-195
771.273	-990
771.380	-794
771.488	-600
771.595	-885
771.703	-1119
771.810	-76
771.918	-587
772.025	-616
772.133	-1287
772.240	-654
772.348	-620
772.455	-580
772.562	-1189
772.670	-642
772.777	-1084
772.884	-329
772.991	-778
773.099	-896
773.206	-1119
773.313	-805
773.420	-1247
773.528	-1049
773.635	-1098
773.742	-414
773.849	-645
773.956	-683
774.063	-1027
774.170	-786
774.277	-346
774.384	-477
774.491	-1429
774.598	27
774.705	-2010
774.812	-911
774.919	-1311
775.026	-784
775.133	-572
775.239	-584
775.346	-1124
775.453	-1372
775.560	-1746
775.667	-1111
775.773	-2169
775.880	164
775.987	-1057
776.093	-611
776.200	-1392
776.307	-491
776.413	-1661
776.520	-719
776.627	-1069
776.733	-894
776.840	-1891
776.946	739
777.053	331
777.159	1600
777.266	-504
777.372	2062
777.478	157
777.585	-19
777.691	-434
777.798	-466
777.904	-972
778.010	-553
778.117	-709
778.223	-726
778.329	-1164
778.435	-590
778.542	-630
778.648	-1462
778.754	-1460
778.860	-705
778.966	-1374
779.072	-1319
779.178	-950
779.284	-486
779.391	-1201
779.497	-1881
779.603	-355
779.708	-1531
779.815	-355
779.920	-851
780.026	-1080
780.132	-1167
780.238	-1293
780.344	-729
780.450	-577
780.556	-690
780.661	-1659
780.767	-837
780.873	-1174
780.979	-582
781.085	-1642
781.190	-1225
781.296	-1124
781.402	-759
781.507	-1571
781.613	-768
781.719	-2410
781.824	-743
781.930	-947
782.035	-1550
782.141	-1568
782.246	-888
782.352	-1417
782.457	-1360
782.563	-966
782.668	-1475
782.773	-1768
782.879	-1339
782.984	-938
783.090	-1230
783.195	-1294
783.300	-545
783.405	-1133
783.511	-393
783.616	-1104
783.721	-1691
783.826	-954
783.932	140
784.037	-1779
784.142	-1630
784.247	-1537
784.352	-468
784.457	-1385
784.562	-669
784.667	-1907
784.772	-1616
784.877	-1432
784.982	-804
785.087	-1252
785.192	-553
785.297	-1819
785.402	-1148
785.507	-1121
785.611	-1199
785.716	-869
785.821	-351
785.926	-2201
786.031	-1084
786.135	-589
786.240	-890
786.345	-2094
786.450	-1076
786.554	-1313
786.659	-1737
786.763	-2647
786.868	-852
786.973	-1369
787.077	-1299
787.182	-1573
787.286	-475
787.391	-1232
787.495	-1667
787.600	-1313
787.704	-934
787.809	-1140
787.913	-1052
788.017	-1327
788.122	-420
788.226	-1762
788.330	-953
788.435	-1746
788.539	-307
788.643	-1910
788.747	-1531
788.852	-1087
788.956	-1843
789.060	-453
789.164	-767
789.268	-1690
789.372	40
789.476	-1237
789.580	-1344
789.684	-1301
789.788	-804
789.892	-2010
789.996	-280
790.100	-1673
790.204	-429
790.308	-1437
790.412	-1052
790.516	-1220
790.620	-886
790.724	-1138
790.828	-313
790.931	-1983
791.035	-83
791.139	-2356
791.242	-785
791.346	-1164
791.450	-770
791.554	-1777
791.657	-1877
791.761	160
791.864	-570
791.968	-459
792.072	-1045
792.175	-1266
792.279	-1161
792.382	-1313
792.486	-1143
792.589	-1345
792.693	-689
792.796	-1967
792.899	21
793.003	-608
793.106	-2067
793.209	-1913
793.313	233
793.416	-1949
793.519	-136
793.623	-671
793.726	-1544
793.829	-1854
793.932	-1105
794.035	-2516
794.138	-1033
794.242	-1222
794.345	-891
794.448	-1502
794.551	-1634
794.654	-68
794.757	-187
794.860	-1490
794.963	-708
795.066	-608
795.169	-860
795.272	-1301
795.375	-1094
795.477	-1980
795.580	-1057
795.683	-2400
795.786	-1415
795.889	-2634
795.991	369
796.094	-590
796.197	-1902
796.300	-1342
796.402	-1111
796.505	-1581
796.608	-1139
796.710	-583
796.813	-946
796.915	-2011
797.018	-1379
797.120	-1026
797.223	-2778
797.326	-235
797.428	-1804
797.530	-1505
797.633	-998
797.735	-752
797.838	-964
797.940	-630
798.042	-2017
798.145	-1149
798.247	-1183
798.349	-1645
798.452	-542
798.554	-2261
798.656	-1575
798.758	-529
798.860	-1211
798.962	-1730
799.065	-1769
799.167	-2186
799.269	-330
799.371	-626
799.473	-475
799.575	-2630
799.677	-1066
799.779	13
799.881	-2457
799.983	-1204
800.085	-567
800.187	-912
800.289	-1705
800.390	-1097
800.492	-803
800.594	-250
800.696	-1195
800.798	-1008
800.899	-1272
801.001	-2057
801.103	-1072
801.205	-1433
801.306	-1460
801.408	-1983
801.509	-1026
801.611	-769
801.713	-165
801.814	-2116
801.916	-1560
802.017	-870
802.119	-1619
802.220	-776
802.322	-1606
802.423	-305
802.525	-1787
802.626	-1876
802.727	-1263
802.829	-125
802.930	-2106
803.031	-115
803.133	-1360
803.234	-1944
803.335	-1012
803.436	-1671
803.538	-1653
803.639	-1883
803.740	-533
803.841	-1857
803.942	-820
804.043	-1206
804.144	-1363
804.245	-1131
804.346	-1585
804.447	-1984
804.548	-1400
804.649	-1032
804.750	-1871
804.851	-1938
804.952	-702
805.053	-1818
805.154	-1840
805.255	-604
805.355	-897
805.456	-1596
805.557	-1217
805.658	-2127
805.758	-525
805.859	-1015
805.960	-926
806.061	-1332
806.161	-1389
806.262	-1567
806.362	-1142
806.463	-1763
806.564	-719
806.664	-1315
806.765	-1527
806.865	-1405
806.966	-661
807.066	-1966
807.166	-416
807.267	-333
807.367	-1204
807.468	-882
807.568	-1413
807.668	-864
807.769	-587
807.869	-850
807.969	-1271
808.069	-1154
808.170	-1207
808.270	-2513
808.370	-350
808.470	-1559
808.570	-1862
808.670	-1722
808.770	-964
808.870	-1833
808.970	-1428
809.070	-1350
809.170	-1674
809.271	-1117
809.370	-2209
809.470	-1368
809.570	-1492
809.670	-1988
809.770	-1060
809.870	-1050
809.970	-989
810.070	-1665
810.169	-1203
810.269	-2941
810.369	-289
810.469	-2096
810.568	-1644
810.668	-1446
810.768	-1019
810.867	-1798
810.967	-2105
811.066	-2341
811.166	-1218
811.265	-602
811.365	-1329
811.464	-1285
811.564	-963
811.663	-1672
811.763	-2405
811.862	-1739
811.962	-772
812.061	-1910
812.160	-2339
812.260	-1251
812.359	-873
812.458	-1978
812.557	-562
812.657	-1481
812.756	-545
812.855	-1599
812.954	-1843
813.053	-598
813.153	-1297
813.252	-1512
813.351	-1208
813.450	-2317
813.549	-1566
813.648	-1807
813.747	-1601
813.846	-1699
813.945	-1346
814.044	-1328
814.143	-1354
814.242	-637
814.341	-1310
814.439	-1135
814.538	-1457
814.637	-1459
814.736	-1809
814.835	-1664
814.933	-1979
815.032	-1581
815.131	-964
815.229	-1951
815.328	-958
815.427	-2565
815.525	-778
815.624	-1550
815.722	-1730
815.821	-1193
815.919	-1188
816.018	-1953
816.116	-1011
816.215	-1749
816.313	-1837
816.412	-2089
816.510	-1266
816.609	-63
816.707	-1252
816.805	-1527
816.904	-2154
817.002	-2205
817.100	-404
817.198	-1342
817.296	-1456
817.395	-1166
817.493	-927
817.591	-2319
817.689	-1599
817.787	-2212
817.885	-1445
817.983	-1513
818.081	-1196
818.179	-1785
818.277	-1564
818.375	-1499
818.473	-1296
818.571	-1068
818.669	-1061
818.767	-2016
818.865	-1441
818.963	-1939
819.061	-1357
819.158	-2129
819.256	-279
819.354	-1884
819.452	-297
819.549	-2642
819.647	-1191
819.745	-2241
819.842	-2023
819.940	-1675
820.038	-1146
820.135	-2090
820.233	-126
820.330	-1920
820.428	-1243
820.525	-885
820.623	-1611
820.720	-2364
820.818	-1610
820.915	-1058
821.012	-1095
821.110	-2458
821.207	-609
821.304	-2600
821.402	-1196
821.499	-1747
821.596	328
821.693	-1615
821.791	-725
821.888	-1280
821.985	-643
822.082	-3080
822.179	-591
822.276	-1489
822.373	-1019
822.470	-1848
822.567	-961
822.664	-1023
822.761	-517
822.858	-2207
822.955	-831
823.052	-2279
823.149	-1067
823.246	-1516
823.343	-1189
823.440	-263
823.536	-1650
823.633	-2302
823.730	-1062
823.827	-1117
823.923	-1182
824.020	-194
824.117	-1110
824.213	-1961
824.310	-833
824.407	-1436
824.503	-767
824.600	-1837
824.696	-690
824.793	-1558
824.889	-1669
824.986	-1464
825.082	-940
825.179	-1520
825.275	-1596
825.371	-2169
825.468	-622
825.564	-1392
825.660	-1396
825.757	-2063
825.853	-539
825.949	-2531
826.045	-914
826.142	-2148
826.238	-1503
826.334	-1695
826.430	-2021
826.526	-1170
826.622	-1810
826.718	-1172
826.814	-1774
826.910	-1197
827.006	-1144
827.102	-1568
827.198	-1218
827.294	-2091
827.390	-1144
827.486	-1405
827.582	-2474
827.678	-2126
827.774	-421
827.869	-1511
827.965	-353
828.061	-2119
828.157	-1635
828.252	-2069
828.348	-2872
828.444	-1195
828.539	-2071
828.635	-1497
828.731	-163
828.826	-2435
828.922	-650
829.017	-1841
829.113	-1322
829.208	-2006
829.304	-2163
829.399	-639
829.495	-1554
829.590	-1637
829.685	-1493
829.781	-1728
829.876	-1602
829.971	-1865
830.066	-1703
830.162	-2326
830.257	-1760
830.352	-2138
830.447	-257
830.543	-1628
830.638	-2312
830.733	-1233
830.828	-900
830.923	-1848
831.018	-829
831.113	-2010
831.208	-1761
831.303	-1696
831.398	-764
831.493	-1953
831.588	-1970
831.683	-2104
831.778	-1536
831.873	-1302
831.967	-655
832.062	-2030
832.157	-2173
832.252	-1438
832.346	-1425
832.441	-1285
832.536	-1665
832.631	-1278
832.725	-1216
832.820	-2582
832.914	-1758
833.009	-2220
833.104	-1188
833.198	-1392
833.293	-2027
833.387	-1819
833.482	-1414
833.576	-1940
833.670	-1028
833.765	-1916
833.859	-2247
833.954	-2108
834.048	-1617
834.142	-1290
834.237	-1693
834.331	-2325
834.425	-1089
834.519	-2892
834.613	-899
834.708	-1401
834.802	-1189
834.896	-3033
834.990	-1528
835.084	-1944
835.178	-1208
835.272	-1990
835.366	-1615
835.460	-1673
835.554	-1832
835.648	-691
835.742	-1915
835.836	-1498
835.930	-2243
836.024	-1240
836.117	-1751
836.211	-2091
836.305	-1055
836.399	-1892
836.493	-2439
836.586	-1341
836.680	-1696
836.774	-2396
836.867	-847
836.961	-1872
837.055	-2833
837.148	-2293
837.242	-585
837.335	-2192
837.429	-1055
837.522	-2561
837.616	-1524
837.709	-1690
837.803	-2342
837.896	-1018
837.989	-2024
838.083	-1251
838.176	-1173
838.269	-2722
838.363	-747
838.456	-2507
838.549	-1432
838.642	-1834
838.735	-1126
838.829	-833
838.922	-2764
839.015	-1564
839.108	-1241
839.201	-1182
839.294	-1373
839.387	-1613
839.480	-2380
839.573	-1368
839.666	-2028
839.759	-1873
839.852	-2371
839.945	-1804
840.038	-1416
840.131	-2031
840.223	-1985
840.316	-1640
840.409	-1922
840.502	-2186
840.594	-398
840.687	-2291
840.780	-1145
840.873	-2141
840.965	-1462
841.058	-1710
841.150	-1622
841.243	-2922
841.336	-1261
841.428	-2468
841.521	-2144
841.613	-2921
841.706	-1155
841.798	-1149
841.890	-1035
841.983	-2854
842.075	-953
842.167	-2456
842.260	-2419
842.352	-1872
842.444	-1945
842.537	-1571
842.629	-646
842.721	-2683
842.813	-1355
842.905	-2747
842.997	-1919
843.090	-2533
843.182	-1103
843.274	-2570
843.366	-1249
843.458	-1954
843.550	-780
843.642	-1612
843.734	-1689
843.826	-1671
843.918	-984
844.009	-1409
844.101	-1864
844.193	-2229
844.285	-1707
844.377	-1451
844.469	-305
844.560	-888
844.652	-844
844.744	-1020
844.835	-990
844.927	-1691
845.019	-1884
845.110	-1080
845.202	-1664
845.293	-1839
845.385	-2040
845.476	-1639
845.568	-1448
845.659	-1875
845.751	-933
845.842	-1501
845.934	-2172
846.025	-2202
846.116	-1363
846.208	-1939
846.299	-2024
846.390	-2035
846.482	-1124
846.573	-1177
846.664	-1447
846.755	-2083
846.846	-1290
846.937	-2631
847.029	-1666
847.120	-2244
847.211	-2097
847.302	-755
847.393	-2672
847.484	-1049
847.575	-1313
847.666	-2315
847.757	-1754
847.847	-2233
847.938	-1411
848.029	-1617
848.120	-1420
848.211	-2043
848.302	-1648
848.392	-1948
848.483	-971
848.574	-2213
848.664	-1482
848.755	-1353
848.846	-1075
848.936	-2118
849.027	-1639
849.118	-2416
849.208	-1536
849.299	-2137
849.389	-1794
849.480	-1622
849.570	-1926
849.661	-2379
849.751	-1661
849.841	-2526
849.932	-1730
850.022	-2627
850.112	-1161
850.203	-1808
850.293	-1793
850.383	-1922
850.474	-2442
850.564	-1927
850.654	-1926
850.744	-1544
850.834	-1658
850.924	-2462
851.014	-1488
851.104	-2757
851.194	-1436
851.284	-1650
851.374	-1018
851.464	-1990
851.554	-1687
851.644	-1747
851.734	-1923
851.824	-2196
851.914	-1303
852.004	-1120
852.094	-2141
852.183	-2388
852.273	-1260
852.363	-2485
852.452	-1034
852.542	-1852
852.632	-2098
852.721	-1614
852.811	-1449
852.901	-2366
852.990	-1922
853.080	-1973
853.169	-2208
853.259	-2596
853.348	-1623
853.438	-2244
853.527	-1099
853.617	-2149
853.706	-1659
853.795	-2427
853.885	-952
853.974	-1979
854.063	-747
854.152	-1551
854.242	-1718
854.331	-2270
854.420	-2124
854.509	-2110
854.598	-1481
854.687	-1792
854.777	-1111
854.866	-2790
854.955	-1292
855.044	-1516
855.133	-1936
855.222	-1954
855.311	-1986
855.400	-1934
855.488	-1577
855.577	-2326
855.666	-2107
855.755	-1758
855.844	-1167
855.933	-2646
856.021	-1516
856.110	-1617
856.199	-1899
856.288	-1763
856.376	-1959
856.465	-2418
856.554	-1087
856.642	-2296
856.731	-1755
856.819	-2385
856.908	-2386
856.996	-1831
857.085	-1582
857.173	-2016
857.262	-1778
857.350	-1532
857.438	-1569
857.527	-2248
857.615	-1997
857.703	-2211
857.792	-1489
857.880	-2063
857.968	-2408
858.056	-2104
858.145	-1245
858.233	-2137
858.321	-1970
858.409	-1859
858.497	-2180
858.585	-3159
858.673	-1569
858.761	-1810
858.849	-1556
858.937	-2288
859.025	-969
859.113	-1628
859.201	-2029
859.289	-1182
859.377	-2015
859.465	-1366
859.552	-1775
859.640	-1366
859.728	-2421
859.816	-2708
859.903	-1579
859.991	-2757
860.079	-1400
860.166	-1659
860.254	-1906
860.342	-2322
860.429	-1621
860.517	-2483
860.604	-2146
860.692	-1794
860.779	-2395
860.867	-2605
860.954	-1905
861.042	-1734
861.129	-1917
861.216	-2029
861.304	-1639
861.391	-2469
861.478	-1479
861.565	-2347
861.653	-1475
861.740	-2101
861.827	-1899
861.914	-1216
862.001	-1856
862.089	-1956
862.176	-2417
862.263	-1860
862.350	-1838
862.437	-2279
862.524	-2300
862.611	-2037
862.698	-1498
862.785	-2013
862.871	-1893
862.958	-2355
863.045	-2766
863.132	-1508
863.219	-1569
863.306	-2392
863.392	-1520
863.479	-1866
863.566	-1854
863.652	-1510
863.739	-1720
863.826	-1131
863.912	-1791
863.999	-2259
864.086	-2547
864.172	-2108
864.259	-1718
864.345	-2338
864.432	-1778
864.518	-2155
864.604	-1817
864.691	-1401
864.777	-1376
864.863	-1097
864.950	-1411
865.036	-3537
865.122	-1354
865.209	-2754
865.295	-2636
865.381	-1707
865.467	-1786
865.553	-1556
865.639	-2558
865.726	-2551
865.812	-2111
865.898	-2233
865.984	-1970
866.070	-1789
866.156	-1819
866.242	-2519
866.328	-1500
866.414	-2979
866.499	-921
866.585	-2243
866.671	-1787
866.757	-1312
866.843	-2084
866.928	-2243
867.014	-2261
867.100	-1413
867.186	-1561
867.271	-2205
867.357	-1384
867.442	-1348
867.528	-1849
867.614	-2003
867.699	-1679
867.785	-2047
867.870	-1179
867.956	-1834
868.041	-538
868.127	-1955
868.212	-1197
868.297	-1150
868.383	-2438
868.468	-1795
868.553	-1410
868.639	-1563
868.724	-1651
868.809	-1688
868.894	-1915
868.979	-2177
869.065	-1608
869.150	-2090
869.235	-2435
869.320	-1979
869.405	-1744
869.490	-2265
869.575	-1657
869.660	-2328
869.745	-1044
869.830	-2259
869.915	-2033
870.000	-2972
870.085	-1811
870.169	-1546
870.254	-1503
870.339	-2308
870.424	-2548
870.509	-1857
870.593	-2172
870.678	-2282
870.763	-1302
870.847	-2000
870.932	-1226
871.016	-2029
871.101	-1750
871.186	-2163
871.270	-1984
871.355	-2104
871.439	-1010
871.523	-2076
871.608	-1369
871.692	-2434
871.777	-1995
871.861	-1836
871.945	-2240
872.030	-1961
872.114	-1309
872.198	-1457
872.282	-956
872.367	-2120
872.451	-1894
872.535	-1112
872.619	-1353
872.703	-1974
872.787	-2206
872.871	-2697
872.955	-2096
873.039	-1971
873.123	-1377
873.207	-1760
873.291	-1975
873.375	-2546
873.459	-1305
873.543	-2472
873.627	-1925
873.711	-2249
873.794	-658
873.878	-2112
873.962	-2197
874.045	-2551
874.129	-1387
874.137	-1482
874.213	-2436
874.245	-2322
874.296	-2139
874.352	-2321
874.380	-2408
874.460	-1006
874.464	-952
874.547	-2125
874.568	-2100
874.631	-2027
874.676	-2041
874.714	-2053
874.784	-980
874.798	-766
874.881	-1073
874.892	-1186
874.965	-1951
874.999	-1948
875.048	-1993
875.107	-2136
875.131	-2172
875.215	-2424
875.215	-2423
875.298	-1660
875.323	-1810
875.381	-2089
875.430	-2007
875.465	-1971
875.538	-2343
875.548	-2389
875.631	-1891
875.646	-1895
875.714	-1940
875.753	-1750
875.798	-1578
875.861	-1858
875.881	-1933
875.964	-1486
875.968	-1503
876.047	-1702
876.076	-1632
876.130	-1626
876.183	-1663
876.213	-1610
876.291	-1328
876.296	-1315
876.379	-1651
876.398	-1683
876.462	-1784
876.506	-1890
876.545	-2032
876.613	-1998
876.628	-1958
876.711	-2113
876.721	-2030
876.794	-1574
876.828	-1990
876.877	-2455
876.935	-1904
876.960	-1737
877.043	-2004
877.043	-2001
877.125	-1107
877.150	-1323
877.208	-1879
877.258	-1633
877.291	-1383
877.365	-1840
877.374	-1915
877.456	-1156
877.472	-1291
877.539	-1830
877.579	-1784
877.622	-1754
877.687	-1319
877.704	-1149
877.787	-1030
877.794	-1067
877.869	-1676
877.901	-1244
877.952	-578
878.008	-1367
878.034	-1675
878.115	-1649
878.117	-1649
878.199	-2260
878.222	-2083
878.282	-1699
878.329	-1525
878.364	-1252
878.437	-937
878.447	-925
878.529	-1710
878.544	-1661
878.611	-1346
878.651	-1350
878.694	-1386
878.758	-941
878.776	-820
878.858	-1780
878.865	-1738
878.941	-1252
878.972	-1396
879.023	-1444
879.078	-1194
879.105	-1187
879.185	-1465
879.187	-1467
879.269	-946
879.292	-1085
879.351	-1441
879.399	-1454
879.433	-1370
879.506	-1372
879.516	-1396
879.598	-1524
879.613	-1620
879.680	-1937
879.720	-1577
879.762	-1193
879.827	-1374
879.844	-1412
879.926	-1364
879.933	-1363
880.007	-1546
880.040	-1574
880.089	-1456
880.147	-1714
880.171	-1861
880.253	-1216
880.254	-1219
880.335	-1523
880.360	-1412
880.417	-1058
880.467	-1324
880.499	-1583
880.574	-1237
880.580	-1213
880.662	-1515
880.680	-1643
880.744	-1412
880.787	-1136
880.825	-1455
880.893	-1690
880.907	-1641
880.989	-1791
881.000	-1797
881.070	-1709
881.106	-1480
881.152	-1236
881.213	-1201
881.233	-1154
881.315	-1347
881.319	-1342
881.396	-1487
881.426	-1593
881.478	-1747
881.532	-1854
881.559	-1788
881.639	-1346
881.641	-1333
881.722	-947
881.745	-919
881.803	-1278
881.852	-1435
881.885	-1218
881.958	-1273
881.966	-1326
882.047	-1249
882.064	-1247
882.129	-1115
882.171	-1344
882.210	-1460
882.277	-1212
882.291	-1190
882.372	-625
882.383	-711
882.454	-1202
882.489	-1217
882.535	-1243
882.596	-1026
882.616	-969
882.697	-796
882.702	-813
882.778	-958
882.808	-882
882.859	-786
882.914	-1105
882.940	-1179
883.020	-1024
883.021	-1019
883.102	-678
883.127	-635
883.183	-838
883.233	-1242
883.264	-1379
883.339	-1164
883.345	-1145
883.426	-1555
883.445	-1515
883.507	-1014
883.551	-1005
883.587	-1171
883.657	-986
883.668	-940
883.749	-736
883.763	-712
883.830	-1167
883.869	-1539
883.910	-1321
883.975	-928
883.991	-939
884.072	-810
884.081	-793
884.152	-844
884.187	-1088
884.233	-1066
884.292	-725
884.314	-778
884.394	-1109
884.398	-1141
884.475	-1191
884.504	-1154
884.555	-875
884.610	-390
884.636	-517
884.716	-1078
884.716	-1074
884.797	-781
884.821	-777
884.877	-807
884.927	-759
884.958	-842
885.033	-1218
885.038	-1212
885.118	-1001
885.139	-930
885.199	-1252
885.244	-1383
885.279	-961
885.350	-443
885.359	-457
885.439	-306
885.456	-393
885.520	-978
885.561	-1034
885.600	-827
885.667	-977
885.680	-1006
885.760	-727
885.773	-705
885.840	-621
885.878	-658
885.920	-895
885.984	-1275
886.000	-1275
886.080	-1007
886.089	-1029
886.160	-1229
886.195	-1191
886.240	-1131
886.300	-1089
886.320	-1046
886.400	-754
886.406	-757
886.480	-1167
886.511	-1265
886.560	-933
886.616	-758
886.640	-845
886.720	-919
886.722	-928
886.800	-968
886.827	-910
886.879	-758
886.932	-802
886.959	-897
887.038	-1129
887.039	-1123
887.119	-858
887.143	-759
887.198	-512
887.248	-385
887.278	-458
887.354	-601
887.358	-634
887.437	-1437
887.459	-1638
887.517	-706
887.564	-6
887.596	-279
887.669	-903
887.676	-894
887.755	-807
887.774	-806
887.835	-742
887.880	-639
887.914	-450
887.985	-101
887.994	-153
888.073	-693
888.090	-818
888.153	-748
888.195	-711
888.232	-704
888.300	-608
888.311	-567
888.391	-462
888.405	-424
888.470	-594
888.510	-767
888.549	-634
888.615	-313
888.628	-348
888.708	-674
888.720	-724
888.787	-598
888.825	-535
888.866	-759
888.930	-1110
888.945	-976
889.024	-293
889.035	-206
889.103	-613
889.140	-836
889.182	-704
889.245	-495
889.261	-531
889.340	-778
889.349	-803
889.419	-674
889.454	-621
889.498	-627
889.559	-645
889.577	-667
889.656	-759
889.664	-767
889.735	-593
889.768	-507
889.814	-251
889.873	92
889.978	-941
890.083	-719
890.187	-847
890.292	-280
890.397	-827
890.501	-151
890.606	-293
890.710	309
890.815	-678
890.919	-96
891.024	-592
891.128	-199
891.233	-837
891.337	-840
891.442	-645
891.546	-993
891.650	-856
891.755	-943
891.859	725
891.963	-631
892.068	154
892.172	-1007
892.276	-608
892.380	-919
892.484	-450
892.589	-124
892.693	-509
892.797	-1139
892.901	-288
893.005	-1159
893.109	-736
893.213	-1078
893.317	-866
893.421	-220
893.525	-1114
893.629	-773
893.733	-949
893.837	-1035
893.941	-1185
894.045	-587
894.148	-777
894.252	-880
894.356	-618
894.460	-795
894.564	-552
894.667	-68
894.771	-1056
894.875	91
894.978	-997
895.082	-362
895.186	-633
895.289	-575
895.393	-966
895.496	-1507
895.600	-772
895.703	-549
895.807	-737
895.910	-564
896.014	-948
896.117	-806
896.221	-1015
896.324	-673
896.427	-695
896.531	-672
896.634	-950
896.737	-567
896.840	-1391
896.944	-529
897.047	-882
897.150	-420
897.253	-598
897.356	-1113
897.460	-1069
897.563	-575
897.666	-1387
897.769	-559
897.872	-1030
897.975	-552
898.078	-1385
898.181	-901
898.284	-1176
898.387	-530
898.490	-1152
898.593	-456
898.695	-848
898.798	-780
898.901	-1076
899.004	-673
899.107	-524
899.209	-1186
899.312	-1214
899.415	-834
899.518	-850
899.620	-494
899.723	-928
899.826	-904
899.928	-1285
900.031	-227
900.133	-996
900.236	-580
900.338	-1201
900.441	-1178
900.543	-1481
900.646	-1216
900.748	-1778
900.851	-805
900.953	-1191
901.055	-565
901.158	-1329
901.260	-1292
901.362	-1047
901.465	-887
901.567	-882
901.669	-475
901.771	-1379
901.873	-575
901.976	-2189
902.078	-423
902.180	-1150
902.282	-522
902.384	-783
902.486	-666
902.588	-1021
902.690	-1089
902.792	-996
902.894	-740
902.996	-959
903.098	-615
903.200	-1224
903.302	-652
903.404	-1343
903.505	-242
903.607	-969
903.709	-327
903.811	-765
903.913	-1259
904.014	-1217
904.116	-652
904.218	-823
904.319	-181
904.421	-550
904.523	294
904.624	-885
904.726	-513
904.827	-280
904.929	-1071
905.030	-1145
905.132	-860
905.233	-1267
905.335	-136
905.436	-673
905.537	-898
905.639	-1081
905.740	-977
905.841	-838
905.943	-51
906.044	-1088
906.145	-581
906.247	-701
906.348	-1260
906.449	-587
906.550	-775
906.651	-829
906.752	-1202
906.854	-1375
906.955	-1278
907.056	-997
907.157	-927
907.258	-1251
907.359	-995
907.460	-361
907.561	-974
907.662	-1162
907.762	-2392
907.863	-668
907.964	-963
908.065	-577
908.166	-923
908.267	-1512
908.367	-964
908.468	-1035
908.569	-963
908.670	-615
908.770	-553
908.871	-1404
908.971	-600
909.072	-1011
909.173	-940
909.273	-1350
909.374	-959
909.474	-1342
909.575	-925
909.675	-1869
909.776	-820
909.876	-1504
909.977	-844
910.077	-1363
910.177	-1178
910.278	-1220
910.378	-1148
910.478	-808
910.579	-1088
910.679	-1239
910.779	-924
910.879	-1126
910.980	-719
911.080	-1418
911.180	-880
911.280	-1575
911.380	-909
911.480	-617
911.580	-1253
911.680	-913
911.780	-818
911.880	-1153
911.980	-981
912.080	-1496
912.180	-890
912.280	-1520
912.380	-1303
912.480	-1697
912.580	-1446
912.679	-1613
912.779	-1571
912.879	-1470
912.979	-1241
913.078	-961
913.178	-1689
913.278	-1227
913.377	-1303
913.477	-1753
913.577	-1546
913.676	-1146
913.776	-1087
913.875	-783
913.975	-1316
914.074	-667
914.174	-1599
914.273	-1899
914.373	-876
914.472	-1066
914.572	-1834
914.671	-1568
914.770	-1021
914.870	-785
914.969	-1701
915.068	-1597
915.167	-1217
915.267	-1739
915.366	-1236
915.465	-1513
915.564	-1607
915.663	-1377
915.763	-1210
915.862	-1526
915.961	-1183
916.060	-1648
916.159	-1291
916.258	-1405
916.357	-1315
916.456	-1048
916.555	-1180
916.654	-1204
916.752	-1596
916.851	-1215
916.950	-1364
917.049	-1724
917.148	-1876
917.247	-1369
917.345	-1431
917.444	-941
917.543	-796
917.642	-1459
917.740	-1339
917.839	-1036
917.937	-1316
918.036	-1198
918.135	-1049
918.233	-2597
918.332	-1224
918.430	-1851
918.529	-1874
918.627	-926
918.726	-1450
918.824	-1002
918.923	-1341
919.021	-2250
919.119	-839
919.218	-999
919.316	-1228
919.414	-1432
919.512	-1062
919.611	-1434
919.709	-1542
919.807	-1893
919.905	-1799
920.003	-1023
920.102	-878
920.200	-1734
920.298	-832
920.396	-1284
920.494	-1143
920.592	-935
920.690	-1304
920.788	-1619
920.886	-578
920.984	-997
921.082	-682
921.180	-233
921.277	-1464
921.375	-1331
921.473	-1261
921.571	-1314
921.669	-1630
921.766	-1455
921.864	-1095
921.962	-1542
922.060	-1538
922.157	-1360
922.255	-668
922.352	-2172
922.450	-748
922.548	-1661
922.645	-1244
922.743	-1656
922.840	-1361
922.938	-1725
923.035	-1372
923.133	-2004
923.230	-1954
923.327	-1966
923.425	-1064
923.522	-1262
923.619	-1911
923.717	-1505
923.814	-1558
923.911	-1779
924.008	-846
924.106	-2061
924.203	-1724
924.300	-1620
924.397	-1429
924.494	-1573
924.591	-1111
924.688	-2368
924.786	-1423
924.883	-1183
924.979	-2197
925.077	-1844
925.173	-1899
925.270	-1246
925.367	-1406
925.464	-1179
925.561	-879
925.658	-875
925.755	-1530
925.852	-1738
925.948	-1415
926.045	-911
926.142	-1516
926.239	-1638
926.335	-1112
926.432	-1071
926.529	-17
926.625	-1852
926.722	-1120
926.818	-1272
926.915	-1561
927.011	-1475
927.108	-1864
927.204	-1414
927.301	-1055
927.397	-1046
927.494	-1307
927.590	-1737
927.687	-1024
927.783	-1754
927.879	-1516
927.976	-1678
928.072	-1449
928.168	-1618
928.264	-1797
928.361	-1630
928.457	-1748
928.553	-1910
928.649	-1966
928.745	-2019
928.841	-784
928.937	-1562
929.033	-620
929.129	-1492
929.225	-2047
929.321	-2078
929.417	-595
929.513	-2035
929.609	-990
929.705	-2743
929.801	-1745
929.897	-1442
929.993	-2028
930.089	-1603
930.184	-814
930.280	-1429
930.376	-1416
930.471	-1596
930.567	-2109
930.663	-1746
930.758	-1601
930.854	-2288
930.950	-1623
931.045	-1645
931.141	-1298
931.236	-1043
931.332	-1652
931.427	-1165
931.523	-2268
931.618	-1275
931.714	-1127
931.809	-1785
931.905	-1359
932.000	-2145
932.095	-1758
932.191	-1375
932.286	-1689
932.381	-1572
932.476	-1934
932.572	-1149
932.667	-1381
932.762	-1529
932.857	-1460
932.952	-1516
933.047	-2142
933.142	-1793
933.237	-1205
933.332	-1689
933.427	-1348
933.522	-1374
933.617	-1222
933.712	-1576
933.807	-1691
933.902	-1616
933.997	-929
934.092	-2077
934.187	-1580
934.282	-2053
934.376	-941
934.471	-1579
934.566	-2172
934.661	-1421
934.755	-1174
934.850	-1370
934.945	-416
935.039	-1894
935.134	-1300
935.228	-1410
935.323	-1488
935.417	-1574
935.512	-1316
935.606	-1928
935.701	-1300
935.795	-1825
935.890	-1798
935.984	-1421
936.079	-1358
936.173	-1919
936.267	-771
936.362	-1749
936.456	-1479
936.550	-1322
936.644	-1008
936.738	-1149
936.833	-1284
936.927	-1297
937.021	-1090
937.115	-1987
937.209	-1927
937.303	-1747
937.397	-1857
937.491	-1215
937.585	-1059
937.679	-1443
937.773	-1867
937.867	-1538
937.961	-755
938.055	-1518
938.149	-824
938.243	-1408
938.337	-947
938.430	-1400
938.524	-863
938.618	-1580
938.712	-1462
938.805	-1147
938.899	-1949
938.993	-2054
939.086	-1190
939.180	-984
939.274	-635
939.367	-1972
939.461	-1705
939.554	-851
939.648	-1541
939.741	-1499
939.835	-1925
939.928	-1356
940.022	-1519
940.115	-1554
940.208	-1301
940.302	-1140
940.395	-1560
940.488	-2351
940.582	-936
940.675	-1706
940.768	-1139
940.861	-2237
940.954	-1072
941.048	-2063
941.141	-1210
941.234	-1108
941.327	-1712
941.420	-841
941.513	-1130
941.606	-1453
941.699	-296
941.792	-1069
941.885	-809
941.978	-1140
942.071	-955
942.164	-1302
942.257	-1154
942.349	-1542
942.442	-1845
942.535	-1667
942.628	-1105
942.721	-949
942.813	-1667
942.906	-1940
942.999	-1231
943.091	-1475
943.184	-1372
943.277	-1363
943.369	-2272
943.462	-1312
943.554	-993
943.647	-2568
943.739	-1126
943.832	-1926
943.924	-2143
944.017	-1053
944.109	-1557
944.201	-270
944.294	-1209
944.386	-888
944.478	-1396
944.571	-2086
944.663	-1100
944.755	-1783
944.847	-525
944.940	-1120
945.032	-1863
945.124	-1835
945.216	-543
945.308	-965
945.400	-884
945.492	-1253
945.584	-385
945.676	-989
945.768	-917
945.860	-532
945.952	-1842
946.044	-1324
946.136	-1504
946.228	-1400
946.320	-1053
946.412	-1778
946.503	-1045
946.595	-1462
946.687	-1849
946.779	-746
946.870	-932
946.962	-2517
947.054	-1267
947.145	-1373
947.237	-1134
947.329	-1189
947.420	-812
947.512	-2195
947.603	-1301
947.695	-1112
947.786	-1533
947.878	-1478
947.969	-1330
948.061	-1604
948.152	-733
948.243	-1247
948.335	-766
948.426	-2027
948.517	-918
948.609	-1488
948.700	-1546
948.791	-1380
948.882	-993
948.973	-1997
949.065	-1006
949.156	-1386
949.247	-1766
949.338	-1727
949.429	-664
949.520	-1082
949.611	-2387
949.702	-1547
949.793	-1401
949.884	-1956
949.975	-897
950.066	-942
950.157	-1822
950.247	-1264
950.338	-677
950.429	-997
950.520	-686
950.611	-1869
950.701	-1332
950.792	-1669
950.883	-736
950.973	-1392
951.064	-349
951.155	-1350
951.245	-976
951.336	-1462
951.427	-2143
951.517	-407
951.608	-883
951.698	-1656
951.788	-1004
951.879	-1150
951.969	-2125
952.060	-1476
952.150	-1583
952.240	-1582
952.331	-2014
952.421	-258
952.511	-1307
952.602	-987
952.692	-1426
952.782	-812
952.872	-188
952.962	-1347
953.052	-1437
953.143	-1745
953.233	-979
953.323	-728
953.413	-1558
953.503	-1252
953.593	-1604
953.683	-1536
953.773	-1624
953.863	-1296
953.953	-1734
954.042	-1983
954.132	-1600
954.222	-778
954.312	-1397
954.402	-1666
954.492	-1050
954.581	-596
954.671	-1183
954.761	-1556
954.850	-592
954.940	-1390
955.030	-1016
955.119	-1948
955.209	-1229
955.298	-1926
955.388	-1122
955.477	-350
955.567	-1611
955.656	167
955.746	-1011
955.835	-1921
955.925	-1903
956.014	-1622
956.103	-1627
956.193	-1483
956.282	-1129
956.371	-1531
956.461	-1653
956.550	-1974
956.639	-2048
956.728	-1701
956.817	-1537
956.906	-1752
956.995	-547
957.085	-1255
957.174	-830
957.263	-611
957.352	-1227
957.441	-1368
957.530	-652
957.619	-1162
957.708	-1532
957.796	-1215
957.885	-1699
957.974	-1962
958.063	-917
958.152	-1853
958.241	-384
958.329	-1975
958.418	-1667
958.507	-2910
958.596	-414
958.684	-2181
958.773	-1260
958.861	-1939
958.950	-827
959.039	-1739
959.127	-1337
959.216	-1559
959.304	-969
959.393	-1689
959.481	-1350
959.570	-1418
959.658	-1537
959.746	-1032
959.835	-480
959.923	-1929
960.011	-1599
960.100	-1323
960.188	-1467
960.276	-1563
960.365	-1275
960.453	-1051
960.541	-1628
960.629	-1355
960.717	-1271
960.805	-1404
960.893	-1009
960.981	-2154
961.069	-627
961.158	-1199
961.245	-1273
961.333	-955
961.421	-1242
961.509	-842
961.597	-2103
961.685	-1271
961.773	-1337
961.861	-2105
961.949	-1134
962.036	-1588
962.124	-591
962.212	-1831
962.299	-1869
962.387	-1175
962.475	-1778
962.562	-2637
962.650	-987
962.738	-1343
962.825	-1319
962.913	-1170
963.000	-1862
963.088	-1471
963.175	-1846
963.263	-1287
963.350	-1954
963.438	-1928
963.525	-1673
963.612	-1454
963.700	-1838
963.787	-1385
963.874	-1882
963.962	-1190
964.049	-1021
964.136	-1490
964.223	-1724
964.310	-1299
964.398	-1812
964.485	-2009
964.572	-1149
964.659	-1504
964.746	-1411
964.833	-1438
964.920	-1266
965.007	-901
965.094	-2039
965.181	-2502
965.268	-936
965.355	-1919
965.441	-2345
965.528	-1545
965.615	-857
965.702	-1131
965.789	-1645
965.875	-1261
965.962	-1629
966.049	-1483
966.136	-1043
966.222	-2015
966.309	-581
966.395	-1158
966.482	-1389
966.569	-875
966.655	-1179
966.742	-1552
966.828	-805
966.915	-2131
967.001	-1014
967.087	-2111
967.174	-722
967.260	-1165
967.347	-2082
967.433	-2312
967.519	-1169
967.605	-1693
967.692	-2171
967.778	-1623
967.864	-1257
967.950	-1247
968.036	-1709
968.123	-1783
968.209	-1487
968.295	-2254
968.381	-375
968.467	-1131
968.553	-1472
968.639	-1026
968.725	-1719
968.811	-1171
968.897	-1185
968.983	-1931
969.069	-2058
969.154	-1498
969.240	-428
969.326	-2423
969.412	-1601
969.497	-2006
969.583	-1684
969.669	-909
969.755	-1383
969.840	-1217
969.926	-895
970.012	-1115
970.097	-363
970.183	-2588
970.268	-1353
970.354	-1271
970.439	-1717
970.525	-966
970.610	-2107
970.696	-1328
970.781	-1472
970.866	-1833
970.952	-574
971.037	-1928
971.122	-696
971.208	-1060
971.293	-1344
971.378	-2231
971.463	-1152
971.549	-681
971.634	-834
971.719	-1348
971.804	-1255
971.889	-797
971.974	-827
972.059	-1628
972.144	-1179
972.229	-1481
972.314	-1342
972.399	-1186
972.484	-1813
972.569	-982
972.654	-1235
972.739	-1129
972.824	-1377
972.908	-1539
972.993	-1254
973.078	-1617
973.163	-1617
973.247	-1830
973.332	-2319
973.417	-652
973.501	-1354
973.586	-1743
973.671	-899
973.755	-724
973.840	-1252
973.924	-990
974.009	-1593
974.093	-2119
974.178	-961
974.262	-1650
974.346	-1521
974.431	-1401
974.515	-2150
974.600	-1473
974.684	-896
974.768	-2169
974.852	-722
974.937	-1499
975.021	-473
975.105	-1389
975.189	-1499
975.273	-1130
975.358	-1627
975.442	-1895
975.526	32
975.610	-1847
975.694	-1858
975.778	-578
975.862	-1464
975.946	-2446
976.030	-500
976.114	-1382
976.198	-1055
976.281	-1103
976.365	-941
976.449	-1887
976.533	-934
976.617	-2322
976.700	-1264
976.784	-1466
976.868	-1711
976.951	-1176
977.035	-1661
977.119	-954
977.202	-1243
977.286	-2153
977.369	-1789
977.453	-891
977.536	-1752
977.620	-1081
977.703	-1168
977.787	-1601
977.870	-531
977.953	-1069
978.037	-1820
978.120	-774
978.203	-1162
978.287	-1457
978.370	-1044
978.453	-1056
978.536	-772
978.620	-1309
978.703	-1698
978.786	-1331
978.869	-1234
978.952	-2196
979.035	522
979.118	-927
979.201	-590
979.284	-885
979.367	-1632
979.450	-1501
979.533	-1570
979.616	-1186
979.699	-1257
979.782	-1786
979.865	-254
979.948	-1898
980.030	-1254
980.113	-852
980.196	-1169
980.279	-949
980.361	-696
980.444	-740
980.526	-301
980.609	-854
980.692	-1128
980.774	-891
980.857	-1980
980.939	-616
981.022	-1715
981.104	-1002
981.187	-870
981.269	-1308
981.352	-886
981.434	-2963
981.516	-1975
981.599	-577
981.681	-1269
981.763	-1458
981.846	61
981.928	-1635
982.010	-908
982.092	-1452
982.174	-651
982.256	-2068
982.339	-759
982.421	-1457
982.503	-1197
982.585	-2023
982.667	-1195
982.749	-1479
982.831	-1783
982.913	-1739
982.995	-401
983.077	-1576
983.158	147
983.240	-2612
983.322	-976
983.404	-802
983.486	-2603
983.568	-1958
983.649	-1451
983.731	-1593
983.813	-1731
983.894	-988
983.976	-1851
984.058	-1791
984.139	-750
984.221	-1975
984.302	-560
984.384	-1583
984.465	-1905
984.547	-1689
984.628	-1287
984.710	-605
984.791	-1605
984.872	-1770
984.954	-1295
985.035	-1660
985.116	-2693
985.198	-2046
985.279	-422
985.360	-1179
985.441	-1380
985.522	-803
985.604	-1038
985.685	-2968
985.766	-543
985.847	-623
985.928	-1803
986.009	-1613
986.090	-1284
986.171	-744
986.252	-1395
986.333	-1610
986.414	-953
986.495	-1053
986.576	-1457
986.656	-1458
986.737	-159
986.818	-1508
986.899	-1334
986.980	-1592
987.060	-537
987.141	-2409
987.222	-1155
987.302	-1224
987.383	-1772
987.464	-1431
987.544	-411
987.625	-1874
987.705	-1220
987.786	-1207
987.866	-1118
987.947	-2538
988.027	-1405
988.108	-1425
988.188	-1698
988.268	-1101
988.349	-1190
988.429	-1114
988.509	-1477
988.589	-948
988.670	-2145
988.750	-606
988.830	-1326
988.910	-1160
988.990	-1786
989.070	-848
989.151	-1476
989.231	-1619
989.311	-292
989.391	-1027
989.471	-970
989.551	-547
989.631	-1143
989.711	-1683
989.791	-999
989.870	-1956
989.950	57
990.030	-2043
990.110	-1920
990.190	-1527
990.269	-1461
990.349	-1587
990.429	-1144
990.509	-1058
990.588	-1469
990.668	-1084
990.747	-1151
990.827	-1245
990.907	-1113
990.986	-1660
991.066	-1997
991.145	-1758
991.225	-1692
991.304	-1792
991.383	-569
991.463	-2052
991.542	-827
991.622	-1548
991.701	-1739
991.780	-1935
991.859	-539
991.939	-1481
992.018	-1275
992.097	-1518
992.176	-868
992.256	-1640
992.335	-1265
992.414	-1199
992.493	-1878
992.572	-2367
992.651	-1102
992.730	-1380
992.809	-917
992.888	-2634
992.967	-1731
993.046	-1338
993.125	-2370
993.203	-1223
993.282	-1542
993.361	-1756
993.440	-372
993.519	-1471
993.597	-130
993.676	-1509
993.755	-1009
993.834	-1704
993.912	-2162
993.991	-836
994.069	-1684
994.148	-1640
994.226	-1653
994.305	-1249
994.384	-2240
994.462	-1647
994.540	-2455
994.619	-1791
994.697	-1200
994.776	-2150
994.854	-1193
994.932	-1941
995.011	-763
995.089	-2813
995.167	-1772
995.245	-810
995.324	-2037
995.402	-696
995.480	-1611
995.558	-959
995.636	-1454
995.714	-2232
995.792	-473
995.870	-2103
995.948	-1376
996.026	-1934
996.104	-3013
996.182	-813
996.260	-1135
996.338	-1222
996.416	-2400
996.494	-2356
996.572	-193
996.649	-2006
996.727	-2554
996.805	-763
996.883	-1312
996.960	-1804
997.038	-1645
997.116	-1655
997.193	-2400
997.271	-1251
997.348	-1833
997.426	-1136
997.504	-2425
997.581	-1684
997.658	-1197
997.736	-2458
997.813	-679
997.891	-886
997.968	-1928
998.046	-1062
998.123	-1288
998.200	-1638
998.277	-2600
998.355	-1379
998.432	-2269
998.509	-1793
998.586	-463
998.663	-1387
998.741	-1545
998.818	-1688
998.895	-1603
998.972	-1419
999.049	-1497
999.126	-1875
999.203	-1343
999.280	-1722
999.357	-1582
999.434	-1156
999.511	-2150
999.587	-1028
999.664	-1679
999.741	-1528
999.818	-1105
999.895	-1583
999.971	-1299
1000.048	-1330
1000.125	-1340
1000.202	-1974
1000.278	-819
1000.355	-1821
1000.431	-1969
1000.508	-1574
1000.584	-857
1000.661	-1451
1000.738	-1488
1000.814	-1483
1000.890	-941
1000.967	-1814
1001.043	-1408
1001.120	-2146
1001.196	-709
1001.272	-2233
1001.349	-1550
1001.425	-1249
1001.501	-1524
1001.577	-1675
1001.654	-1242
1001.730	-2328
1001.806	-1020
1001.882	-2408
1001.958	-1882
1002.034	-1074
1002.110	-1248
1002.186	-1608
1002.262	-1675
1002.338	-2277
1002.414	-547
1002.490	-1561
1002.566	-1775
1002.642	-2145
1002.718	-890
1002.794	-2424
1002.870	-1230
1002.945	-1316
1003.021	-1035
1003.097	-2005
1003.173	-802
1003.248	-1660
1003.324	-2396
1003.400	-1301
1003.475	-1824
1003.551	-1869
1003.626	-1853
1003.702	-1367
1003.777	-1671
1003.853	-1831
1003.928	-1814
1004.004	-734
1004.079	-878
1004.155	-1387
1004.230	-2043
1004.305	-631
1004.381	-2574
1004.456	-2102
1004.531	-1434
1004.607	-1621
1004.682	-1868
1004.757	-1422
1004.832	-1643
1004.907	-1768
1004.982	-1418
1005.057	-1842
1005.133	-1887
1005.208	-1736
1005.283	-1343
1005.358	-1202
1005.433	-1649
1005.508	-1623
1005.583	-2716
1005.657	-1996
1005.732	-870
1005.807	-1400
1005.882	-2072
1005.957	-1198
1006.032	-1524
1006.106	-2096
1006.181	-1470
1006.256	-1084
1006.331	-1459
1006.405	-1671
1006.480	-1443
1006.554	-1915
1006.629	-1551
1006.704	-1998
1006.778	-944
1006.853	-1647
1006.927	-814
1007.002	-2614
1007.076	-786
1007.150	-1733
1007.225	-1747
1007.299	-1378
1007.373	-2068
1007.448	-527
1007.522	-1173
1007.596	-1381
1007.671	-1075
1007.745	-1473
1007.819	-2507
1007.893	-1859
1007.967	-606
1008.041	-2868
1008.115	-1138
1008.190	-1953
1008.264	-1939
1008.338	-2148
1008.412	-756
1008.486	-1259
1008.560	-867
1008.633	-2333
1008.707	-772
1008.781	-1142
1008.855	-1566
1008.929	-1625
1009.003	-1530
1009.076	-1837
1009.150	-800
1009.224	-1112
1009.298	-1143
1009.371	-1981
1009.445	-1483
1009.519	-1543
1009.592	-2104
1009.666	-1286
1009.739	-818
1009.813	-2052
1009.886	-808
1009.960	-2647
1010.033	-850
1010.107	-1617
1010.180	-1546
1010.253	-1766
1010.327	-1960
1010.400	-1804
1010.473	-692
1010.547	-696
1010.620	-1645
1010.693	-2338
1010.766	-1168
1010.840	-1305
1010.913	-1461
1010.986	-2014
1011.059	-1510
1011.132	-901
1011.205	-598
1011.278	-1522
1011.351	-2134
1011.424	-1575
1011.497	-1635
1011.570	-1888
1011.643	-2611
1011.716	-1488
1011.789	-1736
1011.862	-1323
1011.934	-244
1012.007	-2125
1012.080	-1025
1012.153	-1741
1012.225	-162
1012.298	-1725
1012.371	-1145
1012.443	-1119
1012.516	-2264
1012.588	-2007
1012.661	-1494
1012.733	-2067
1012.806	-203
1012.879	-1445
1012.951	-1378
1013.023	-1036
1013.096	-620
1013.168	-2215
1013.241	-1083
1013.313	-1146
1013.385	-1853
1013.458	-1617
1013.530	-805
1013.602	-1252
1013.674	-301
1013.746	-1888
1013.819	-1626
1013.891	-2043
1013.963	-1059
1014.035	-1642
1014.107	-1360
1014.179	-889
1014.251	-1838
1014.323	-1614
1014.395	-899
1014.467	-1456
1014.539	-1396
1014.611	-1684
1014.683	-1434
1014.754	-806
1014.826	-1360
1014.898	-981
1014.970	-1729
1015.042	-999
1015.113	-994
1015.185	-1470
1015.257	-1971
1015.328	-1044
1015.400	-2341
1015.471	-1511
1015.543	-2122
1015.615	-1233
1015.686	-1830
1015.757	-1789
1015.829	-681
1015.901	-1529
1015.972	-1145
1016.043	-1609
1016.115	-1035
1016.186	-972
1016.257	-2683
1016.328	-1769
1016.400	-125
1016.471	-1578
1016.542	-1496
1016.613	-1832
1016.685	-1146
1016.756	-238
1016.827	-1799
1016.898	-1695
1016.969	-622
1017.040	-2099
1017.111	-1371
1017.182	-1085
1017.253	-608
1017.324	-2170
1017.395	-1431
1017.466	-1596
1017.537	-893
1017.608	-1021
1017.678	-277
1017.749	-1908
1017.820	-1071
1017.891	-2783
1017.961	-1986
1018.032	-1308
1018.103	-866
1018.173	-1066
1018.244	-1141
1018.315	-1363
1018.385	-972
1018.456	-1326
1018.526	-1831
1018.597	-1485
1018.667	-707
1018.738	-1826
1018.808	-1672
1018.878	-1830
1018.949	-371
1019.019	-1341
1019.089	-1240
1019.160	-947
1019.230	-1390
1019.300	-1632
1019.371	-1999
1019.441	-965
1019.511	-1173
1019.581	-838
1019.651	-1640
1019.721	-1861
1019.791	-1880
1019.861	-1724
1019.931	-1631
1020.001	-1602
1020.071	-2283
1020.141	-1236
1020.211	-1476
1020.281	-2140
1020.351	-1548
1020.421	-1024
1020.491	-1516
1020.560	-1684
1020.630	-1659
1020.700	-947
1020.770	-1306
1020.839	-1465
1020.909	-981
1020.979	-1702
1021.048	-1454
1021.118	-1176
1021.187	-1306
1021.257	-2053
1021.326	-1161
1021.396	-1457
1021.465	-1149
1021.535	-1785
1021.604	-2218
1021.674	-1368
1021.743	-1617
1021.812	-1740
1021.882	-1287
1021.951	-913
1022.020	-1587
1022.089	-1279
1022.159	-1556
1022.228	-1898
1022.297	-1491
1022.366	-1725
1022.435	-2219
1022.504	-1569
1022.573	-1764
1022.642	-1404
1022.711	-2061
1022.781	-964
1022.849	-904
1022.918	-2366
1022.987	-1279
1023.056	-1505
1023.125	-1294
1023.194	-2136
1023.263	-1745
1023.331	-1375
1023.400	-2002
1023.469	-1351
1023.538	-768
1023.606	-2165
1023.675	-1822
1023.744	-1778
1023.812	-1521
1023.881	-1348
1023.949	-478
1024.018	-2279
1024.086	-1638
1024.155	-1526
1024.223	-1739
1024.292	-2139
1024.360	-851
1024.429	-1746
1024.497	-1746
1024.565	-1554
1024.634	-1081
1024.702	-1568
1024.770	-1451
1024.838	-1828
1024.907	-1801
1024.975	-1751
1025.043	-842
1025.111	-1356
1025.179	-860
1025.247	-2233
1025.315	-1777
1025.383	-1759
1025.451	-1941
1025.519	-1293
1025.587	-1755
1025.655	-1771
1025.723	-1563
1025.791	-1908
1025.859	-1188
1025.927	-2028
1025.995	-1434
1026.062	-1206
1026.130	-1720
1026.198	-2245
1026.266	-1768
1026.333	-1830
1026.401	-1114
1026.469	-969
1026.536	-555
1026.604	-2196
1026.671	-1820
1026.739	-1388
1026.806	-736
1026.874	-1420
1026.941	-1351
1027.009	-1575
1027.076	-1725
1027.144	-1403
1027.211	-1835
1027.278	-2056
1027.345	-2232
1027.413	-1520
1027.480	-1491
1027.547	-1983
1027.614	-1263
1027.682	-1998
1027.749	-1975
1027.816	-2283
1027.883	-1132
1027.950	-1536
1028.017	-2286
1028.084	-1943
1028.151	-2114
1028.218	-1700
1028.285	-1469
1028.352	-917
1028.419	-1736
1028.486	-1248
1028.553	-1682
1028.619	-1673
1028.686	-1129
1028.753	-1400
1028.820	-364
1028.886	-1750
1028.953	-1526
1029.020	-1536
1029.086	-1534
1029.153	-2318
1029.220	-1587
1029.286	-1965
1029.353	-1319
1029.419	-1816
1029.486	-1588
1029.552	-2534
1029.619	-2255
1029.685	-1675
1029.751	-1427
1029.818	-742
1029.884	-2479
1029.951	-520
1030.017	-1614
1030.083	-976
1030.149	-1824
1030.216	-1895
1030.282	-1700
1030.348	-2098
1030.414	-2487
1030.480	-1745
1030.546	-1893
1030.612	-2445
1030.678	-1028
1030.744	-2008
1030.810	-2238
1030.876	-1390
1030.942	-868
1031.008	-1832
1031.074	-2452
1031.140	-2026
1031.206	18
1031.272	-2208
1031.337	-1925
1031.403	-1194
1031.469	-1283
1031.534	-2220
1031.600	-1479
1031.666	-1938
1031.731	-1965
1031.797	-1547
1031.863	-1661
1031.928	-1874
1031.994	-1902
1032.059	-1697
1032.125	-1550
1032.190	-2230
1032.256	-2218
1032.321	-2017
1032.386	-1901
1032.452	-523
1032.517	-1173
1032.582	-1961
1032.647	-1367
1032.713	-1963
1032.778	-1858
1032.843	-1737
1032.908	-1688
1032.974	-1158
1033.039	-1760
1033.104	-986
1033.169	-1480
1033.234	-1623
1033.299	-2324
1033.364	-1844
1033.429	-1338
1033.494	-1973
1033.559	-2217
1033.624	-2409
1033.688	-1614
1033.753	-2254
1033.818	-2138
1033.883	-2542
1033.948	-1655
1034.013	-2011
1034.077	-711
1034.142	-2009
1034.207	-2098
1034.271	-1385
1034.336	-1886
1034.400	-2437
1034.465	-1248
1034.530	-2611
1034.594	-1067
1034.658	-2196
1034.723	-1947
1034.787	-1629
1034.852	-1520
1034.916	-1982
1034.981	-1546
1035.045	-1782
1035.109	-2370
1035.173	-1404
1035.238	-2130
1035.302	-1233
1035.366	-1968
1035.430	-1830
1035.495	-1892
1035.559	-969
1035.623	-2230
1035.687	-1541
1035.751	-1992
1035.815	-2610
1035.879	-1890
1035.943	-1968
1036.007	-1205
1036.071	-829
1036.135	-1483
1036.198	-1535
1036.262	-2337
1036.326	-1020
1036.390	-1746
1036.454	-1777
1036.517	-945
1036.581	-2019
1036.645	-1671
1036.709	-1828
1036.772	-1921
1036.836	-2179
1036.900	-1726
1036.963	-2090
1037.026	-1965
1037.090	-2068
1037.154	-2100
1037.217	-1513
1037.280	-2158
1037.344	-1613
1037.407	-1736
1037.471	-1878
1037.534	-1576
1037.597	-2477
1037.661	-1225
1037.724	-2118
1037.787	-1662
1037.850	-2309
1037.913	-2560
1037.977	-1940
1038.040	-1529
1038.103	-2334
1038.166	-1567
1038.229	-1101
1038.292	-1835
1038.355	-1894
1038.418	-1341
1038.481	-1109
1038.544	-1665
1038.607	-1927
1038.670	-1905
1038.732	-1696
1038.795	-1506
1038.858	-1809
1038.921	-1636
1038.984	-1654
1039.046	-2396
1039.109	-1981
1039.172	-750
1039.234	-1605
1039.297	-1501
1039.360	-1751
1039.422	-1229
1039.485	-1765
1039.547	-1884
1039.610	-1551
1039.672	-1576
1039.734	-2206
1039.797	-1395
1039.859	-2153
1039.922	-1364
1039.984	-2025
1040.046	-1571
1040.109	-1650
1040.171	-2010
1040.233	-1919
1040.295	-2381
1040.358	-1889
1040.420	-1790
1040.482	-1370
1040.544	-1045
1040.606	-1510
1040.668	-1885
1040.730	-2062
1040.792	-1353
1040.854	-1801
1040.916	-1380
1040.978	-2341
1041.040	-1160
1041.102	-1433
1041.164	-1575
1041.225	-1814
1041.287	-1675
1041.349	-1779
1041.411	-365
1041.472	-1815
1041.534	-2218
1041.596	-2421
1041.657	-2206
1041.719	-1284
1041.781	-1614
1041.842	-1418
1041.904	-1683
1041.965	-1871
1042.027	-1684
1042.088	-1826
1042.150	-1436
1042.211	-1711
1042.272	-1767
1042.334	-2155
1042.395	-1786
1042.456	-1712
1042.518	-1583
1042.579	-689
1042.640	-1465
1042.701	-1567
1042.763	-1696
1042.824	-1437
1042.885	-2380
1042.946	-1691
1043.007	-1236
1043.068	-1425
1043.129	-2266
1043.190	-1735
1043.251	-1276
1043.312	-1864
1043.373	-1169
1043.434	-2612
1043.495	-1866
1043.556	-1190
1043.616	-1334
1043.677	-1624
1043.738	-1014
1043.799	-1804
1043.859	-1123
1043.920	-2120
1043.981	-2136
1044.041	-1713
1044.102	-1866
1044.162	-1641
1044.223	-1950
1044.284	-1968
1044.344	-1578
1044.405	-2100
1044.465	-1708
1044.525	-1276
1044.586	-1348
1044.646	-1849
1044.707	-1247
1044.767	-1221
1044.827	-2083
1044.887	-1344
1044.948	-1517
1045.008	-1855
1045.068	-1837
1045.128	-2273
1045.188	-1380
1045.249	-873
1045.309	-2153
1045.369	-1539
1045.429	-1437
1045.489	-2338
1045.549	-1470
1045.609	-1417
1045.669	-1198
1045.729	-2039
1045.789	-829
1045.848	-1265
1045.908	-1165
1045.968	-1054
1046.028	-558
1046.088	-1144
1046.147	-725
1046.207	-474
1046.267	-975
1046.326	-923
1046.386	-1360
1046.446	-1091
1046.505	84
1046.565	-281
1046.624	-1085
1046.684	-1022
1046.743	277
1046.803	-178
1046.862	-82
1046.922	0
