'Start Wavelength	183.907
'End Wavelength	1046.922
'Gate Delay	5.000
'Gate Width (ms)	1.050
'Laser Output Level	0.000
'X Position	0.000
'Y Position	0.000
'Z Position	0.000
'Grid Point Number	1.000
'Shot Number	100.000
183.907	635.000
183.977	215.000
184.047	-94
184.116	28
184.186	85
184.256	793
184.325	460
184.395	-840
184.465	839
184.534	-341
184.604	-727
184.674	72
184.743	-89
184.813	647
184.883	678
184.952	-237
185.022	472
185.092	203
185.161	378
185.231	-19
185.301	286
185.370	258
185.440	-11
185.509	-129
185.579	179
185.649	445
185.718	356
185.788	625
185.857	-160
185.927	-441
185.996	388
186.066	-99
186.136	-765
186.205	-325
186.275	250
186.344	-6
186.414	66
186.483	196
186.553	569
186.622	85
186.692	-255
186.761	-473
186.831	337
186.900	-620
186.970	970
187.039	717
187.109	675
187.178	256
187.248	621
187.317	326
187.387	461
187.456	321
187.526	575
187.595	107
187.664	382
187.734	831
187.803	423
187.873	347
187.942	1119
188.012	150
188.081	339
188.150	-41
188.220	893
188.289	690
188.358	808
188.428	1047
188.497	107
188.567	454
188.636	361
188.705	74
188.775	672
188.844	-819
188.913	929
188.983	574
189.052	241
189.121	518
189.191	-5
189.260	1364
189.329	476
189.399	559
189.468	1348
189.537	433
189.606	684
189.676	164
189.745	719
189.814	683
189.883	419
189.953	-226
190.022	573
190.091	1386
190.161	1852
190.230	905
190.299	850
190.368	236
190.437	205
190.507	184
190.576	818
190.645	-13
190.714	487
190.783	-617
190.853	478
190.922	-486
190.991	1102
191.060	275
191.129	-265
191.198	130
191.268	6
191.337	-73
191.406	117
191.475	49
191.544	380
191.613	549
191.682	246
191.752	448
191.821	1052
191.890	368
191.959	1186
192.028	364
192.097	214
192.166	650
192.235	265
192.304	147
192.373	37
192.442	589
192.511	-19
192.580	-117
192.650	163
192.719	810
192.788	475
192.857	488
192.926	801
192.995	113
193.064	991
193.133	1068
193.202	1511
193.271	1738
193.340	1227
193.409	1030
193.478	1764
193.547	1656
193.615	3118
193.684	2436
193.753	1697
193.822	1583
193.891	1157
193.960	864
194.029	1122
194.098	492
194.167	850
194.236	1267
194.305	592
194.374	173
194.443	695
194.512	232
194.580	931
194.649	-191
194.718	952
194.787	-147
194.856	631
194.925	903
194.994	740
195.062	593
195.131	1312
195.200	784
195.269	1715
195.338	725
195.407	1061
195.475	175
195.544	771
195.613	809
195.682	1734
195.751	759
195.819	1060
195.888	1345
195.957	1238
196.026	1118
196.094	1562
196.163	846
196.232	1044
196.301	916
196.369	146
196.438	633
196.507	973
196.576	870
196.644	437
196.713	692
196.782	-10
196.850	835
196.919	981
196.988	574
197.056	420
197.125	940
197.194	569
197.262	-24
197.331	331
197.400	317
197.468	605
197.537	36
197.606	593
197.674	1024
197.743	2662
197.812	984
197.880	1208
197.949	1557
198.017	1479
198.086	782
198.155	706
198.223	1449
198.292	1830
198.360	748
198.429	1223
198.497	352
198.566	1619
198.635	1063
198.703	1461
198.772	1352
198.840	2727
198.909	1896
198.977	1175
199.046	1619
199.114	648
199.183	809
199.251	728
199.320	-179
199.388	444
199.457	175
199.525	393
199.594	-94
199.662	961
199.731	712
199.799	864
199.867	888
199.936	900
200.004	518
200.073	973
200.141	322
200.210	747
200.278	-89
200.346	1256
200.415	547
200.483	1319
200.552	1454
200.620	638
200.688	1090
200.757	905
200.825	343
200.893	523
200.962	299
201.030	1034
201.098	-522
201.167	942
201.235	523
201.303	1156
201.372	853
201.440	-12
201.508	824
201.577	641
201.645	252
201.713	531
201.781	274
201.850	1256
201.918	872
201.986	1120
202.055	1654
202.123	1273
202.191	647
202.259	1197
202.327	1497
202.396	1295
202.464	228
202.532	1365
202.600	1559
202.669	2155
202.737	543
202.805	1128
202.873	547
202.941	1281
203.009	706
203.078	1224
203.146	1158
203.214	395
203.282	361
203.350	1382
203.418	21
203.487	1134
203.555	954
203.623	325
203.691	903
203.759	715
203.827	842
203.895	910
203.963	581
204.031	942
204.099	1500
204.168	943
204.236	640
204.304	1357
204.372	1106
204.440	1566
204.508	1074
204.576	219
204.644	525
204.712	695
204.780	1277
204.848	1240
204.916	606
204.984	977
205.052	820
205.120	542
205.188	479
205.256	85
205.324	1105
205.392	907
205.460	932
205.528	880
205.596	1802
205.664	1084
205.732	866
205.799	2105
205.867	3783
205.935	872
206.003	2197
206.071	1989
206.139	947
206.207	1055
206.275	924
206.343	1193
206.411	851
206.478	1440
206.546	806
206.614	434
206.682	596
206.750	1657
206.818	845
206.885	2382
206.953	205
207.021	1609
207.089	1143
207.157	652
207.225	1392
207.292	1507
207.360	1277
207.428	1744
207.496	1490
207.563	1760
207.631	773
207.699	1142
207.767	961
207.834	1720
207.902	1462
207.970	868
208.038	1303
208.105	1171
208.173	1264
208.241	1643
208.309	1511
208.376	1420
208.444	2788
208.512	1504
208.579	697
208.647	2129
208.715	1915
208.782	1194
208.850	1559
208.918	1840
208.985	981
209.053	1353
209.120	687
209.188	1336
209.256	1057
209.323	879
209.391	1078
209.459	2613
209.526	837
209.594	927
209.661	1446
209.729	1264
209.796	844
209.864	1532
209.932	53
209.999	2499
210.067	1347
210.134	1475
210.202	1215
210.269	2575
210.337	2072
210.404	1873
210.472	1737
210.539	1772
210.607	2013
210.674	1795
210.742	1112
210.809	1390
210.877	882
210.944	2482
211.012	1080
211.079	2425
211.146	917
211.214	2509
211.281	1305
211.349	2094
211.416	1077
211.484	2257
211.551	1581
211.618	1760
211.686	1046
211.753	1510
211.821	2257
211.888	1582
211.955	1954
212.023	1794
212.090	1294
212.157	1682
212.225	1284
212.292	3583
212.359	4567
212.427	11398
212.494	5378
212.561	2771
212.629	2221
212.696	2903
212.763	2132
212.831	2177
212.898	2010
212.965	1554
213.032	2309
213.100	1459
213.167	2249
213.234	2745
213.301	2141
213.369	1664
213.436	1688
213.503	1531
213.570	1964
213.638	1594
213.705	926
213.772	1013
213.839	2327
213.906	2970
213.973	2075
214.041	1920
214.108	2177
214.175	2023
214.242	1217
214.309	2114
214.376	2679
214.444	2210
214.511	2678
214.578	2637
214.645	2265
214.712	2372
214.779	2380
214.846	1947
214.913	2775
214.980	3126
215.048	3062
215.115	3568
215.182	3657
215.249	2559
215.316	2003
215.383	2180
215.450	1866
215.517	1915
215.584	1645
215.651	2136
215.718	1779
215.785	2145
215.852	2144
215.919	1989
215.986	2174
216.053	1920
216.120	1377
216.187	2032
216.254	1669
216.321	2048
216.388	1821
216.455	1914
216.522	2097
216.589	1927
216.656	3811
216.722	4133
216.789	3871
216.856	4527
216.923	3353
216.990	3308
217.057	2535
217.124	3850
217.191	3574
217.258	5188
217.324	6500
217.391	7592
217.458	5409
217.525	3724
217.592	2692
217.659	2226
217.725	3551
217.792	3049
217.859	3657
217.926	1341
217.993	2289
218.059	2504
218.126	1807
218.193	1590
218.260	1656
218.327	1340
218.393	888
218.460	1183
218.527	502
218.594	1585
218.660	2654
218.727	3523
218.794	1188
218.860	1638
218.927	743
218.994	912
219.061	966
219.127	2195
219.194	2841
219.261	1543
219.327	1017
219.394	1324
219.461	458
219.527	991
219.594	1946
219.661	1763
219.727	-26
219.794	2145
219.860	216
219.927	1463
219.994	2170
220.060	4233
220.127	3957
220.193	3297
220.260	2085
220.326	4290
220.393	7860
220.460	11000
220.526	7436
220.593	4182
220.659	4927
220.726	3603
220.792	7490
220.859	7759
220.925	12439
220.992	16956
221.058	14242
221.125	11231
221.191	7881
221.258	3471
221.324	3693
221.391	2557
221.457	1577
221.524	1745
221.590	2620
221.657	7903
221.723	5808
221.789	4983
221.856	4937
221.922	2503
221.989	1772
222.055	2376
222.121	1141
222.188	3713
222.254	1368
222.321	1082
222.387	684
222.453	1498
222.520	791
222.586	600
222.652	943
222.719	389
222.785	950
222.851	1110
222.918	588
222.984	1530
223.050	479
223.116	232
223.183	1801
223.249	1039
223.315	640
223.382	755
223.448	1003
223.514	649
223.580	572
223.647	221
223.713	984
223.779	273
223.845	849
223.911	1486
223.978	7
224.044	1688
224.110	607
224.176	1302
224.242	1006
224.309	775
224.375	1617
224.441	1126
224.507	293
224.573	-328
224.639	1039
224.705	656
224.772	828
224.838	1200
224.904	1484
224.970	1133
225.036	359
225.102	1008
225.168	1679
225.234	1027
225.300	532
225.366	1258
225.432	716
225.499	887
225.565	1261
225.631	1299
225.697	1126
225.763	2242
225.829	2557
225.895	2764
225.961	2962
226.027	2423
226.093	1919
226.159	3893
226.225	5678
226.291	14081
226.357	23662
226.423	13269
226.489	6453
226.554	4474
226.620	3398
226.686	4278
226.752	7328
226.818	12673
226.884	27435
226.950	27111
227.016	11033
227.082	5923
227.148	3799
227.214	4469
227.279	2670
227.345	2380
227.411	2438
227.477	1556
227.543	5437
227.609	5601
227.674	3809
227.740	1916
227.806	1761
227.872	1305
227.938	1536
228.003	2950
228.069	969
228.135	901
228.201	966
228.267	1665
228.332	1865
228.398	1701
228.464	2686
228.530	1206
228.595	1546
228.661	796
228.727	2363
228.792	3027
228.858	897
228.924	360
228.990	3087
229.055	1287
229.121	2021
229.187	1245
229.252	1190
229.318	1266
229.384	1500
229.449	2103
229.515	-558
229.581	931
229.646	2532
229.712	1828
229.777	4072
229.843	4223
229.909	2891
229.974	3881
230.040	2455
230.105	2170
230.171	1073
230.236	3013
230.302	3573
230.368	3805
230.433	1976
230.499	1642
230.564	2671
230.630	1360
230.695	885
230.761	1723
230.826	451
230.892	3241
230.957	506
231.023	983
231.088	839
231.154	1884
231.219	1871
231.284	2017
231.350	3339
231.415	269
231.481	2078
231.546	1361
231.612	1804
231.677	510
231.742	-435
231.808	3018
231.873	573
231.939	-151
232.004	3332
232.069	3708
232.135	913
232.200	568
232.265	1245
232.331	926
232.396	625
232.461	646
232.527	344
232.592	490
232.657	-94
232.723	2430
232.788	1699
232.853	1898
232.918	989
232.984	1470
233.049	373
233.114	932
233.179	1868
233.245	2108
233.310	4001
233.375	992
233.440	2222
233.506	1227
233.571	944
233.636	1418
233.701	211
233.766	2139
233.832	3059
233.897	1105
233.962	564
234.027	2939
234.092	2052
234.157	1512
234.222	461
234.288	2330
234.353	6903
234.418	6475
234.483	5071
234.548	3351
234.613	1884
234.678	2443
234.743	1211
234.808	7096
234.873	4402
234.938	3344
235.004	2804
235.069	2108
235.134	1014
235.199	2125
235.264	1557
235.329	462
235.394	1601
235.459	2614
235.524	471
235.589	2582
235.654	428
235.719	540
235.784	2081
235.849	2020
235.913	3417
235.978	3988
236.043	4403
236.108	2702
236.173	1354
236.238	3220
236.303	551
236.368	2065
236.433	3082
236.498	5222
236.563	5112
236.627	10097
236.692	33445
236.757	30754
236.822	11538
236.887	6667
236.952	6699
237.017	4775
237.081	5628
237.146	6033
237.211	16511
237.276	32846
237.341	53533
237.405	26977
237.470	10385
237.535	8141
237.600	5168
237.664	3473
237.729	3095
237.794	4455
237.859	12408
237.923	6711
237.988	3393
238.053	5037
238.118	4023
238.182	9470
238.247	10477
238.312	3684
238.376	3131
238.441	1217
238.506	3309
238.570	630
238.635	2818
238.700	2214
238.764	1184
238.829	4638
238.893	4817
238.958	3670
239.023	2577
239.087	1814
239.152	1996
239.216	1139
239.281	2077
239.346	1566
239.410	1310
239.475	1545
239.539	8896
239.604	7143
239.668	2872
239.733	1731
239.797	2723
239.862	6796
239.926	8255
239.991	4257
240.055	1851
240.120	2191
240.184	2376
240.249	1690
240.313	943
240.378	1322
240.442	4907
240.507	9259
240.571	3328
240.635	2940
240.700	5379
240.764	1956
240.829	1445
240.893	-16
240.957	1548
241.022	4919
241.086	9755
241.151	3897
241.215	396
241.279	2778
241.344	4056
241.408	3192
241.472	1507
241.537	3182
241.601	2221
241.665	569
241.730	1298
241.794	2420
241.858	1727
241.922	1628
241.987	2368
242.051	1183
242.115	1014
242.179	1762
242.244	1011
242.308	1933
242.372	2002
242.436	1728
242.501	2001
242.565	399
242.629	1251
242.693	2583
242.757	1377
242.822	1870
242.886	1315
242.950	2174
243.014	1483
243.078	2930
243.142	2824
243.206	1313
243.271	1800
243.335	1590
243.399	4140
243.463	11942
243.527	36624
243.591	12678
243.655	4452
243.719	2481
243.783	3820
243.847	5297
243.911	6058
243.975	6777
244.040	5495
244.104	4392
244.168	1876
244.232	3163
244.296	6240
244.360	6845
244.424	3221
244.488	3193
244.552	1628
244.615	884
244.679	1988
244.743	3628
244.807	2485
244.871	2172
244.935	1580
244.999	570
245.063	1596
245.127	3333
245.191	4236
245.255	4057
245.319	2883
245.383	2711
245.446	2460
245.510	1244
245.574	2249
245.638	2126
245.702	1610
245.766	7523
245.829	4574
245.893	1235
245.957	2347
246.021	2931
246.085	2205
246.149	3438
246.212	9469
246.276	13536
246.340	6000
246.404	4665
246.467	5078
246.531	6329
246.595	4044
246.659	3113
246.722	2616
246.786	4367
246.850	4505
246.913	6485
246.977	1904
247.041	2296
247.104	3478
247.168	3026
247.232	8100
247.295	18847
247.359	9318
247.423	3709
247.486	7406
247.550	5661
247.614	2522
247.677	4111
247.741	2860
247.804	3294
247.868	3314
247.932	6255
247.995	18081
248.059	5879
248.122	2965
248.186	4751
248.249	6644
248.313	28281
248.376	31355
248.440	19147
248.503	7453
248.567	7126
248.630	7324
248.694	11749
248.757	14332
248.821	31723
248.884	19543
248.948	15387
249.011	22581
249.075	34757
249.138	32439
249.202	12078
249.265	6905
249.328	7875
249.392	5211
249.455	6167
249.519	3474
249.582	5112
249.645	8461
249.709	6466
249.772	2976
249.835	3963
249.899	3848
249.962	4315
250.025	3257
250.089	10152
250.152	16320
250.215	7409
250.279	4298
250.342	4971
250.405	4302
250.468	4140
250.532	5334
250.595	9521
250.658	31432
250.721	59462
250.785	20685
250.848	11230
250.911	5215
250.974	5731
251.038	6898
251.101	18584
251.164	8708
251.227	8660
251.290	7296
251.354	11771
251.417	45472
251.480	49156
251.543	29801
251.606	87302
251.669	68988
251.732	25337
251.795	24257
251.859	25228
251.922	55897
251.985	34413
252.048	11898
252.111	8916
252.174	7860
252.237	15058
252.300	36427
252.363	36552
252.426	75304
252.489	33229
252.552	14193
252.615	8238
252.678	9928
252.741	26161
252.804	32932
252.867	74436
252.930	45812
252.993	24784
253.056	14508
253.119	9848
253.182	6461
253.245	12688
253.308	9304
253.371	8938
253.434	7968
253.497	8313
253.559	16523
253.622	12078
253.685	11597
253.748	14812
253.811	5998
253.874	6928
253.937	7027
254.000	5632
254.062	10145
254.125	18542
254.188	14934
254.251	13136
254.314	5847
254.376	10498
254.439	13804
254.502	11096
254.565	10673
254.628	21954
254.690	11658
254.753	6591
254.816	4824
254.878	5103
254.941	10803
255.004	13040
255.067	5218
255.129	5337
255.192	4050
255.255	2777
255.317	3833
255.380	2388
255.443	713
255.505	1349
255.568	1376
255.631	3125
255.693	2095
255.756	1184
255.819	2206
255.881	1625
255.944	2381
256.006	1048
256.069	1600
256.132	1796
256.194	2262
256.257	7963
256.319	5106
256.382	5428
256.444	2927
256.507	3584
256.569	2274
256.632	2555
256.694	4932
256.757	16760
256.819	55472
256.882	21426
256.944	8646
257.007	7144
257.069	5542
257.132	3560
257.194	4781
257.257	3196
257.319	2417
257.381	4020
257.444	13265
257.506	59847
257.569	73976
257.631	37839
257.693	17484
257.756	7902
257.818	6058
257.880	3664
257.943	3858
258.005	2528
258.067	2644
258.130	2568
258.192	2481
258.254	7274
258.317	3600
258.379	3806
258.441	11066
258.503	11560
258.566	9495
258.628	14988
258.690	3161
258.753	3425
258.815	7237
258.877	3772
258.939	2486
259.001	2458
259.064	2211
259.126	2328
259.188	3607
259.250	3416
259.312	4420
259.375	16078
259.437	10518
259.499	3934
259.561	3083
259.623	3312
259.685	2732
259.747	2405
259.809	9048
259.872	19342
259.934	27043
259.996	26310
260.058	7029
260.120	2970
260.182	1949
260.244	2621
260.306	1955
260.368	2387
260.430	1381
260.492	3964
260.554	12281
260.616	12359
260.678	15336
260.740	22195
260.802	5840
260.864	5186
260.926	1801
260.988	3732
261.050	2042
261.112	4850
261.174	16838
261.236	16486
261.298	4954
261.359	7684
261.421	12301
261.483	2813
261.545	3123
261.607	2150
261.669	1721
261.731	4896
261.793	12904
261.854	5803
261.916	3690
261.978	2238
262.040	2632
262.102	2596
262.164	2789
262.225	4020
262.287	2464
262.349	7870
262.411	7310
262.472	2863
262.534	4232
262.596	11206
262.658	3758
262.719	1982
262.781	3211
262.843	10141
262.904	4795
262.966	3651
263.028	3816
263.090	18837
263.151	58184
263.213	18390
263.275	8906
263.336	4436
263.398	3437
263.459	1392
263.521	1937
263.583	7786
263.644	5864
263.706	1823
263.767	304
263.829	1505
263.891	414
263.952	684
264.014	117
264.075	1068
264.137	4905
264.198	3581
264.260	891
264.321	1206
264.383	4907
264.444	10424
264.506	2727
264.567	2470
264.629	3269
264.690	6412
264.752	3103
264.813	2396
264.875	855
264.936	1625
264.998	600
265.059	362
265.120	1484
265.182	4121
265.243	29789
265.305	32360
265.366	6676
265.427	3522
265.489	2943
265.550	846
265.611	2151
265.673	2255
265.734	1254
265.795	1291
265.857	639
265.918	1787
265.979	6771
266.040	46679
266.102	40667
266.163	10261
266.224	6247
266.286	3064
266.347	2014
266.408	2865
266.469	1947
266.530	1507
266.592	485
266.653	4486
266.714	8839
266.775	2163
266.836	883
266.898	1410
266.959	2193
267.020	1620
267.081	2220
267.142	260
267.203	326
267.264	1151
267.326	1816
267.387	890
267.448	404
267.509	992
267.570	272
267.631	251
267.692	275
267.753	282
267.814	355
267.875	3617
267.936	10870
267.997	3665
268.058	3148
268.119	2122
268.180	2779
268.241	1113
268.302	908
268.363	755
268.424	1292
268.485	1271
268.546	740
268.607	151
268.668	-594
268.729	700
268.790	727
268.851	1974
268.912	5506
268.972	9239
269.033	2491
269.094	1090
269.155	294
269.216	14
269.277	850
269.338	650
269.398	827
269.459	1712
269.520	2528
269.581	4069
269.642	5022
269.702	2988
269.763	2527
269.824	1427
269.885	2607
269.945	5515
270.006	1641
270.067	500
270.128	820
270.188	618
270.249	936
270.310	364
270.370	529
270.431	-188
270.492	517
270.553	675
270.613	5090
270.674	10640
270.734	4011
270.795	1520
270.856	3290
270.916	2950
270.977	1284
271.038	2132
271.098	1336
271.159	4215
271.219	4671
271.280	1900
271.340	1230
271.401	1395
271.462	4741
271.522	3223
271.583	1530
271.643	1740
271.704	1215
271.764	2334
271.825	6731
271.885	25162
271.946	38652
272.006	11937
272.066	15132
272.127	30058
272.187	8322
272.248	3641
272.308	3918
272.369	20042
272.429	11068
272.489	6435
272.550	7035
272.610	7754
272.671	6311
272.731	3774
272.791	6179
272.852	4151
272.912	4183
272.972	2327
273.033	1498
273.093	3220
273.153	3289
273.214	1725
273.274	2026
273.334	11222
273.394	30024
273.455	10862
273.515	9551
273.575	24987
273.635	10430
273.696	10910
273.756	26335
273.816	10297
273.876	4519
273.936	9256
273.997	18528
274.057	4191
274.117	3447
274.177	5436
274.237	31693
274.297	29828
274.358	16981
274.418	22713
274.478	18194
274.538	6141
274.598	3034
274.658	12833
274.718	19511
274.778	7962
274.838	2947
274.898	6937
274.958	25854
275.018	27125
275.078	18800
275.138	6715
275.198	2913
275.258	2679
275.318	3023
275.378	6764
275.438	7977
275.498	5168
275.558	11886
275.618	26823
275.678	21401
275.738	10702
275.798	8102
275.858	3424
275.918	1935
275.978	2079
276.038	2586
276.098	2144
276.157	4436
276.217	19196
276.277	8674
276.337	6102
276.397	2643
276.457	3539
276.517	1636
276.576	1673
276.636	844
276.696	3545
276.756	10000
276.815	8153
276.875	1874
276.935	2816
276.995	2131
277.055	1288
277.114	1915
277.174	3469
277.234	15273
277.293	6437
277.353	2608
277.413	1951
277.472	1869
277.532	2642
277.592	2394
277.651	8606
277.711	17961
277.771	6007
277.830	22722
277.890	19390
277.950	11381
278.009	40285
278.069	13943
278.128	10887
278.188	18669
278.248	7218
278.307	17850
278.367	11400
278.426	3857
278.486	1824
278.545	1007
278.605	812
278.664	1969
278.724	1044
278.783	9114
278.843	29942
278.902	8093
278.962	4289
279.021	4337
279.081	3567
279.140	3054
279.199	3705
279.259	2950
279.318	3173
279.378	4833
279.437	9704
279.496	44686
279.556	97153
279.615	78355
279.675	18369
279.734	11071
279.793	17898
279.853	40161
279.912	15637
279.971	6239
280.031	6479
280.090	14274
280.149	32507
280.208	15559
280.268	57957
280.327	70749
280.386	15172
280.445	13041
280.505	13502
280.564	4929
280.623	3559
280.682	7762
280.742	13486
280.801	4059
280.860	2264
280.919	1635
280.978	977
281.037	1134
281.097	1039
281.156	820
281.215	1582
281.274	2603
281.333	17424
281.392	15053
281.451	2754
281.510	1106
281.569	2239
281.628	1026
281.688	357
281.747	1102
281.806	2003
281.865	843
281.924	390
281.983	688
282.042	173
282.101	596
282.160	1246
282.219	-227
282.278	1894
282.337	9290
282.396	6774
282.454	1567
282.513	3170
282.572	14834
282.631	9064
282.690	2051
282.749	1355
282.808	3006
282.867	1772
282.926	2076
282.985	311
283.043	353
283.102	941
283.161	1100
283.220	5706
283.279	17949
283.338	4840
283.396	1520
283.455	2310
283.514	1382
283.573	3882
283.631	2412
283.690	1229
283.749	1335
283.808	5006
283.866	6546
283.925	1323
283.984	1545
284.043	2693
284.101	2890
284.160	1499
284.219	2217
284.277	1315
284.336	3939
284.395	19261
284.453	18621
284.512	3949
284.570	4942
284.629	5106
284.688	2938
284.746	2917
284.805	3424
284.863	4842
284.922	6910
284.981	6509
285.039	9033
285.098	18902
285.156	52609
285.215	155336
285.273	153967
285.332	64137
285.390	29703
285.449	17720
285.507	11618
285.566	8093
285.624	6192
285.683	4240
285.741	3060
285.799	3750
285.858	2215
285.916	2705
285.975	1679
286.033	771
286.091	1038
286.150	940
286.208	835
286.267	975
286.325	2227
286.383	4200
286.442	3184
286.500	1359
286.558	883
286.616	520
286.675	2141
286.733	2097
286.791	863
286.850	1910
286.908	2510
286.966	7808
287.024	2141
287.083	696
287.141	1113
287.199	1223
287.257	1825
287.315	1490
287.374	1713
287.432	7717
287.490	5266
287.548	2581
287.606	627
287.664	1851
287.723	2099
287.781	4368
287.839	1349
287.897	1962
287.955	2608
288.013	5820
288.071	14501
288.129	59725
288.187	181411
288.245	82561
288.303	23743
288.361	13178
288.419	10143
288.477	6240
288.535	3421
288.593	2703
288.651	794
288.709	416
288.767	-16
288.825	1348
288.883	208
288.941	261
288.999	-250
289.057	775
289.115	68
289.173	365
289.231	792
289.289	157
289.346	445
289.404	441
289.462	2889
289.520	4150
289.578	1606
289.636	-153
289.694	-732
289.751	619
289.809	91
289.867	388
289.925	1112
289.983	1419
290.040	479
290.098	50
290.156	558
290.214	1479
290.271	-248
290.329	401
290.387	-675
290.444	-311
290.502	-335
290.560	-983
290.617	-782
290.675	-97
290.733	-58
290.790	111
290.848	-471
290.906	-274
290.963	400
291.021	-105
291.078	334
291.136	1016
291.194	5027
291.251	15396
291.309	4309
291.366	756
291.424	491
291.481	812
291.539	-62
291.596	-91
291.654	-1142
291.711	-371
291.769	666
291.826	3960
291.884	1011
291.941	520
291.999	401
292.056	1073
292.114	1010
292.171	622
292.228	681
292.286	1380
292.343	3048
292.401	3612
292.458	1786
292.515	1132
292.573	2251
292.630	2077
292.687	1391
292.745	787
292.802	1394
292.859	5776
292.917	16538
292.974	10817
293.031	1903
293.089	934
293.146	-654
293.203	94
293.260	217
293.318	2180
293.375	1904
293.432	437
293.489	-638
293.546	50
293.604	1898
293.661	8769
293.718	28968
293.775	13922
293.832	5727
293.889	3595
293.947	5713
294.004	3218
294.061	2667
294.118	6471
294.175	14731
294.232	12887
294.289	3719
294.346	2282
294.403	761
294.460	1307
294.517	651
294.574	1106
294.631	328
294.688	2084
294.745	6858
294.802	29326
294.859	28959
294.916	11769
294.973	7670
295.030	4716
295.087	3984
295.144	2245
295.201	991
295.258	1223
295.315	2344
295.372	11302
295.429	26381
295.486	10256
295.542	3954
295.599	8445
295.656	15772
295.713	11956
295.770	23779
295.827	9229
295.883	3511
295.940	3695
295.997	5106
296.054	4566
296.111	2185
296.167	1867
296.224	272
296.281	797
296.338	483
296.394	555
296.451	2423
296.508	8871
296.564	20241
296.621	11857
296.678	23148
296.734	37646
296.791	13062
296.848	5386
296.904	5938
296.961	15522
297.018	26510
297.074	21171
297.131	6925
297.187	4538
297.244	7489
297.301	25717
297.357	53652
297.414	18449
297.470	5660
297.527	3730
297.583	2054
297.640	2903
297.696	1560
297.753	958
297.809	390
297.866	444
297.922	261
297.979	443
298.035	1349
298.092	3750
298.148	15228
298.204	15720
298.261	6376
298.317	10439
298.374	31533
298.430	20252
298.486	7196
298.543	4178
298.599	3316
298.656	3600
298.712	7683
298.768	23322
298.824	17027
298.881	4393
298.937	2492
298.993	2534
299.050	3521
299.106	2186
299.162	1193
299.218	1931
299.275	1529
299.331	2697
299.387	6619
299.443	26965
299.500	31182
299.556	11845
299.612	4069
299.668	3804
299.724	4813
299.780	5543
299.837	3086
299.893	5984
299.949	22889
300.005	30146
300.061	21155
300.117	39246
300.173	19644
300.229	6791
300.285	7428
300.341	9830
300.397	4265
300.453	2796
300.510	1475
300.566	964
300.622	3788
300.678	10936
300.734	23885
300.790	23996
300.845	31378
300.901	18202
300.957	23206
301.013	20330
301.069	6668
301.125	4561
301.181	3752
301.237	3396
301.293	1045
301.349	1169
301.405	200
301.461	752
301.516	752
301.572	1588
301.628	5010
301.684	5114
301.740	7907
301.796	15245
301.851	10730
301.907	16123
301.963	18537
302.019	27924
302.074	82096
302.130	83591
302.186	35112
302.242	14554
302.297	8116
302.353	8499
302.409	16674
302.464	16432
302.520	10486
302.576	28331
302.631	35820
302.687	19535
302.743	7775
302.798	4244
302.854	2432
302.910	3132
302.965	4829
303.021	6847
303.076	7426
303.132	9568
303.187	11860
303.243	5844
303.299	2881
303.354	2310
303.410	1588
303.465	1088
303.521	1425
303.576	1671
303.632	2496
303.687	7620
303.743	24467
303.798	23781
303.853	8354
303.909	4085
303.964	3210
304.020	5334
304.075	9683
304.130	8301
304.186	15365
304.241	16137
304.297	12198
304.352	5931
304.358	5654
304.407	3408
304.449	3643
304.463	3723
304.518	3701
304.539	3293
304.573	2627
304.629	3170
304.630	3232
304.684	6455
304.720	13977
304.739	17663
304.794	31539
304.811	26868
304.850	15263
304.902	5904
304.905	5340
304.960	3374
304.992	3547
305.015	3554
305.071	3198
305.083	2900
305.126	1938
305.173	1344
305.181	1262
305.236	938
305.264	1125
305.292	1302
305.347	1736
305.354	1757
305.402	2116
305.445	3412
305.457	3735
305.512	5130
305.535	5374
305.567	5560
305.622	5121
305.626	5314
305.678	12419
305.716	25956
305.733	30010
305.788	36543
305.807	31238
305.843	23072
305.897	28448
305.898	28468
305.953	30561
305.988	19577
306.008	13789
306.063	6945
306.078	6073
306.118	4712
306.168	2792
306.173	2633
306.228	3100
306.259	2507
306.283	2145
306.338	2561
306.349	2561
306.393	2925
306.440	4358
306.448	4482
306.503	3866
306.530	3746
306.558	5113
306.613	10857
306.620	11798
306.668	19189
306.711	28541
306.723	29172
306.778	24324
306.801	17975
306.833	10961
306.888	5716
306.892	5409
306.943	3843
306.982	3816
306.997	3807
307.052	2466
307.072	2665
307.107	3465
307.162	3975
307.163	3983
307.217	5880
307.253	7375
307.272	7680
307.327	7820
307.343	7351
307.381	6264
307.434	6211
307.436	6544
307.491	15261
307.524	22695
307.546	24147
307.600	26511
307.614	24297
307.655	15725
307.704	7744
307.710	7506
307.765	8634
307.795	9802
307.819	11631
307.874	18428
307.885	18824
307.929	16238
307.975	14217
307.984	15291
308.038	24445
308.065	31477
308.093	62157
308.148	133157
308.156	146764
308.202	218051
308.246	273288
308.257	261345
308.312	137620
308.336	87425
308.366	64891
308.421	38090
308.426	35519
308.475	23214
308.517	15525
308.530	14382
308.585	11370
308.607	10464
308.639	10133
308.694	10609
308.697	10640
308.748	18035
308.787	25362
308.803	24862
308.857	20019
308.877	17535
308.912	16420
308.967	16497
308.967	16479
309.021	24694
309.058	31507
309.076	42335
309.130	79604
309.148	93634
309.185	187660
309.238	337310
309.239	338412
309.293	350547
309.328	327683
309.348	279636
309.402	127578
309.418	88146
309.457	60872
309.508	33283
309.511	32747
309.566	26786
309.598	23753
309.620	25298
309.674	31088
309.688	32771
309.729	30206
309.778	24036
309.783	23508
309.837	17979
309.868	15063
309.892	20455
309.946	35156
309.959	39368
310.001	52091
310.049	63858
310.055	61517
310.109	34721
310.139	19288
310.163	14456
310.218	6870
310.229	5572
310.272	5348
310.319	5401
310.326	5244
310.381	4163
310.409	3577
310.435	3457
310.489	3449
310.499	3413
310.543	3830
310.589	4374
310.598	4339
310.652	3992
310.679	3814
310.706	3432
310.760	2549
310.769	2419
310.814	2554
310.859	2542
310.868	2583
310.923	2966
310.948	3155
310.977	3504
311.031	3999
311.038	4070
311.085	3816
311.128	3420
311.139	3476
311.193	3789
311.218	3929
311.247	3723
311.301	3166
311.308	3089
311.356	3361
311.398	3666
311.410	3584
311.464	3084
311.488	2798
311.518	2849
311.572	3053
311.578	3060
311.626	4833
311.668	6430
311.680	6282
311.734	5345
311.758	4951
311.788	4708
311.842	4161
311.847	4098
311.896	5892
311.937	7412
311.950	7409
312.004	7261
312.027	7163
312.058	5868
312.112	3540
312.117	3301
312.165	3384
312.207	3448
312.297	4137
312.386	4353
312.476	5086
312.566	9935
312.656	4959
312.745	3917
312.835	4078
312.925	3849
313.015	3890
313.104	4275
313.194	3890
313.284	4076
313.374	5586
313.463	5333
313.553	3339
313.643	3859
313.732	2878
313.822	3019
313.912	4579
314.001	4798
314.091	4869
314.180	6102
314.270	6611
314.360	7304
314.449	6083
314.539	3715
314.628	3545
314.718	4572
314.808	5392
314.897	3371
314.987	4366
315.076	5386
315.166	6882
315.255	6139
315.345	5690
315.434	5618
315.524	5896
315.613	7360
315.703	8760
315.792	14691
315.881	49269
315.971	16317
316.060	12511
316.150	15812
316.239	15800
316.328	6432
316.418	3470
316.507	4047
316.597	6176
316.686	5156
316.775	7798
316.865	16677
316.954	5121
317.043	3677
317.133	3620
317.222	4106
317.311	4229
317.400	2287
317.490	6604
317.579	7787
317.668	6147
317.757	10104
317.847	23814
317.936	87818
318.025	31197
318.114	17676
318.203	8974
318.293	6458
318.382	8379
318.471	10066
318.560	13067
318.649	35895
318.738	8566
318.828	7356
318.917	7758
319.006	8572
319.095	19232
319.184	51256
319.273	31385
319.362	17126
319.451	6235
319.540	6515
319.629	13505
319.718	23663
319.807	9162
319.896	17790
319.985	68262
320.074	25119
320.163	6627
320.252	10130
320.341	8538
320.430	6527
320.519	10938
320.608	5607
320.697	4897
320.786	4820
320.875	7416
320.964	9985
321.053	15821
321.142	23167
321.230	24478
321.319	15795
321.408	39324
321.497	15361
321.586	16664
321.675	20155
321.764	16158
321.852	11054
321.941	22500
322.030	16018
322.119	14406
322.207	42145
322.296	25030
322.385	13043
322.474	16493
322.562	52578
322.651	25847
322.740	18817
322.829	28288
322.917	22989
323.006	14094
323.095	13806
323.183	8654
323.272	12795
323.361	24228
323.449	77564
323.538	25306
323.626	50932
323.715	33378
323.804	11727
323.892	45064
323.981	25441
324.069	9097
324.158	24572
324.246	26605
324.335	9716
324.424	15575
324.512	5003
324.601	6175
324.689	7477
324.778	9109
324.866	16403
324.954	5112
325.043	4803
325.131	9892
325.220	16992
325.308	20527
325.397	14673
325.485	9212
325.574	4181
325.662	3947
325.750	3540
325.839	4885
325.927	3138
326.015	4737
326.104	6975
326.192	9689
326.280	2640
326.369	3972
326.457	6787
326.545	11796
326.634	5125
326.722	2817
326.810	2349
326.898	2988
326.987	3891
327.075	10224
327.163	10427
327.251	3949
327.340	2352
327.428	3239
327.516	2499
327.604	3171
327.692	3369
327.781	3517
327.869	6682
327.957	4618
328.045	5451
328.133	2386
328.221	3596
328.309	3296
328.397	3607
328.485	5085
328.574	7720
328.662	27673
328.750	13664
328.838	5242
328.926	4863
329.014	3376
329.102	4798
329.190	11427
329.278	8395
329.366	2461
329.454	1745
329.542	2188
329.630	1791
329.718	2957
329.806	4250
329.893	3056
329.981	4441
330.069	6691
330.157	24935
330.245	79824
330.333	38664
330.421	6714
330.509	7793
330.597	32391
330.684	19868
330.772	6133
330.860	6433
330.948	7859
331.036	4189
331.123	1809
331.211	2574
331.299	2822
331.387	6635
331.475	12838
331.562	4033
331.650	2475
331.738	2921
331.825	5162
331.913	1879
332.001	1984
332.089	3330
332.176	7868
332.264	20296
332.352	15284
332.439	4472
332.527	3248
332.614	3331
332.702	4791
332.790	5613
332.877	10200
332.965	18877
333.052	4969
333.140	4934
333.228	11558
333.315	3285
333.403	3781
333.490	11954
333.578	9471
333.665	12636
333.753	6890
333.840	2531
333.928	4104
334.015	13015
334.103	20264
334.190	68771
334.278	16177
334.365	7943
334.452	6155
334.540	3926
334.627	4758
334.715	7474
334.802	16028
334.889	84051
334.977	91121
335.064	13853
335.151	5946
335.239	5431
335.326	7246
335.413	30747
335.501	43157
335.588	6092
335.675	4247
335.762	5013
335.850	8605
335.937	8850
336.024	22586
336.111	93280
336.199	40565
336.286	9622
336.373	4117
336.460	2256
336.547	2532
336.635	3650
336.722	3661
336.809	3858
336.896	5910
336.983	17246
337.070	43298
337.157	70577
337.245	54052
337.332	38176
337.419	4987
337.506	2639
337.593	3869
337.680	10925
337.767	35352
337.854	10996
337.941	11712
338.028	15854
338.115	5364
338.202	5967
338.289	13882
338.376	53630
338.463	16211
338.550	21372
338.637	22950
338.724	8831
338.811	14899
338.898	3050
338.984	2313
339.071	3128
339.158	4705
339.245	14137
339.332	8407
339.419	9468
339.506	9420
339.593	1691
339.679	2802
339.766	3150
339.853	4002
339.940	10809
340.027	3671
340.113	3282
340.200	5817
340.287	3763
340.374	4139
340.460	9323
340.547	2253
340.634	7339
340.720	32952
340.807	18219
340.894	2905
340.980	2642
341.067	3066
341.154	4209
341.240	5960
341.327	15824
341.414	3988
341.500	1155
341.587	3371
341.674	3885
341.760	10338
341.847	11806
341.933	3362
342.020	2047
342.106	1829
342.193	3791
342.279	7282
342.366	4779
342.452	10445
342.539	5071
342.625	13024
342.712	35683
342.798	14139
342.885	5879
342.971	1614
343.058	1827
343.144	1899
343.230	1939
343.317	1882
343.403	1448
343.490	930
343.576	1208
343.662	2418
343.749	3312
343.835	4634
343.921	12244
344.008	75688
344.094	182060
344.180	37892
344.267	13559
344.353	44609
344.439	45726
344.525	16402
344.612	5211
344.698	4589
344.784	2842
344.870	2030
344.957	2249
345.043	5121
345.129	3336
345.215	8298
345.301	4160
345.387	1680
345.474	1319
345.560	1097
345.646	1931
345.732	2931
345.818	2659
345.904	2727
345.990	3923
346.076	3973
346.162	4780
346.249	2620
346.335	1711
346.421	4656
346.507	17923
346.593	70286
346.679	13821
346.765	3616
346.851	3569
346.937	2550
347.023	2733
347.108	4448
347.194	2732
347.280	2337
347.366	5166
347.452	18636
347.538	86886
347.624	57747
347.710	42835
347.796	5517
347.882	2241
347.967	2439
348.053	2424
348.139	3146
348.225	2131
348.311	2277
348.397	2066
348.482	4350
348.568	4674
348.654	2074
348.740	4162
348.825	4730
348.911	7308
348.997	37130
349.083	77831
349.168	10773
349.254	2957
349.340	2323
349.425	1960
349.511	4040
349.597	4994
349.682	11504
349.768	42933
349.854	18967
349.939	2824
350.025	2244
350.110	1819
350.196	912
350.282	923
350.367	2392
350.453	3938
350.538	4859
350.624	3217
350.709	3511
350.795	2567
350.880	2871
350.966	2546
351.051	3922
351.137	3178
351.222	3119
351.308	11518
351.393	35264
351.479	5634
351.564	1283
351.649	3016
351.735	2508
351.820	1169
351.906	2446
351.991	3539
352.076	22439
352.162	34504
352.247	6014
352.332	3191
352.418	6039
352.503	8404
352.588	49804
352.673	38129
352.759	7785
352.844	3176
352.929	3514
353.014	5136
353.100	5240
353.185	13117
353.270	14237
353.355	11028
353.441	3940
353.526	3077
353.611	10389
353.696	12535
353.781	7753
353.866	2604
353.952	3907
354.037	9225
354.122	23742
354.207	21927
354.292	6418
354.377	2861
354.462	2840
354.547	4285
354.632	3826
354.717	7785
354.802	14848
354.887	6078
354.972	2843
355.057	2096
355.142	1420
355.227	4393
355.312	6734
355.397	15277
355.482	40178
355.567	16890
355.652	13269
355.737	14518
355.822	51933
355.907	41027
355.991	6819
356.076	2469
356.161	3462
356.246	1872
356.331	3912
356.416	11010
356.501	92748
356.585	93266
356.670	10090
356.755	7117
356.840	11881
356.924	62459
357.009	224177
357.094	76153
357.179	14329
357.263	7016
357.348	8636
357.433	7233
357.517	7421
357.602	4997
357.687	4736
357.771	8487
357.856	7248
357.941	9105
358.025	42184
358.110	204116
358.195	86508
358.279	12397
358.364	8731
358.448	33761
358.533	91381
358.617	64134
358.702	65780
358.787	22952
358.871	11891
358.956	9631
359.040	2837
359.125	2190
359.209	2652
359.294	4955
359.378	3626
359.462	8410
359.547	5458
359.631	3553
359.716	1290
359.800	1864
359.885	4462
359.969	3695
360.053	7926
360.138	6504
360.222	7296
360.306	11476
360.391	8471
360.475	9182
360.559	22488
360.644	32714
360.728	24782
360.812	47840
360.896	141970
360.981	47976
361.065	23152
361.149	9215
361.233	5347
361.318	3659
361.402	5216
361.486	4416
361.570	3489
361.654	6241
361.739	17182
361.823	85312
361.907	138275
361.991	20829
362.075	13774
362.159	25189
362.243	16768
362.327	15287
362.411	22747
362.495	10370
362.580	5157
362.664	2965
362.748	2445
362.832	5229
362.916	9001
363.000	34166
363.084	113088
363.168	162956
363.252	35550
363.336	13224
363.420	13837
363.503	44390
363.587	50265
363.671	9744
363.755	6527
363.839	11174
363.923	4643
364.007	11983
364.091	13352
364.175	16268
364.258	75983
364.342	56169
364.426	76075
364.510	39443
364.594	16538
364.677	22819
364.761	120931
364.845	81404
364.929	21518
365.013	16956
365.096	14359
365.180	16123
365.264	19812
365.347	77591
365.431	29932
365.515	6510
365.598	4128
365.682	4576
365.766	4950
365.849	6341
365.933	4627
366.017	6330
366.100	3151
366.184	1088
366.267	3354
366.351	2679
366.435	2442
366.518	1197
366.602	1483
366.685	2321
366.769	3308
366.852	5196
366.936	11464
367.019	6326
367.103	3543
367.186	7591
367.270	2880
367.353	773
367.436	2988
367.520	1767
367.603	4061
367.687	7140
367.770	13932
367.853	8085
367.937	31923
368.020	53400
368.104	10575
368.187	11133
368.270	13131
368.353	11194
368.437	14789
368.520	33840
368.603	21364
368.687	35224
368.770	68856
368.853	13805
368.936	12134
369.020	9746
369.103	4201
369.186	1265
369.269	1744
369.352	9630
369.436	13269
369.519	6581
369.602	1728
369.685	4537
369.768	3598
369.851	3419
369.934	2197
370.018	3625
370.101	10920
370.184	9384
370.267	4217
370.350	7702
370.433	14231
370.516	57336
370.599	78347
370.682	20618
370.765	32829
370.848	42383
370.931	90515
371.014	36526
371.097	8799
371.180	4590
371.263	2623
371.346	598
371.429	2687
371.511	1705
371.594	5988
371.677	9822
371.760	9429
371.843	11158
371.926	65058
372.009	158346
372.091	43103
372.174	29765
372.257	84412
372.340	28928
372.423	14670
372.505	14904
372.588	7084
372.671	24207
372.754	86290
372.836	39812
372.919	18275
373.002	34738
373.085	11452
373.167	11002
373.250	32764
373.332	80989
373.415	104025
373.498	227704
373.580	74619
373.663	111087
373.746	148591
373.828	28206
373.911	11340
373.993	10258
374.076	36329
374.159	32576
374.241	19086
374.324	70323
374.406	43509
374.489	64086
374.571	192055
374.654	71599
374.736	32465
374.819	118231
374.901	163353
374.983	169404
375.066	26183
375.148	8804
375.231	30554
375.313	58897
375.395	19611
375.478	5467
375.560	3884
375.643	6462
375.725	30324
375.807	151044
375.890	104810
375.972	32943
376.054	17847
376.136	25979
376.219	13254
376.301	40299
376.383	128951
376.465	44987
376.548	24160
376.630	32237
376.712	106135
376.794	47006
376.877	5393
376.959	2032
377.041	4463
377.123	5201
377.205	6204
377.287	1444
377.369	4984
377.452	8768
377.534	3520
377.616	2077
377.698	3277
377.780	1424
377.862	3118
377.944	3888
378.026	562
378.108	2389
378.190	1745
378.272	2530
378.354	1276
378.436	1415
378.518	3101
378.600	14647
378.682	16613
378.764	46450
378.846	37194
378.928	9681
379.010	12171
379.091	5800
379.173	3224
379.255	2425
379.337	4659
379.419	21790
379.501	69592
379.583	23593
379.664	5732
379.746	14364
379.828	44153
379.910	62104
379.991	54556
380.073	7635
380.155	4836
380.237	3339
380.318	1722
380.400	2108
380.482	8663
380.564	13640
380.645	16342
380.727	14583
380.809	6600
380.890	3629
380.972	3364
381.053	2649
381.135	5048
381.217	13677
381.298	46520
381.380	20057
381.461	17357
381.543	103303
381.624	127233
381.706	19841
381.787	7635
381.869	8549
381.951	39511
382.032	177834
382.113	101872
382.195	14915
382.276	11195
382.358	32311
382.439	93195
382.521	101767
382.602	167037
382.684	64362
382.765	119506
382.846	98642
382.928	103592
383.009	51458
383.090	34310
383.172	149846
383.253	239983
383.334	88142
383.416	140739
383.497	65859
383.578	16599
383.659	30193
383.741	129099
383.822	379720
383.903	178624
383.984	79395
384.066	164592
384.147	95408
384.228	16277
384.309	11485
384.390	7975
384.471	5644
384.553	5884
384.634	9816
384.715	9899
384.796	3683
384.877	6939
384.958	41555
385.039	49538
385.120	14701
385.201	6814
385.282	6439
385.363	6718
385.444	5305
385.525	13035
385.606	68558
385.687	61544
385.768	10717
385.849	12473
385.930	74193
386.011	133455
386.092	30528
386.173	5246
386.254	4068
386.335	4360
386.416	4608
386.496	24660
386.577	43322
386.658	12914
386.739	7133
386.820	6014
386.901	3485
386.981	4758
387.062	4226
387.143	9764
387.224	45412
387.304	39101
387.385	12873
387.466	5146
387.547	6819
387.627	5194
387.708	16884
387.789	84399
387.869	104074
387.950	26198
388.031	3416
388.111	2033
388.192	8059
388.273	12117
388.353	7085
388.434	5963
388.514	14730
388.595	85215
388.676	106570
388.756	44490
388.837	40253
388.917	23342
388.998	3363
389.078	4028
389.159	4834
389.239	3035
389.320	7895
389.400	5070
389.480	15375
389.561	48591
389.641	22825
389.722	6519
389.802	10950
389.883	19692
389.963	62112
390.043	34632
390.124	7427
390.204	13889
390.284	50654
390.365	30635
390.445	36106
390.525	150745
390.605	133471
390.686	29109
390.766	8160
390.846	5150
390.927	2655
391.007	2467
391.087	4714
391.167	3933
391.247	2755
391.328	5675
391.408	8654
391.488	5787
391.568	2126
391.648	5438
391.728	8178
391.808	8703
391.888	9242
391.969	25778
392.049	43075
392.129	16119
392.209	20458
392.289	56622
392.369	28475
392.449	15274
392.529	11610
392.609	12050
392.689	17391
392.769	59990
392.849	50197
392.929	30523
393.009	78109
393.089	65714
393.169	61072
393.248	203845
393.328	810926
393.408	855579
393.488	219056
393.568	58108
393.648	28471
393.728	18635
393.807	13757
393.887	13008
393.967	12527
394.047	14696
394.127	18441
394.206	33057
394.286	123201
394.366	552708
394.446	577350
394.525	133559
394.605	33000
394.685	20317
394.764	26508
394.844	40498
394.924	29490
395.003	14613
395.083	10607
395.163	9168
395.242	9070
395.322	9035
395.402	7071
395.481	10256
395.561	19376
395.640	49178
395.720	45139
395.799	57656
395.879	50438
395.958	51093
396.038	189292
396.117	723428
396.197	774316
396.276	217437
396.356	63153
396.435	36660
396.515	28382
396.594	32417
396.673	56538
396.753	221448
396.832	739550
396.912	524517
396.991	113492
397.070	32133
397.150	15806
397.229	12381
397.308	14786
397.388	24430
397.467	12436
397.546	5933
397.625	3447
397.705	7981
397.784	8005
397.863	3927
397.942	2948
398.022	3290
398.101	12104
398.180	38165
398.259	19106
398.338	5699
398.417	4167
398.497	3463
398.576	4374
398.655	1422
398.734	3835
398.813	5792
398.892	11526
398.971	42642
399.050	19038
399.129	2061
399.208	1058
399.287	1066
399.366	692
399.445	1098
399.524	2219
399.603	1121
399.682	5114
399.761	15408
399.840	49220
399.919	36868
399.998	4419
400.077	1226
400.156	537
400.235	3414
400.313	1010
400.392	2092
400.471	22529
400.550	36527
400.629	8749
400.708	3062
400.786	2529
400.865	6818
400.944	7313
401.023	4891
401.102	476
401.180	1053
401.259	612
401.338	1810
401.416	2883
401.495	2704
401.574	2234
401.652	799
401.731	3522
401.810	3807
401.888	1292
401.967	476
402.046	1149
402.124	2798
402.203	2748
402.281	2564
402.360	1476
402.438	9282
402.517	5401
402.596	2076
402.674	1488
402.753	1617
402.831	1381
402.910	4255
402.988	21006
403.066	84801
403.145	45117
403.223	24213
403.302	71245
403.380	50251
403.459	50651
403.537	17906
403.615	5322
403.694	843
403.772	1401
403.850	893
403.929	1263
404.007	1528
404.085	7583
404.164	10147
404.242	2450
404.320	2873
404.398	8685
404.477	23893
404.555	131734
404.633	112260
404.711	15226
404.789	5049
404.868	4007
404.946	1438
405.024	1595
405.102	-291
405.180	-1
405.258	-132
405.336	1836
405.415	905
405.493	4218
405.571	6128
405.649	1327
405.727	-352
405.805	2629
405.883	3339
405.961	3103
406.039	2013
406.117	327
406.195	4614
406.273	26256
406.351	111768
406.429	60606
406.507	6622
406.585	1128
406.663	2753
406.740	3871
406.818	2239
406.896	952
406.974	1610
407.052	7002
407.130	61505
407.208	85713
407.285	14037
407.363	1419
407.441	1535
407.519	1468
407.596	2315
407.674	10602
407.752	36735
407.830	28217
407.907	8758
407.985	3396
408.063	1032
408.141	423
408.218	2631
408.296	3171
408.373	4416
408.451	2598
408.529	2682
408.606	734
408.684	-234
408.762	102
408.839	626
408.917	-514
408.994	-758
409.072	-1
409.149	203
409.227	2010
409.304	3077
409.382	2634
409.459	3168
409.537	6249
409.614	4033
409.692	3130
409.769	1818
409.846	5510
409.924	7352
410.001	2422
410.079	3206
410.156	3978
410.233	7622
410.311	4531
410.388	767
410.465	837
410.543	549
410.620	1237
410.697	1511
410.775	2186
410.852	536
410.929	2135
411.006	2683
411.083	-156
411.161	1075
411.238	2271
411.315	1542
411.392	-29
411.469	970
411.547	1014
411.624	-847
411.701	429
411.778	1525
411.855	6143
411.932	2463
412.009	256
412.086	856
412.163	618
412.240	1457
412.317	1567
412.394	805
412.471	852
412.548	322
412.625	369
412.702	1436
412.779	5609
412.856	5759
412.933	195
413.010	999
413.087	2971
413.164	19602
413.241	27653
413.318	5239
413.395	3184
413.471	4342
413.548	1367
413.625	977
413.702	1950
413.779	1050
413.855	-188
413.932	-6
414.009	-838
414.086	498
414.162	980
414.239	5268
414.316	22135
414.393	47537
414.469	14702
414.546	375
414.623	206
414.699	33
414.776	1195
414.853	944
414.929	1157
415.006	-79
415.082	1397
415.159	630
415.236	983
415.312	590
415.389	3617
415.465	5280
415.542	1902
415.618	551
415.695	2865
415.771	1797
415.848	1485
415.924	459
416.000	238
416.077	460
416.153	-1377
416.230	-1149
416.306	118
416.383	-42
416.459	615
416.535	-811
416.612	-725
416.688	235
416.764	110
416.841	-1000
416.917	247
416.993	272
417.069	964
417.146	1438
417.222	3519
417.298	2155
417.374	608
417.451	1382
417.527	1799
417.603	2527
417.679	998
417.755	1912
417.831	437
417.908	226
417.984	-247
418.060	-800
418.136	4441
418.212	6516
418.288	1092
418.364	499
418.440	940
418.516	1750
418.592	2175
418.668	6951
418.744	12809
418.820	9248
418.896	976
418.972	-524
419.048	747
419.124	5998
419.200	3061
419.276	752
419.352	-1053
419.428	-228
419.504	537
419.579	2009
419.655	288
419.731	962
419.807	8098
419.883	15336
419.959	10117
420.034	1927
420.110	5511
420.186	28195
420.262	20853
420.337	2470
420.413	2146
420.489	406
420.565	1774
420.640	252
420.716	1128
420.792	-599
420.867	932
420.943	276
421.019	2822
421.094	1584
421.170	134
421.245	-71
421.321	1197
421.397	1034
421.472	5070
421.548	16341
421.623	9968
421.699	2812
421.774	3166
421.850	2151
421.925	4831
422.001	5188
422.076	3004
422.152	3892
422.227	8369
422.302	8575
422.378	13341
422.453	25018
422.529	66929
422.604	234107
422.679	410908
422.755	249681
422.830	74623
422.905	26574
422.981	12898
423.056	8199
423.131	6666
423.207	3887
423.282	4405
423.357	9169
423.432	5610
423.508	7090
423.583	15370
423.658	9519
423.733	2848
423.808	2938
423.883	4760
423.959	3230
424.034	2606
424.109	2444
424.184	427
424.259	967
424.334	225
424.409	357
424.484	781
424.559	1087
424.634	26
424.709	2097
424.784	2825
424.859	1014
424.934	3585
425.009	18796
425.084	33106
425.159	10038
425.234	1240
425.309	126
425.384	-739
425.459	-1451
425.534	446
425.609	231
425.683	-239
425.758	45
425.833	542
425.908	1400
425.983	10798
426.058	34565
426.132	12521
426.207	1025
426.282	2164
426.357	937
426.431	561
426.506	879
426.581	757
426.655	414
426.730	315
426.805	208
426.879	847
426.954	-85
427.029	4388
427.103	34006
427.178	91359
427.253	37527
427.327	2457
427.402	1452
427.476	2378
427.551	722
427.625	712
427.700	786
427.774	-962
427.849	312
427.923	-372
427.998	587
428.072	445
428.147	3876
428.221	25675
428.296	84890
428.370	40797
428.444	3648
428.519	2884
428.593	5479
428.667	4203
428.742	6516
428.816	9123
428.890	44952
428.965	72602
429.039	17558
429.113	7224
429.188	1874
429.262	577
429.336	4063
429.410	14239
429.485	7873
429.559	4923
429.633	3202
429.707	1514
429.781	6119
429.855	46517
429.930	72918
430.004	27838
430.078	33860
430.152	37801
430.226	114147
430.300	112560
430.374	14687
430.448	3929
430.522	10788
430.596	34315
430.670	25630
430.744	96119
430.818	140045
430.892	25946
430.966	3722
431.040	1620
431.114	-679
431.188	-63
431.262	94
431.336	174
431.410	3207
431.484	8916
431.557	6387
431.631	420
431.705	1498
431.779	13396
431.853	72956
431.927	49247
432.000	4373
432.074	1267
432.148	1343
432.222	339
432.295	-168
432.369	536
432.443	2803
432.516	33271
432.590	90962
432.664	30560
432.737	2366
432.811	-88
432.885	-865
432.958	-628
433.032	-521
433.106	-811
433.179	-710
433.253	-758
433.326	-859
433.400	-744
433.473	-671
433.547	-1292
433.620	-342
433.694	1540
433.767	2095
433.841	-903
433.914	-694
433.988	-648
434.061	-645
434.134	-646
434.208	-743
434.281	-1288
434.355	-856
434.428	-181
434.501	-890
434.575	-1213
434.648	-526
434.721	-879
434.795	-1435
434.868	-1292
434.941	-1123
435.014	-1279
435.088	-602
435.161	166
435.234	1613
435.307	1806
435.381	410
435.454	748
435.527	1803
435.600	2208
435.673	1515
435.746	-113
435.819	-658
435.892	-364
435.966	-1225
436.039	-349
436.112	-701
436.185	-1276
436.258	-1142
436.331	-1646
436.404	-659
436.477	-1109
436.550	-463
436.623	-939
436.696	-1335
436.769	-616
436.842	-947
436.915	-749
436.987	433
437.060	-508
437.133	-1112
437.206	-823
437.279	-862
437.352	-897
437.425	-271
437.498	3178
437.570	4053
437.643	3102
437.716	-232
437.789	-798
437.861	234
437.934	360
438.007	146
438.080	132
438.152	778
438.225	4277
438.298	47447
438.370	135628
438.443	48307
438.516	4151
438.588	-130
438.661	-712
438.734	-436
438.806	-33
438.879	201
438.951	-660
439.024	-209
439.096	-1065
439.169	-839
439.241	-640
439.314	-935
439.386	-332
439.459	225
439.531	1073
439.604	-567
439.676	-417
439.749	-1119
439.821	-578
439.893	-612
439.966	-1271
440.038	-311
440.110	-159
440.183	-259
440.255	304
440.327	1898
440.400	15644
440.472	78342
440.544	50199
440.617	4249
440.689	905
440.761	824
440.833	1488
440.905	1059
440.978	-764
441.050	-1198
441.122	-191
441.194	-602
441.266	-1273
441.338	-939
441.411	1642
441.483	21242
441.555	34351
441.627	6490
441.699	1346
441.771	-11
441.843	-798
441.915	-992
441.987	-740
442.059	-417
442.131	144
442.203	1398
442.275	2258
442.347	1618
442.419	4788
442.491	29511
442.563	77661
442.635	28801
442.706	10417
442.778	7743
442.850	1314
442.922	137
442.994	-155
443.066	2030
443.137	1169
443.209	1031
443.281	2337
443.353	7075
443.425	37245
443.496	149891
443.568	138002
443.640	44752
443.711	7761
443.783	1653
443.855	448
443.926	-235
443.998	151
444.070	516
444.141	170
444.213	1926
444.285	3785
444.356	2871
444.428	1396
444.499	-987
444.571	-605
444.642	-465
444.714	-431
444.785	2661
444.857	2136
444.928	5427
445.000	2213
445.071	3709
445.143	5828
445.214	4798
445.285	6413
445.357	21664
445.428	92617
445.500	233995
445.571	129687
445.642	62697
445.714	19408
445.785	11480
445.856	3596
445.928	4912
445.999	1907
446.070	367
446.141	2373
446.213	4928
446.284	2083
446.355	309
446.426	176
446.497	303
446.569	1099
446.640	3646
446.711	3094
446.782	-584
446.853	831
446.924	1437
446.995	658
447.066	21
447.138	708
447.209	801
447.280	-1184
447.351	-784
447.422	-1718
447.493	-459
447.564	1004
447.635	3050
447.706	396
447.777	-790
447.847	-801
447.918	-827
447.989	-9
448.060	519
448.131	2637
448.202	2619
448.273	3030
448.344	956
448.414	-478
448.485	-308
448.556	-187
448.627	-1069
448.698	112
448.768	-998
448.839	-856
448.910	669
448.981	364
449.051	466
449.122	-447
449.193	-961
449.263	-660
449.334	-535
449.405	1182
449.475	4394
449.546	1976
449.616	1595
449.687	875
449.758	-1011
449.828	-172
449.899	88
449.969	-120
450.040	-773
450.110	894
450.181	58
450.251	215
450.322	24
450.392	262
450.463	-138
450.533	-717
450.604	321
450.674	-637
450.744	-514
450.815	-309
450.885	-127
450.955	-778
451.026	-1083
451.096	-784
451.166	-326
451.237	1136
451.307	4218
451.377	1174
451.447	-656
451.518	-904
451.588	-958
451.658	-545
451.728	263
451.799	4703
451.869	5731
451.939	227
452.009	-582
452.079	-442
452.149	-942
452.219	776
452.289	6188
452.360	4379
452.430	257
452.500	1241
452.570	2197
452.640	3178
452.710	8123
452.780	11954
452.850	9987
452.920	9937
452.990	3225
453.060	859
453.129	1469
453.199	2070
453.269	7280
453.339	17279
453.409	27335
453.479	27381
453.549	37722
453.619	38338
453.688	12264
453.758	1323
453.828	587
453.898	-54
453.968	332
454.037	-698
454.087	-484
454.107	-404
454.168	-808
454.177	-876
454.247	-699
454.249	-667
454.316	-28
454.330	55
454.386	363
454.411	958
454.456	1862
454.492	2702
454.525	3480
454.574	1734
454.595	945
454.655	-172
454.665	-343
454.734	-214
454.736	-173
454.804	893
454.817	1694
454.873	4955
454.898	5417
454.943	6205
454.979	4031
455.013	2059
455.060	1060
455.082	656
455.141	937
455.152	1015
455.221	4481
455.222	4574
455.291	11842
455.303	14148
455.360	23160
455.384	37074
455.430	61264
455.465	43156
455.499	26370
455.546	13001
455.569	6821
455.627	3972
455.638	3485
455.707	1360
455.708	1361
455.777	-49
455.789	-61
455.846	-110
455.869	-154
455.916	-288
455.950	-382
455.985	-474
456.031	-274
456.054	-203
456.112	-286
456.124	-315
456.193	-287
456.193	-293
456.262	-53
456.274	76
456.332	599
456.355	477
456.401	127
456.436	184
456.470	297
456.516	-8
456.540	-174
456.597	-537
456.609	-632
456.678	282
456.678	279
456.747	218
456.759	139
456.817	-351
456.840	-294
456.886	-316
456.920	-514
456.955	-587
457.001	-211
457.024	-99
457.082	-374
457.093	-397
457.162	482
457.163	491
457.232	431
457.243	347
457.301	-404
457.324	-523
457.370	-549
457.405	-515
457.439	-330
457.485	-402
457.508	-519
457.566	195
457.577	374
457.646	829
457.647	843
457.715	1786
457.727	1926
457.784	3650
457.808	5505
457.853	7967
457.889	9648
457.922	10119
457.969	6243
457.991	5703
458.050	6152
458.060	6192
458.129	12788
458.130	12969
458.198	16392
458.211	14739
458.267	7869
458.292	5405
458.336	2763
458.372	2099
458.405	2239
458.453	3988
458.474	5372
458.533	11429
458.543	12040
458.611	24136
458.614	24208
458.680	17306
458.694	13721
458.749	4608
458.775	3438
458.818	1716
458.855	1056
458.887	749
458.936	629
458.955	568
459.016	717
459.024	739
459.093	135
459.097	132
459.162	-42
459.177	147
459.230	1188
459.257	1727
459.299	1895
459.338	1212
459.368	977
459.418	1132
459.437	1063
459.499	745
459.505	770
459.574	1333
459.579	1309
459.643	168
459.659	205
459.711	788
459.740	851
459.780	844
459.820	710
459.849	769
459.900	1053
459.917	965
459.981	794
459.986	815
460.054	770
460.061	785
460.123	637
460.141	669
460.191	1133
460.222	1439
460.260	1469
460.302	1626
460.328	1745
460.382	1800
460.397	1797
460.462	699
460.465	683
460.534	1963
460.543	2046
460.602	5498
460.623	7041
460.671	11358
460.703	16613
460.739	17767
460.783	15564
460.808	13508
460.864	3749
460.876	2681
460.944	1390
460.945	1373
461.013	1614
461.024	1595
461.081	1276
461.104	1350
461.150	1859
461.184	1926
461.218	1740
461.264	1288
461.286	1152
461.345	843
461.355	739
461.423	857
461.425	846
461.491	771
461.505	801
461.559	1331
461.585	1690
461.628	3056
461.665	4450
461.696	4930
461.745	6270
461.764	5926
461.825	2505
461.832	2393
461.901	1397
461.905	1404
461.969	894
461.985	748
462.037	1319
462.065	1513
462.105	1007
462.145	919
462.173	1575
462.225	2170
462.241	2177
462.305	3427
462.310	3419
462.378	2873
462.385	2670
462.446	1571
462.465	1346
462.514	1413
462.545	1685
462.582	1500
462.625	1286
462.650	1180
462.705	462
462.718	514
462.785	1488
462.786	1494
462.854	1349
462.865	1401
462.922	2009
462.945	2198
462.990	1875
463.025	1457
463.058	1257
463.104	1026
463.126	926
463.184	730
463.194	881
463.262	1575
463.264	1621
463.330	1487
463.344	1387
463.398	1891
463.424	1973
463.466	1309
463.504	1046
463.533	1139
463.583	963
463.601	885
463.663	884
463.669	936
463.737	1406
463.743	1470
463.805	2665
463.823	2953
463.873	4284
463.903	5402
463.940	5802
463.982	5885
464.008	5021
464.062	2766
464.076	2573
464.142	1675
464.144	1678
464.211	1866
464.221	1918
464.279	3196
464.301	3715
464.347	3582
464.381	3633
464.414	3032
464.461	1949
464.482	2068
464.540	2251
464.550	2177
464.617	1589
464.620	1576
464.685	3144
464.699	3436
464.753	4367
464.779	5059
464.820	5693
464.859	6149
464.888	5519
464.938	4004
464.956	4213
465.018	5173
465.023	5105
465.091	4086
465.098	3988
465.158	3835
465.177	3809
465.226	3691
465.257	3481
465.293	3665
465.336	3971
465.361	4196
465.416	4748
465.428	4950
465.495	6116
465.496	6133
465.563	7440
465.575	7665
465.631	8216
465.654	8615
465.698	6563
465.734	4419
465.765	4438
465.813	4511
465.833	4073
465.893	3015
465.900	3108
465.968	3750
465.972	3792
466.035	4022
466.052	4096
466.102	3794
466.131	3593
466.170	3944
466.210	4324
466.237	4155
466.290	3791
466.304	3972
466.369	4691
466.372	4679
466.439	4176
466.449	4096
466.506	4617
466.528	4808
466.573	5494
466.607	5980
466.641	7892
466.687	10606
466.708	11602
466.766	14379
466.775	13616
466.842	7675
466.845	7381
466.909	6503
466.925	6308
466.977	5656
467.004	5359
467.044	5773
467.083	6137
467.111	6709
467.163	7796
467.178	8176
467.242	9690
467.245	9638
467.312	8276
467.321	8084
467.379	8015
467.400	7974
467.446	8553
467.480	8952
467.559	7335
467.638	5147
467.717	5719
467.796	8011
467.875	7271
467.955	6269
468.034	6951
468.113	11610
468.192	16258
468.271	6924
468.350	5130
468.429	6697
468.508	8305
468.588	6454
468.667	5218
468.746	5926
468.825	5078
468.904	4606
468.983	5313
469.062	6574
469.141	7462
469.220	4928
469.299	5084
469.378	5690
469.456	7938
469.535	7020
469.614	6193
469.693	6950
469.772	6899
469.851	8119
469.930	6680
470.009	5651
470.088	6297
470.166	6191
470.245	7142
470.324	7518
470.403	6614
470.482	5145
470.560	5337
470.639	6116
470.718	6420
470.797	5566
470.875	6695
470.954	7185
471.033	7653
471.111	5182
471.190	5399
471.269	4448
471.347	5068
471.426	4572
471.505	5830
471.583	6292
471.662	6515
471.740	4886
471.819	5599
471.898	4877
471.976	5612
472.055	4601
472.133	5382
472.212	6761
472.290	6354
472.369	4434
472.447	4838
472.526	4699
472.604	4934
472.683	6039
472.761	5722
472.839	5463
472.918	5187
472.996	4439
473.075	4911
473.153	5155
473.231	3779
473.310	4568
473.388	5526
473.466	4658
473.545	5806
473.623	7382
473.701	7577
473.780	5078
473.858	4098
473.936	5535
474.014	5274
474.093	5002
474.171	5556
474.249	6995
474.327	6849
474.405	3693
474.484	3708
474.562	4187
474.640	3765
474.718	4267
474.796	4739
474.874	4640
474.952	3847
475.030	3963
475.108	4728
475.187	5363
475.265	6561
475.343	10780
475.421	12520
475.499	4268
475.577	4561
475.655	5414
475.733	6957
475.811	9564
475.889	9566
475.966	7925
476.044	5828
476.122	7263
476.200	10520
476.278	7060
476.356	3471
476.434	4117
476.512	5869
476.590	8895
476.667	8051
476.745	3416
476.823	3951
476.901	3728
476.979	3615
477.056	3874
477.134	4862
477.212	3623
477.290	4516
477.367	3304
477.445	3090
477.523	2985
477.601	2443
477.678	3214
477.756	3603
477.834	3809
477.911	3034
477.989	3332
478.066	3689
478.144	3957
478.222	6668
478.299	12744
478.377	11529
478.454	3651
478.532	3037
478.609	3175
478.687	4166
478.764	2467
478.842	2917
478.919	2812
478.997	3699
479.074	2290
479.152	2696
479.229	3521
479.307	2838
479.384	2320
479.461	2279
479.539	1444
479.616	3037
479.694	2379
479.771	2487
479.848	2689
479.926	2687
480.003	5089
480.080	3459
480.157	2301
480.235	2054
480.312	2400
480.389	2656
480.467	3278
480.544	4035
480.621	3280
480.698	2393
480.775	2653
480.853	3521
480.930	2114
481.007	2413
481.084	3312
481.161	3047
481.238	2716
481.315	2586
481.392	2362
481.470	1538
481.547	1716
481.624	1405
481.701	2218
481.778	3753
481.855	2022
481.932	4460
482.009	5437
482.086	4918
482.163	3558
482.240	7568
482.317	16164
482.393	11338
482.470	2748
482.547	3214
482.624	2787
482.701	2419
482.778	1693
482.855	2440
482.932	2255
483.009	1979
483.085	3153
483.162	2705
483.239	2560
483.316	2048
483.393	2566
483.469	3046
483.546	3341
483.623	3235
483.699	2024
483.776	2643
483.853	3354
483.930	5430
484.006	9556
484.083	15281
484.160	16816
484.236	30417
484.313	24111
484.389	16860
484.466	14817
484.543	14266
484.619	13570
484.696	15369
484.772	13689
484.849	13923
484.925	12951
485.002	13042
485.078	12941
485.155	12603
485.231	12099
485.308	11666
485.384	12032
485.461	13605
485.537	15491
485.614	17345
485.690	10533
485.766	11028
485.843	11824
485.919	15050
485.995	16142
486.072	10537
486.148	9754
486.224	10168
486.301	9142
486.377	10881
486.453	9531
486.530	11602
486.606	16666
486.682	20252
486.758	17828
486.835	17727
486.911	14103
486.987	19616
487.063	25309
487.139	32103
487.215	22651
487.292	14236
487.368	12066
487.444	12180
487.520	13263
487.596	13402
487.672	19956
487.748	46776
487.824	71132
487.900	27033
487.976	12491
488.052	10862
488.128	12365
488.204	10437
488.280	11765
488.356	14020
488.432	15442
488.508	20022
488.584	11547
488.660	9831
488.736	9692
488.812	10985
488.888	13009
488.964	16328
489.039	29503
489.115	44432
489.191	28079
489.267	10523
489.343	9044
489.418	8730
489.494	7650
489.570	6542
489.646	8409
489.722	8193
489.797	8478
489.873	9249
489.949	16289
490.024	17200
490.100	8115
490.176	7182
490.251	9015
490.327	11896
490.403	7184
490.478	6885
490.554	6442
490.629	6667
490.705	6480
490.781	7392
490.856	5845
490.932	8047
491.007	7022
491.083	7990
491.158	6155
491.234	8267
491.309	10301
491.385	10952
491.460	6014
491.536	6653
491.611	6772
491.686	7595
491.762	9274
491.837	17074
491.913	27113
491.988	39022
492.063	52224
492.139	13151
492.214	7096
492.289	6190
492.365	3711
492.440	6485
492.515	4810
492.590	6328
492.666	4540
492.741	6860
492.816	7510
492.891	5198
492.967	6331
493.042	5654
493.117	6223
493.192	7123
493.267	13568
493.342	62208
493.418	100393
493.493	17625
493.568	4270
493.643	4739
493.718	5750
493.793	6097
493.868	9416
493.943	5949
494.018	5194
494.093	3984
494.168	4580
494.243	4450
494.318	3797
494.393	4719
494.468	2756
494.543	4527
494.618	4157
494.693	3457
494.768	2955
494.842	4135
494.917	3020
494.992	4200
495.067	2972
495.142	2740
495.217	3310
495.292	4167
495.366	4807
495.441	5114
495.516	7017
495.591	8354
495.665	33567
495.740	86611
495.815	36973
495.890	5303
495.964	1683
496.039	5084
496.114	3352
496.188	2939
496.263	3926
496.338	3434
496.412	2732
496.487	5191
496.561	5041
496.636	5838
496.710	4347
496.785	4415
496.860	4420
496.934	4360
497.009	4131
497.083	3425
497.158	3048
497.232	4100
497.307	6247
497.381	4745
497.455	5109
497.530	6371
497.604	5212
497.679	5292
497.753	8093
497.827	12171
497.902	11700
497.976	13277
498.050	23689
498.125	89542
498.199	111655
498.273	24411
498.348	17080
498.422	13615
498.496	11158
498.570	10038
498.645	5682
498.719	4862
498.793	7570
498.867	8578
498.941	10570
499.016	31348
499.090	93227
499.164	44737
499.238	5399
499.312	3810
499.386	5554
499.460	5752
499.534	3988
499.609	4595
499.683	6134
499.757	6191
499.831	11462
499.905	55557
499.979	63284
500.053	9663
500.127	9283
500.201	8353
500.275	3925
500.349	4629
500.422	4268
500.496	7477
500.570	16346
500.644	32547
500.718	61451
500.792	19484
500.866	4633
500.940	4654
501.013	4767
501.087	4278
501.161	8022
501.235	8988
501.309	15628
501.382	45484
501.456	50393
501.530	10538
501.603	12963
501.677	7288
501.751	2508
501.825	4520
501.898	5366
501.972	16873
502.046	12905
502.119	3009
502.193	9075
502.266	18592
502.340	11516
502.413	7981
502.487	16890
502.561	9544
502.634	4941
502.708	3512
502.781	2618
502.855	3434
502.928	1476
503.002	2499
503.075	1407
503.149	2459
503.222	2121
503.295	2374
503.369	3084
503.442	3212
503.516	12036
503.589	32670
503.662	24473
503.736	7564
503.809	15324
503.882	14166
503.956	18563
504.029	22527
504.102	25310
504.175	39509
504.249	12062
504.322	6349
504.395	3782
504.468	2052
504.542	2810
504.615	940
504.688	2595
504.761	722
504.834	3680
504.907	3914
504.980	7381
505.053	2568
505.127	1714
505.200	7197
505.273	1929
505.346	2265
505.419	994
505.492	2674
505.565	1843
505.638	1340
505.711	940
505.784	731
505.857	1113
505.930	3574
506.003	-461
506.076	3499
506.149	1641
506.221	1339
506.294	4021
506.367	4885
506.440	24428
506.513	18472
506.586	3351
506.659	2245
506.731	1736
506.804	2211
506.877	2709
506.950	3190
507.022	2365
507.095	862
507.168	2488
507.241	2507
507.313	858
507.386	1305
507.459	4213
507.531	1869
507.604	1076
507.677	2039
507.749	401
507.822	3795
507.894	8450
507.967	13565
508.040	6531
508.112	6428
508.185	5534
508.257	4200
508.330	7440
508.402	3843
508.475	2822
508.547	4733
508.620	3580
508.692	5864
508.765	6104
508.837	3105
508.909	3620
508.982	3048
509.054	4336
509.127	3194
509.199	2075
509.271	2549
509.344	3088
509.416	3372
509.488	2273
509.560	3481
509.633	3344
509.705	3873
509.777	3829
509.849	5110
509.922	2674
509.994	2374
510.066	3754
510.138	3160
510.210	11783
510.283	9723
510.355	7929
510.427	7762
510.499	6072
510.571	5767
510.643	4841
510.715	9623
510.787	6279
510.859	7052
510.931	5820
511.003	8552
511.076	7642
511.148	4392
511.219	3548
511.291	7163
511.363	7136
511.435	5175
511.507	2873
511.579	4598
511.651	4380
511.723	3997
511.795	4427
511.867	4906
511.939	4475
512.010	6158
512.082	6919
512.154	3843
512.226	4727
512.298	9308
512.369	12920
512.441	10236
512.513	9111
512.585	5870
512.656	7300
512.728	5991
512.800	5714
512.871	6166
512.943	5742
513.015	4200
513.086	6468
513.158	5701
513.230	5805
513.301	7743
513.373	9737
513.444	5997
513.516	4800
513.588	5692
513.659	5523
513.731	6345
513.802	4895
513.874	12542
513.945	18987
514.016	6682
514.088	5131
514.159	5505
514.231	7478
514.302	10847
514.374	9258
514.445	6169
514.516	11081
514.588	7019
514.659	6116
514.730	7126
514.802	9219
514.873	6322
514.944	9232
515.016	6803
515.087	6087
515.158	6780
515.229	8762
515.301	6506
515.372	9027
515.443	5288
515.514	5430
515.585	4266
515.656	5181
515.728	5075
515.799	3588
515.870	5121
515.941	5159
516.012	4774
516.083	8482
516.154	8010
516.225	10635
516.296	9566
516.367	6946
516.438	7251
516.509	9682
516.580	11153
516.651	28327
516.722	102303
516.793	59591
516.864	12382
516.935	11781
517.006	11887
517.077	14982
517.148	31438
517.219	95207
517.289	167342
517.360	44464
517.431	18637
517.502	5650
517.573	6047
517.643	5487
517.714	6842
517.785	7109
517.856	6425
517.926	9256
517.997	9649
518.068	10614
518.138	16406
518.209	17898
518.280	61868
518.350	258658
518.421	117962
518.492	14436
518.562	8901
518.633	7952
518.703	7714
518.774	15224
518.845	41933
518.915	48322
518.986	14311
519.056	9130
519.127	14990
519.197	20324
519.268	33917
519.338	24566
519.408	7365
519.479	10530
519.549	7721
519.620	6879
519.690	5031
519.760	3619
519.831	3603
519.901	4006
519.971	3699
520.042	3782
520.112	3296
520.182	5210
520.253	6885
520.323	3453
520.393	3098
520.463	5956
520.534	2264
520.604	7119
520.674	5025
520.744	2411
520.814	5704
520.885	7236
520.955	8604
521.025	33451
521.095	19456
521.165	5316
521.235	3398
521.305	2414
521.375	3989
521.445	3977
521.515	5299
521.585	6935
521.655	4411
521.725	5679
521.795	4640
521.865	623
521.935	5965
522.005	3305
522.075	2444
522.145	3627
522.215	2592
522.285	4639
522.355	5134
522.424	9965
522.494	8062
522.564	5685
522.634	11957
522.704	42196
522.774	17044
522.843	5150
522.913	3508
522.983	4543
523.053	2966
523.122	3516
523.192	4323
523.262	21374
523.331	20892
523.401	4918
523.471	2285
523.540	3141
523.610	1778
523.680	1610
523.749	2826
523.819	2501
523.888	3198
523.958	2561
524.027	1800
524.097	2321
524.166	2419
524.236	1766
524.305	4630
524.375	1979
524.444	461
524.514	4359
524.583	1489
524.653	1864
524.722	3851
524.791	994
524.861	3853
524.930	717
524.999	968
525.069	4079
525.138	2567
525.207	2727
525.277	2930
525.346	1787
525.415	3265
525.484	3181
525.554	1788
525.623	2491
525.692	3511
525.761	3962
525.830	4866
525.900	5314
525.969	8928
526.038	13121
526.107	23819
526.176	87367
526.245	83745
526.314	24129
526.383	41714
526.452	62668
526.522	100085
526.591	123086
526.660	31231
526.729	16045
526.797	17380
526.867	29116
526.935	132859
527.004	256721
527.073	172762
527.142	14506
527.211	5725
527.280	4510
527.349	4592
527.418	1663
527.487	3281
527.555	1905
527.624	596
527.693	-345
527.762	3211
527.831	716
527.899	2086
527.968	997
528.037	-43
528.106	2952
528.174	5896
528.243	4216
528.312	4981
528.380	8087
528.449	1749
528.518	2789
528.586	115
528.655	1567
528.723	1431
528.792	1626
528.861	1039
528.929	236
528.998	2002
529.066	911
529.135	1996
529.203	-76
529.272	-1065
529.340	680
529.409	2818
529.477	-412
529.545	820
529.614	3470
529.682	-320
529.751	1435
529.819	4044
529.887	923
529.956	66
530.024	1952
530.092	939
530.161	2160
530.229	3707
530.297	707
530.365	2715
530.434	1409
530.502	429
530.570	1164
530.638	-535
530.707	1578
530.775	2533
530.843	872
530.911	1701
530.979	1027
531.047	119
531.115	1070
531.183	411
531.252	795
531.320	1427
531.388	-331
531.456	698
531.524	-634
531.592	619
531.660	2830
531.728	132
531.796	-88
531.864	1920
531.932	1542
532.000	1193
532.067	345
532.135	1961
532.203	3251
532.271	1612
532.339	5357
532.407	17414
532.475	10208
532.542	4086
532.610	3883
532.678	4309
532.746	26802
532.814	85556
532.881	23016
532.949	3480
533.017	1695
533.084	1937
533.152	616
533.220	1123
533.287	497
533.355	1395
533.423	1734
533.490	-164
533.558	1257
533.625	1170
533.693	1704
533.761	2212
533.828	2006
533.896	1558
533.963	4636
534.031	7112
534.098	9165
534.166	4544
534.233	1048
534.300	2724
534.368	2069
534.435	1573
534.503	1865
534.570	2302
534.637	1630
534.705	4173
534.772	3346
534.840	5906
534.907	35307
534.974	62374
535.041	6860
535.109	3177
535.176	988
535.243	2512
535.310	1600
535.378	1313
535.445	1478
535.512	1717
535.579	1785
535.646	1975
535.714	1098
535.781	4284
535.848	3243
535.915	3944
535.982	1689
536.049	1056
536.116	3137
536.183	2175
536.250	1632
536.317	1725
536.384	2572
536.451	5175
536.518	4574
536.585	1423
536.652	5418
536.719	7411
536.786	4507
536.853	4654
536.920	6702
536.987	10770
537.053	8126
537.120	38454
537.187	39491
537.254	4202
537.321	1568
537.388	3981
537.454	1665
537.521	1804
537.588	1673
537.654	3019
537.721	4912
537.788	4693
537.855	2491
537.921	3600
537.988	1577
538.055	3950
538.121	1771
538.188	2552
538.254	4180
538.321	10689
538.388	6345
538.454	3526
538.521	2152
538.587	2003
538.654	1905
538.720	1567
538.787	2468
538.853	2693
538.920	3255
538.986	2907
539.053	2636
539.119	2795
539.185	3324
539.252	3931
539.318	5914
539.385	5805
539.451	3590
539.517	5414
539.583	5695
539.650	10482
539.716	29826
539.782	9471
539.849	1819
539.915	3607
539.981	3213
540.047	4067
540.114	3211
540.180	4250
540.246	2543
540.312	5521
540.378	9762
540.444	11406
540.510	10845
540.576	34905
540.643	11513
540.709	1784
540.775	3215
540.841	2400
540.907	3859
540.973	6903
541.039	6134
541.105	6969
541.171	3762
541.237	3135
541.303	4163
541.369	5408
541.435	5108
541.500	10077
541.566	5652
541.632	3382
541.698	2436
541.764	3049
541.830	1426
541.896	1878
541.961	3560
542.027	3194
542.093	2845
542.159	3634
542.224	2494
542.290	6660
542.356	7947
542.421	13047
542.487	6172
542.553	3255
542.618	3911
542.684	2990
542.750	3438
542.815	4577
542.881	6155
542.947	28015
543.012	24666
543.078	3989
543.143	2585
543.209	4022
543.274	3956
543.340	4797
543.405	11009
543.471	18885
543.536	5057
543.602	3363
543.667	1240
543.732	3956
543.798	2023
543.863	4362
543.928	1934
543.994	2115
544.059	3362
544.124	4065
544.190	2951
544.255	3731
544.320	3379
544.386	3302
544.451	4577
544.516	5719
544.581	5192
544.646	17181
544.712	32371
544.777	7531
544.842	4225
544.907	4204
544.972	3094
545.037	4379
545.102	4245
545.168	3672
545.233	4292
545.298	5229
545.363	5142
545.428	6589
545.493	10628
545.558	24082
545.623	11082
545.688	4136
545.753	4646
545.818	3272
545.883	5028
545.947	3957
546.012	4522
546.077	4023
546.142	5420
546.207	4786
546.272	5968
546.337	7550
546.401	6331
546.466	6133
546.531	4897
546.596	7301
546.661	7951
546.725	6573
546.790	5062
546.855	6500
546.919	4671
546.984	7371
547.049	6429
547.113	8585
547.178	8760
547.243	9981
547.307	11206
547.372	12434
547.436	13130
547.501	12324
547.565	13467
547.630	13973
547.695	13383
547.759	14037
547.823	12319
547.888	12412
547.952	12811
548.017	12635
548.081	14296
548.146	14919
548.210	14689
548.274	13864
548.339	14160
548.403	13988
548.468	10965
548.532	11097
548.596	11763
548.660	12629
548.725	13697
548.789	14279
548.853	16071
548.917	13697
548.982	14181
549.046	13152
549.110	10515
549.174	10929
549.238	12714
549.303	13816
549.367	14882
549.431	14509
549.495	12814
549.559	13123
549.623	14362
549.687	17243
549.751	18945
549.815	19626
549.879	19757
549.943	17662
550.007	19319
550.071	19553
550.135	19902
550.199	17645
550.263	16932
550.327	16169
550.391	16452
550.455	17652
550.519	18166
550.582	20121
550.646	22874
550.710	24778
550.774	21995
550.838	21926
550.901	22850
550.965	24892
551.029	24797
551.093	27304
551.156	30350
551.220	36757
551.284	48920
551.347	34828
551.411	30689
551.475	32655
551.538	25224
551.602	23095
551.666	20581
551.729	18434
551.793	18999
551.856	19339
551.920	18695
551.983	17992
552.047	17908
552.110	18711
552.174	17300
552.237	19133
552.301	17130
552.364	17330
552.428	16809
552.491	16351
552.554	18632
552.618	18031
552.681	17910
552.745	19779
552.808	21140
552.871	23924
552.934	19032
552.998	17591
553.061	17736
553.124	17395
553.187	16796
553.251	19137
553.314	19279
553.377	19778
553.440	24179
553.503	49221
553.567	92056
553.630	30202
553.693	19167
553.756	19375
553.819	17926
553.882	16930
553.945	16424
554.008	16981
554.071	16261
554.134	18278
554.197	15951
554.260	15881
554.323	17033
554.386	16210
554.449	16494
554.512	17342
554.575	15315
554.638	16514
554.701	15278
554.764	16211
554.827	15344
554.889	14989
554.952	12816
555.015	13474
555.078	12782
555.141	13852
555.203	13648
555.266	13852
555.329	13785
555.391	13248
555.454	13681
555.517	13667
555.580	12048
555.642	12323
555.705	11613
555.768	12172
555.830	11459
555.893	10458
555.955	10673
556.018	9945
556.080	9754
556.143	9913
556.206	11130
556.268	10810
556.330	9943
556.393	10043
556.455	9105
556.518	11153
556.580	10362
556.643	9281
556.705	9057
556.767	7773
556.830	9147
556.892	10099
556.955	12530
557.017	11093
557.079	8040
557.142	8029
557.204	7924
557.266	14900
557.328	12603
557.391	7183
557.453	6614
557.515	7281
557.577	8709
557.639	9139
557.701	6996
557.764	6708
557.826	7145
557.888	8407
557.950	8789
558.012	9577
558.074	12420
558.136	25934
558.198	75898
558.260	32995
558.322	10329
558.384	11533
558.446	12083
558.508	16126
558.570	19597
558.632	27613
558.694	38692
558.756	42116
558.818	131120
558.880	409669
558.942	143356
559.003	81566
559.065	47763
559.127	15982
559.189	16750
559.251	19124
559.312	23955
559.374	58507
559.436	233017
559.498	140866
559.559	19081
559.621	15390
559.683	17213
559.744	26710
559.806	92340
559.868	177714
559.929	34202
559.991	15603
560.052	21442
560.114	68558
560.176	50373
560.237	35804
560.299	71606
560.360	16923
560.422	5012
560.483	4919
560.545	4416
560.606	4306
560.667	2977
560.729	3414
560.790	3273
560.852	3982
560.913	3334
560.974	3588
561.036	2593
561.097	3242
561.158	3716
561.220	4458
561.281	3392
561.342	4004
561.403	4530
561.465	6155
561.526	15214
561.587	22833
561.648	4284
561.709	3755
561.771	2928
561.832	3562
561.893	2801
561.954	3633
562.015	3660
562.076	2849
562.137	2931
562.198	3298
562.259	3050
562.320	2320
562.381	2385
562.442	6017
562.503	3904
562.564	2648
562.625	2584
562.686	2723
562.747	2582
562.808	3384
562.869	1970
562.930	3718
562.991	3155
563.051	3432
563.112	2613
563.173	3411
563.234	2322
563.294	3076
563.355	2412
563.416	3633
563.477	3196
563.537	2691
563.598	2153
563.659	2762
563.720	2561
563.780	3222
563.841	2446
563.901	3396
563.962	2907
564.023	3086
564.083	2396
564.144	2599
564.204	1571
564.265	2151
564.325	3089
564.386	5567
564.446	5535
564.507	2255
564.567	2492
564.628	2832
564.688	2367
564.749	1922
564.809	3018
564.869	3880
564.930	1770
564.990	2799
565.050	2444
565.111	3444
565.171	2582
565.231	3402
565.292	2633
565.352	2869
565.412	2964
565.472	2765
565.532	2609
565.593	2476
565.653	3054
565.713	2391
565.773	3090
565.833	3555
565.893	5659
565.953	2764
566.013	2288
566.074	2567
566.134	4386
566.194	4662
566.254	7636
566.314	4770
566.374	2550
566.434	3045
566.494	2795
566.554	2787
566.614	3153
566.673	2450
566.733	3780
566.793	3443
566.853	2730
566.913	3749
566.973	3427
567.033	4351
567.092	3294
567.152	4160
567.212	3410
567.272	4169
567.331	4713
567.391	4791
567.451	4510
567.511	6437
567.570	5995
567.630	5011
567.690	4410
567.749	4610
567.809	5351
567.868	6652
567.928	6422
567.988	7498
568.047	9291
568.107	10571
568.166	16442
568.226	29988
568.285	48742
568.345	36556
568.404	22809
568.464	18112
568.523	14763
568.582	16768
568.642	17935
568.701	26382
568.761	42567
568.820	82423
568.879	78288
568.939	44028
568.998	26879
569.057	18114
569.116	12144
569.176	9847
569.235	6952
569.294	7212
569.353	5713
569.413	4570
569.472	3946
569.531	4490
569.590	3645
569.649	3079
569.708	2743
569.767	3843
569.827	2987
569.886	3542
569.945	2085
570.004	3582
570.063	3333
570.122	3963
570.181	3674
570.240	2722
570.299	3584
570.358	2921
570.417	2700
570.475	2471
570.534	3464
570.593	4067
570.652	4090
570.711	2365
570.770	2920
570.829	3106
570.887	2575
570.946	4926
571.005	2613
571.064	3299
571.122	2032
571.181	3036
571.240	1996
571.299	2752
571.357	2661
571.416	2623
571.475	2592
571.533	3904
571.592	3537
571.650	3314
571.709	2656
571.768	2640
571.826	2961
571.885	2648
571.943	1687
572.002	1678
572.060	2161
572.119	1805
572.177	2194
572.236	2221
572.294	2123
572.352	2985
572.411	2392
572.469	2494
572.528	1435
572.586	2293
572.644	2263
572.703	2676
572.761	2180
572.819	1762
572.877	1888
572.936	1905
572.994	1344
573.052	1570
573.110	1635
573.169	2307
573.227	2353
573.285	2228
573.343	2089
573.401	2545
573.459	2048
573.517	2151
573.576	2314
573.634	2212
573.692	2725
573.750	1760
573.808	1220
573.866	2344
573.924	3403
573.982	1782
574.040	1419
574.098	1654
574.155	2108
574.213	1846
574.271	1976
574.329	2465
574.387	1694
574.445	2258
574.503	1425
574.560	1534
574.618	828
574.676	1505
574.734	2038
574.792	2433
574.849	1839
574.907	697
574.965	1578
575.022	891
575.080	554
575.138	1786
575.195	1921
575.253	1455
575.311	2363
575.368	1570
575.426	1586
575.483	2142
575.541	1820
575.598	1066
575.656	1248
575.713	1665
575.771	1654
575.828	2181
575.886	1364
575.943	2435
576.001	1154
576.058	1294
576.115	1964
576.173	1450
576.230	2497
576.287	3499
576.345	2663
576.402	1377
576.459	1552
576.517	978
576.574	2221
576.631	2666
576.688	1987
576.746	1728
576.803	1396
576.860	1169
576.917	1798
576.974	1988
577.031	848
577.089	2190
577.146	1245
577.203	2076
577.260	1831
577.317	1713
577.374	2653
577.431	2105
577.488	2033
577.545	1418
577.602	2425
577.659	1551
577.716	2215
577.773	3536
577.830	1856
577.886	2079
577.943	945
578.000	2432
578.057	2290
578.114	2497
578.171	1376
578.227	1735
578.284	1307
578.341	1441
578.398	1571
578.454	1911
578.511	1649
578.568	2537
578.625	1829
578.681	1959
578.738	1304
578.794	1258
578.851	1812
578.908	1333
578.964	2129
579.021	2536
579.077	1331
579.134	2093
579.190	1999
579.247	2009
579.303	1385
579.360	1243
579.416	2000
579.473	1268
579.529	1108
579.586	2400
579.642	1634
579.698	2389
579.755	1440
579.811	3101
579.867	2166
579.924	1793
579.980	1535
580.036	2346
580.093	2045
580.149	1978
580.205	2151
580.261	1295
580.317	2464
580.374	2609
580.430	2291
580.486	1945
580.542	1174
580.598	2189
580.619	1946
580.654	1521
580.692	1660
580.710	1729
580.765	1865
580.767	1867
580.823	1790
580.838	1681
580.879	1383
580.911	1839
580.935	2165
580.984	1535
580.991	1452
581.047	2424
581.057	2363
581.103	2030
581.130	2127
581.159	2231
581.203	1939
581.215	1869
581.270	2359
581.276	2355
581.326	2264
581.349	2111
581.382	1850
581.422	2015
581.438	2088
581.494	1943
581.494	1942
581.550	1614
581.567	2028
581.606	2940
581.640	2851
581.661	2749
581.713	3300
581.717	3353
581.773	2216
581.786	2298
581.829	2468
581.859	2449
581.885	2514
581.932	2708
581.940	2712
581.996	3157
582.004	3170
582.052	3269
582.077	2762
582.107	2204
582.150	2443
582.163	2512
582.219	3277
582.223	3241
582.274	2715
582.296	2436
582.330	2102
582.368	2868
582.386	3166
582.441	2069
582.441	2065
582.497	3023
582.514	2967
582.552	2973
582.587	3914
582.608	4365
582.659	3185
582.663	3091
582.719	2775
582.732	2738
582.774	2888
582.805	3026
582.830	3010
582.877	2719
582.885	2677
582.941	2826
582.950	2876
582.996	3093
583.023	3233
583.052	3618
583.095	3694
583.107	3598
583.162	3820
583.168	3799
583.218	3904
583.240	4120
583.273	4200
583.313	3407
583.328	3243
583.384	4021
583.385	4024
583.439	3503
583.458	3362
583.494	3410
583.531	3165
583.549	3042
583.603	3714
583.605	3735
583.660	3594
583.676	3587
583.715	3394
583.748	3546
583.770	3767
583.820	3968
583.825	3957
583.881	3690
583.893	3593
583.936	3563
583.965	3485
583.991	3357
584.038	4296
584.046	4469
584.101	3770
584.110	3789
584.156	3916
584.183	4109
584.211	4198
584.255	4419
584.266	4547
584.321	3982
584.328	4084
584.376	4873
584.400	4987
584.431	5063
584.472	4583
584.486	4387
584.541	4964
584.545	4961
584.596	5131
584.617	4944
584.651	5022
584.689	6010
584.706	6154
584.761	5353
584.762	5347
584.816	5992
584.834	6324
584.871	6712
584.906	6361
584.926	6265
584.978	6402
584.980	6421
585.035	7264
585.051	7405
585.090	7854
585.123	8202
585.145	8356
585.195	8788
585.200	8946
585.254	10954
585.267	11856
585.309	15342
585.340	17510
585.364	18164
585.412	17324
585.419	17221
585.473	17351
585.484	17372
585.528	20463
585.556	24548
585.583	35473
585.628	57041
585.637	66364
585.692	139402
585.700	152554
585.747	188167
585.772	166599
585.801	104606
585.845	31381
585.856	25267
585.910	15892
585.917	14710
585.965	12516
585.989	11964
586.019	11303
586.061	10405
586.074	10423
586.128	10941
586.133	10954
586.183	11443
586.205	11614
586.237	11396
586.277	11061
586.292	11048
586.346	10784
586.349	10785
586.401	11547
586.421	11578
586.455	11413
586.493	11444
586.509	12246
586.564	14943
586.565	15007
586.618	19347
586.637	20156
586.672	18605
586.709	16282
586.727	15782
586.781	15984
586.781	16009
586.835	13452
586.853	13131
586.889	13328
586.925	13097
586.944	13131
586.996	13879
586.998	13934
587.052	14861
587.068	14918
587.106	15016
587.140	14969
587.161	15200
587.212	16543
587.215	16615
587.269	16681
587.284	16904
587.323	18005
587.356	18258
587.377	18376
587.427	19417
587.431	19582
587.485	20394
587.499	20712
587.539	21484
587.571	22072
587.593	22585
587.643	23552
587.648	23733
587.702	25207
587.715	25571
587.755	27401
587.786	28475
587.810	29277
587.858	31035
587.864	31378
587.917	34426
587.930	35064
587.971	38958
588.001	41642
588.025	43382
588.073	46900
588.079	47835
588.133	55752
588.145	57356
588.187	63455
588.217	67807
588.241	72509
588.288	82457
588.295	84480
588.348	100019
588.360	103499
588.402	118394
588.431	128651
588.456	139868
588.503	161570
588.510	165902
588.564	200234
588.575	207723
588.617	250131
588.646	279376
588.671	321825
588.718	408628
588.725	435588
588.778	651043
588.789	698145
588.832	1056000
588.861	1313455
588.886	1546545
588.932	1977584
588.939	1981116
588.993	1846058
589.004	1819819
589.047	1624677
589.075	1440607
589.100	1177492
589.147	692451
589.154	665267
589.207	477491
589.218	441022
589.261	405451
589.290	384810
589.314	406553
589.361	453708
589.368	480333
589.421	707201
589.433	758048
589.475	1165231
589.504	1463191
589.528	1607136
589.576	1820903
589.582	1789278
589.635	1412316
589.647	1315920
589.689	842125
589.718	519463
589.742	423136
589.790	250124
589.795	242861
589.849	176745
589.861	161925
589.902	137750
589.932	119628
589.955	110090
590.004	90437
590.009	89476
590.062	76872
590.075	73744
590.115	67744
590.146	62684
590.168	60433
590.218	55094
590.222	54920
590.275	50913
590.289	49715
590.328	47605
590.360	45514
590.381	44533
590.431	42110
590.435	42059
590.488	38728
590.503	37871
590.541	37483
590.574	36648
590.594	36155
590.645	34713
590.647	34758
590.700	33009
590.716	32376
590.753	31779
590.787	30939
590.806	30861
590.859	30453
590.859	30528
590.912	28946
590.930	28307
590.965	28256
591.001	27976
591.018	27729
591.071	26860
591.072	26762
591.124	26820
591.143	26764
591.177	26491
591.214	25988
591.230	26316
591.283	27132
591.285	27072
591.336	27638
591.356	27720
591.389	27862
591.427	27876
591.442	27309
591.495	24715
591.498	24440
591.547	24537
591.569	24511
591.600	24583
591.640	24384
591.653	24274
591.706	23532
591.711	23366
591.759	23830
591.782	23942
591.811	24044
591.853	23998
591.864	23986
591.917	23463
591.924	23310
591.969	23074
591.995	22814
592.022	22619
592.066	22106
592.075	22567
592.127	24885
592.137	25230
592.180	24969
592.208	24642
592.233	24215
592.279	23192
592.285	23244
592.338	22972
592.350	22824
592.390	23176
592.421	23327
592.443	22977
592.491	21954
592.495	22045
592.548	22306
592.562	22307
592.600	22162
592.633	21910
592.653	22066
592.704	22172
592.705	22298
592.775	22185
592.846	23563
592.916	24651
592.987	27134
593.058	23781
593.128	22249
593.199	21301
593.270	21978
593.341	22098
593.411	23134
593.482	23952
593.553	22808
593.623	22648
593.694	23384
593.764	23790
593.835	23655
593.906	22965
593.976	22750
594.047	24066
594.117	26776
594.188	25123
594.258	25482
594.329	23150
594.399	24061
594.470	24108
594.540	24779
594.611	24367
594.681	24974
594.751	24758
594.822	29699
594.892	30526
594.963	28939
595.033	26493
595.103	27366
595.174	28687
595.244	33370
595.314	36513
595.384	28653
595.455	28592
595.525	29234
595.595	30512
595.665	30805
595.736	29266
595.806	29914
595.876	30039
595.946	29696
596.016	31275
596.087	31897
596.157	31777
596.227	32276
596.297	33572
596.367	35412
596.437	36741
596.507	40437
596.577	42337
596.647	38792
596.717	38481
596.787	39507
596.857	38404
596.927	39308
596.997	39379
597.067	41521
597.137	45570
597.207	48505
597.277	45209
597.347	42378
597.417	39541
597.487	41924
597.557	40744
597.626	42504
597.696	42602
597.766	42299
597.836	43800
597.906	37769
597.975	35910
598.045	36687
598.115	38092
598.185	40699
598.254	44699
598.324	49182
598.394	50083
598.464	49737
598.533	46515
598.603	44639
598.672	44903
598.742	49030
598.812	47307
598.881	47818
598.951	44905
599.020	45263
599.090	45647
599.159	47159
599.229	44617
599.299	44697
599.368	44077
599.437	44215
599.507	40376
599.576	41065
599.646	41176
599.715	42493
599.785	39563
599.854	39442
599.924	39297
599.993	38612
600.062	38412
600.132	38796
600.201	40645
600.270	49963
600.340	53063
600.409	49435
600.478	48064
600.547	48962
600.617	44434
600.686	37820
600.755	35683
600.824	35598
600.894	33993
600.963	32130
601.032	31484
601.101	30880
601.170	29234
601.239	31125
601.308	34297
601.378	33542
601.447	29405
601.516	30875
601.585	34275
601.654	39137
601.723	31712
601.792	30955
601.861	33580
601.930	39792
601.999	41384
602.068	37903
602.137	44530
602.206	42320
602.275	36702
602.343	41858
602.412	40590
602.481	34731
602.550	33253
602.619	35245
602.688	35287
602.756	35163
602.825	34614
602.894	35914
602.963	35397
603.032	36624
603.100	36938
603.169	36172
603.238	36142
603.307	36430
603.375	37676
603.444	38406
603.513	38574
603.581	40929
603.650	41621
603.719	39284
603.787	39008
603.856	40860
603.924	41619
603.993	43353
604.061	43730
604.130	47009
604.198	47265
604.267	47424
604.335	47190
604.404	48683
604.472	47369
604.541	48910
604.609	49711
604.678	48915
604.746	49607
604.815	51076
604.883	51815
604.951	52460
605.020	52013
605.088	53749
605.156	55036
605.225	55910
605.293	53968
605.361	57537
605.429	57826
605.498	59721
605.566	60609
605.634	62662
605.702	64177
605.771	66054
605.839	65208
605.907	63772
605.975	61112
606.043	61098
606.111	61183
606.180	61258
606.248	63170
606.316	63663
606.384	59659
606.452	65461
606.520	71580
606.588	65500
606.656	62405
606.724	61163
606.792	58174
606.860	51981
606.928	46787
606.996	47525
607.064	44429
607.132	46408
607.200	50179
607.267	52241
607.335	51687
607.403	52593
607.471	50935
607.539	51134
607.607	51420
607.674	45474
607.742	46037
607.810	48468
607.878	46234
607.946	46297
608.013	47844
608.081	47821
608.149	49337
608.216	50209
608.284	51867
608.352	51628
608.419	50589
608.487	54019
608.555	50317
608.622	51447
608.690	54617
608.757	60082
608.825	60992
608.893	60760
608.960	56029
609.028	55329
609.095	56406
609.163	53263
609.230	48002
609.298	45296
609.365	45899
609.432	50618
609.500	53903
609.567	62913
609.635	71511
609.702	74209
609.769	71083
609.837	56445
609.904	47887
609.971	52232
610.039	61670
610.106	86508
610.173	186235
610.241	442287
610.308	202018
610.375	66303
610.442	51922
610.509	49725
610.577	51167
610.644	51488
610.711	52824
610.778	54344
610.845	55485
610.912	59252
610.980	64780
611.047	70004
611.114	63390
611.181	57364
611.248	57079
611.315	62506
611.382	61783
611.449	65565
611.516	66762
611.583	65085
611.650	65064
611.717	67815
611.784	68259
611.851	73034
611.918	80600
611.984	103185
612.051	169253
612.118	398352
612.185	1046764
612.252	529869
612.319	112182
612.386	89884
612.452	80313
612.519	77159
612.586	76823
612.653	77446
612.719	77178
612.786	74154
612.853	68234
612.919	66704
612.986	67313
613.053	64466
613.120	62384
613.186	64953
613.253	65639
613.319	60990
613.386	62104
613.453	62448
613.519	64762
613.586	73714
613.652	85980
613.719	77080
613.785	70471
613.852	63716
613.918	64859
613.985	70201
614.051	92404
614.118	154295
614.184	134828
614.250	66167
614.317	63695
614.383	61484
614.449	62514
614.516	62176
614.582	62461
614.648	61618
614.715	61708
614.781	62582
614.847	64056
614.914	61617
614.980	58177
615.046	59538
615.112	59893
615.179	62822
615.245	64280
615.311	69414
615.377	84618
615.443	84796
615.509	67665
615.575	67400
615.642	65532
615.708	70013
615.774	74195
615.840	80876
615.906	95880
615.972	139247
616.038	258852
616.104	556198
616.170	1363009
616.236	969965
616.302	177085
616.368	125659
616.434	87640
616.500	85202
616.565	95579
616.631	118567
616.697	90187
616.763	97579
616.829	159185
616.895	295416
616.961	255778
617.026	97506
617.092	67127
617.158	64502
617.224	61620
617.289	58674
617.355	53838
617.421	51522
617.487	53171
617.552	51616
617.618	49391
617.684	48659
617.749	51892
617.815	47782
617.880	47052
617.946	46101
618.012	48385
618.077	48599
618.143	47604
618.208	50990
618.274	51517
618.339	52103
618.405	42160
618.470	43791
618.536	43510
618.601	43906
618.667	39615
618.732	38827
618.798	37587
618.863	37674
618.928	37064
618.994	39952
619.059	44938
619.124	58552
619.190	44961
619.255	37065
619.320	36030
619.386	37549
619.451	35022
619.516	34839
619.581	36346
619.647	37039
619.712	35637
619.777	35265
619.842	35419
619.907	36532
619.972	38596
620.038	37330
620.103	34619
620.168	35561
620.233	35824
620.298	35437
620.363	35116
620.428	37049
620.493	37011
620.558	38272
620.623	37590
620.688	38277
620.753	37459
620.818	38516
620.883	38874
620.948	39493
621.013	37574
621.078	37417
621.143	37169
621.207	40967
621.272	38679
621.337	38059
621.402	38108
621.467	41257
621.532	38742
621.596	37891
621.661	36237
621.726	35732
621.791	38088
621.855	39149
621.920	39015
621.985	38772
622.049	40074
622.114	39070
622.179	38856
622.243	39858
622.308	39394
622.373	42406
622.437	40027
622.502	38309
622.566	37077
622.631	36893
622.695	39037
622.760	37484
622.824	38298
622.889	39400
622.953	42994
623.018	60225
623.082	55413
623.147	41776
623.211	40728
623.276	41552
623.340	35650
623.404	36054
623.469	35978
623.533	37553
623.597	35555
623.662	37458
623.726	32869
623.790	32488
623.854	30454
623.919	31925
623.983	30688
624.047	33162
624.111	32647
624.176	32749
624.240	33782
624.304	35143
624.368	33899
624.432	33319
624.496	34980
624.560	41420
624.625	42392
624.689	36463
624.753	36149
624.817	35658
624.881	33929
624.945	31289
625.009	30910
625.073	31740
625.137	33821
625.201	43577
625.265	40675
625.329	33702
625.393	35873
625.456	34636
625.520	34371
625.584	37005
625.648	38511
625.712	44868
625.776	66073
625.839	66979
625.903	35816
625.967	29361
626.031	39288
626.095	49535
626.158	31908
626.222	24114
626.286	24185
626.349	22996
626.413	21055
626.477	25421
626.540	22593
626.604	21181
626.668	21424
626.731	20955
626.795	21807
626.858	21529
626.922	20180
626.986	22424
627.049	19738
627.113	22639
627.176	20203
627.240	21196
627.303	20279
627.366	20370
627.430	20972
627.493	21321
627.557	20250
627.620	21802
627.684	21311
627.747	21942
627.810	18574
627.874	18656
627.937	17264
628.000	20944
628.064	18240
628.127	15572
628.190	16745
628.253	17391
628.317	15246
628.380	14521
628.443	13694
628.506	14951
628.569	13304
628.632	12618
628.696	13345
628.759	13547
628.822	12513
628.885	12874
628.948	12949
629.011	13704
629.074	13153
629.137	12620
629.200	12047
629.263	13999
629.326	11059
629.389	13106
629.452	11471
629.515	11452
629.578	11860
629.641	13115
629.704	11445
629.767	14248
629.830	11838
629.892	12401
629.955	11248
630.018	14506
630.081	15623
630.144	20653
630.207	13182
630.269	15441
630.332	12633
630.395	11765
630.458	11506
630.520	10035
630.583	11208
630.646	11242
630.708	10946
630.771	10845
630.834	11241
630.896	10929
630.959	11137
631.021	10398
631.084	10278
631.146	11982
631.209	12622
631.272	11646
631.334	11063
631.397	11870
631.459	12439
631.522	13539
631.584	13457
631.646	15198
631.709	16353
631.771	20813
631.834	15126
631.896	14006
631.958	11050
632.021	12374
632.083	10808
632.145	11895
632.208	11270
632.270	12211
632.332	9797
632.395	10107
632.457	10544
632.519	10529
632.581	11175
632.643	9486
632.706	11078
632.768	9486
632.830	10744
632.892	10744
632.954	9926
633.016	10919
633.078	9811
633.141	10568
633.203	9873
633.265	11527
633.327	10880
633.389	10444
633.451	13439
633.513	15603
633.575	13241
633.637	15065
633.698	13011
633.760	11877
633.822	11574
633.884	12588
633.946	11693
634.008	12942
634.070	14102
634.132	17201
634.193	16065
634.255	17672
634.317	16967
634.379	18151
634.441	14132
634.502	12364
634.564	12587
634.626	12474
634.687	10953
634.749	10795
634.811	10461
634.873	10069
634.934	9762
634.996	11934
635.057	9425
635.119	8608
635.181	10554
635.242	11775
635.304	8995
635.365	12486
635.427	10157
635.488	11612
635.550	9954
635.611	10372
635.673	8533
635.734	12690
635.796	11949
635.857	15403
635.918	13395
635.980	17170
636.041	17128
636.102	18814
636.164	19194
636.225	18556
636.286	13554
636.348	13805
636.409	12243
636.470	10726
636.531	10071
636.593	9930
636.654	9802
636.715	9136
636.776	8023
636.838	8213
636.899	9355
636.960	7835
637.021	7774
637.082	8170
637.143	8162
637.204	7250
637.265	7132
637.326	8831
637.387	8126
637.448	7173
637.509	8383
637.570	8454
637.631	8745
637.692	6649
637.753	6304
637.814	8312
637.875	7107
637.936	8677
637.997	7081
638.058	8195
638.119	8080
638.179	8355
638.240	6686
638.301	7612
638.362	6416
638.423	6969
638.483	7432
638.544	5778
638.605	6583
638.666	6557
638.726	7165
638.787	8009
638.848	6489
638.908	6428
638.969	6495
639.030	6624
639.090	4873
639.151	6657
639.211	8791
639.272	12601
639.332	21292
639.393	9782
639.453	6796
639.514	8180
639.574	7300
639.635	7054
639.695	6792
639.756	6037
639.816	8573
639.877	10538
639.937	21877
639.997	26357
640.058	7952
640.118	6316
640.178	7201
640.239	6667
640.299	6319
640.359	6781
640.420	6678
640.480	7766
640.540	9008
640.600	9004
640.661	7856
640.721	7627
640.781	12168
640.841	7262
640.901	7245
640.961	8056
641.021	8107
641.082	10241
641.142	16212
641.202	8692
641.262	4357
641.322	7094
641.382	3815
641.442	7141
641.502	5259
641.562	6729
641.622	5382
641.682	7354
641.742	7762
641.802	7361
641.861	6976
641.921	8150
641.981	9763
642.041	8709
642.101	11253
642.161	6478
642.221	4843
642.280	5598
642.340	5618
642.400	4604
642.460	7275
642.519	5671
642.579	4415
642.639	7672
642.698	3440
642.758	7688
642.818	5464
642.877	5934
642.937	6322
642.997	9611
643.056	13012
643.116	6195
643.175	7389
643.235	6926
643.294	7361
643.354	9107
643.414	10542
643.473	17597
643.532	14963
643.592	21969
643.651	40475
643.711	77867
643.770	168648
643.830	445407
643.889	875810
643.948	150727
644.008	23872
644.067	15813
644.126	9915
644.186	9972
644.245	8197
644.304	6581
644.363	8033
644.423	6059
644.482	6165
644.541	7062
644.600	5735
644.659	9850
644.719	11359
644.778	19274
644.837	35939
644.896	81235
644.955	179427
645.014	46986
645.073	11768
645.132	7476
645.191	6616
645.250	5901
645.309	7738
645.368	7567
645.427	11469
645.486	18122
645.545	29981
645.604	8328
645.663	7202
645.722	6362
645.781	7607
645.840	9119
645.898	12471
645.957	21727
646.016	33970
646.075	71617
646.134	147484
646.192	441832
646.251	563328
646.310	59539
646.369	16136
646.427	14099
646.486	9199
646.545	8427
646.603	6841
646.662	6555
646.721	5393
646.779	6074
646.838	5977
646.896	9107
646.955	11813
647.014	20163
647.072	40672
647.131	114853
647.189	42324
647.248	6716
647.306	5976
647.365	6228
647.423	2684
647.481	6160
647.540	2780
647.598	5057
647.657	4339
647.715	4733
647.773	2605
647.832	5375
647.890	2909
647.948	3520
648.007	4463
648.065	2805
648.123	3305
648.181	6390
648.240	5022
648.298	4842
648.356	2932
648.414	3584
648.472	3456
648.531	4528
648.589	2906
648.647	3322
648.705	3257
648.763	3226
648.821	4271
648.879	4369
648.937	5358
648.995	6643
649.053	8241
649.111	15970
649.169	27779
649.227	54501
649.285	120991
649.343	347800
649.401	132306
649.459	40229
649.516	23862
649.574	19117
649.632	46541
649.690	49016
649.748	15315
649.806	19550
649.863	35173
649.921	80358
649.979	41270
650.037	6428
650.094	2608
650.152	4900
650.210	2569
650.268	4144
650.325	3053
650.383	4262
650.440	1843
650.498	3800
650.556	2608
650.613	2413
650.671	2574
650.728	2764
650.786	3049
650.843	4859
650.901	935
650.958	3710
651.016	2035
651.073	3023
651.131	2026
651.188	1911
651.246	2907
651.303	1803
651.360	2993
651.418	2490
651.475	2754
651.532	1560
651.590	2552
651.647	1215
651.704	2080
651.762	2463
651.819	2751
651.876	1888
651.933	2961
651.990	2970
652.048	567
652.105	2125
652.162	2598
652.219	1461
652.276	2177
652.333	2602
652.390	631
652.448	2130
652.505	1171
652.562	2189
652.619	2479
652.676	5395
652.733	4918
652.790	2769
652.847	403
652.904	2197
652.961	1071
653.017	1317
653.074	1903
653.131	2134
653.188	1165
653.245	2011
653.302	1060
653.359	1618
653.415	2731
653.472	1868
653.529	1975
653.586	1280
653.642	905
653.699	2663
653.756	1454
653.813	1928
653.869	2056
653.926	722
653.983	466
654.039	1998
654.096	1093
654.152	3317
654.209	527
654.266	2710
654.322	523
654.379	2295
654.435	2927
654.492	3070
654.548	4181
654.605	7467
654.661	2885
654.717	2550
654.774	1666
654.830	1664
654.887	1668
654.943	1468
655.000	1889
655.056	2553
655.112	1808
655.168	1538
655.225	1721
655.281	2420
655.337	1802
655.394	3517
655.450	2870
655.506	2563
655.562	4117
655.618	3948
655.675	568
655.731	2153
655.787	949
655.843	3178
655.899	1256
655.955	2421
656.011	2014
656.067	684
656.123	1749
656.179	1680
656.235	2517
656.291	209
656.347	2779
656.403	1995
656.459	2247
656.515	2412
656.571	1679
656.627	2076
656.683	1659
656.739	3095
656.795	1885
656.850	2386
656.906	3656
656.962	3194
657.018	1076
657.074	2016
657.129	2260
657.185	4194
657.241	7707
657.297	4180
657.352	1997
657.408	1088
657.464	3146
657.519	2108
657.575	232
657.630	2204
657.686	639
657.742	1673
657.797	1263
657.853	1279
657.908	2070
657.964	858
658.019	1128
658.075	1107
658.130	1752
658.186	305
658.241	1729
658.297	1092
658.352	813
658.407	2726
658.463	18
658.518	1688
658.573	864
658.629	753
658.684	507
658.739	2453
658.795	545
658.850	1524
658.905	370
658.960	1255
659.016	1460
659.071	1812
659.126	1952
659.181	2627
659.236	7200
659.291	6765
659.346	1631
659.401	2963
659.457	3127
659.512	3668
659.567	1655
659.622	1695
659.677	897
659.732	223
659.787	785
659.842	1353
659.897	882
659.952	1919
660.007	591
660.061	1349
660.116	580
660.171	674
660.226	601
660.281	2286
660.336	398
660.391	1915
660.445	973
660.500	1933
660.555	989
660.610	995
660.664	671
660.719	1175
660.774	983
660.828	1916
660.883	1114
660.938	1684
660.992	-509
661.047	1482
661.101	940
661.156	1054
661.211	387
661.265	1355
661.320	782
661.374	1213
661.429	205
661.483	2124
661.538	-667
661.592	1230
661.647	836
661.701	1761
661.755	495
661.810	1874
661.864	475
661.919	992
661.973	1099
662.027	721
662.081	24
662.136	811
662.190	116
662.244	1364
662.299	533
662.353	1415
662.407	532
662.461	1077
662.515	1109
662.569	876
662.624	1295
662.678	206
662.732	491
662.786	1145
662.840	1349
662.894	1300
662.948	1000
663.002	1362
663.056	1219
663.110	957
663.164	734
663.218	776
663.272	1085
663.326	1490
663.380	1984
663.434	678
663.488	13
663.542	1295
663.595	-219
663.649	428
663.703	-369
663.757	1244
663.811	399
663.864	859
663.918	690
663.972	834
664.026	632
664.079	799
664.133	1102
664.187	1249
664.240	700
664.294	1189
664.348	967
664.401	151
664.455	1365
664.508	1222
664.562	1275
664.615	1475
664.669	-204
664.722	689
664.776	540
664.829	1605
664.883	289
664.936	557
664.990	-64
665.043	978
665.097	685
665.150	1401
665.203	-14
665.257	809
665.310	421
665.363	909
665.417	466
665.470	1057
665.523	727
665.576	881
665.630	497
665.683	943
665.736	847
665.789	1290
665.842	-689
665.895	1100
665.949	1470
666.002	751
666.055	-83
666.108	2499
666.161	690
666.214	1803
666.267	2003
666.320	2145
666.373	1311
666.426	1462
666.479	413
666.532	1157
666.585	836
666.638	1618
666.691	459
666.744	1879
666.796	721
666.849	1072
666.902	1927
666.955	577
667.008	691
667.060	581
667.113	-463
667.166	430
667.219	306
667.271	1167
667.324	120
667.377	622
667.430	271
667.482	1985
667.535	371
667.587	2297
667.640	1869
667.693	2722
667.745	6603
667.798	5913
667.850	437
667.903	1663
667.955	1416
668.008	1385
668.060	609
668.113	864
668.165	1498
668.218	1270
668.270	535
668.322	687
668.375	196
668.427	1818
668.479	825
668.532	834
668.584	1011
668.636	901
668.689	1130
668.741	352
668.793	529
668.845	1541
668.898	813
668.950	684
669.002	1144
669.054	390
669.106	502
669.158	688
669.211	823
669.263	2084
669.315	2062
669.367	2439
669.419	1954
669.471	3911
669.523	5507
669.575	8215
669.627	4999
669.679	2832
669.731	1772
669.783	3692
669.835	4795
669.886	3835
669.938	1699
669.990	1415
670.042	-50
670.094	809
670.146	-386
670.197	967
670.249	709
670.301	834
670.353	1730
670.404	3266
670.456	3031
670.508	5172
670.560	8515
670.611	14257
670.663	24745
670.715	71023
670.766	95895
670.818	19137
670.869	2994
670.921	2497
670.972	1418
671.024	1247
671.075	1450
671.127	1200
671.178	-210
671.230	1000
671.281	638
671.333	1125
671.384	425
671.436	2380
671.487	2058
671.538	5253
671.590	7444
671.641	12684
671.692	24594
671.744	46810
671.795	23066
671.846	6636
671.897	3399
671.949	2182
672.000	208
672.051	1304
672.102	926
672.153	1449
672.204	708
672.256	1154
672.307	742
672.358	414
672.409	375
672.460	1007
672.511	-282
672.562	912
672.613	562
672.664	1208
672.715	247
672.766	222
672.817	-66
672.868	698
672.919	429
672.970	968
673.021	8
673.071	634
673.122	461
673.173	53
673.224	229
673.275	249
673.326	77
673.376	1520
673.427	-280
673.478	786
673.528	854
673.579	743
673.630	751
673.680	1051
673.731	228
673.782	174
673.832	-266
673.883	-56
673.934	-379
673.984	703
674.035	-186
674.085	886
674.136	73
674.186	159
674.237	772
674.287	1669
674.338	-206
674.388	862
674.438	383
674.489	749
674.539	734
674.589	1091
674.640	391
674.690	949
674.740	570
674.791	1039
674.841	-82
674.891	865
674.942	-12
674.992	432
675.042	-632
675.092	-289
675.142	-299
675.193	977
675.243	79
675.293	443
675.343	45
675.393	996
675.443	-320
675.493	830
675.543	-523
675.593	349
675.643	-399
675.693	732
675.743	187
675.793	717
675.843	-416
675.893	-288
675.943	196
675.993	297
676.043	-478
676.093	232
676.142	-192
676.192	-87
676.242	-586
676.292	-331
676.341	-797
676.391	508
676.441	547
676.491	-255
676.540	-670
676.590	319
676.640	472
676.689	225
676.739	-650
676.789	331
676.838	-199
676.888	300
676.937	-851
676.987	61
677.037	-664
677.086	-481
677.136	-709
677.185	394
677.235	-442
677.284	211
677.333	-599
677.383	-377
677.432	-615
677.482	-8
677.531	171
677.580	396
677.630	-483
677.679	312
677.728	-654
677.778	565
677.827	-326
677.876	65
677.925	-925
677.975	730
678.024	-433
678.073	-508
678.122	-161
678.171	-180
678.220	23
678.269	1136
678.319	-76
678.368	556
678.417	-594
678.466	441
678.515	-681
678.564	153
678.613	-529
678.662	-445
678.711	-636
678.760	411
678.809	117
678.857	46
678.906	-453
678.955	-563
679.004	-177
679.053	-900
679.102	-523
679.151	193
679.199	-472
679.248	459
679.297	-424
679.346	399
679.394	-503
679.443	173
679.492	-591
679.540	229
679.589	-622
679.638	-175
679.686	-669
679.735	-362
679.784	-762
679.832	-406
679.881	231
679.929	-686
679.978	-845
680.026	708
680.075	-402
680.123	-141
680.172	77
680.220	72
680.268	-397
680.317	-650
680.365	-254
680.414	-155
680.462	-461
680.510	553
680.559	91
680.607	-618
680.655	-508
680.703	62
680.752	-1207
680.800	-596
680.848	-478
680.896	-11
680.945	-252
680.993	-406
681.041	-770
681.089	1107
681.137	-845
681.185	-742
681.233	-1132
681.258	-631
681.281	-171
681.329	-854
681.377	-129
681.380	-157
681.425	-924
681.473	-464
681.502	-454
681.521	-480
681.569	588
681.617	-112
681.624	-57
681.665	202
681.713	-342
681.745	562
681.761	970
681.809	-458
681.857	38
681.867	48
681.904	38
681.952	572
681.989	186
682.000	46
682.048	222
682.096	-330
682.111	-154
682.143	176
682.191	-582
682.233	1114
682.239	1360
682.286	-300
682.334	-124
682.354	-203
682.382	-344
682.430	269
682.476	-382
682.477	-409
682.525	376
682.572	-1224
682.598	-590
682.620	-44
682.667	36
682.715	1044
682.720	979
682.763	231
682.810	856
682.841	977
682.857	998
682.905	377
682.952	651
682.963	610
683.000	410
683.047	-737
683.085	803
683.095	1221
683.142	318
683.190	828
683.206	708
683.237	419
683.284	853
683.328	955
683.332	953
683.379	1187
683.426	728
683.449	843
683.473	995
683.521	432
683.568	1084
683.571	1065
683.615	535
683.662	810
683.693	493
683.709	317
683.757	106
683.804	830
683.814	784
683.851	636
683.898	1254
683.936	1276
683.945	1261
683.992	1602
684.039	1635
684.057	1391
684.086	998
684.133	1657
684.179	1624
684.180	1609
684.227	2469
684.274	1900
684.300	2399
684.321	2770
684.368	1108
684.415	1766
684.422	1566
684.462	317
684.509	1851
684.543	1350
684.556	1162
684.603	1624
684.649	916
684.665	1018
684.696	1307
684.743	910
684.786	1669
684.790	1721
684.837	1478
684.883	2188
684.908	1886
684.930	1570
684.977	2375
685.023	1707
685.029	1706
685.070	1596
685.117	1924
685.150	1906
685.164	1912
685.210	2034
685.257	2182
685.272	2232
685.303	2320
685.350	2391
685.393	2119
685.396	2111
685.443	2975
685.490	3670
685.514	3182
685.536	2446
685.583	2370
685.629	2694
685.636	2592
685.675	2269
685.722	2840
685.757	2662
685.768	2571
685.815	2409
685.861	2352
685.878	2517
685.908	2870
685.954	2152
686.000	2627
686.000	2632
686.047	2567
686.093	3026
686.121	3065
686.139	2957
686.185	2576
686.232	2107
686.242	2205
686.278	2682
686.324	2631
686.363	2217
686.370	2141
686.416	2139
686.463	2847
686.484	2543
686.509	2180
686.555	2444
686.601	2324
686.606	2288
686.647	1950
686.693	2009
686.727	2303
686.739	2464
686.785	2323
686.831	2887
686.848	2789
686.877	2446
686.923	3007
686.969	2348
686.969	2344
687.015	2174
687.061	1948
687.090	2488
687.107	2781
687.153	2633
687.199	2966
687.211	2906
687.245	2764
687.291	2809
687.332	2718
687.336	2718
687.382	3177
687.428	2431
687.453	2973
687.474	3328
687.520	2874
687.565	2989
687.574	2830
687.611	2417
687.657	3528
687.695	3011
687.702	2905
687.748	3515
687.794	3781
687.816	3895
687.839	3868
687.885	3186
687.931	3348
687.937	3217
687.976	2764
688.022	3515
688.058	3170
688.067	3091
688.113	3455
688.158	3313
688.179	3574
688.204	3807
688.249	4031
688.295	3968
688.300	3929
688.340	3538
688.386	3948
688.421	3483
688.431	3419
688.477	3605
688.522	3958
688.542	3974
688.567	3916
688.613	3832
688.658	3782
688.663	3747
688.703	3608
688.749	4136
688.784	4058
688.794	4003
688.839	4287
688.884	3437
688.905	3645
688.930	3973
688.975	3341
689.020	3901
689.026	3881
689.065	3712
689.110	3713
689.146	3245
689.155	3150
689.201	3847
689.246	3617
689.267	3672
689.291	3792
689.336	4202
689.381	3981
689.388	3960
689.426	3733
689.471	4414
689.509	3658
689.516	3554
689.561	4258
689.606	3828
689.630	4069
689.651	4200
689.696	3591
689.741	4302
689.750	4227
689.785	4065
689.830	3895
689.871	3693
689.875	3683
689.920	3903
689.965	4241
689.992	3978
690.010	3734
690.054	3271
690.099	3629
690.112	3509
690.144	3569
690.189	3968
690.233	3884
690.233	3891
690.278	4119
690.323	4148
690.354	4110
690.367	4094
690.412	4429
690.457	4649
690.474	4592
690.501	4456
690.546	4576
690.590	4143
690.595	4109
690.635	4275
690.680	4375
690.716	4953
690.724	5012
690.769	4375
690.813	4792
690.836	4411
690.857	4385
690.902	5176
690.946	5751
690.957	5888
690.991	6347
691.035	6616
691.077	7022
691.080	7011
691.124	6266
691.168	6366
691.198	5498
691.213	5173
691.257	5631
691.301	4979
691.318	5046
691.346	5226
691.390	4825
691.434	4753
691.439	4722
691.478	4786
691.522	5084
691.559	5164
691.567	5229
691.611	5925
691.655	5830
691.680	6188
691.699	6168
691.743	5564
691.787	5107
691.800	4988
691.831	5096
691.875	5180
691.919	5116
691.921	5112
691.964	5160
692.008	5004
692.041	5141
692.052	5307
692.096	5287
692.139	5822
692.162	5934
692.183	5745
692.227	5498
692.271	4782
692.282	4766
692.315	5165
692.359	5181
692.402	5484
692.403	5496
692.447	5096
692.490	5150
692.523	4859
692.534	4909
692.578	5368
692.622	5237
692.643	5559
692.666	5703
692.709	5462
692.753	5038
692.763	5027
692.797	5212
692.840	5265
692.884	5461
692.884	5478
692.928	5704
692.971	5893
693.004	6053
693.015	6061
693.059	5682
693.102	6213
693.124	5866
693.146	5629
693.189	5819
693.233	5689
693.245	5741
693.276	5936
693.320	6181
693.363	6154
693.365	6136
693.407	6102
693.450	6400
693.485	6311
693.493	6343
693.537	6723
693.580	6628
693.605	6909
693.624	7133
693.667	7255
693.710	7582
693.725	7625
693.753	8536
693.797	9854
693.840	11729
693.845	11879
693.883	11103
693.926	9852
693.966	9064
693.970	9012
694.013	8162
694.056	7451
694.086	6567
694.099	6458
694.142	6601
694.185	6556
694.206	6640
694.229	6785
694.272	6369
694.315	6842
694.326	6781
694.358	6940
694.401	7552
694.444	7806
694.446	7810
694.487	8113
694.530	7908
694.566	8322
694.573	8282
694.616	7349
694.659	6697
694.686	6148
694.702	6149
694.745	6276
694.787	6392
694.806	6492
694.830	6537
694.873	6219
694.916	6064
694.926	5959
694.959	6117
695.002	6634
695.044	6927
695.046	6917
695.087	6488
695.130	6197
695.166	6017
695.172	6104
695.215	6110
695.258	6769
695.286	6788
695.301	6642
695.343	6377
695.386	6330
695.406	6145
695.428	6225
695.471	6561
695.514	6569
695.526	6598
695.556	6565
695.599	6769
695.641	6654
695.646	6664
695.684	6833
695.726	6309
695.766	6250
695.769	6292
695.811	6546
695.854	6742
695.886	6810
695.896	6805
695.938	6941
695.981	6893
696.005	6887
696.023	6945
696.065	6999
696.108	7199
696.125	7131
696.150	7134
696.192	7330
696.235	7472
696.245	7483
696.277	7470
696.319	7383
696.361	7354
696.365	7332
696.404	7486
696.446	7526
696.485	7695
696.488	7717
696.530	7606
696.572	7281
696.604	7296
696.614	7338
696.656	7196
696.698	7234
696.724	7147
696.740	7190
696.783	7306
696.825	7371
696.844	7398
696.867	7495
696.909	7591
696.951	7636
696.964	7658
696.992	7560
697.034	7423
697.076	7145
697.083	7102
697.118	7480
697.160	7807
697.202	8126
697.203	8110
697.244	8027
697.286	7961
697.323	7764
697.327	7781
697.369	7834
697.411	7745
697.442	7756
697.453	7871
697.494	8150
697.536	8640
697.562	8782
697.578	8842
697.620	8950
697.661	9118
697.682	9162
697.703	9360
697.744	9714
697.786	10130
697.801	10200
697.828	10045
697.869	9792
697.911	9516
697.921	9446
697.952	9172
697.994	8699
698.035	8255
698.040	8170
698.077	8098
698.118	8014
698.160	7918
698.160	7892
698.201	7963
698.243	7953
698.279	7999
698.284	8046
698.325	8223
698.367	8392
698.399	8445
698.408	8469
698.449	8528
698.491	8574
698.518	8575
698.532	8665
698.573	8856
698.614	9072
698.638	9147
698.656	9107
698.697	8986
698.738	8831
698.757	8738
698.779	8683
698.820	8531
698.862	8379
698.877	8299
698.903	8586
698.944	8997
698.985	9414
698.996	9504
699.026	9517
699.067	9493
699.116	9439
699.235	8309
699.354	8546
699.474	7985
699.593	8413
699.713	8582
699.832	9029
699.951	10037
700.070	9026
700.190	7569
700.309	8717
700.428	8270
700.547	8248
700.667	8274
700.786	9414
700.905	7714
701.024	8572
701.143	7058
701.262	7844
701.381	7879
701.500	8900
701.619	10600
701.738	8201
701.857	7910
701.976	7571
702.095	7881
702.214	9286
702.333	8971
702.452	8904
702.571	9041
702.690	7798
702.809	7341
702.928	7748
703.047	8105
703.165	7489
703.284	7412
703.403	7942
703.522	8055
703.640	7868
703.759	9361
703.878	10912
703.997	7454
704.115	7192
704.234	7011
704.353	7440
704.471	8041
704.590	7393
704.708	6479
704.827	6886
704.946	6957
705.064	7051
705.183	6966
705.301	7155
705.420	9166
705.538	8535
705.656	7642
705.775	9492
705.893	16887
706.012	18607
706.130	7853
706.249	8562
706.367	6894
706.485	7273
706.604	7769
706.722	8227
706.840	9972
706.958	9574
707.077	8058
707.195	7416
707.313	7554
707.431	6943
707.549	6369
707.668	6878
707.786	7159
707.904	7732
708.022	6042
708.140	7473
708.258	7612
708.376	7582
708.494	7281
708.612	8179
708.730	8830
708.848	8355
708.966	8168
709.084	8758
709.202	7636
709.320	7497
709.438	7878
709.556	7785
709.674	6660
709.791	8036
709.909	6931
710.027	6979
710.145	6686
710.263	7700
710.380	6253
710.498	7657
710.616	7571
710.733	7274
710.851	6471
710.969	7482
711.086	6271
711.204	7591
711.322	6721
711.439	6836
711.557	6564
711.674	6844
711.792	6464
711.909	7843
712.027	8343
712.144	6641
712.262	6436
712.379	6520
712.497	7683
712.614	8825
712.732	7267
712.849	7819
712.966	8471
713.084	11499
713.201	7718
713.318	7591
713.436	6827
713.553	7033
713.670	8382
713.787	7926
713.905	7804
714.022	7811
714.139	7214
714.256	10699
714.373	13945
714.490	25285
714.608	77340
714.725	335061
714.842	251044
714.959	16679
715.076	9987
715.193	8261
715.310	7568
715.427	7424
715.544	6711
715.661	7318
715.778	6230
715.895	6498
716.011	6571
716.128	6995
716.245	7060
716.362	10899
716.479	9662
716.596	6707
716.713	6463
716.829	6419
716.946	6411
717.063	6783
717.180	5432
717.296	5478
717.413	5982
717.530	5529
717.646	6117
717.763	6345
717.880	5920
717.996	6645
718.113	6197
718.229	5762
718.346	5433
718.462	6225
718.579	9772
718.695	20669
718.812	10249
718.928	7838
719.045	5950
719.161	6661
719.277	5169
719.394	6383
719.510	5469
719.626	6046
719.743	6488
719.859	11239
719.975	21278
720.092	90051
720.208	163904
720.324	14911
720.440	7154
720.557	8242
720.673	15451
720.789	12674
720.905	16817
721.021	6820
721.137	5229
721.253	5800
721.369	5507
721.486	5440
721.602	6450
721.718	4436
721.834	5618
721.950	5925
722.066	4489
722.181	4799
722.297	6716
722.413	5538
722.529	4587
722.645	5133
722.761	4642
722.877	4215
722.993	4768
723.108	5434
723.224	4489
723.340	5554
723.456	5116
723.571	4949
723.687	3776
723.803	4713
723.918	4674
724.034	5073
724.150	4205
724.265	4411
724.381	8191
724.497	7731
724.612	4060
724.728	3987
724.843	4448
724.959	5665
725.074	8061
725.190	7159
725.305	5309
725.421	4036
725.536	4204
725.651	4022
725.767	3961
725.882	3964
725.997	4219
726.113	4906
726.228	2923
726.343	3819
726.459	2976
726.574	3987
726.689	4381
726.804	4789
726.920	3449
727.035	4010
727.150	4030
727.265	3930
727.380	4848
727.495	4955
727.610	3299
727.725	4527
727.841	5525
727.956	10883
728.071	7162
728.186	5143
728.301	3938
728.416	4980
728.531	4172
728.645	3879
728.760	4748
728.875	5240
728.990	4287
729.105	4190
729.220	4321
729.335	4639
729.449	4365
729.564	4069
729.679	3036
729.794	3707
729.908	3985
730.023	3643
730.138	3558
730.253	4293
730.367	3691
730.482	3494
730.596	4174
730.711	4664
730.826	4072
730.940	4362
731.055	4156
731.169	4203
731.284	3683
731.398	3644
731.513	3661
731.627	4456
731.742	4740
731.856	5066
731.970	5290
732.085	6564
732.199	6904
732.313	11196
732.428	31169
732.542	98679
732.656	42378
732.771	8190
732.885	5557
732.999	5384
733.113	5010
733.227	4545
733.342	4663
733.456	3772
733.570	4839
733.684	3971
733.798	3592
733.912	4042
734.026	2945
734.140	4489
734.254	4317
734.368	5191
734.482	5797
734.596	4134
734.710	4449
734.824	4770
734.938	4034
735.052	4631
735.166	4889
735.280	4155
735.393	3653
735.507	4856
735.621	4439
735.735	6520
735.849	3566
735.962	4280
736.076	4051
736.190	4636
736.303	5261
736.417	5429
736.531	3723
736.644	4007
736.758	3900
736.872	4508
736.985	4369
737.099	4363
737.212	3233
737.326	4083
737.439	3933
737.553	3534
737.666	3542
737.780	3071
737.893	4083
738.007	3997
738.120	2695
738.233	3965
738.347	3905
738.460	3615
738.573	4608
738.687	3312
738.800	5024
738.913	7462
739.026	3994
739.140	4090
739.253	3500
739.366	4087
739.479	2907
739.592	2535
739.705	2910
739.818	3644
739.932	3241
740.045	3497
740.158	3402
740.271	3334
740.384	3592
740.497	4259
740.610	4169
740.723	4142
740.836	3785
740.949	4896
741.062	6548
741.174	4993
741.287	2556
741.400	2472
741.513	4015
741.626	4006
741.739	3511
741.851	3761
741.964	3362
742.077	2905
742.189	3998
742.302	3879
742.415	3305
742.527	3663
742.640	2583
742.753	3041
742.865	2612
742.978	2837
743.090	3182
743.203	2172
743.316	2725
743.428	2213
743.541	2675
743.653	2880
743.766	2833
743.878	2736
743.990	3207
744.103	3614
744.215	3030
744.327	2514
744.440	4911
744.552	8874
744.664	3688
744.777	2907
744.889	2571
745.001	3115
745.113	2283
745.226	2478
745.338	2926
745.450	2328
745.562	2964
745.674	2946
745.786	2655
745.898	3221
746.010	2830
746.122	2109
746.234	2441
746.347	3121
746.459	3230
746.570	2649
746.682	2445
746.794	2487
746.906	1756
747.018	1946
747.130	2527
747.242	2706
747.354	2636
747.466	2929
747.577	2123
747.689	2515
747.801	2220
747.913	2757
748.024	1315
748.136	2246
748.248	1898
748.359	2685
748.471	2937
748.583	1632
748.694	2133
748.806	3767
748.918	2052
749.029	2808
749.141	2853
749.252	4325
749.364	4488
749.475	9655
749.587	4363
749.698	1978
749.809	2043
749.921	2490
750.032	1600
750.144	1941
750.255	1872
750.366	1672
750.478	1911
750.589	1838
750.700	2200
750.811	3018
750.923	4464
751.034	11950
751.145	9599
751.256	2036
751.367	1221
751.479	2423
751.590	1079
751.701	1751
751.812	1081
751.923	2204
752.034	855
752.145	2028
752.256	2263
752.367	1311
752.478	1775
752.589	1994
752.700	1851
752.811	1910
752.922	1177
753.032	2446
753.143	2843
753.254	449
753.365	1707
753.476	2130
753.586	1854
753.697	1718
753.808	2022
753.919	1910
754.029	1470
754.140	2552
754.251	1625
754.361	1809
754.472	1977
754.582	1847
754.693	1510
754.804	1646
754.914	1306
755.025	1173
755.135	1433
755.246	1251
755.356	874
755.466	2417
755.577	1242
755.687	1944
755.798	1446
755.908	1409
756.018	1710
756.129	1847
756.239	2065
756.349	1470
756.460	1559
756.570	3084
756.680	1852
756.790	2047
756.900	2482
757.011	1668
757.121	1552
757.231	1847
757.341	2096
757.451	1619
757.561	1450
757.671	1599
757.781	436
757.891	2402
758.001	1474
758.111	2074
758.221	2416
758.331	2907
758.441	2675
758.551	4947
758.661	3267
758.771	2150
758.880	2077
758.990	1549
759.100	2043
759.210	1508
759.320	1969
759.429	2202
759.539	1982
759.649	1921
759.758	2751
759.868	2679
759.978	2166
760.087	2671
760.197	2642
760.307	2200
760.416	2172
760.526	1894
760.635	2819
760.745	2197
760.854	2368
760.964	3305
761.073	2195
761.182	2719
761.292	3039
761.401	2472
761.511	1518
761.620	2109
761.729	2083
761.839	2055
761.948	1873
762.057	2034
762.166	2304
762.276	1483
762.385	2556
762.494	1712
762.603	1246
762.712	1996
762.822	1598
762.931	1794
763.040	978
763.149	1489
763.258	1905
763.367	1640
763.476	875
763.585	2267
763.694	2331
763.803	2393
763.912	1734
764.021	1886
764.130	2282
764.238	2343
764.347	1685
764.456	1339
764.565	1802
764.674	2344
764.783	1179
764.891	2274
765.000	2474
765.109	3526
765.217	2871
765.326	4146
765.435	3727
765.543	4117
765.652	4310
765.761	5478
765.869	9035
765.978	13996
766.086	26538
766.195	56110
766.303	167470
766.412	474671
766.520	324456
766.629	59371
766.737	21916
766.846	13523
766.954	8952
767.062	8515
767.171	7739
767.279	5864
767.387	3741
767.496	2905
767.604	3390
767.712	2610
767.820	2198
767.928	3070
768.037	2471
768.145	2555
768.253	3167
768.361	2390
768.469	1369
768.577	2533
768.685	2607
768.793	2967
768.901	2377
769.009	3565
769.117	2518
769.225	4277
769.333	6446
769.441	10745
769.549	22625
769.657	56790
769.765	207591
769.873	374054
769.981	86109
770.088	16445
770.196	8738
770.304	7464
770.412	4814
770.519	3499
770.627	3714
770.735	3247
770.842	2309
770.950	3302
771.058	1966
771.165	3134
771.273	1871
771.380	2516
771.488	2592
771.595	2336
771.703	1738
771.810	2219
771.918	1847
772.025	3156
772.133	2191
772.240	2033
772.348	3898
772.455	2544
772.562	1343
772.670	2167
772.777	2286
772.884	2481
772.991	1765
773.099	2483
773.206	1477
773.313	2604
773.420	1882
773.528	1375
773.635	2310
773.742	2344
773.849	2069
773.956	1883
774.063	1939
774.170	1369
774.277	2514
774.384	1550
774.491	1797
774.598	2262
774.705	2933
774.812	3365
774.919	1745
775.026	2727
775.133	1653
775.239	2912
775.346	1585
775.453	2283
775.560	1161
775.667	1505
775.773	198
775.880	3184
775.987	1551
776.093	1738
776.200	1455
776.307	1261
776.413	2532
776.520	2350
776.627	1600
776.733	1935
776.840	121
776.946	3226
777.053	1838
777.159	2808
777.266	568
777.372	2624
777.478	1823
777.585	2097
777.691	1293
777.798	2582
777.904	3182
778.010	4916
778.117	3196
778.223	1589
778.329	1447
778.435	2818
778.542	1690
778.648	2000
778.754	1423
778.860	2409
778.966	1386
779.072	1629
779.178	1608
779.284	614
779.391	936
779.497	485
779.603	2463
779.708	6
779.815	3340
779.920	5079
780.026	5652
780.132	1707
780.238	1282
780.344	1999
780.450	1745
780.556	1927
780.661	1570
780.767	1590
780.873	1164
780.979	2979
781.085	568
781.190	1311
781.296	733
781.402	824
781.507	1206
781.613	1028
781.719	532
781.824	887
781.930	1746
782.035	1774
782.141	1254
782.246	1324
782.352	1341
782.457	2641
782.563	1420
782.668	807
782.773	987
782.879	1441
782.984	1602
783.090	2709
783.195	3936
783.300	3237
783.405	1671
783.511	1665
783.616	2125
783.721	2132
783.826	1836
783.932	2743
784.037	1323
784.142	1553
784.247	321
784.352	2176
784.457	498
784.562	2184
784.667	1454
784.772	953
784.877	1239
784.982	2250
785.087	733
785.192	1589
785.297	426
785.402	1958
785.507	1116
785.611	1785
785.716	1407
785.821	983
785.926	813
786.031	995
786.135	1864
786.240	1404
786.345	-848
786.450	2387
786.554	575
786.659	583
786.763	-134
786.868	1231
786.973	1563
787.077	1211
787.182	852
787.286	1116
787.391	923
787.495	-42
787.600	1153
787.704	911
787.809	608
787.913	851
788.017	928
788.122	1407
788.226	635
788.330	368
788.435	582
788.539	981
788.643	-404
788.747	571
788.852	550
788.956	207
789.060	1220
789.164	660
789.268	537
789.372	571
789.476	600
789.580	387
789.684	285
789.788	1618
789.892	84
789.996	1410
790.100	-345
790.204	-154
790.308	844
790.412	721
790.516	1279
790.620	12
790.724	102
790.828	70
790.931	67
791.035	1683
791.139	40
791.242	-213
791.346	700
791.450	508
791.554	445
791.657	41
791.761	1881
791.864	1014
791.968	1175
792.072	1058
792.175	718
792.279	1155
792.382	918
792.486	892
792.589	-7
792.693	874
792.796	-692
792.899	1582
793.003	1054
793.106	-671
793.209	210
793.313	1695
793.416	-463
793.519	2384
793.623	2032
793.726	3820
793.829	727
793.932	637
794.035	-196
794.138	1483
794.242	1419
794.345	923
794.448	2201
794.551	3032
794.654	4155
794.757	3040
794.860	859
794.963	1414
795.066	-365
795.169	1263
795.272	-665
795.375	1443
795.477	193
795.580	955
795.683	-875
795.786	176
795.889	-298
795.991	1127
796.094	1168
796.197	-137
796.300	1471
796.402	244
796.505	-571
796.608	483
796.710	1089
796.813	53
796.915	177
797.018	873
797.120	476
797.223	-477
797.326	1172
797.428	370
797.530	480
797.633	402
797.735	1421
797.838	1336
797.940	1369
798.042	55
798.145	172
798.247	942
798.349	-1535
798.452	1187
798.554	129
798.656	-326
798.758	1213
798.860	634
798.962	-508
799.065	-50
799.167	-621
799.269	1652
799.371	1608
799.473	1244
799.575	-40
799.677	770
799.779	3464
799.881	1904
799.983	1288
800.085	428
800.187	578
800.289	-20
800.390	-187
800.492	91
800.594	1271
800.696	397
800.798	-508
800.899	55
801.001	59
801.103	117
801.205	193
801.306	653
801.408	-1080
801.509	654
801.611	1511
801.713	1821
801.814	-303
801.916	688
802.017	1085
802.119	-558
802.220	187
802.322	-1748
802.423	2307
802.525	-752
802.626	866
802.727	459
802.829	584
802.930	-1640
803.031	1810
803.133	244
803.234	-19
803.335	133
803.436	-981
803.538	186
803.639	-552
803.740	573
803.841	-851
803.942	203
804.043	798
804.144	187
804.245	303
804.346	35
804.447	-406
804.548	1727
804.649	2854
804.750	209
804.851	-895
804.952	-520
805.053	-177
805.154	-108
805.255	956
805.355	920
805.456	-654
805.557	-19
805.658	-1256
805.758	583
805.859	304
805.960	256
806.061	-670
806.161	325
806.262	-236
806.362	868
806.463	405
806.564	1063
806.664	366
806.765	104
806.865	608
806.966	461
807.066	-657
807.166	754
807.267	883
807.367	-605
807.468	457
807.568	-765
807.668	183
807.769	1117
807.869	231
807.969	951
808.069	436
808.170	1250
808.270	-726
808.370	1351
808.470	1359
808.570	852
808.670	-181
808.770	247
808.870	-963
808.970	221
809.070	-464
809.170	65
809.271	582
809.370	-6
809.470	-481
809.570	-450
809.670	202
809.770	-638
809.870	121
809.970	20
810.070	249
810.169	632
810.269	-1020
810.369	429
810.469	326
810.568	285
810.668	-368
810.768	-284
810.867	-171
810.967	424
811.066	150
811.166	-338
811.265	1346
811.365	426
811.464	-1126
811.564	-114
811.663	327
811.763	-1078
811.862	15
811.962	589
812.061	-364
812.160	-54
812.260	-602
812.359	159
812.458	-801
812.557	1376
812.657	417
812.756	475
812.855	-562
812.954	-110
813.053	531
813.153	-48
813.252	-1365
813.351	245
813.450	-123
813.549	-428
813.648	1089
813.747	-418
813.846	676
813.945	-550
814.044	324
814.143	418
814.242	815
814.341	-763
814.439	-276
814.538	809
814.637	328
814.736	-112
814.835	779
814.933	-790
815.032	295
815.131	-279
815.229	423
815.328	1372
815.427	-586
815.525	582
815.624	458
815.722	581
815.821	701
815.919	1235
816.018	-99
816.116	1461
816.215	367
816.313	1668
816.412	1058
816.510	1795
816.609	1805
816.707	1374
816.805	826
816.904	926
817.002	1813
817.100	2678
817.198	1928
817.296	1728
817.395	1448
817.493	2325
817.591	1550
817.689	5139
817.787	5045
817.885	10437
817.983	20722
818.081	50187
818.179	128273
818.277	319824
818.375	195757
818.473	37579
818.571	14726
818.669	10356
818.767	9542
818.865	10684
818.963	12860
819.061	21671
819.158	41754
819.256	101254
819.354	254523
819.452	516373
819.549	238419
819.647	52345
819.745	20091
819.842	13439
819.940	8401
820.038	6343
820.135	5148
820.233	4498
820.330	2445
820.428	2126
820.525	3523
820.623	2460
820.720	1181
820.818	1637
820.915	1722
821.012	2464
821.110	447
821.207	1417
821.304	197
821.402	942
821.499	1067
821.596	2061
821.693	1348
821.791	2756
821.888	2351
821.985	6242
822.082	2821
822.179	2674
822.276	548
822.373	309
822.470	553
822.567	644
822.664	-662
822.761	1299
822.858	-686
822.955	588
823.052	1327
823.149	309
823.246	559
823.343	69
823.440	1202
823.536	-467
823.633	-475
823.730	-28
823.827	291
823.923	691
824.020	1411
824.117	-598
824.213	-454
824.310	339
824.407	-295
824.503	0
824.600	590
824.696	456
824.793	1186
824.889	42
824.986	485
825.082	54
825.179	547
825.275	-75
825.371	-22
825.468	906
825.564	-942
825.660	700
825.757	727
825.853	992
825.949	-849
826.045	866
826.142	-788
826.238	293
826.334	588
826.430	42
826.526	408
826.622	-472
826.718	252
826.814	329
826.910	673
827.006	-948
827.102	-1130
827.198	1796
827.294	-458
827.390	-100
827.486	639
827.582	-495
827.678	-1046
827.774	782
827.869	-458
827.965	724
828.061	-450
828.157	755
828.252	541
828.348	-192
828.444	933
828.539	-464
828.635	-626
828.731	930
828.826	-705
828.922	-119
829.017	94
829.113	-80
829.208	-394
829.304	-173
829.399	635
829.495	-292
829.590	322
829.685	-301
829.781	5
829.876	-433
829.971	50
830.066	-970
830.162	-241
830.257	-485
830.352	-528
830.447	902
830.543	-937
830.638	-797
830.733	659
830.828	-517
830.923	298
831.018	-617
831.113	-323
831.208	-877
831.303	-522
831.398	-71
831.493	-364
831.588	18
831.683	-1720
831.778	356
831.873	-716
831.967	1121
832.062	-340
832.157	-1299
832.252	459
832.346	-259
832.441	1177
832.536	1369
832.631	5267
832.725	3409
832.820	-118
832.914	220
833.009	-744
833.104	628
833.198	985
833.293	-627
833.387	62
833.482	-414
833.576	-1616
833.670	524
833.765	-464
833.859	-376
833.954	819
834.048	437
834.142	139
834.237	-619
834.331	-5
834.425	-111
834.519	-457
834.613	604
834.708	-883
834.802	-56
834.896	-1224
834.990	-687
835.084	-84
835.178	-204
835.272	-1222
835.366	-981
835.460	-105
835.554	-699
835.648	-176
835.742	-686
835.836	-11
835.930	-678
836.024	64
836.117	1081
836.211	-850
836.305	104
836.399	437
836.493	-1016
836.586	501
836.680	-255
836.774	-891
836.867	-329
836.961	-875
837.055	-994
837.148	-455
837.242	-424
837.335	-854
837.429	557
837.522	-742
837.616	-259
837.709	656
837.803	-623
837.896	-601
837.989	-1512
838.083	-629
838.176	-230
838.269	-1019
838.363	104
838.456	-865
838.549	680
838.642	2314
838.735	5572
838.829	1826
838.922	-128
839.015	-401
839.108	-561
839.201	-413
839.294	-251
839.387	217
839.480	-1390
839.573	-907
839.666	-717
839.759	-778
839.852	-1119
839.945	-503
840.038	-904
840.131	-219
840.223	265
840.316	728
840.409	-545
840.502	-1704
840.594	613
840.687	-1531
840.780	1213
840.873	-1029
840.965	-70
841.058	-546
841.150	151
841.243	-1038
841.336	-136
841.428	-1115
841.521	-613
841.613	-1139
841.706	-14
841.798	-239
841.890	-554
841.983	-709
842.075	514
842.167	187
842.260	-930
842.352	617
842.444	-482
842.537	-14
842.629	497
842.721	-661
842.813	-75
842.905	-1559
842.997	569
843.090	-802
843.182	26
843.274	227
843.366	3000
843.458	3625
843.550	2607
843.642	-1020
843.734	25
843.826	-673
843.918	523
844.009	10
844.101	-793
844.193	-764
844.285	-69
844.377	-346
844.469	-589
844.560	-875
844.652	186
844.744	-26
844.835	-339
844.927	-119
845.019	-780
845.110	-456
845.202	-51
845.293	-167
845.385	-882
845.476	-904
845.568	888
845.659	-693
845.751	-322
845.842	-893
845.934	-617
846.025	-706
846.116	16
846.208	-946
846.299	-393
846.390	-4
846.482	-213
846.573	47
846.664	-178
846.755	350
846.846	1542
846.937	-1340
847.029	-696
847.120	-1066
847.211	-1292
847.302	-12
847.393	-1420
847.484	-1168
847.575	-837
847.666	-972
847.757	0
847.847	-508
847.938	476
848.029	-1141
848.120	-369
848.211	-1250
848.302	-775
848.392	-855
848.483	23
848.574	-1907
848.664	-446
848.755	-1238
848.846	-517
848.936	-1437
849.027	158
849.118	-633
849.208	-904
849.299	173
849.389	1510
849.480	3577
849.570	7785
849.661	16307
849.751	26210
849.841	7186
849.932	278
850.022	-654
850.112	39
850.203	-821
850.293	-130
850.383	-1037
850.474	-1041
850.564	-1015
850.654	-253
850.744	-1546
850.834	-892
850.924	-1008
851.014	-72
851.104	-533
851.194	-371
851.284	98
851.374	1055
851.464	-374
851.554	-298
851.644	-612
851.734	-93
851.824	-772
851.914	-817
852.004	-1253
852.094	-743
852.183	-26
852.273	90
852.363	-227
852.452	214
852.542	-988
852.632	-924
852.721	-976
852.811	-801
852.901	-414
852.990	268
853.080	-614
853.169	347
853.259	-435
853.348	-88
853.438	716
853.527	1398
853.617	1312
853.706	5861
853.795	10715
853.885	28603
853.974	53425
854.063	106587
854.152	157934
854.242	45943
854.331	7261
854.420	2100
854.509	501
854.598	507
854.687	-61
854.777	771
854.866	159
854.955	234
855.044	-384
855.133	-271
855.222	-864
855.311	-960
855.400	-750
855.488	-261
855.577	-515
855.666	143
855.755	142
855.844	167
855.933	-31
856.021	-26
856.110	-110
856.199	-856
856.288	-881
856.376	-34
856.465	-545
856.554	-504
856.642	-1434
856.731	-574
856.819	-361
856.908	-401
856.996	-926
857.085	-1170
857.173	-289
857.262	-946
857.350	-768
857.438	-1289
857.527	-1410
857.615	-819
857.703	-102
857.792	-452
857.880	-1491
857.968	-530
858.056	-1362
858.145	-167
858.233	-508
858.321	-1130
858.409	-148
858.497	-1297
858.585	-897
858.673	-625
858.761	-752
858.849	-15
858.937	-1183
859.025	-731
859.113	-1021
859.201	-1008
859.289	-161
859.377	-1146
859.465	-1363
859.552	-1217
859.640	-1126
859.728	-1182
859.816	-625
859.903	-714
859.991	-753
860.079	-926
860.166	-1901
860.254	-254
860.342	-708
860.429	-495
860.517	-1396
860.604	-843
860.692	-876
860.779	-770
860.867	-205
860.954	13
861.042	-239
861.129	-39
861.216	-1167
861.304	-1603
861.391	-456
861.478	-666
861.565	-1527
861.653	-629
861.740	-1183
861.827	-924
861.914	-188
862.001	-747
862.089	-762
862.176	-995
862.263	-1553
862.350	-1098
862.437	-1195
862.524	-713
862.611	-1200
862.698	-1032
862.785	-1003
862.871	-473
862.958	-998
863.045	-1024
863.132	-1093
863.219	-800
863.306	-1346
863.392	-339
863.479	-1563
863.566	-457
863.652	-214
863.739	-1325
863.826	-1302
863.912	-138
863.999	-1527
864.086	-1239
864.172	-1101
864.259	-1678
864.345	-1751
864.432	-514
864.518	-297
864.604	-485
864.691	-1149
864.777	-101
864.863	-913
864.950	831
865.036	-815
865.122	352
865.209	1169
865.295	-66
865.381	-636
865.467	487
865.553	1254
865.639	2812
865.726	4016
865.812	12688
865.898	26151
865.984	39777
866.070	79866
866.156	76599
866.242	15539
866.328	2723
866.414	554
866.499	1104
866.585	344
866.671	150
866.757	-579
866.843	-292
866.928	-443
867.014	53
867.100	393
867.186	441
867.271	341
867.357	642
867.442	231
867.528	-260
867.614	-386
867.699	32
867.785	-834
867.870	-719
867.956	-949
868.041	282
868.127	309
868.212	319
868.297	-388
868.383	97
868.468	940
868.553	2576
868.639	2932
868.724	7074
868.809	4966
868.894	434
868.979	-502
869.065	-336
869.150	-739
869.235	-63
869.320	-473
869.405	-1027
869.490	-1111
869.575	-503
869.660	-1421
869.745	343
869.830	-1004
869.915	-638
870.000	-9
870.085	-78
870.169	-1023
870.254	-472
870.339	-360
870.424	-1444
870.509	-1086
870.593	-76
870.678	-649
870.763	-160
870.847	-521
870.932	-270
871.016	-764
871.101	-291
871.186	-1284
871.270	-1250
871.355	-1153
871.439	-346
871.523	-761
871.608	-1432
871.692	-782
871.777	-101
871.861	-703
871.945	-10
872.030	300
872.114	-985
872.198	-1103
872.282	-1059
872.367	-625
872.451	-86
872.535	-816
872.619	-452
872.703	-1024
872.787	-789
872.871	-309
872.955	-106
873.039	-1381
873.123	-328
873.207	-331
873.291	-884
873.375	-1162
873.459	-545
873.543	-1563
873.627	-1266
873.711	-156
873.794	364
873.878	-1260
873.962	-1350
874.045	-738
874.129	-31
874.137	-117
874.213	-980
874.245	-774
874.296	-441
874.352	-1368
874.380	-1827
874.460	-670
874.464	-623
874.547	-601
874.568	-607
874.631	-657
874.676	-615
874.714	-560
874.784	37
874.798	152
874.881	456
874.892	406
874.965	74
874.999	-116
875.048	-419
875.107	-188
875.131	-76
875.215	-488
875.215	-487
875.298	-556
875.323	-585
875.381	-650
875.430	-433
875.465	-291
875.538	-941
875.548	-1018
875.631	-1288
875.646	-1237
875.714	-1019
875.753	-619
875.798	-164
875.861	-573
875.881	-720
875.964	65
875.968	4
876.047	-959
876.076	-790
876.130	-560
876.183	-345
876.213	-204
876.291	411
876.296	456
876.379	-731
876.398	-765
876.462	-938
876.506	-965
876.545	-992
876.613	-268
876.628	-103
876.711	-229
876.721	-247
876.794	-306
876.828	-438
876.877	-674
876.935	-355
876.960	-242
877.043	-415
877.043	-413
877.125	187
877.150	438
877.208	957
877.258	703
877.291	597
877.365	958
877.374	971
877.456	687
877.472	584
877.539	342
877.579	583
877.622	709
877.687	153
877.704	56
877.787	347
877.794	355
877.869	358
877.901	474
877.952	663
878.008	323
878.034	141
878.115	-801
878.117	-813
878.199	-87
878.222	190
878.282	552
878.329	400
878.364	468
878.437	489
878.447	453
878.529	-414
878.544	-470
878.611	-589
878.651	-503
878.694	-343
878.758	-31
878.776	52
878.858	17
878.865	36
878.941	-222
878.972	-362
879.023	-171
879.078	-254
879.105	-407
879.185	-333
879.187	-327
879.269	-103
879.292	-228
879.351	-626
879.399	-555
879.433	-472
879.506	-446
879.516	-452
879.598	-445
879.613	-517
879.680	-584
879.720	-482
879.762	-514
879.827	-683
879.844	-672
879.926	-244
879.933	-189
880.007	-60
880.040	-204
880.089	-181
880.147	317
880.171	548
880.253	1030
880.254	1031
880.335	1002
880.360	1059
880.417	1700
880.467	2761
880.499	3401
880.574	3796
880.580	3757
880.662	1058
880.680	869
880.744	496
880.787	138
880.825	-122
880.893	-152
880.907	-188
880.989	-428
881.000	-520
881.070	-730
881.106	-532
881.152	-192
881.213	111
881.233	13
881.315	-391
881.319	-426
881.396	-384
881.426	-373
881.478	-390
881.532	-108
881.559	109
881.639	-188
881.641	-210
881.722	-59
881.745	-367
881.803	-462
881.852	76
881.885	179
881.958	-313
881.966	-358
882.047	-130
882.064	-162
882.129	-52
882.171	228
882.210	703
882.277	1455
882.291	1410
882.372	-64
882.383	-225
882.454	-366
882.489	-87
882.535	-137
882.596	-333
882.616	-299
882.697	-471
882.702	-448
882.778	144
882.808	123
882.859	-35
882.914	37
882.940	-14
883.020	-145
883.021	-142
883.102	-322
883.127	-266
883.183	251
883.233	317
883.264	18
883.339	-205
883.345	-164
883.426	-96
883.445	46
883.507	420
883.551	385
883.587	220
883.657	154
883.668	220
883.749	283
883.763	381
883.830	76
883.869	-59
883.910	251
883.975	410
883.991	373
884.072	38
884.081	22
884.152	395
884.187	498
884.233	232
884.292	66
884.314	148
884.394	286
884.398	282
884.475	-257
884.504	-328
884.555	198
884.610	627
884.636	665
884.716	739
884.716	743
884.797	711
884.821	429
884.877	20
884.927	192
884.958	209
885.033	-428
885.038	-424
885.118	136
885.139	233
885.199	167
885.244	60
885.279	180
885.350	483
885.359	498
885.439	361
885.456	382
885.520	136
885.561	-43
885.600	59
885.667	176
885.680	164
885.760	119
885.773	105
885.840	554
885.878	763
885.920	401
885.984	-130
886.000	41
886.080	731
886.089	816
886.160	267
886.195	-21
886.240	349
886.300	829
886.320	716
886.400	367
886.406	334
886.480	-6
886.511	-151
886.560	148
886.616	321
886.640	339
886.720	639
886.722	638
886.800	-115
886.827	-318
886.879	141
886.932	349
886.959	400
887.038	839
887.039	844
887.119	619
887.143	489
887.198	354
887.248	235
887.278	380
887.354	609
887.358	598
887.437	373
887.459	351
887.517	1170
887.564	1561
887.596	1045
887.669	139
887.676	157
887.755	292
887.774	291
887.835	188
887.880	180
887.914	136
887.985	-15
887.994	41
888.073	486
888.090	567
888.153	618
888.195	663
888.232	450
888.300	98
888.311	235
888.391	1103
888.405	1257
888.470	946
888.510	746
888.549	803
888.615	861
888.628	717
888.708	-93
888.720	-236
888.787	-182
888.825	-210
888.866	-277
888.930	-215
888.945	12
889.024	1075
889.035	1215
889.103	624
889.140	305
889.182	376
889.245	461
889.261	410
889.340	137
889.349	110
889.419	987
889.454	1396
889.498	1037
889.559	558
889.577	612
889.656	829
889.664	849
889.735	496
889.768	322
889.814	659
889.873	1103
889.978	462
890.083	1557
890.187	634
890.292	1002
890.397	339
890.501	951
890.606	790
890.710	518
890.815	174
890.919	875
891.024	725
891.128	977
891.233	1009
891.337	949
891.442	740
891.546	980
891.650	1243
891.755	761
891.859	1308
891.963	1732
892.068	1007
892.172	921
892.276	183
892.380	1384
892.484	1021
892.589	1051
892.693	732
892.797	772
892.901	934
893.005	672
893.109	1319
893.213	1438
893.317	1075
893.421	834
893.525	352
893.629	619
893.733	881
893.837	336
893.941	678
894.045	1694
894.148	304
894.252	1188
894.356	874
894.460	698
894.564	585
894.667	1314
894.771	262
894.875	-143
894.978	670
895.082	-28
895.186	669
895.289	1843
895.393	475
895.496	1233
895.600	539
895.703	598
895.807	292
895.910	647
896.014	993
896.117	245
896.221	255
896.324	858
896.427	810
896.531	369
896.634	472
896.737	1099
896.840	851
896.944	75
897.047	814
897.150	667
897.253	444
897.356	683
897.460	92
897.563	540
897.666	235
897.769	1171
897.872	836
897.975	526
898.078	959
898.181	655
898.284	115
898.387	1178
898.490	542
898.593	1038
898.695	-295
898.798	681
898.901	756
899.004	604
899.107	756
899.209	448
899.312	801
899.415	1067
899.518	521
899.620	1172
899.723	895
899.826	877
899.928	1286
900.031	128
900.133	252
900.236	632
900.338	192
900.441	150
900.543	-307
900.646	782
900.748	103
900.851	740
900.953	621
901.055	1008
901.158	120
901.260	1102
901.362	529
901.465	95
901.567	103
901.669	1070
901.771	819
901.873	1100
901.976	90
902.078	1087
902.180	712
902.282	306
902.384	-241
902.486	709
902.588	336
902.690	41
902.792	313
902.894	1397
902.996	497
903.098	206
903.200	-5
903.302	182
903.404	-66
903.505	-20
903.607	1041
903.709	984
903.811	779
903.913	452
904.014	380
904.116	1072
904.218	202
904.319	407
904.421	648
904.523	871
904.624	902
904.726	426
904.827	318
904.929	785
905.030	406
905.132	642
905.233	-352
905.335	-154
905.436	-538
905.537	952
905.639	284
905.740	394
905.841	-389
905.943	1155
906.044	-253
906.145	724
906.247	416
906.348	538
906.449	434
906.550	-78
906.651	930
906.752	1564
906.854	641
906.955	297
907.056	293
907.157	844
907.258	-454
907.359	7
907.460	-1
907.561	677
907.662	-660
907.762	571
907.863	-32
907.964	23
908.065	325
908.166	-90
908.267	505
908.367	418
908.468	-385
908.569	584
908.670	714
908.770	651
908.871	-2
908.971	807
909.072	-315
909.173	270
909.273	-205
909.374	378
909.474	-223
909.575	773
909.675	477
909.776	1364
909.876	719
909.977	453
910.077	-255
910.177	738
910.278	32
910.378	533
910.478	384
910.579	260
910.679	581
910.779	484
910.879	192
910.980	1027
911.080	330
911.180	-174
911.280	-94
911.380	203
911.480	282
911.580	318
911.680	37
911.780	1071
911.880	351
911.980	354
912.080	-506
912.180	221
912.280	581
912.380	-504
912.480	195
912.580	299
912.679	-568
912.779	561
912.879	502
912.979	291
913.078	-70
913.178	381
913.278	-306
913.377	587
913.477	-87
913.577	908
913.676	308
913.776	379
913.875	336
913.975	156
914.074	625
914.174	596
914.273	-119
914.373	1375
914.472	737
914.572	-435
914.671	802
914.770	595
914.870	-412
914.969	-715
915.068	99
915.167	664
915.267	-867
915.366	248
915.465	-19
915.564	940
915.663	-338
915.763	-411
915.862	37
915.961	-125
916.060	128
916.159	647
916.258	-284
916.357	199
916.456	-31
916.555	321
916.654	-557
916.752	175
916.851	409
916.950	109
917.049	-199
917.148	620
917.247	354
917.345	111
917.444	-716
917.543	268
917.642	505
917.740	-380
917.839	50
917.937	777
918.036	-643
918.135	518
918.233	67
918.332	-209
918.430	-1213
918.529	-64
918.627	-110
918.726	388
918.824	382
918.923	319
919.021	-88
919.119	267
919.218	-288
919.316	-276
919.414	333
919.512	39
919.611	-364
919.709	233
919.807	-370
919.905	231
920.003	-404
920.102	483
920.200	-35
920.298	159
920.396	-398
920.494	-107
920.592	127
920.690	122
920.788	-497
920.886	-52
920.984	-344
921.082	284
921.180	292
921.277	656
921.375	145
921.473	253
921.571	-440
921.669	-66
921.766	80
921.864	301
921.962	693
922.060	496
922.157	783
922.255	380
922.352	-866
922.450	930
922.548	-471
922.645	755
922.743	-562
922.840	109
922.938	1014
923.035	820
923.133	498
923.230	262
923.327	686
923.425	1197
923.522	1021
923.619	560
923.717	294
923.814	362
923.911	889
924.008	1150
924.106	309
924.203	865
924.300	968
924.397	1116
924.494	230
924.591	1098
924.688	529
924.786	548
924.883	442
924.979	99
925.077	147
925.173	513
925.270	271
925.367	623
925.464	760
925.561	120
925.658	851
925.755	1125
925.852	399
925.948	1232
926.045	247
926.142	339
926.239	825
926.335	525
926.432	370
926.529	394
926.625	263
926.722	679
926.818	809
926.915	889
927.011	-998
927.108	645
927.204	-799
927.301	706
927.397	-172
927.494	1665
927.590	507
927.687	-440
927.783	-166
927.879	120
927.976	113
928.072	660
928.168	-562
928.264	-55
928.361	-313
928.457	87
928.553	-349
928.649	410
928.745	264
928.841	814
928.937	809
929.033	961
929.129	-109
929.225	863
929.321	-778
929.417	143
929.513	243
929.609	305
929.705	-543
929.801	125
929.897	-879
929.993	398
930.089	541
930.184	471
930.280	148
930.376	-81
930.471	-59
930.567	388
930.663	-354
930.758	276
930.854	107
930.950	-186
931.045	-79
931.141	1178
931.236	233
931.332	5
931.427	345
931.523	681
931.618	370
931.714	-664
931.809	400
931.905	683
932.000	-930
932.095	1318
932.191	2
932.286	493
932.381	-802
932.476	-67
932.572	44
932.667	429
932.762	-771
932.857	576
932.952	-607
933.047	-217
933.142	-477
933.237	174
933.332	-461
933.427	63
933.522	-241
933.617	69
933.712	147
933.807	-388
933.902	329
933.997	504
934.092	-1414
934.187	-547
934.282	-885
934.376	196
934.471	-426
934.566	-332
934.661	-401
934.755	-588
934.850	128
934.945	881
935.039	-1136
935.134	383
935.228	-465
935.323	490
935.417	-122
935.512	-779
935.606	-177
935.701	375
935.795	-744
935.890	-392
935.984	120
936.079	512
936.173	-338
936.267	-121
936.362	-813
936.456	-105
936.550	157
936.644	-242
936.738	-681
936.833	-63
936.927	-588
937.021	187
937.115	-68
937.209	28
937.303	240
937.397	167
937.491	331
937.585	-7
937.679	-1275
937.773	682
937.867	-337
937.961	-460
938.055	-413
938.149	643
938.243	-366
938.337	-192
938.430	-219
938.524	-144
938.618	-686
938.712	-168
938.805	-1492
938.899	-1091
938.993	-84
939.086	253
939.180	-863
939.274	-759
939.367	-647
939.461	2
939.554	-1403
939.648	392
939.741	-788
939.835	220
939.928	-480
940.022	-82
940.115	-1055
940.208	539
940.302	162
940.395	-64
940.488	-916
940.582	833
940.675	-1074
940.768	30
940.861	-232
940.954	120
941.048	-856
941.141	-258
941.234	-666
941.327	-406
941.420	208
941.513	368
941.606	-862
941.699	-104
941.792	-612
941.885	-454
941.978	40
942.071	-15
942.164	-1469
942.257	-24
942.349	-286
942.442	-626
942.535	-1073
942.628	254
942.721	-616
942.813	-1585
942.906	609
942.999	-611
943.091	-976
943.184	-1117
943.277	-1558
943.369	-77
943.462	-1424
943.554	-267
943.647	-498
943.739	757
943.832	-342
943.924	-781
944.017	-506
944.109	-652
944.201	-705
944.294	-1063
944.386	-249
944.478	-422
944.571	-597
944.663	-225
944.755	-356
944.847	-61
944.940	-393
945.032	-1492
945.124	-371
945.216	147
945.308	-1431
945.400	-812
945.492	-335
945.584	-334
945.676	-1301
945.768	644
945.860	-91
945.952	-760
946.044	-1049
946.136	-557
946.228	-914
946.320	-724
946.412	-643
946.503	-384
946.595	-298
946.687	-1209
946.779	-1666
946.870	-831
946.962	-902
947.054	-223
947.145	-1006
947.237	-1141
947.329	-615
947.420	-254
947.512	-290
947.603	24
947.695	-403
947.786	-708
947.878	-1337
947.969	222
948.061	-819
948.152	-829
948.243	-1212
948.335	136
948.426	-1146
948.517	-245
948.609	-238
948.700	53
948.791	-1022
948.882	346
948.973	-925
949.065	-854
949.156	-431
949.247	-968
949.338	-1106
949.429	-1187
949.520	-1383
949.611	-926
949.702	-1813
949.793	-381
949.884	-529
949.975	104
950.066	-999
950.157	-637
950.247	-918
950.338	-406
950.429	-1259
950.520	-396
950.611	-740
950.701	-50
950.792	-1041
950.883	17
950.973	50
951.064	-57
951.155	-1041
951.245	34
951.336	-404
951.427	31
951.517	-297
951.608	-49
951.698	-572
951.788	41
951.879	-571
951.969	-886
952.060	-1182
952.150	813
952.240	-422
952.331	-828
952.421	124
952.511	-713
952.602	-156
952.692	256
952.782	-729
952.872	-50
952.962	-1158
953.052	-313
953.143	-1486
953.233	-185
953.323	-747
953.413	-835
953.503	-803
953.593	-100
953.683	-961
953.773	-927
953.863	-708
953.953	-557
954.042	-1093
954.132	-357
954.222	330
954.312	-107
954.402	-705
954.492	-4
954.581	-976
954.671	-1207
954.761	-1920
954.850	683
954.940	-950
955.030	-543
955.119	-1358
955.209	-934
955.298	-1530
955.388	-712
955.477	456
955.567	-1294
955.656	10
955.746	897
955.835	-210
955.925	-1089
956.014	-786
956.103	-698
956.193	-457
956.282	-267
956.371	-844
956.461	-1013
956.550	-131
956.639	-491
956.728	-1258
956.817	242
956.906	-893
956.995	-376
957.085	-1099
957.174	-199
957.263	-927
957.352	-647
957.441	-870
957.530	-219
957.619	-718
957.708	-768
957.796	-326
957.885	-754
957.974	-1269
958.063	189
958.152	-1482
958.241	-400
958.329	-162
958.418	-1065
958.507	-1550
958.596	82
958.684	-1461
958.773	-216
958.861	-1216
958.950	41
959.039	-945
959.127	-773
959.216	-261
959.304	-703
959.393	-1249
959.481	-303
959.570	-763
959.658	-569
959.746	-1115
959.835	-781
959.923	-1301
960.011	-870
960.100	-366
960.188	594
960.276	-357
960.365	38
960.453	-962
960.541	-1333
960.629	-164
960.717	-109
960.805	-1854
960.893	-147
960.981	-1325
961.069	484
961.158	-772
961.245	261
961.333	-1354
961.421	-263
961.509	-588
961.597	-687
961.685	-1376
961.773	-491
961.861	-1846
961.949	-250
962.036	-1323
962.124	142
962.212	-841
962.299	-883
962.387	-486
962.475	-1219
962.562	-1506
962.650	18
962.738	-629
962.825	-940
962.913	-886
963.000	-571
963.088	-505
963.175	-41
963.263	52
963.350	-1472
963.438	-995
963.525	-1190
963.612	-721
963.700	-178
963.787	381
963.874	-199
963.962	68
964.049	-391
964.136	-275
964.223	-827
964.310	-68
964.398	-851
964.485	-1375
964.572	-321
964.659	-730
964.746	349
964.833	-1270
964.920	-995
965.007	-99
965.094	-854
965.181	-1335
965.268	134
965.355	-310
965.441	-325
965.528	-1927
965.615	-812
965.702	-989
965.789	-1161
965.875	-982
965.962	-935
966.049	-1160
966.136	-524
966.222	-1585
966.309	-491
966.395	-1532
966.482	176
966.569	-1489
966.655	-413
966.742	-1717
966.828	-654
966.915	-992
967.001	-779
967.087	-2154
967.174	-960
967.260	-382
967.347	-697
967.433	-1589
967.519	29
967.605	-1322
967.692	-1265
967.778	-1460
967.864	-1471
967.950	-609
968.036	-1485
968.123	-576
968.209	-244
968.295	-2462
968.381	-110
968.467	-944
968.553	-1166
968.639	309
968.725	-268
968.811	-713
968.897	-441
968.983	-1524
969.069	-1403
969.154	-289
969.240	-6
969.326	-1341
969.412	-1182
969.497	-1471
969.583	-755
969.669	-593
969.755	-1322
969.840	-1792
969.926	-846
970.012	-1501
970.097	-118
970.183	-2261
970.268	-1335
970.354	-1008
970.439	-1725
970.525	-255
970.610	-1103
970.696	-547
970.781	-489
970.866	-1340
970.952	-305
971.037	-1776
971.122	-761
971.208	-870
971.293	-1136
971.378	-1489
971.463	-895
971.549	-1387
971.634	-760
971.719	-1217
971.804	-1258
971.889	-529
971.974	-1499
972.059	-1857
972.144	-1421
972.229	-1184
972.314	-1317
972.399	-988
972.484	-524
972.569	-1376
972.654	-973
972.739	-435
972.824	-1319
972.908	-1169
972.993	-636
973.078	-1617
973.163	-1569
973.247	-992
973.332	-1312
973.417	-733
973.501	-2572
973.586	-1610
973.671	-822
973.755	-1553
973.840	-171
973.924	-917
974.009	-1505
974.093	-2141
974.178	395
974.262	-961
974.346	-1569
974.431	-1809
974.515	132
974.600	-1607
974.684	-958
974.768	-1650
974.852	-472
974.937	-1648
975.021	-387
975.105	-1774
975.189	-738
975.273	-948
975.358	-2001
975.442	-1136
975.526	60
975.610	-2189
975.694	-2162
975.778	-559
975.862	-859
975.946	-2950
976.030	771
976.114	-1618
976.198	-1291
976.281	-1812
976.365	-1504
976.449	-1790
976.533	-832
976.617	-1724
976.700	-1398
976.784	-982
976.868	-2056
976.951	-1532
977.035	-1405
977.119	-1681
977.202	-1592
977.286	-1318
977.369	-739
977.453	-884
977.536	-1339
977.620	-2371
977.703	-819
977.787	-1304
977.870	-771
977.953	-235
978.037	-1612
978.120	-843
978.203	-1205
978.287	-1623
978.370	-1543
978.453	-2020
978.536	-2945
978.620	-922
978.703	-1471
978.786	-1780
978.869	-1640
978.952	-1931
979.035	191
979.118	-1073
979.201	-1383
979.284	-916
979.367	-2192
979.450	-788
979.533	-1966
979.616	-1717
979.699	-1255
979.782	-986
979.865	-1181
979.948	-2164
980.030	-1583
980.113	-1231
980.196	-1567
980.279	-1207
980.361	-1565
980.444	-2271
980.526	-1588
980.609	-1689
980.692	-1575
980.774	-1480
980.857	-2506
980.939	-1073
981.022	-1333
981.104	-1377
981.187	-2106
981.269	-1515
981.352	-1359
981.434	-1443
981.516	-2140
981.599	-1052
981.681	-1905
981.763	-1673
981.846	-1550
981.928	-2004
982.010	-1588
982.092	-2814
982.174	-535
982.256	-2042
982.339	-1986
982.421	-1496
982.503	-627
982.585	-2508
982.667	-670
982.749	-2388
982.831	-1102
982.913	-2321
982.995	-618
983.077	-2364
983.158	-1725
983.240	-2645
983.322	-1962
983.404	-1565
983.486	-2005
983.568	-1037
983.649	-1497
983.731	-1603
983.813	-1194
983.894	-1614
983.976	-2244
984.058	-2968
984.139	-741
984.221	-2671
984.302	-1070
984.384	-1590
984.465	-2237
984.547	-1355
984.628	-2263
984.710	-1007
984.791	-1811
984.872	-902
984.954	-2055
985.035	-2069
985.116	-2239
985.198	-2820
985.279	-429
985.360	-1577
985.441	-1747
985.522	-1242
985.604	-2714
985.685	-3065
985.766	-450
985.847	-724
985.928	-2110
986.009	-2043
986.090	-1143
986.171	-1519
986.252	-1675
986.333	-1731
986.414	-1650
986.495	-1698
986.576	-1601
986.656	-1513
986.737	-969
986.818	-2138
986.899	-1460
986.980	-2349
987.060	-1213
987.141	-2544
987.222	-692
987.302	-1985
987.383	-1098
987.464	-2510
987.544	-1497
987.625	-2144
987.705	-1784
987.786	-1439
987.866	-1204
987.947	-2011
988.027	-2077
988.108	-2362
988.188	-1842
988.268	-1633
988.349	-1097
988.429	-2341
988.509	-1516
988.589	-2179
988.670	-2978
988.750	-650
988.830	-1728
988.910	-1530
988.990	-1180
989.070	-2304
989.151	-1743
989.231	-3062
989.311	-1863
989.391	-1968
989.471	-1015
989.551	-1678
989.631	-2131
989.711	-1591
989.791	-2059
989.870	-2634
989.950	-938
990.030	-2158
990.110	-972
990.190	-2397
990.269	-2110
990.349	-2040
990.429	-2400
990.509	-2268
990.588	-3102
990.668	-1322
990.747	-1785
990.827	-1982
990.907	-1198
990.986	-2748
991.066	-1624
991.145	-2767
991.225	-1446
991.304	-1955
991.383	-1976
991.463	-2488
991.542	-1924
991.622	-2279
991.701	-2292
991.780	-2503
991.859	-1849
991.939	-1701
992.018	-1603
992.097	-2550
992.176	-1198
992.256	-1384
992.335	-3021
992.414	-1560
992.493	-2242
992.572	-2378
992.651	-561
992.730	-2147
992.809	-573
992.888	-3177
992.967	-2017
993.046	-2209
993.125	-2526
993.203	-1994
993.282	-1994
993.361	-2743
993.440	-1647
993.519	-3253
993.597	-1243
993.676	-2417
993.755	-1025
993.834	-1203
993.912	-2508
993.991	-935
994.069	-1686
994.148	-2498
994.226	-2045
994.305	-1983
994.384	-1552
994.462	-1259
994.540	-2304
994.619	-2648
994.697	-1685
994.776	-2830
994.854	-2080
994.932	-1957
995.011	-1578
995.089	-1967
995.167	-2594
995.245	-2345
995.324	-1817
995.402	-2024
995.480	-2295
995.558	-2212
995.636	-2476
995.714	-2498
995.792	-1010
995.870	-2750
995.948	-2277
996.026	-2153
996.104	-2327
996.182	-2100
996.260	-2842
996.338	-2640
996.416	-2833
996.494	-2638
996.572	-1435
996.649	-2632
996.727	-2563
996.805	-2141
996.883	-2092
996.960	-2683
997.038	-1707
997.116	-2490
997.193	-2539
997.271	-2133
997.348	-2227
997.426	-1945
997.504	-2559
997.581	-1808
997.658	-1152
997.736	-2947
997.813	-2066
997.891	-2707
997.968	-3066
998.046	-2867
998.123	-2402
998.200	-2484
998.277	-2430
998.355	-2513
998.432	-3142
998.509	-1634
998.586	-1993
998.663	-2696
998.741	-1799
998.818	-2596
998.895	-2349
998.972	-1754
999.049	-2344
999.126	-3384
999.203	-2483
999.280	-2739
999.357	-2062
999.434	-2132
999.511	-2411
999.587	-2223
999.664	-2512
999.741	-2741
999.818	-1596
999.895	-2900
999.971	-2798
1000.048	-2537
1000.125	-1825
1000.202	-3300
1000.278	-1825
1000.355	-2846
1000.431	-2360
1000.508	-2587
1000.584	-2566
1000.661	-2283
1000.738	-2787
1000.814	-2433
1000.890	-1376
1000.967	-2793
1001.043	-2319
1001.120	-3991
1001.196	-2867
1001.272	-2503
1001.349	-1933
1001.425	-2254
1001.501	-2444
1001.577	-3410
1001.654	-2280
1001.730	-2317
1001.806	-2578
1001.882	-3550
1001.958	-1563
1002.034	-2449
1002.110	-1801
1002.186	-3184
1002.262	-3159
1002.338	-2979
1002.414	-1705
1002.490	-1227
1002.566	-2660
1002.642	-3072
1002.718	-1613
1002.794	-3301
1002.870	-2275
1002.945	-2578
1003.021	-2471
1003.097	-2963
1003.173	-1702
1003.248	-3465
1003.324	-1987
1003.400	-2117
1003.475	-2675
1003.551	-2286
1003.626	-2039
1003.702	-2521
1003.777	-2620
1003.853	-2769
1003.928	-2531
1004.004	-3006
1004.079	-2110
1004.155	-3102
1004.230	-3106
1004.305	-2135
1004.381	-3047
1004.456	-3005
1004.531	-2176
1004.607	-2185
1004.682	-2551
1004.757	-2380
1004.832	-2747
1004.907	-3532
1004.982	-1973
1005.057	-1937
1005.133	-1921
1005.208	-3595
1005.283	-2443
1005.358	-2240
1005.433	-3029
1005.508	-2360
1005.583	-3323
1005.657	-2934
1005.732	-1960
1005.807	-3291
1005.882	-2307
1005.957	-2675
1006.032	-2254
1006.106	-2759
1006.181	-2718
1006.256	-2610
1006.331	-3239
1006.405	-3252
1006.480	-2123
1006.554	-3311
1006.629	-2196
1006.704	-2522
1006.778	-2108
1006.853	-1846
1006.927	-3239
1007.002	-2245
1007.076	-1381
1007.150	-2805
1007.225	-2540
1007.299	-2321
1007.373	-2573
1007.448	-2138
1007.522	-1926
1007.596	-2169
1007.671	-1870
1007.745	-2386
1007.819	-2818
1007.893	-3156
1007.967	-1667
1008.041	-3540
1008.115	-1220
1008.190	-2618
1008.264	-1745
1008.338	-3731
1008.412	-2266
1008.486	-3042
1008.560	-2130
1008.633	-3039
1008.707	-1954
1008.781	-2934
1008.855	-2458
1008.929	-2040
1009.003	-2269
1009.076	-2310
1009.150	-3072
1009.224	-2962
1009.298	-2231
1009.371	-3730
1009.445	-2104
1009.519	-2852
1009.592	-2600
1009.666	-2524
1009.739	-2289
1009.813	-3813
1009.886	-1878
1009.960	-3195
1010.033	-2115
1010.107	-2329
1010.180	-2852
1010.253	-2139
1010.327	-2365
1010.400	-3068
1010.473	-2298
1010.547	-2168
1010.620	-1836
1010.693	-2614
1010.766	-3211
1010.840	-1655
1010.913	-2866
1010.986	-2906
1011.059	-2529
1011.132	-2787
1011.205	-2213
1011.278	-3448
1011.351	-2366
1011.424	-2381
1011.497	-2723
1011.570	-3522
1011.643	-2629
1011.716	-3353
1011.789	-2608
1011.862	-2522
1011.934	-2529
1012.007	-2790
1012.080	-2108
1012.153	-3173
1012.225	-1909
1012.298	-3204
1012.371	-2364
1012.443	-1909
1012.516	-2835
1012.588	-2145
1012.661	-1487
1012.733	-3267
1012.806	-1242
1012.879	-3117
1012.951	-2200
1013.023	-3012
1013.096	-2212
1013.168	-2872
1013.241	-1951
1013.313	-3464
1013.385	-2411
1013.458	-2707
1013.530	-3071
1013.602	-3164
1013.674	-1639
1013.746	-3862
1013.819	-2780
1013.891	-2148
1013.963	-2642
1014.035	-2510
1014.107	-2540
1014.179	-1913
1014.251	-2877
1014.323	-1890
1014.395	-2118
1014.467	-2900
1014.539	-1582
1014.611	-2992
1014.683	-2244
1014.754	-2250
1014.826	-3160
1014.898	-3030
1014.970	-3852
1015.042	-1952
1015.113	-1814
1015.185	-3783
1015.257	-2847
1015.328	-1487
1015.400	-2917
1015.471	-3265
1015.543	-2647
1015.615	-1862
1015.686	-2883
1015.757	-2351
1015.829	-2658
1015.901	-3002
1015.972	-1932
1016.043	-3057
1016.115	-3087
1016.186	-3042
1016.257	-3295
1016.328	-2320
1016.400	-1633
1016.471	-3542
1016.542	-2691
1016.613	-2926
1016.685	-1761
1016.756	-2435
1016.827	-2468
1016.898	-3115
1016.969	-1675
1017.040	-3088
1017.111	-2563
1017.182	-3153
1017.253	-2343
1017.324	-2400
1017.395	-2857
1017.466	-2289
1017.537	-3018
1017.608	-3233
1017.678	-2796
1017.749	-2782
1017.820	-1845
1017.891	-3443
1017.961	-2612
1018.032	-2475
1018.103	-1750
1018.173	-3197
1018.244	-2906
1018.315	-3366
1018.385	-1771
1018.456	-3206
1018.526	-2729
1018.597	-2822
1018.667	-2491
1018.738	-2872
1018.808	-1936
1018.878	-2309
1018.949	-1983
1019.019	-2442
1019.089	-1973
1019.160	-2098
1019.230	-2886
1019.300	-1858
1019.371	-2891
1019.441	-1377
1019.511	-2413
1019.581	-2430
1019.651	-2532
1019.721	-2717
1019.791	-2886
1019.861	-2296
1019.931	-2161
1020.001	-2304
1020.071	-3150
1020.141	-3833
1020.211	-2986
1020.281	-2173
1020.351	-3073
1020.421	-2290
1020.491	-2196
1020.560	-2978
1020.630	-3009
1020.700	-2629
1020.770	-2395
1020.839	-3019
1020.909	-2420
1020.979	-2827
1021.048	-2560
1021.118	-3169
1021.187	-3102
1021.257	-2406
1021.326	-1991
1021.396	-3202
1021.465	-2027
1021.535	-2006
1021.604	-3235
1021.674	-2886
1021.743	-2369
1021.812	-3137
1021.882	-2465
1021.951	-3244
1022.020	-2482
1022.089	-2899
1022.159	-2796
1022.228	-2993
1022.297	-2916
1022.366	-2688
1022.435	-2040
1022.504	-1936
1022.573	-2752
1022.642	-2983
1022.711	-2524
1022.781	-2368
1022.849	-2539
1022.918	-3266
1022.987	-2726
1023.056	-3125
1023.125	-2054
1023.194	-3289
1023.263	-1954
1023.331	-2236
1023.400	-3008
1023.469	-2599
1023.538	-2730
1023.606	-2770
1023.675	-2953
1023.744	-3087
1023.812	-2066
1023.881	-2708
1023.949	-2150
1024.018	-2978
1024.086	-3049
1024.155	-2369
1024.223	-3037
1024.292	-2332
1024.360	-2887
1024.429	-3134
1024.497	-3487
1024.565	-2220
1024.634	-2913
1024.702	-3677
1024.770	-2334
1024.838	-3200
1024.907	-2346
1024.975	-2603
1025.043	-2195
1025.111	-3256
1025.179	-2927
1025.247	-2801
1025.315	-2439
1025.383	-2761
1025.451	-2502
1025.519	-3390
1025.587	-3308
1025.655	-3225
1025.723	-2590
1025.791	-3307
1025.859	-2623
1025.927	-3071
1025.995	-3068
1026.062	-2751
1026.130	-2682
1026.198	-3230
1026.266	-2541
1026.333	-2545
1026.401	-2484
1026.469	-3247
1026.536	-2360
1026.604	-2966
1026.671	-3245
1026.739	-2994
1026.806	-2388
1026.874	-3170
1026.941	-2818
1027.009	-3255
1027.076	-2800
1027.144	-2569
1027.211	-3559
1027.278	-2823
1027.345	-2723
1027.413	-2165
1027.480	-2382
1027.547	-2996
1027.614	-3648
1027.682	-3196
1027.749	-3145
1027.816	-3391
1027.883	-2701
1027.950	-3114
1028.017	-2646
1028.084	-3360
1028.151	-3611
1028.218	-4010
1028.285	-1913
1028.352	-3057
1028.419	-2633
1028.486	-3565
1028.553	-3133
1028.619	-3359
1028.686	-2575
1028.753	-3561
1028.820	-2545
1028.886	-3080
1028.953	-2886
1029.020	-2979
1029.086	-2798
1029.153	-3410
1029.220	-3038
1029.286	-2745
1029.353	-2606
1029.419	-3299
1029.486	-2602
1029.552	-3123
1029.619	-3046
1029.685	-3846
1029.751	-3166
1029.818	-2484
1029.884	-3650
1029.951	-2384
1030.017	-3009
1030.083	-2880
1030.149	-2231
1030.216	-3510
1030.282	-2293
1030.348	-2885
1030.414	-2748
1030.480	-2778
1030.546	-2769
1030.612	-3216
1030.678	-2940
1030.744	-3151
1030.810	-3209
1030.876	-4043
1030.942	-3232
1031.008	-2819
1031.074	-3432
1031.140	-2998
1031.206	-2148
1031.272	-3740
1031.337	-2909
1031.403	-2902
1031.469	-3380
1031.534	-3424
1031.600	-3206
1031.666	-3659
1031.731	-3098
1031.797	-3478
1031.863	-3483
1031.928	-3483
1031.994	-3647
1032.059	-3330
1032.125	-2557
1032.190	-3136
1032.256	-3386
1032.321	-4323
1032.386	-3220
1032.452	-3544
1032.517	-2408
1032.582	-3548
1032.647	-2980
1032.713	-3626
1032.778	-2292
1032.843	-3384
1032.908	-2833
1032.974	-2875
1033.039	-3841
1033.104	-3959
1033.169	-3649
1033.234	-2954
1033.299	-2559
1033.364	-2715
1033.429	-2728
1033.494	-3503
1033.559	-3053
1033.624	-2699
1033.688	-2489
1033.753	-3356
1033.818	-3207
1033.883	-3706
1033.948	-2576
1034.013	-2936
1034.077	-2799
1034.142	-2400
1034.207	-2515
1034.271	-3200
1034.336	-2542
1034.400	-2891
1034.465	-2872
1034.530	-3794
1034.594	-3405
1034.658	-3721
1034.723	-2711
1034.787	-3508
1034.852	-2783
1034.916	-3914
1034.981	-3141
1035.045	-3037
1035.109	-3255
1035.173	-3155
1035.238	-2901
1035.302	-2979
1035.366	-3173
1035.430	-4229
1035.495	-3274
1035.559	-3238
1035.623	-3464
1035.687	-3369
1035.751	-2897
1035.815	-3898
1035.879	-2447
1035.943	-3730
1036.007	-3511
1036.071	-3285
1036.135	-2890
1036.198	-2825
1036.262	-3381
1036.326	-4031
1036.390	-2822
1036.454	-2880
1036.517	-3098
1036.581	-3508
1036.645	-4011
1036.709	-3424
1036.772	-2809
1036.836	-4124
1036.900	-3058
1036.963	-3511
1037.026	-2984
1037.090	-3655
1037.154	-3570
1037.217	-3602
1037.280	-3665
1037.344	-3195
1037.407	-2898
1037.471	-3156
1037.534	-3585
1037.597	-3730
1037.661	-3481
1037.724	-2967
1037.787	-4042
1037.850	-3441
1037.913	-3752
1037.977	-3220
1038.040	-3158
1038.103	-3968
1038.166	-3532
1038.229	-3133
1038.292	-3303
1038.355	-3562
1038.418	-3271
1038.481	-3379
1038.544	-3008
1038.607	-3192
1038.670	-3427
1038.732	-3351
1038.795	-3395
1038.858	-2937
1038.921	-3145
1038.984	-2638
1039.046	-3218
1039.109	-3504
1039.172	-2369
1039.234	-3652
1039.297	-3226
1039.360	-3130
1039.422	-3062
1039.485	-3322
1039.547	-2811
1039.610	-3451
1039.672	-3768
1039.734	-3576
1039.797	-2677
1039.859	-3744
1039.922	-3639
1039.984	-3143
1040.046	-3223
1040.109	-3541
1040.171	-3696
1040.233	-3268
1040.295	-3585
1040.358	-3331
1040.420	-2620
1040.482	-3383
1040.544	-2976
1040.606	-3380
1040.668	-3441
1040.730	-3599
1040.792	-3569
1040.854	-3578
1040.916	-2748
1040.978	-3025
1041.040	-2301
1041.102	-4297
1041.164	-2839
1041.225	-3210
1041.287	-3562
1041.349	-3244
1041.411	-2718
1041.472	-3090
1041.534	-3588
1041.596	-3425
1041.657	-2893
1041.719	-2765
1041.781	-3247
1041.842	-3698
1041.904	-2670
1041.965	-3352
1042.027	-3403
1042.088	-4203
1042.150	-3284
1042.211	-3893
1042.272	-3056
1042.334	-3416
1042.395	-2654
1042.456	-3627
1042.518	-3013
1042.579	-2889
1042.640	-3666
1042.701	-4253
1042.763	-3803
1042.824	-3390
1042.885	-3059
1042.946	-3861
1043.007	-2780
1043.068	-3541
1043.129	-2907
1043.190	-2995
1043.251	-2936
1043.312	-3029
1043.373	-2674
1043.434	-3791
1043.495	-3317
1043.556	-2678
1043.616	-2002
1043.677	-3984
1043.738	-2770
1043.799	-3931
1043.859	-2272
1043.920	-3463
1043.981	-3606
1044.041	-4096
1044.102	-2735
1044.162	-2826
1044.223	-3079
1044.284	-3702
1044.344	-2873
1044.405	-3630
1044.465	-3261
1044.525	-3209
1044.586	-1918
1044.646	-3110
1044.707	-3296
1044.767	-3101
1044.827	-2939
1044.887	-4106
1044.948	-2408
1045.008	-2855
1045.068	-3697
1045.128	-3107
1045.188	-2555
1045.249	-2315
1045.309	-2714
1045.369	-3400
1045.429	-2225
1045.489	-2962
1045.549	-2598
1045.609	-3543
1045.669	-2812
1045.729	-3189
1045.789	-3018
1045.848	-2304
1045.908	-2895
1045.968	-2339
1046.028	-2570
1046.088	-2679
1046.147	-2330
1046.207	-2984
1046.267	-2726
1046.326	-2482
1046.386	-1970
1046.446	-2019
1046.505	-2181
1046.565	-2536
1046.624	-2164
1046.684	-2417
1046.743	-1217
1046.803	-1690
1046.862	-879
1046.922	0
