'Start Wavelength	183.907
'End Wavelength	1046.922
'Gate Delay	5.000
'Gate Width (ms)	1.050
'Laser Output Level	0.000
'X Position	0.000
'Y Position	0.000
'Z Position	0.000
'Grid Point Number	1.000
'Shot Number	100.000
183.907	382.000
183.977	251.000
184.047	-265
184.116	950
184.186	158
184.256	-403
184.325	-269
184.395	-574
184.465	714
184.534	-38
184.604	-793
184.674	581
184.743	-745
184.813	244
184.883	303
184.952	378
185.022	-65
185.092	252
185.161	-90
185.231	1062
185.301	-193
185.370	122
185.440	-143
185.509	62
185.579	-233
185.649	-16
185.718	101
185.788	-324
185.857	59
185.927	1028
185.996	-91
186.066	187
186.136	-351
186.205	-235
186.275	-335
186.344	661
186.414	-94
186.483	783
186.553	1259
186.622	1375
186.692	190
186.761	883
186.831	689
186.900	244
186.970	279
187.039	249
187.109	637
187.178	277
187.248	-559
187.317	375
187.387	-391
187.456	945
187.526	517
187.595	1518
187.664	223
187.734	430
187.803	610
187.873	1108
187.942	437
188.012	814
188.081	396
188.150	413
188.220	1013
188.289	1496
188.358	768
188.428	256
188.497	-784
188.567	1288
188.636	-339
188.705	790
188.775	436
188.844	-48
188.913	184
188.983	28
189.052	174
189.121	721
189.191	768
189.260	857
189.329	170
189.399	521
189.468	1021
189.537	306
189.606	-178
189.676	1102
189.745	-373
189.814	1314
189.883	-155
189.953	353
190.022	310
190.091	448
190.161	709
190.230	786
190.299	280
190.368	465
190.437	214
190.507	124
190.576	342
190.645	667
190.714	460
190.783	621
190.853	-481
190.922	661
190.991	-210
191.060	994
191.129	-449
191.198	237
191.268	81
191.337	452
191.406	-127
191.475	1056
191.544	468
191.613	1191
191.682	338
191.752	1556
191.821	154
191.890	494
191.959	-66
192.028	422
192.097	-113
192.166	669
192.235	-140
192.304	1513
192.373	290
192.442	-5
192.511	-149
192.580	139
192.650	186
192.719	215
192.788	1047
192.857	777
192.926	256
192.995	613
193.064	960
193.133	482
193.202	-8
193.271	1094
193.340	311
193.409	580
193.478	84
193.547	612
193.615	715
193.684	741
193.753	-208
193.822	-32
193.891	-183
193.960	837
194.029	-358
194.098	261
194.167	-589
194.236	674
194.305	826
194.374	833
194.443	-293
194.512	822
194.580	1001
194.649	1092
194.718	777
194.787	858
194.856	383
194.925	878
194.994	-4
195.062	-79
195.131	81
195.200	415
195.269	88
195.338	653
195.407	222
195.475	403
195.544	536
195.613	304
195.682	528
195.751	1120
195.819	-77
195.888	-278
195.957	981
196.026	234
196.094	-20
196.163	-641
196.232	79
196.301	855
196.369	463
196.438	127
196.507	-78
196.576	860
196.644	225
196.713	1031
196.782	169
196.850	316
196.919	393
196.988	439
197.056	-97
197.125	598
197.194	201
197.262	590
197.331	493
197.400	170
197.468	135
197.537	411
197.606	392
197.674	884
197.743	403
197.812	1093
197.880	318
197.949	478
198.017	747
198.086	935
198.155	192
198.223	1217
198.292	847
198.360	331
198.429	-934
198.497	700
198.566	163
198.635	1089
198.703	1120
198.772	-17
198.840	75
198.909	43
198.977	279
199.046	-68
199.114	-242
199.183	617
199.251	496
199.320	285
199.388	304
199.457	629
199.525	258
199.594	-109
199.662	-402
199.731	440
199.799	1056
199.867	1489
199.936	581
200.004	477
200.073	738
200.141	1029
200.210	290
200.278	1346
200.346	752
200.415	1075
200.483	586
200.552	1191
200.620	521
200.688	1286
200.757	638
200.825	855
200.893	177
200.962	1241
201.030	301
201.098	-57
201.167	1217
201.235	498
201.303	-259
201.372	1301
201.440	-171
201.508	767
201.577	171
201.645	698
201.713	843
201.781	-22
201.850	467
201.918	771
201.986	616
202.055	679
202.123	926
202.191	1470
202.259	391
202.327	862
202.396	565
202.464	499
202.532	-158
202.600	1920
202.669	-64
202.737	167
202.805	452
202.873	192
202.941	107
203.009	906
203.078	230
203.146	893
203.214	-318
203.282	141
203.350	403
203.418	550
203.487	960
203.555	252
203.623	39
203.691	492
203.759	-272
203.827	210
203.895	265
203.963	1014
204.031	392
204.099	1179
204.168	-629
204.236	567
204.304	1088
204.372	442
204.440	218
204.508	-328
204.576	-498
204.644	1040
204.712	-276
204.780	1209
204.848	-44
204.916	712
204.984	-197
205.052	783
205.120	41
205.188	316
205.256	-108
205.324	355
205.392	-229
205.460	316
205.528	-758
205.596	904
205.664	63
205.732	617
205.799	-77
205.867	585
205.935	35
206.003	494
206.071	24
206.139	-434
206.207	216
206.275	289
206.343	-640
206.411	326
206.478	-162
206.546	679
206.614	251
206.682	319
206.750	987
206.818	1454
206.885	1033
206.953	540
207.021	1629
207.089	577
207.157	-513
207.225	-49
207.292	313
207.360	246
207.428	-958
207.496	-409
207.563	-505
207.631	529
207.699	-512
207.767	309
207.834	-744
207.902	834
207.970	-37
208.038	1585
208.105	445
208.173	437
208.241	-20
208.309	549
208.376	132
208.444	947
208.512	441
208.579	308
208.647	1265
208.715	1270
208.782	-72
208.850	427
208.918	111
208.985	894
209.053	235
209.120	299
209.188	-53
209.256	228
209.323	-659
209.391	318
209.459	916
209.526	839
209.594	-259
209.661	738
209.729	277
209.796	1114
209.864	1241
209.932	-101
209.999	1076
210.067	-176
210.134	-512
210.202	489
210.269	1046
210.337	2792
210.404	651
210.472	920
210.539	-36
210.607	74
210.674	463
210.742	531
210.809	656
210.877	611
210.944	284
211.012	282
211.079	1165
211.146	1294
211.214	998
211.281	4097
211.349	2489
211.416	974
211.484	304
211.551	-129
211.618	405
211.686	343
211.753	66
211.821	916
211.888	962
211.955	534
212.023	1198
212.090	197
212.157	531
212.225	999
212.292	434
212.359	1574
212.427	2795
212.494	1480
212.561	768
212.629	616
212.696	-368
212.763	702
212.831	-483
212.898	1140
212.965	61
213.032	-324
213.100	-131
213.167	-135
213.234	377
213.301	701
213.369	-139
213.436	1232
213.503	-540
213.570	-7
213.638	-539
213.705	387
213.772	-355
213.839	85
213.906	518
213.973	732
214.041	288
214.108	679
214.175	-254
214.242	364
214.309	25
214.376	1052
214.444	-549
214.511	221
214.578	-225
214.645	1184
214.712	871
214.779	1036
214.846	114
214.913	1635
214.980	1541
215.048	2568
215.115	1793
215.182	1951
215.249	1200
215.316	1002
215.383	1383
215.450	857
215.517	745
215.584	139
215.651	-392
215.718	762
215.785	1148
215.852	624
215.919	-11
215.986	216
216.053	563
216.120	-547
216.187	-740
216.254	671
216.321	90
216.388	-348
216.455	199
216.522	444
216.589	-178
216.656	454
216.722	-166
216.789	693
216.856	-326
216.923	-159
216.990	-23
217.057	686
217.124	73
217.191	-341
217.258	505
217.324	-120
217.391	207
217.458	544
217.525	421
217.592	712
217.659	-426
217.725	764
217.792	309
217.859	694
217.926	226
217.993	500
218.059	-250
218.126	743
218.193	-214
218.260	355
218.327	-478
218.393	287
218.460	-434
218.527	-342
218.594	-174
218.660	6
218.727	455
218.794	-67
218.860	1440
218.927	21
218.994	-141
219.061	-143
219.127	276
219.194	985
219.261	-159
219.327	132
219.394	4
219.461	585
219.527	860
219.594	-11
219.661	580
219.727	-101
219.794	2145
219.860	843
219.927	2021
219.994	4104
220.060	4793
220.127	5878
220.193	3327
220.260	1617
220.326	1038
220.393	1096
220.460	378
220.526	-357
220.593	75
220.659	1024
220.726	330
220.792	1964
220.859	1241
220.925	1172
220.992	398
221.058	1677
221.125	1375
221.191	1405
221.258	-836
221.324	773
221.391	140
221.457	199
221.524	22
221.590	907
221.657	1867
221.723	788
221.789	140
221.856	1375
221.922	-89
221.989	985
222.055	387
222.121	-770
222.188	1353
222.254	155
222.321	107
222.387	318
222.453	-6
222.520	-502
222.586	247
222.652	621
222.719	-1017
222.785	272
222.851	-747
222.918	-251
222.984	223
223.050	-213
223.116	-1528
223.183	864
223.249	-545
223.315	-200
223.382	257
223.448	241
223.514	-726
223.580	-283
223.647	-684
223.713	-986
223.779	-311
223.845	55
223.911	279
223.978	-339
224.044	-415
224.110	-115
224.176	-691
224.242	341
224.309	-636
224.375	218
224.441	-423
224.507	-172
224.573	-879
224.639	-131
224.705	94
224.772	426
224.838	-295
224.904	516
224.970	162
225.036	-112
225.102	-825
225.168	316
225.234	42
225.300	465
225.366	-207
225.432	710
225.499	912
225.565	294
225.631	-712
225.697	472
225.763	519
225.829	-141
225.895	-104
225.961	536
226.027	-439
226.093	-208
226.159	670
226.225	1585
226.291	1184
226.357	1504
226.423	-328
226.489	227
226.554	109
226.620	692
226.686	-102
226.752	656
226.818	939
226.884	2370
226.950	2189
227.016	1397
227.082	1498
227.148	154
227.214	1045
227.279	1025
227.345	1534
227.411	3771
227.477	6394
227.543	8930
227.609	11472
227.674	9758
227.740	3872
227.806	2684
227.872	1759
227.938	475
228.003	1109
228.069	372
228.135	37
228.201	349
228.267	-481
228.332	680
228.398	-285
228.464	622
228.530	-726
228.595	537
228.661	-1046
228.727	397
228.792	1038
228.858	-506
228.924	-2029
228.990	2178
229.055	-1203
229.121	692
229.187	-666
229.252	-590
229.318	-643
229.384	149
229.449	-449
229.515	-445
229.581	-610
229.646	1406
229.712	-579
229.777	93
229.843	-436
229.909	507
229.974	248
230.040	246
230.105	-510
230.171	-827
230.236	-171
230.302	-646
230.368	-702
230.433	-444
230.499	-573
230.564	897
230.630	-962
230.695	613
230.761	-339
230.826	-671
230.892	893
230.957	-226
231.023	-31
231.088	-347
231.154	-196
231.219	685
231.284	-1134
231.350	900
231.415	-567
231.481	786
231.546	49
231.612	119
231.677	-939
231.742	-1676
231.808	1031
231.873	-711
231.939	-2119
232.004	981
232.069	406
232.135	-342
232.200	-1040
232.265	853
232.331	-284
232.396	-517
232.461	-844
232.527	-374
232.592	-992
232.657	970
232.723	71
232.788	-178
232.853	278
232.918	270
232.984	-215
233.049	-64
233.114	-823
233.179	1363
233.245	858
233.310	836
233.375	-653
233.440	502
233.506	-749
233.571	-77
233.636	-89
233.701	303
233.766	-622
233.832	65
233.897	-477
233.962	-988
234.027	711
234.092	20
234.157	-607
234.222	500
234.288	422
234.353	323
234.418	595
234.483	652
234.548	-299
234.613	-274
234.678	-188
234.743	-401
234.808	506
234.873	-670
234.938	1033
235.004	102
235.069	-411
235.134	-794
235.199	-51
235.264	250
235.329	-824
235.394	196
235.459	156
235.524	-243
235.589	291
235.654	-333
235.719	-1368
235.784	618
235.849	-707
235.913	748
235.978	-2
236.043	639
236.108	-92
236.173	-704
236.238	-24
236.303	-788
236.368	66
236.433	658
236.498	-405
236.563	673
236.627	303
236.692	4065
236.757	3190
236.822	815
236.887	58
236.952	1097
237.017	-1829
237.081	971
237.146	-289
237.211	1307
237.276	3026
237.341	6500
237.405	824
237.470	558
237.535	-16
237.600	1096
237.664	769
237.729	-634
237.794	-998
237.859	1322
237.923	363
237.988	61
238.053	517
238.118	284
238.182	545
238.247	2272
238.312	-1057
238.376	61
238.441	-1842
238.506	1319
238.570	-690
238.635	1726
238.700	-213
238.764	-343
238.829	565
238.893	78
238.958	1196
239.023	86
239.087	-17
239.152	1550
239.216	614
239.281	1265
239.346	619
239.410	1115
239.475	429
239.539	1765
239.604	904
239.668	3885
239.733	4601
239.797	13224
239.862	19944
239.926	18250
239.991	9097
240.055	5082
240.120	2160
240.184	2175
240.249	523
240.313	69
240.378	303
240.442	1099
240.507	947
240.571	492
240.635	-698
240.700	1066
240.764	-577
240.829	677
240.893	-1252
240.957	226
241.022	415
241.086	932
241.151	-664
241.215	-1044
241.279	589
241.344	299
241.408	-271
241.472	-36
241.537	154
241.601	888
241.665	-1245
241.730	547
241.794	1126
241.858	-46
241.922	-334
241.987	727
242.051	-421
242.115	-427
242.179	-389
242.244	129
242.308	850
242.372	713
242.436	-698
242.501	1034
242.565	-968
242.629	107
242.693	783
242.757	-541
242.822	-259
242.886	1183
242.950	-485
243.014	463
243.078	-203
243.142	211
243.206	-434
243.271	1069
243.335	-721
243.399	1537
243.463	951
243.527	5967
243.591	926
243.655	1184
243.719	-1099
243.783	1050
243.847	689
243.911	668
243.975	9
244.040	-1121
244.104	1131
244.168	899
244.232	-1402
244.296	20
244.360	426
244.424	-366
244.488	-150
244.552	810
244.615	-773
244.679	278
244.743	-490
244.807	-1021
244.871	184
244.935	-2
244.999	-1029
245.063	-131
245.127	558
245.191	864
245.255	-365
245.319	153
245.383	-1361
245.446	1562
245.510	-677
245.574	-134
245.638	887
245.702	-1053
245.766	611
245.829	1080
245.893	-612
245.957	14
246.021	573
246.085	546
246.149	458
246.212	1898
246.276	480
246.340	346
246.404	176
246.467	1743
246.531	-872
246.595	1365
246.659	1558
246.722	-217
246.786	927
246.850	553
246.913	708
246.977	-303
247.041	863
247.104	482
247.168	381
247.232	549
247.295	2451
247.359	861
247.423	583
247.486	498
247.550	998
247.614	-401
247.677	350
247.741	1336
247.804	812
247.868	4635
247.932	412
247.995	3567
248.059	665
248.122	93
248.186	1276
248.249	1607
248.313	5039
248.376	5056
248.440	1544
248.503	214
248.567	2416
248.630	154
248.694	161
248.757	2722
248.821	5260
248.884	3195
248.948	369
249.011	3432
249.075	5108
249.138	5558
249.202	549
249.265	441
249.328	730
249.392	-37
249.455	548
249.519	1087
249.582	933
249.645	840
249.709	290
249.772	136
249.835	-31
249.899	273
249.962	1292
250.025	846
250.089	1323
250.152	2614
250.215	634
250.279	222
250.342	383
250.405	792
250.468	591
250.532	813
250.595	2279
250.658	7223
250.721	15692
250.785	3106
250.848	2499
250.911	661
250.974	1448
251.038	1226
251.101	2633
251.164	1209
251.227	1281
251.290	1345
251.354	2512
251.417	12571
251.480	12848
251.543	6992
251.606	24676
251.669	17109
251.732	4913
251.795	4010
251.859	4721
251.922	14956
251.985	6579
252.048	2562
252.111	1311
252.174	583
252.237	2592
252.300	7093
252.363	4398
252.426	19541
252.489	4844
252.552	2015
252.615	573
252.678	2712
252.741	4673
252.804	6268
252.867	19745
252.930	8588
252.993	2469
253.056	2425
253.119	715
253.182	678
253.245	990
253.308	1981
253.371	827
253.434	911
253.497	1293
253.559	2538
253.622	406
253.685	1288
253.748	1571
253.811	449
253.874	1191
253.937	779
254.000	282
254.062	966
254.125	1274
254.188	2773
254.251	325
254.314	1251
254.376	-357
254.439	2342
254.502	791
254.565	1667
254.628	2471
254.690	1436
254.753	-83
254.816	687
254.878	518
254.941	2063
255.004	1657
255.067	1277
255.129	-645
255.192	1227
255.255	-887
255.317	1530
255.380	869
255.443	1135
255.505	1069
255.568	383
255.631	357
255.693	1965
255.756	1344
255.819	3133
255.881	1672
255.944	1420
256.006	103
256.069	513
256.132	246
256.194	1028
256.257	886
256.319	1064
256.382	1884
256.444	5075
256.507	3218
256.569	1494
256.632	370
256.694	435
256.757	1884
256.819	6326
256.882	997
256.944	2032
257.007	2130
257.069	434
257.132	873
257.194	1938
257.257	919
257.319	588
257.381	26
257.444	2853
257.506	6552
257.569	8411
257.631	1711
257.693	2092
257.756	1072
257.818	721
257.880	310
257.943	1568
258.005	-91
258.067	641
258.130	248
258.192	1026
258.254	328
258.317	166
258.379	550
258.441	1423
258.503	1341
258.566	1790
258.628	1329
258.690	567
258.753	1790
258.815	282
258.877	-488
258.939	1139
259.001	1354
259.064	1120
259.126	281
259.188	206
259.250	1184
259.312	1570
259.375	1032
259.437	1559
259.499	508
259.561	829
259.623	779
259.685	806
259.747	892
259.809	1757
259.872	2163
259.934	3788
259.996	3052
260.058	1730
260.120	18
260.182	1063
260.244	523
260.306	663
260.368	924
260.430	896
260.492	1604
260.554	2586
260.616	1222
260.678	1945
260.740	2030
260.802	701
260.864	1876
260.926	713
260.988	1354
261.050	1584
261.112	1821
261.174	3404
261.236	2267
261.298	2264
261.359	1891
261.421	2195
261.483	-166
261.545	1757
261.607	363
261.669	2013
261.731	1027
261.793	2371
261.854	-13
261.916	1490
261.978	670
262.040	2447
262.102	1552
262.164	905
262.225	1281
262.287	1937
262.349	1025
262.411	2046
262.472	1510
262.534	1468
262.596	861
262.658	2789
262.719	-37
262.781	2640
262.843	902
262.904	1520
262.966	990
263.028	1869
263.090	1868
263.151	6288
263.213	2600
263.275	1455
263.336	1203
263.398	1806
263.459	112
263.521	1511
263.583	1224
263.644	1217
263.706	304
263.767	1263
263.829	1603
263.891	1637
263.952	1079
264.014	1007
264.075	925
264.137	2161
264.198	1321
264.260	1123
264.321	1176
264.383	1645
264.444	2820
264.506	1490
264.567	1635
264.629	2655
264.690	1475
264.752	2174
264.813	539
264.875	784
264.936	1714
264.998	1615
265.059	1397
265.120	2823
265.182	1142
265.243	2535
265.305	3130
265.366	2242
265.427	1174
265.489	2578
265.550	724
265.611	1222
265.673	1193
265.734	1960
265.795	1763
265.857	1602
265.918	-104
265.979	2351
266.040	4327
266.102	4191
266.163	2594
266.224	1639
266.286	1220
266.347	1516
266.408	337
266.469	2301
266.530	1717
266.592	1502
266.653	1141
266.714	1928
266.775	1113
266.836	1952
266.898	550
266.959	1000
267.020	977
267.081	1934
267.142	1625
267.203	491
267.264	1044
267.326	2950
267.387	647
267.448	1137
267.509	993
267.570	1562
267.631	595
267.692	698
267.753	1056
267.814	701
267.875	1051
267.936	1753
267.997	1740
268.058	1271
268.119	299
268.180	1523
268.241	106
268.302	1475
268.363	627
268.424	1528
268.485	885
268.546	470
268.607	1394
268.668	1101
268.729	542
268.790	681
268.851	1109
268.912	1939
268.972	544
269.033	1301
269.094	1092
269.155	2200
269.216	1095
269.277	1467
269.338	1619
269.398	1222
269.459	294
269.520	1511
269.581	735
269.642	1430
269.702	774
269.763	1568
269.824	596
269.885	857
269.945	1192
270.006	1984
270.067	272
270.128	197
270.188	898
270.249	1005
270.310	765
270.370	1566
270.431	429
270.492	1440
270.553	1800
270.613	1961
270.674	1957
270.734	1119
270.795	1079
270.856	1930
270.916	525
270.977	1644
271.038	1529
271.098	815
271.159	1032
271.219	1517
271.280	1276
271.340	1386
271.401	423
271.462	1783
271.522	1278
271.583	1919
271.643	1426
271.704	1010
271.764	944
271.825	1583
271.885	4818
271.946	7102
272.006	2615
272.066	3567
272.127	7326
272.187	13387
272.248	6998
272.308	3613
272.369	3861
272.429	2628
272.489	1646
272.550	1756
272.610	2287
272.671	974
272.731	1624
272.791	1979
272.852	898
272.912	1858
272.972	1481
273.033	2116
273.093	1807
273.153	1931
273.214	1356
273.274	1310
273.334	2052
273.394	4001
273.455	972
273.515	2202
273.575	2637
273.635	2721
273.696	2878
273.756	3088
273.816	1733
273.876	2341
273.936	1875
273.997	3042
274.057	1948
274.117	1948
274.177	1922
274.237	4688
274.297	4432
274.358	1772
274.418	3011
274.478	2756
274.538	1080
274.598	1343
274.658	2309
274.718	2167
274.778	1358
274.838	2032
274.898	1342
274.958	4595
275.018	4074
275.078	3335
275.138	1492
275.198	2173
275.258	1471
275.318	2503
275.378	2525
275.438	2143
275.498	1746
275.558	2436
275.618	3324
275.678	2710
275.738	3083
275.798	3544
275.858	2082
275.918	1088
275.978	1979
276.038	2931
276.098	2491
276.157	2055
276.217	2797
276.277	2395
276.337	2362
276.397	1937
276.457	2085
276.517	2971
276.576	1960
276.636	1909
276.696	2126
276.756	2490
276.815	1989
276.875	2287
276.935	1975
276.995	3154
277.055	2371
277.114	4132
277.174	2806
277.234	1775
277.293	2109
277.353	2219
277.413	1615
277.472	1696
277.532	982
277.592	2502
277.651	4425
277.711	9252
277.771	3600
277.830	9347
277.890	7641
277.950	6256
278.009	21129
278.069	9418
278.128	7828
278.188	8959
278.248	4537
278.307	10481
278.367	7820
278.426	3309
278.486	2180
278.545	2200
278.605	1715
278.664	2611
278.724	1916
278.783	3615
278.843	4369
278.902	2763
278.962	1327
279.021	2090
279.081	3118
279.140	2476
279.199	1905
279.259	2672
279.318	2850
279.378	4473
279.437	5820
279.496	16326
279.556	58103
279.615	46983
279.675	11357
279.734	6286
279.793	6063
279.853	10878
279.912	5424
279.971	3991
280.031	2938
280.090	5892
280.149	8240
280.208	7553
280.268	39032
280.327	41639
280.386	8385
280.445	6145
280.505	3465
280.564	3786
280.623	2728
280.682	3000
280.742	3132
280.801	2908
280.860	1874
280.919	1609
280.978	2381
281.037	2807
281.097	762
281.156	2377
281.215	1910
281.274	2908
281.333	3676
281.392	1988
281.451	2153
281.510	2691
281.569	974
281.628	1853
281.688	1926
281.747	3395
281.806	1662
281.865	2781
281.924	1597
281.983	2477
282.042	1740
282.101	1678
282.160	2166
282.219	2013
282.278	2371
282.337	2373
282.396	1637
282.454	2466
282.513	2025
282.572	2486
282.631	2159
282.690	2284
282.749	2011
282.808	2387
282.867	1562
282.926	2350
282.985	1631
283.043	1657
283.102	1895
283.161	1727
283.220	2308
283.279	3497
283.338	1523
283.396	1985
283.455	2037
283.514	2327
283.573	1659
283.631	1937
283.690	2178
283.749	2363
283.808	2280
283.866	3031
283.925	1611
283.984	2885
284.043	1485
284.101	1702
284.160	2116
284.219	3753
284.277	2642
284.336	2801
284.395	3865
284.453	3328
284.512	2749
284.570	3206
284.629	2844
284.688	3535
284.746	2330
284.805	4004
284.863	3740
284.922	6328
284.981	6631
285.039	9166
285.098	14723
285.156	33647
285.215	94134
285.273	93171
285.332	40222
285.390	19379
285.449	11445
285.507	9370
285.566	6726
285.624	5389
285.683	4788
285.741	4786
285.799	3630
285.858	3769
285.916	2350
285.975	2260
286.033	2626
286.091	3636
286.150	2329
286.208	3388
286.267	2701
286.325	2834
286.383	2601
286.442	2370
286.500	2650
286.558	3242
286.616	1869
286.675	3245
286.733	2516
286.791	2440
286.850	2909
286.908	2710
286.966	2582
287.024	2246
287.083	2329
287.141	2765
287.199	3026
287.257	3370
287.315	2809
287.374	2846
287.432	1991
287.490	3394
287.548	1571
287.606	2769
287.664	3153
287.723	3195
287.781	2956
287.839	3031
287.897	2381
287.955	3449
288.013	3760
288.071	5935
288.129	16780
288.187	55022
288.245	21198
288.303	8229
288.361	4483
288.419	3489
288.477	3250
288.535	2743
288.593	2832
288.651	2414
288.709	2419
288.767	2497
288.825	2167
288.883	3440
288.941	2165
288.999	1556
289.057	2461
289.115	2018
289.173	2056
289.231	2651
289.289	1979
289.346	2886
289.404	2695
289.462	2738
289.520	2493
289.578	2465
289.636	2361
289.694	2963
289.751	1503
289.809	2894
289.867	2717
289.925	3530
289.983	2296
290.040	2417
290.098	1867
290.156	2703
290.214	3138
290.271	2569
290.329	2797
290.387	3021
290.444	1976
290.502	3314
290.560	1829
290.617	2806
290.675	2452
290.733	3675
290.790	2487
290.848	3076
290.906	1675
290.963	3478
291.021	2608
291.078	2781
291.136	1616
291.194	3323
291.251	3726
291.309	2752
291.366	2319
291.424	2837
291.481	2655
291.539	2258
291.596	3188
291.654	2937
291.711	2895
291.769	3017
291.826	2798
291.884	2994
291.941	2146
291.999	3310
292.056	2519
292.114	2934
292.171	2728
292.228	4317
292.286	2958
292.343	3164
292.401	2768
292.458	2855
292.515	2223
292.573	4234
292.630	2560
292.687	2969
292.745	2287
292.802	3301
292.859	3269
292.917	4246
292.974	2053
293.031	3083
293.089	2973
293.146	4389
293.203	1847
293.260	2354
293.318	3469
293.375	3880
293.432	2974
293.489	2956
293.546	2798
293.604	2900
293.661	3705
293.718	5511
293.775	3705
293.832	3732
293.889	3745
293.947	3878
294.004	2887
294.061	2825
294.118	4346
294.175	5301
294.232	5348
294.289	4234
294.346	2915
294.403	4426
294.460	2704
294.517	3399
294.574	2910
294.631	3465
294.688	3882
294.745	4655
294.802	6318
294.859	7302
294.916	3639
294.973	2677
295.030	2453
295.087	2729
295.144	3434
295.201	2739
295.258	2671
295.315	2750
295.372	2458
295.429	4450
295.486	2759
295.542	3618
295.599	4834
295.656	6692
295.713	4060
295.770	4392
295.827	2128
295.883	3139
295.940	2581
295.997	3155
296.054	2641
296.111	3332
296.167	3366
296.224	2379
296.281	1977
296.338	2402
296.394	2381
296.451	2958
296.508	2828
296.564	4544
296.621	4165
296.678	7117
296.734	8011
296.791	4836
296.848	3392
296.904	3017
296.961	3270
297.018	4942
297.074	3358
297.131	3219
297.187	2247
297.244	3107
297.301	4852
297.357	7763
297.414	4039
297.470	4080
297.527	2513
297.583	3418
297.640	3030
297.696	3633
297.753	2486
297.809	2359
297.866	2455
297.922	2913
297.979	3221
298.035	2823
298.092	2831
298.148	3406
298.204	4082
298.261	3786
298.317	4571
298.374	8547
298.430	4659
298.486	4251
298.543	2719
298.599	3324
298.656	2496
298.712	3896
298.768	5008
298.824	4397
298.881	3290
298.937	3970
298.993	2736
299.050	3713
299.106	3342
299.162	2183
299.218	3852
299.275	3866
299.331	3982
299.387	5961
299.443	11765
299.500	31063
299.556	27051
299.612	11667
299.668	10993
299.724	28822
299.780	34172
299.837	14699
299.893	9797
299.949	22575
300.005	33228
300.061	25661
300.117	38106
300.173	18448
300.229	8545
300.285	7367
300.341	5834
300.397	5773
300.453	6159
300.510	6692
300.566	7977
300.622	13959
300.678	43883
300.734	54109
300.790	24320
300.845	16532
300.901	25406
300.957	36771
301.013	16751
301.069	8210
301.125	6601
301.181	4959
301.237	4483
301.293	3548
301.349	4425
301.405	4000
301.461	3560
301.516	4391
301.572	3912
301.628	3732
301.684	2976
301.740	5338
301.796	4426
301.851	3494
301.907	4253
301.963	5290
302.019	6045
302.074	16883
302.130	16921
302.186	8635
302.242	4741
302.297	4740
302.353	2906
302.409	4654
302.464	3997
302.520	4789
302.576	5122
302.631	6359
302.687	4094
302.743	3564
302.798	3328
302.854	3110
302.910	2897
302.965	3000
303.021	3400
303.076	4288
303.132	2935
303.187	4158
303.243	3057
303.299	3566
303.354	2907
303.410	3828
303.465	2464
303.521	3003
303.576	2935
303.632	3113
303.687	3321
303.743	5643
303.798	4606
303.853	3716
303.909	2805
303.964	2680
304.020	2267
304.075	3752
304.130	3435
304.186	3642
304.241	4698
304.297	4563
304.352	3163
304.358	3190
304.407	3403
304.449	3425
304.463	3435
304.518	2962
304.539	3224
304.573	3642
304.629	3882
304.630	3865
304.684	3149
304.720	4298
304.739	4859
304.794	6028
304.811	5693
304.850	4900
304.902	3650
304.905	3567
304.960	2638
304.992	2705
305.015	2756
305.071	2661
305.083	2723
305.126	2936
305.173	3228
305.181	3286
305.236	2392
305.264	2987
305.292	3533
305.347	3196
305.354	3111
305.402	2694
305.445	3171
305.457	3283
305.512	3076
305.535	2939
305.567	2787
305.622	3114
305.626	3146
305.678	3894
305.716	4807
305.733	5084
305.788	4620
305.807	4422
305.843	4195
305.897	5611
305.898	5629
305.953	5965
305.988	4594
306.008	3816
306.063	3255
306.078	3124
306.118	2875
306.168	2626
306.173	2600
306.228	2460
306.259	2593
306.283	2760
306.338	2391
306.349	2602
306.393	3322
306.440	3054
306.448	3026
306.503	3277
306.530	3190
306.558	3265
306.613	3765
306.620	3858
306.668	4083
306.711	4346
306.723	4370
306.778	4112
306.801	3864
306.833	3596
306.888	2711
306.892	2753
306.943	3504
306.982	3028
306.997	2861
307.052	2919
307.072	2827
307.107	2738
307.162	3305
307.163	3305
307.217	3866
307.253	4440
307.272	4497
307.327	4127
307.343	4090
307.381	4181
307.434	3454
307.436	3463
307.491	4790
307.524	5461
307.546	5307
307.600	4327
307.614	3937
307.655	3144
307.704	3320
307.710	3418
307.765	3343
307.795	4112
307.819	4763
307.874	5752
307.885	5894
307.929	5680
307.975	4900
307.984	4946
308.038	6451
308.065	6562
308.093	10236
308.148	20455
308.156	22950
308.202	33556
308.246	40658
308.257	39649
308.312	19602
308.336	12433
308.366	8969
308.421	5606
308.426	5386
308.475	4433
308.517	3931
308.530	3842
308.585	3885
308.607	3627
308.639	3305
308.694	4119
308.697	4110
308.748	5872
308.787	8060
308.803	7944
308.857	5833
308.877	5172
308.912	5030
308.967	5063
308.967	5060
309.021	6028
309.058	6703
309.076	7945
309.130	12532
309.148	14147
309.185	30482
309.238	60332
309.239	60433
309.293	62152
309.328	51602
309.348	43412
309.402	19796
309.418	14306
309.457	10895
309.508	8180
309.511	8084
309.566	7527
309.598	7023
309.620	7410
309.674	9296
309.688	9771
309.729	9897
309.778	9431
309.783	9298
309.837	7529
309.868	6526
309.892	6458
309.946	6610
309.959	6617
310.001	6653
310.049	7098
310.055	7006
310.109	5327
310.139	4508
310.163	4269
310.218	4101
310.229	4022
310.272	4419
310.319	4944
310.326	4914
310.381	4476
310.409	4394
310.435	4450
310.489	4124
310.499	4146
310.543	4388
310.589	4417
310.598	4484
310.652	4887
310.679	5006
310.706	4792
310.760	4364
310.769	4306
310.814	4809
310.859	5296
310.868	5247
310.923	4692
310.948	4569
310.977	5017
311.031	5674
311.038	5753
311.085	5378
311.128	4963
311.139	5006
311.193	5290
311.218	5312
311.247	5137
311.301	5140
311.308	5092
311.356	5078
311.398	5178
311.410	5268
311.464	5504
311.488	5687
311.518	5621
311.572	5286
311.578	5248
311.626	5372
311.668	5449
311.680	5637
311.734	6402
311.758	6747
311.788	6648
311.842	6426
311.847	6386
311.896	7015
311.937	7566
311.950	7335
312.004	6225
312.027	5745
312.058	5606
312.112	5315
312.117	5276
312.165	5445
312.207	5574
312.297	6269
312.386	5178
312.476	6401
312.566	5843
312.656	6746
312.745	6125
312.835	6606
312.925	6812
313.015	7346
313.104	6602
313.194	7694
313.284	7565
313.374	7560
313.463	8337
313.553	9518
313.643	9128
313.732	10210
313.822	9645
313.912	11605
314.001	11390
314.091	11381
314.180	11809
314.270	12009
314.360	11746
314.449	10900
314.539	11401
314.628	12047
314.718	10907
314.808	12398
314.897	12303
314.987	13426
315.076	13641
315.166	13767
315.255	12754
315.345	13427
315.434	12446
315.524	13976
315.613	15287
315.703	22282
315.792	62654
315.881	194300
315.971	59579
316.060	20441
316.150	16765
316.239	16670
316.328	13074
316.418	14532
316.507	15109
316.597	17946
316.686	17380
316.775	17302
316.865	17317
316.954	13594
317.043	12502
317.133	11453
317.222	9701
317.311	10283
317.400	10366
317.490	12695
317.579	13205
317.668	17029
317.757	30179
317.847	104244
317.936	261824
318.025	88392
318.114	88378
318.203	36776
318.293	17814
318.382	24438
318.471	24736
318.560	23515
318.649	26771
318.738	13762
318.828	10538
318.917	8865
319.006	9011
319.095	13801
319.184	25778
319.273	12938
319.362	8722
319.451	8331
319.540	8327
319.629	9020
319.718	9803
319.807	10074
319.896	13218
319.985	31376
320.074	12653
320.163	10199
320.252	11321
320.341	13049
320.430	12055
320.519	12694
320.608	13184
320.697	15709
320.786	16286
320.875	18951
320.964	19532
321.053	21288
321.142	22530
321.230	25444
321.319	26408
321.408	29670
321.497	27072
321.586	24933
321.675	23273
321.764	23802
321.852	23313
321.941	24082
322.030	23372
322.119	25746
322.207	29800
322.296	34547
322.385	34639
322.474	35020
322.562	35514
322.651	29577
322.740	24561
322.829	23048
322.917	22058
323.006	18603
323.095	17060
323.183	16427
323.272	16059
323.361	18489
323.449	30247
323.538	16614
323.626	23826
323.715	17055
323.804	13155
323.892	20660
323.981	13131
324.069	12544
324.158	15709
324.246	13692
324.335	10236
324.424	10287
324.512	9920
324.601	10271
324.689	9922
324.778	9945
324.866	11104
324.954	9711
325.043	7395
325.131	9368
325.220	12281
325.308	13034
325.397	10689
325.485	9436
325.574	7888
325.662	7435
325.750	6760
325.839	8663
325.927	7421
326.015	9042
326.104	8444
326.192	9542
326.280	7633
326.369	7415
326.457	6861
326.545	8582
326.634	7688
326.722	7930
326.810	7836
326.898	9416
326.987	10383
327.075	9543
327.163	9989
327.251	9270
327.340	9850
327.428	12724
327.516	14913
327.604	13155
327.692	10337
327.781	10220
327.869	8739
327.957	7917
328.045	6690
328.133	6650
328.221	5608
328.309	6840
328.397	7264
328.485	9096
328.574	13544
328.662	18590
328.750	14773
328.838	10609
328.926	8110
329.014	7626
329.102	7540
329.190	9174
329.278	6904
329.366	6436
329.454	5682
329.542	6068
329.630	5972
329.718	6956
329.806	5343
329.893	7139
329.981	5793
330.069	6764
330.157	8030
330.245	7895
330.333	6685
330.421	6529
330.509	6663
330.597	7769
330.684	7066
330.772	7054
330.860	8007
330.948	9076
331.036	6578
331.123	6907
331.211	6671
331.299	6861
331.387	8593
331.475	9515
331.562	7443
331.650	6929
331.738	6606
331.825	8444
331.913	6900
332.001	7042
332.089	7252
332.176	8479
332.264	11390
332.352	10044
332.439	7779
332.527	8037
332.614	6850
332.702	8534
332.790	7661
332.877	9409
332.965	11767
333.052	9323
333.140	9538
333.228	11638
333.315	9349
333.403	10153
333.490	12341
333.578	12583
333.665	15290
333.753	14450
333.840	14324
333.928	16253
334.015	20665
334.103	28844
334.190	48265
334.278	39599
334.365	45281
334.452	43400
334.540	36339
334.627	39612
334.715	48191
334.802	63228
334.889	101372
334.977	105565
335.064	63232
335.151	40600
335.239	32625
335.326	29616
335.413	40176
335.501	42267
335.588	31890
335.675	37492
335.762	44814
335.850	59926
335.937	77188
336.024	108023
336.111	145629
336.199	110607
336.286	62966
336.373	42636
336.460	31139
336.547	25434
336.635	20874
336.722	17778
336.809	16891
336.896	15387
336.983	18221
337.070	27967
337.157	35463
337.245	26701
337.332	21383
337.419	14357
337.506	13781
337.593	13457
337.680	16498
337.767	24815
337.854	12973
337.941	13038
338.028	13484
338.115	10468
338.202	12658
338.289	13774
338.376	21919
338.463	12509
338.550	16333
338.637	16298
338.724	10422
338.811	11724
338.898	8540
338.984	8867
339.071	8509
339.158	8223
339.245	8829
339.332	9173
339.419	9493
339.506	10629
339.593	7180
339.679	8269
339.766	7697
339.853	8227
339.940	7780
340.027	8146
340.113	7241
340.200	7793
340.287	7212
340.374	7268
340.460	7758
340.547	5960
340.634	6506
340.720	9030
340.807	6573
340.894	8948
340.980	7340
341.067	7116
341.154	7863
341.240	8059
341.327	7937
341.414	8919
341.500	6968
341.587	7815
341.674	7581
341.760	7580
341.847	6720
341.933	7546
342.020	6057
342.106	7530
342.193	7185
342.279	7542
342.366	6196
342.452	7855
342.539	7123
342.625	7061
342.712	7300
342.798	7067
342.885	6121
342.971	7188
343.058	6448
343.144	6996
343.230	6906
343.317	7521
343.403	6080
343.490	7021
343.576	5915
343.662	6845
343.749	6238
343.835	7008
343.921	7492
344.008	14457
344.094	18926
344.180	8412
344.267	7087
344.353	8793
344.439	8888
344.525	7086
344.612	6710
344.698	7033
344.784	5245
344.870	7029
344.957	6074
345.043	7252
345.129	5519
345.215	7308
345.301	6281
345.387	6862
345.474	7073
345.560	6834
345.646	5644
345.732	7090
345.818	7130
345.904	6876
345.990	6175
346.076	7105
346.162	6795
346.249	7140
346.335	6599
346.421	7504
346.507	8254
346.593	9960
346.679	6600
346.765	9690
346.851	14744
346.937	13294
347.023	9277
347.108	8635
347.194	7018
347.280	9340
347.366	11390
347.452	28448
347.538	35565
347.624	21244
347.710	12815
347.796	8673
347.882	8028
347.967	8314
348.053	7904
348.139	7936
348.225	7657
348.311	7992
348.397	8119
348.482	10224
348.568	9353
348.654	15617
348.740	40367
348.825	47915
348.911	23338
348.997	15878
349.083	13463
349.168	8750
349.254	7704
349.340	7511
349.425	7496
349.511	8451
349.597	7086
349.682	8147
349.768	9889
349.854	7884
349.939	8066
350.025	7769
350.110	8232
350.196	7149
350.282	6662
350.367	8214
350.453	7632
350.538	8137
350.624	6966
350.709	7955
350.795	6978
350.880	6106
350.966	6923
351.051	7847
351.137	6793
351.222	7261
351.308	7869
351.393	7978
351.479	6496
351.564	6750
351.649	7391
351.735	7397
351.820	6584
351.906	6955
351.991	7041
352.076	7394
352.162	7908
352.247	7563
352.332	6732
352.418	6844
352.503	7105
352.588	8668
352.673	6924
352.759	7323
352.844	6063
352.929	6828
353.014	5686
353.100	7527
353.185	7209
353.270	6040
353.355	6986
353.441	7520
353.526	6408
353.611	7508
353.696	6261
353.781	7935
353.866	6389
353.952	6713
354.037	6430
354.122	8059
354.207	6707
354.292	7315
354.377	6389
354.462	6955
354.547	5899
354.632	7785
354.717	6824
354.802	8051
354.887	6344
354.972	6585
355.057	6264
355.142	6807
355.227	6526
355.312	6862
355.397	5679
355.482	8983
355.567	7344
355.652	8130
355.737	7944
355.822	8395
355.907	7630
355.991	7487
356.076	6031
356.161	8156
356.246	7137
356.331	7837
356.416	7435
356.501	14505
356.585	11236
356.670	8117
356.755	9218
356.840	8266
356.924	12958
357.009	22350
357.094	11206
357.179	8087
357.263	8279
357.348	8922
357.433	8209
357.517	8520
357.602	7034
357.687	7200
357.771	8269
357.856	10428
357.941	9095
358.025	13691
358.110	29341
358.195	15901
358.279	8438
358.364	9457
358.448	9758
358.533	12735
358.617	10412
358.702	10585
358.787	9056
358.871	8683
358.956	8499
359.040	9560
359.125	8486
359.209	9029
359.294	10819
359.378	19360
359.462	15097
359.547	9014
359.631	9016
359.716	7759
359.800	7524
359.885	8833
359.969	7218
360.053	8643
360.138	7964
360.222	8495
360.306	7468
360.391	9084
360.475	10140
360.559	11158
360.644	9154
360.728	9476
360.812	13485
360.896	18115
360.981	12484
361.065	11675
361.149	10460
361.233	11217
361.318	9725
361.402	11496
361.486	13221
361.570	12515
361.654	12829
361.739	14228
361.823	20996
361.907	26574
361.991	22694
362.075	27016
362.159	38738
362.243	70669
362.327	131184
362.411	143817
362.495	71017
362.580	45211
362.664	45712
362.748	56638
362.832	88073
362.916	157765
363.000	285774
363.084	290822
363.168	142605
363.252	63843
363.336	42181
363.420	36389
363.503	43226
363.587	42982
363.671	27858
363.755	29222
363.839	34393
363.923	39335
364.007	50063
364.091	71336
364.175	112743
364.258	213388
364.342	345409
364.426	403250
364.510	239210
364.594	110208
364.677	62241
364.761	45028
364.845	33353
364.929	24602
365.013	21207
365.096	18492
365.180	16344
365.264	22583
365.347	41200
365.431	22412
365.515	12996
365.598	12175
365.682	13442
365.766	13328
365.849	13762
365.933	12462
366.017	13905
366.100	12250
366.184	12452
366.267	13452
366.351	12227
366.435	11702
366.518	11546
366.602	11705
366.685	11492
366.769	11860
366.852	11784
366.936	12128
367.019	10401
367.103	10857
367.186	14423
367.270	12169
367.353	10802
367.436	13532
367.520	13185
367.603	14553
367.687	12044
367.770	12869
367.853	12356
367.937	14233
368.020	13015
368.104	9970
368.187	11640
368.270	11147
368.353	9267
368.437	11565
368.520	16827
368.603	11945
368.687	9826
368.770	11331
368.853	9540
368.936	10170
369.020	11046
369.103	9435
369.186	8210
369.269	8550
369.352	9075
369.436	9622
369.519	8427
369.602	7331
369.685	10364
369.768	7772
369.851	9259
369.934	7815
370.018	7926
370.101	8373
370.184	10982
370.267	9986
370.350	9923
370.433	13221
370.516	37996
370.599	105183
370.682	51242
370.765	15543
370.848	13072
370.931	13172
371.014	11117
371.097	8669
371.180	8345
371.263	9417
371.346	6732
371.429	8921
371.511	7345
371.594	9054
371.677	9737
371.760	11548
371.843	9229
371.926	17427
372.009	25772
372.091	15587
372.174	10423
372.257	14888
372.340	10221
372.423	11563
372.505	12348
372.588	9862
372.671	10862
372.754	12091
372.836	10695
372.919	15746
373.002	20258
373.085	11753
373.167	11088
373.250	12483
373.332	14613
373.415	23397
373.498	34733
373.580	43176
373.663	144668
373.746	133313
373.828	30345
373.911	16649
373.993	14433
374.076	25333
374.159	22053
374.241	13863
374.324	14739
374.406	15764
374.489	17250
374.571	24460
374.654	15284
374.736	14309
374.819	19558
374.901	26653
374.983	25767
375.066	16244
375.148	14621
375.231	24780
375.313	32965
375.395	19082
375.478	14260
375.560	14831
375.643	14590
375.725	16808
375.807	22527
375.890	23259
375.972	16793
376.054	15871
376.136	16745
376.219	13126
376.301	13784
376.383	16852
376.465	12525
376.548	11972
376.630	11653
376.712	15464
376.794	11807
376.877	9447
376.959	7929
377.041	9482
377.123	10302
377.205	11104
377.287	8617
377.369	9773
377.452	9777
377.534	9589
377.616	9643
377.698	9766
377.780	8614
377.862	9187
377.944	10503
378.026	9022
378.108	9900
378.190	9114
378.272	9640
378.354	9679
378.436	8292
378.518	8922
378.600	11110
378.682	10643
378.764	10022
378.846	10702
378.928	8950
379.010	9360
379.091	8720
379.173	9186
379.255	8004
379.337	8681
379.419	8941
379.501	12944
379.583	9496
379.664	9007
379.746	8110
379.828	11469
379.910	9938
379.991	11790
380.073	7701
380.155	9052
380.237	7737
380.318	8919
380.400	7950
380.482	9734
380.564	8855
380.645	9361
380.727	8204
380.809	10687
380.890	8433
380.972	7615
381.053	8333
381.135	9604
381.217	8354
381.298	10803
381.380	9594
381.461	10369
381.543	13707
381.624	15176
381.706	10186
381.787	10793
381.869	11211
381.951	13739
382.032	22698
382.113	19861
382.195	9537
382.276	11964
382.358	11095
382.439	14204
382.521	18493
382.602	22309
382.684	15059
382.765	19800
382.846	28497
382.928	41704
383.009	27672
383.090	29923
383.172	69349
383.253	82564
383.334	33801
383.416	24353
383.497	19202
383.578	18573
383.659	28788
383.741	74028
383.822	129032
383.903	66911
383.984	26389
384.066	25253
384.147	19961
384.228	19878
384.309	19730
384.390	21857
384.471	20950
384.553	19918
384.634	17861
384.715	17692
384.796	16009
384.877	16341
384.958	17292
385.039	16005
385.120	14821
385.201	16263
385.282	16929
385.363	18973
385.444	18094
385.525	20525
385.606	22650
385.687	21870
385.768	20318
385.849	19612
385.930	27031
386.011	31170
386.092	21268
386.173	20733
386.254	18909
386.335	20297
386.416	18775
386.496	20315
386.577	20712
386.658	19933
386.739	19121
386.820	21817
386.901	21273
386.981	23570
387.062	25233
387.143	26961
387.224	27730
387.304	29995
387.385	29884
387.466	28271
387.547	32120
387.627	31517
387.708	32842
387.789	34871
387.869	31587
387.950	29417
388.031	26222
388.111	24742
388.192	28467
388.273	31119
388.353	25628
388.434	21455
388.514	19479
388.595	22526
388.676	22541
388.756	19044
388.837	18761
388.917	17737
388.998	15363
389.078	16783
389.159	16114
389.239	15516
389.320	16840
389.400	14202
389.480	16036
389.561	16704
389.641	16729
389.722	16236
389.802	14778
389.883	17018
389.963	19723
390.043	17180
390.124	15451
390.204	17107
390.284	16985
390.365	17125
390.445	21433
390.525	26766
390.605	21722
390.686	16883
390.766	18282
390.846	18717
390.927	17404
391.007	16922
391.087	19240
391.167	19171
391.247	18649
391.328	22049
391.408	22896
391.488	23487
391.568	20481
391.648	23056
391.728	24956
391.808	26479
391.888	27048
391.969	30739
392.049	30528
392.129	35765
392.209	37107
392.289	41868
392.369	43736
392.449	50611
392.529	52913
392.609	61260
392.689	69488
392.769	83671
392.849	101800
392.929	133658
393.009	177732
393.089	259428
393.169	412864
393.248	628220
393.328	699000
393.408	668946
393.488	580470
393.568	374237
393.648	231825
393.728	156144
393.807	111696
393.887	88572
393.967	70817
394.047	59575
394.127	49720
394.206	46827
394.286	54210
394.366	106279
394.446	102650
394.525	43537
394.605	30981
394.685	32451
394.764	38566
394.844	62913
394.924	73149
395.003	41360
395.083	29732
395.163	27380
395.242	25444
395.322	26353
395.402	24229
395.481	30393
395.561	38538
395.640	88002
395.720	145936
395.799	97718
395.879	52795
395.958	41273
396.038	59328
396.117	135578
396.197	141694
396.276	74614
396.356	68359
396.435	86602
396.515	116740
396.594	177771
396.673	320257
396.753	558131
396.832	658409
396.912	591712
396.991	368091
397.070	198824
397.150	123040
397.229	99622
397.308	140188
397.388	206630
397.467	126138
397.546	56119
397.625	38496
397.705	34916
397.784	29785
397.863	27104
397.942	25192
398.022	23885
398.101	24656
398.180	32171
398.259	24155
398.338	20065
398.417	15738
398.497	16480
398.576	17474
398.655	14110
398.734	14881
398.813	14643
398.892	18915
398.971	29050
399.050	18723
399.129	12791
399.208	12841
399.287	13738
399.366	11309
399.445	12153
399.524	11677
399.603	10603
399.682	11033
399.761	14811
399.840	27319
399.919	23604
399.998	10405
400.077	10124
400.156	9332
400.235	12674
400.313	9622
400.392	8545
400.471	10056
400.550	11094
400.629	8292
400.708	10174
400.786	8209
400.865	11167
400.944	9638
401.023	10802
401.102	7511
401.180	8213
401.259	8940
401.338	8485
401.416	7945
401.495	7081
401.574	8407
401.652	7972
401.731	8595
401.810	6952
401.888	7613
401.967	7364
402.046	7295
402.124	8678
402.203	6741
402.281	8647
402.360	6940
402.438	11251
402.517	8266
402.596	8590
402.674	7037
402.753	8078
402.831	7325
402.910	8948
402.988	7893
403.066	13381
403.145	12095
403.223	11088
403.302	12227
403.380	12450
403.459	12595
403.537	11226
403.615	10322
403.694	9498
403.772	9724
403.850	9434
403.929	8392
404.007	8021
404.085	9873
404.164	8485
404.242	8078
404.320	11533
404.398	13321
404.477	13433
404.555	17162
404.633	15116
404.711	12008
404.789	10471
404.868	7544
404.946	7360
405.024	7111
405.102	7346
405.180	5608
405.258	6088
405.336	7963
405.415	6410
405.493	8207
405.571	8355
405.649	6925
405.727	7338
405.805	9550
405.883	9014
405.961	8694
406.039	7829
406.117	6173
406.195	7754
406.273	7090
406.351	12260
406.429	10210
406.507	6596
406.585	6183
406.663	7265
406.740	6235
406.818	6883
406.896	6725
406.974	8004
407.052	5480
407.130	10795
407.208	11022
407.285	8101
407.363	6354
407.441	8660
407.519	7930
407.596	10998
407.674	27621
407.752	83710
407.830	60968
407.907	14995
407.985	7614
408.063	7764
408.141	7079
408.218	8401
408.296	7116
408.373	7712
408.451	9212
408.529	9733
408.606	9197
408.684	10780
408.762	10620
408.839	11611
408.917	11465
408.994	13366
409.072	14238
409.149	18987
409.227	26876
409.304	37967
409.382	43070
409.459	50241
409.537	59551
409.614	59391
409.692	53025
409.769	52555
409.846	64181
409.924	70906
410.001	60085
410.079	49728
410.156	40022
410.233	31524
410.311	26418
410.388	24297
410.465	21812
410.543	19329
410.620	17892
410.697	16813
410.775	15710
410.852	14623
410.929	16095
411.006	16602
411.083	14486
411.161	14686
411.238	13589
411.315	12392
411.392	11931
411.469	12211
411.547	11133
411.624	9380
411.701	9087
411.778	10508
411.855	9635
411.932	8932
412.009	9093
412.086	9518
412.163	8771
412.240	8234
412.317	8560
412.394	8374
412.471	7752
412.548	7758
412.625	7283
412.702	7459
412.779	6968
412.856	7776
412.933	6526
413.010	7095
413.087	6838
413.164	6005
413.241	8006
413.318	5748
413.395	7687
413.471	6726
413.548	6594
413.625	6678
413.702	4960
413.779	6846
413.855	5690
413.932	5278
414.009	4717
414.086	6060
414.162	5205
414.239	6257
414.316	6462
414.393	7754
414.469	4485
414.546	5464
414.623	5672
414.699	5904
414.776	4901
414.853	5624
414.929	5970
415.006	4927
415.082	5529
415.159	5723
415.236	4501
415.312	5678
415.389	5505
415.465	5001
415.542	5499
415.618	4409
415.695	4914
415.771	5143
415.848	5084
415.924	5493
416.000	5441
416.077	6848
416.153	4507
416.230	5339
416.306	4419
416.383	5364
416.459	5040
416.535	5873
416.612	5393
416.688	5135
416.764	4820
416.841	5226
416.917	4161
416.993	5908
417.069	5243
417.146	5025
417.222	5114
417.298	5451
417.374	4148
417.451	5509
417.527	4542
417.603	5888
417.679	5629
417.755	6255
417.831	4389
417.908	6973
417.984	5270
418.060	4874
418.136	5348
418.212	5821
418.288	6276
418.364	6814
418.440	5522
418.516	6848
418.592	7647
418.668	7275
418.744	5822
418.820	7201
418.896	6243
418.972	6529
419.048	6592
419.124	7700
419.200	6450
419.276	7299
419.352	5851
419.428	8358
419.504	7216
419.579	7801
419.655	8270
419.731	9670
419.807	8648
419.883	9964
419.959	9629
420.034	9711
420.110	10458
420.186	12057
420.262	11182
420.337	11834
420.413	12013
420.489	13057
420.565	14199
420.640	14258
420.716	15822
420.792	15882
420.867	17192
420.943	17386
421.019	19674
421.094	20535
421.170	22510
421.245	24373
421.321	27199
421.397	30149
421.472	47342
421.548	77281
421.623	59348
421.699	45892
421.774	50413
421.850	56429
421.925	64888
422.001	76981
422.076	92801
422.152	113850
422.227	142152
422.302	182172
422.378	233936
422.453	289968
422.529	310027
422.604	242831
422.679	174957
422.755	246868
422.830	303029
422.905	282046
422.981	231185
423.056	186628
423.131	151778
423.207	119907
423.282	98704
423.357	83129
423.432	69311
423.508	60918
423.583	52923
423.658	47257
423.733	42475
423.808	39651
423.883	38756
423.959	39914
424.034	40547
424.109	37179
424.184	30438
424.259	27624
424.334	23212
424.409	22150
424.484	18987
424.559	18318
424.634	16752
424.709	15808
424.784	14285
424.859	13421
424.934	12635
425.009	13210
425.084	13057
425.159	12517
425.234	11715
425.309	11377
425.384	11882
425.459	10189
425.534	10440
425.609	8836
425.683	9919
425.758	8738
425.833	8973
425.908	10242
425.983	8702
426.058	10753
426.132	8514
426.207	7931
426.282	9373
426.357	8548
426.431	7136
426.506	7972
426.581	6892
426.655	7118
426.730	7367
426.805	6073
426.879	6876
426.954	7115
427.029	5968
427.103	8201
427.178	9054
427.253	8243
427.327	6501
427.402	6765
427.476	8226
427.551	6698
427.625	7283
427.700	7293
427.774	5371
427.849	7640
427.923	7653
427.998	9505
428.072	12160
428.147	27110
428.221	92321
428.296	195163
428.370	112932
428.444	27868
428.519	14319
428.593	13231
428.667	13318
428.742	18596
428.816	44248
428.890	137030
428.965	172029
429.039	57690
429.113	17860
429.188	10892
429.262	8283
429.336	9132
429.410	8562
429.485	10630
429.559	11183
429.633	12355
429.707	15251
429.781	40500
429.855	131453
429.930	159266
430.004	62949
430.078	56592
430.152	125815
430.226	259146
430.300	231567
430.374	85382
430.448	33894
430.522	26341
430.596	33834
430.670	63863
430.744	161023
430.818	150288
430.892	40834
430.966	13339
431.040	8933
431.114	7036
431.188	5968
431.262	6124
431.336	6612
431.410	7934
431.484	8501
431.557	9192
431.631	9684
431.705	21664
431.779	76966
431.853	188212
431.927	126454
432.000	29136
432.074	10979
432.148	7543
432.222	5423
432.295	5096
432.369	3487
432.443	4269
432.516	5478
432.590	7229
432.664	4790
432.737	3219
432.811	2998
432.885	3302
432.958	3251
433.032	3429
433.106	2530
433.179	3293
433.253	2941
433.326	3154
433.400	3067
433.473	4307
433.547	3263
433.620	4061
433.694	3252
433.767	4316
433.841	3410
433.914	3810
433.988	4373
434.061	4487
434.134	3547
434.208	3845
434.281	3010
434.355	3102
434.428	4068
434.501	3645
434.575	3543
434.648	2980
434.721	3745
434.795	3863
434.868	3285
434.941	4265
435.014	4943
435.088	5389
435.161	6418
435.234	7511
435.307	9090
435.381	11960
435.454	16360
435.527	24003
435.600	28028
435.673	25882
435.746	21762
435.819	18401
435.892	14810
435.966	13828
436.039	9826
436.112	9708
436.185	7552
436.258	6733
436.331	6059
436.404	5857
436.477	4774
436.550	5213
436.623	3765
436.696	4077
436.769	3602
436.842	5083
436.915	3820
436.987	3619
437.060	2624
437.133	3382
437.206	2347
437.279	4059
437.352	2792
437.425	2434
437.498	2057
437.570	3217
437.643	2386
437.716	2813
437.789	2467
437.861	2418
437.934	3228
438.007	2346
438.080	2448
438.152	2671
438.225	3061
438.298	4922
438.370	9020
438.443	5003
438.516	3552
438.588	2832
438.661	2616
438.734	2957
438.806	2247
438.879	3052
438.951	2519
439.024	3020
439.096	2253
439.169	2712
439.241	2717
439.314	2279
439.386	2073
439.459	3093
439.531	2574
439.604	3010
439.676	2319
439.749	2756
439.821	1224
439.893	2511
439.966	2084
440.038	2551
440.110	2635
440.183	1999
440.255	2094
440.327	4356
440.400	4242
440.472	6679
440.544	4345
440.617	2756
440.689	3890
440.761	3046
440.833	2986
440.905	3277
440.978	2472
441.050	3895
441.122	3368
441.194	3292
441.266	3305
441.338	3251
441.411	3237
441.483	5047
441.555	4193
441.627	4186
441.699	5169
441.771	5442
441.843	4600
441.915	6054
441.987	5750
442.059	7096
442.131	8266
442.203	11641
442.275	15776
442.347	28730
442.419	64999
442.491	190984
442.563	279431
442.635	139450
442.706	46412
442.778	23331
442.850	16877
442.922	15960
442.994	15796
443.066	17247
443.137	21815
443.209	31342
443.281	49087
443.353	97810
443.425	226775
443.496	383038
443.568	373963
443.640	206023
443.711	79373
443.783	38048
443.855	24623
443.926	18105
443.998	12941
444.070	11959
444.141	10488
444.213	9632
444.285	9421
444.356	8661
444.428	9500
444.499	8307
444.571	8786
444.642	10111
444.714	9564
444.785	11579
444.857	13349
444.928	17106
445.000	19482
445.071	25314
445.143	32778
445.214	50151
445.285	82994
445.357	174164
445.428	330435
445.500	404515
445.571	387664
445.642	287767
445.714	137296
445.785	59592
445.856	31783
445.928	22622
445.999	16579
446.070	13115
446.141	10834
446.213	9758
446.284	7146
446.355	7518
446.426	5621
446.497	6087
446.569	5020
446.640	5054
446.711	4039
446.782	4156
446.853	4271
446.924	3895
446.995	3437
447.066	3250
447.138	3583
447.209	3213
447.280	2268
447.351	1953
447.422	1819
447.493	2299
447.564	1276
447.635	1849
447.706	2231
447.777	1906
447.847	1388
447.918	2113
447.989	1252
448.060	2398
448.131	2291
448.202	2320
448.273	1025
448.344	2763
448.414	1580
448.485	1709
448.556	1090
448.627	1266
448.698	2455
448.768	1807
448.839	773
448.910	2235
448.981	1883
449.051	1710
449.122	1276
449.193	1883
449.263	1907
449.334	1267
449.405	1444
449.475	2387
449.546	2221
449.616	3211
449.687	2691
449.758	2333
449.828	1870
449.899	1131
449.969	1093
450.040	1937
450.110	1510
450.181	2157
450.251	1553
450.322	2044
450.392	1396
450.463	2081
450.533	955
450.604	2260
450.674	1886
450.744	2867
450.815	3026
450.885	4344
450.955	4422
451.026	4645
451.096	3665
451.166	3830
451.237	4881
451.307	7433
451.377	5220
451.447	3795
451.518	2219
451.588	2646
451.658	2184
451.728	1297
451.799	4025
451.869	3907
451.939	2290
452.009	2383
452.079	2082
452.149	3767
452.219	3662
452.289	6429
452.360	5201
452.430	5499
452.500	7930
452.570	13056
452.640	27196
452.710	56741
452.780	63091
452.850	42447
452.920	23937
452.990	14853
453.060	10049
453.129	7515
453.199	5052
453.269	8769
453.339	10119
453.409	11470
453.479	13378
453.549	15445
453.619	14774
453.688	5774
453.758	2362
453.828	2600
453.898	2105
453.968	2036
454.037	1598
454.087	1877
454.107	1978
454.168	1619
454.177	1550
454.247	1054
454.249	1062
454.316	724
454.330	948
454.386	1781
454.411	1921
454.456	2058
454.492	2498
454.525	2885
454.574	1930
454.595	1487
454.655	1865
454.665	1916
454.734	2181
454.736	2227
454.804	2818
454.817	3095
454.873	4200
454.898	4012
454.943	3609
454.979	2844
455.013	2157
455.060	2419
455.082	2537
455.141	2542
455.152	2538
455.221	4429
455.222	4463
455.291	4837
455.303	4882
455.360	4757
455.384	5615
455.430	6710
455.465	5729
455.499	4860
455.546	3814
455.569	3321
455.627	2886
455.638	2785
455.707	2047
455.708	2064
455.777	1954
455.789	1923
455.846	1633
455.869	1807
455.916	2117
455.950	2001
455.985	1841
456.031	1951
456.054	1999
456.112	2187
456.124	2200
456.193	2685
456.193	2665
456.262	2601
456.274	2738
456.332	3451
456.355	3307
456.401	2831
456.436	2712
456.470	2614
456.516	2577
456.540	2574
456.597	2855
456.609	2884
456.678	3472
456.678	3451
456.747	2781
456.759	2760
456.817	2623
456.840	2886
456.886	3296
456.920	3626
456.955	3917
457.001	4398
457.024	4598
457.082	3965
457.093	3870
457.162	5043
457.163	5068
457.232	5019
457.243	5064
457.301	5237
457.324	5282
457.370	5477
457.405	6573
457.439	7715
457.485	8202
457.508	8614
457.566	11670
457.577	13048
457.646	20423
457.647	20600
457.715	44700
457.727	50353
457.784	81300
457.808	104050
457.853	128988
457.889	145989
457.922	148850
457.969	114488
457.991	115487
458.050	131909
458.060	135325
458.129	210431
458.130	212678
458.198	199747
458.211	181882
458.267	118211
458.292	88468
458.336	65280
458.372	62939
458.405	79181
458.453	112123
458.474	132322
458.533	214088
458.543	218459
458.611	299870
458.614	300982
458.680	198460
458.694	163214
458.749	89593
458.775	66133
458.818	40831
458.855	30944
458.887	24735
458.936	19580
458.955	17730
459.016	13563
459.024	13112
459.093	11444
459.097	11364
459.162	9735
459.177	9483
459.230	8775
459.257	8497
459.299	8182
459.338	8038
459.368	7829
459.418	7363
459.437	7155
459.499	6850
459.505	6872
459.574	6861
459.579	6917
459.643	6837
459.659	6633
459.711	6206
459.740	6364
459.780	6582
459.820	6679
459.849	6627
459.900	6408
459.917	6422
459.981	6210
459.986	6138
460.054	5831
460.061	5817
460.123	5972
460.141	5897
460.191	6152
460.222	6174
460.260	5774
460.302	6229
460.328	6660
460.382	6469
460.397	6652
460.462	8672
460.465	9142
460.534	19586
460.543	20985
460.602	44348
460.623	53866
460.671	79523
460.703	103434
460.739	87328
460.783	55623
460.808	47724
460.864	15056
460.876	11597
460.944	7165
460.945	7112
461.013	6389
461.024	6160
461.081	5531
461.104	5841
461.150	6484
461.184	6095
461.218	5585
461.264	5796
461.286	5936
461.345	6111
461.355	6095
461.423	5315
461.425	5302
461.491	5506
461.505	5728
461.559	6854
461.585	7077
461.628	7092
461.665	7580
461.696	7940
461.745	8286
461.764	7990
461.825	6324
461.832	6283
461.901	6182
461.905	6207
461.969	5603
461.985	5325
462.037	6317
462.065	6918
462.105	6213
462.145	5673
462.173	6190
462.225	7086
462.241	7119
462.305	7324
462.310	7317
462.378	7377
462.385	7292
462.446	6841
462.465	6929
462.514	7189
462.545	6946
462.582	6105
462.625	5463
462.650	5648
462.705	5918
462.718	5859
462.785	6114
462.786	6126
462.854	6065
462.865	6111
462.922	6503
462.945	6547
462.990	6143
463.025	6018
463.058	6136
463.104	5923
463.126	5692
463.184	5706
463.194	5755
463.262	5236
463.264	5235
463.330	6015
463.344	6148
463.398	6438
463.424	6618
463.466	6251
463.504	5758
463.533	6289
463.583	7260
463.601	7088
463.663	6436
463.669	6417
463.737	6062
463.743	6032
463.805	7113
463.823	7447
463.873	8439
463.903	8999
463.940	8578
463.982	8181
464.008	7699
464.062	6239
464.076	6194
464.142	6336
464.144	6351
464.211	6496
464.221	6525
464.279	5915
464.301	5637
464.347	6110
464.381	6457
464.414	6443
464.461	6468
464.482	6460
464.540	6355
464.550	6370
464.617	6397
464.620	6392
464.685	6139
464.699	6057
464.753	6483
464.779	6723
464.820	6532
464.859	6236
464.888	6266
464.938	6460
464.956	6747
465.018	7526
465.023	7492
465.091	7042
465.098	6973
465.158	6695
465.177	6676
465.226	6850
465.257	6823
465.293	6972
465.336	7217
465.361	7290
465.416	7253
465.428	7327
465.495	7922
465.496	7939
465.563	8385
465.575	8530
465.631	9244
465.654	9527
465.698	8186
465.734	6897
465.765	7049
465.813	7206
465.833	7204
465.893	7457
465.900	7429
465.968	6825
465.972	6779
466.035	6820
466.052	6783
466.102	6867
466.131	6976
466.170	6970
466.210	6870
466.237	7138
466.290	7677
466.304	7637
466.369	7334
466.372	7345
466.439	7241
466.449	7214
466.506	6932
466.528	6823
466.573	8070
466.607	8955
466.641	9661
466.687	10631
466.708	10869
466.766	11453
466.775	11101
466.842	8304
466.845	8156
466.909	8475
466.925	8536
466.977	8418
467.004	8336
467.044	8250
467.083	8167
467.111	8472
467.163	8967
467.178	8986
467.242	9001
467.245	8989
467.312	8422
467.321	8334
467.379	9630
467.400	10074
467.446	10591
467.480	10930
467.559	11565
467.638	10355
467.717	10439
467.796	11898
467.875	13439
467.955	14590
468.034	17628
468.113	22670
468.192	28895
468.271	32280
468.350	44389
468.429	55269
468.508	53452
468.588	33857
468.667	22719
468.746	17577
468.825	14639
468.904	12911
468.983	11920
469.062	11105
469.141	12239
469.220	10723
469.299	10460
469.378	9053
469.456	10122
469.535	10387
469.614	8733
469.693	9375
469.772	10457
469.851	10745
469.930	9500
470.009	9270
470.088	9454
470.166	10850
470.245	11945
470.324	12026
470.403	11349
470.482	10251
470.560	10355
470.639	8684
470.718	9558
470.797	8488
470.875	9585
470.954	8335
471.033	9492
471.111	8302
471.190	9568
471.269	8673
471.347	8997
471.426	8483
471.505	9157
471.583	8138
471.662	8052
471.740	8109
471.819	9208
471.898	9056
471.976	8450
472.055	8858
472.133	10412
472.212	11972
472.290	9284
472.369	8271
472.447	9416
472.526	8043
472.604	8758
472.683	8167
472.761	8601
472.839	9373
472.918	9610
472.996	8669
473.075	9608
473.153	9965
473.231	9695
473.310	10265
473.388	9610
473.466	10028
473.545	10129
473.623	9932
473.701	10534
473.780	10522
473.858	9353
473.936	11106
474.014	10197
474.093	11243
474.171	13759
474.249	11957
474.327	10242
474.405	9035
474.484	9715
474.562	9249
474.640	9756
474.718	9584
474.796	9258
474.874	9197
474.952	8195
475.030	8459
475.108	8634
475.187	7437
475.265	9185
475.343	9818
475.421	9423
475.499	7917
475.577	8654
475.655	9498
475.733	10512
475.811	12452
475.889	12194
475.966	10030
476.044	8614
476.122	8840
476.200	8723
476.278	8051
476.356	8332
476.434	8369
476.512	9354
476.590	9581
476.667	9416
476.745	7911
476.823	9016
476.901	8284
476.979	8493
477.056	8668
477.134	8109
477.212	8998
477.290	8721
477.367	8315
477.445	8578
477.523	8226
477.601	7571
477.678	8560
477.756	8981
477.834	8404
477.911	8120
477.989	8963
478.066	7487
478.144	8630
478.222	9112
478.299	9827
478.377	10640
478.454	9079
478.532	7896
478.609	8682
478.687	8035
478.764	7864
478.842	8716
478.919	8159
478.997	9152
479.074	7958
479.152	8847
479.229	9639
479.307	8611
479.384	7888
479.461	9120
479.539	9001
479.616	9269
479.694	8814
479.771	8464
479.848	8772
479.926	7676
480.003	10468
480.080	8863
480.157	10023
480.235	9368
480.312	9222
480.389	10223
480.467	11636
480.544	12385
480.621	13008
480.698	12073
480.775	11418
480.853	11249
480.930	9605
481.007	11872
481.084	15645
481.161	20398
481.238	14152
481.315	9948
481.392	11096
481.470	11130
481.547	11445
481.624	11567
481.701	12490
481.778	12544
481.855	13993
481.932	15803
482.009	17949
482.086	18519
482.163	19478
482.240	22292
482.317	22067
482.393	19486
482.470	18895
482.547	17846
482.624	15692
482.701	15633
482.778	15492
482.855	16654
482.932	15798
483.009	19042
483.085	22364
483.162	27205
483.239	27585
483.316	24786
483.393	24562
483.469	19756
483.546	18190
483.623	16428
483.699	15225
483.776	13491
483.853	13309
483.930	14506
484.006	16034
484.083	19657
484.160	14289
484.236	16948
484.313	16304
484.389	17055
484.466	21598
484.543	25333
484.619	31411
484.696	32637
484.772	21744
484.849	17248
484.925	15197
485.002	14007
485.078	12915
485.155	10874
485.231	10728
485.308	10031
485.384	12093
485.461	12820
485.537	13355
485.614	14090
485.690	11629
485.766	10569
485.843	10401
485.919	10413
485.995	11353
486.072	10369
486.148	10966
486.224	11428
486.301	10634
486.377	11776
486.453	10275
486.530	12262
486.606	13152
486.682	13168
486.758	14753
486.835	17104
486.911	15905
486.987	20193
487.063	21285
487.139	25245
487.215	32376
487.292	33242
487.368	35653
487.444	44587
487.520	66337
487.596	115499
487.672	299316
487.748	734046
487.824	944704
487.900	367606
487.976	121801
488.052	63701
488.128	42129
488.204	29159
488.280	25656
488.356	21608
488.432	22949
488.508	21177
488.584	16081
488.660	14557
488.736	13343
488.812	12833
488.888	12371
488.964	12664
489.039	13514
489.115	14262
489.191	14423
489.267	11725
489.343	11783
489.418	10871
489.494	11130
489.570	9259
489.646	10852
489.722	11271
489.797	10679
489.873	13489
489.949	14977
490.024	12966
490.100	10952
490.176	11682
490.251	10759
490.327	11677
490.403	11040
490.478	10555
490.554	10584
490.629	11210
490.705	10645
490.781	10856
490.856	9575
490.932	10420
491.007	9199
491.083	9523
491.158	9111
491.234	10037
491.309	12877
491.385	11656
491.460	8280
491.536	9746
491.611	8696
491.686	9410
491.762	9025
491.837	9868
491.913	10745
491.988	13174
492.063	11328
492.139	10843
492.214	8441
492.289	8215
492.365	7754
492.440	8421
492.515	8275
492.590	8186
492.666	7941
492.741	9231
492.816	9557
492.891	7969
492.967	8854
493.042	8780
493.117	7135
493.192	8862
493.267	11634
493.342	19907
493.418	20215
493.493	8165
493.568	8083
493.643	7070
493.718	8222
493.793	8295
493.868	7779
493.943	8086
494.018	6791
494.093	6959
494.168	7674
494.243	6321
494.318	7678
494.393	7421
494.468	6329
494.543	7853
494.618	6545
494.693	6746
494.768	7288
494.842	7169
494.917	6644
494.992	6895
495.067	7331
495.142	7060
495.217	6986
495.292	7382
495.366	6413
495.441	6331
495.516	7579
495.591	8157
495.665	11906
495.740	15535
495.815	8952
495.890	6891
495.964	5729
496.039	10170
496.114	11984
496.188	17668
496.263	12380
496.338	7684
496.412	7409
496.487	7997
496.561	7558
496.636	7540
496.710	8654
496.785	9835
496.860	7413
496.934	6694
497.009	8061
497.083	7106
497.158	7811
497.232	7121
497.307	6907
497.381	7431
497.455	8439
497.530	8234
497.604	7654
497.679	7829
497.753	8821
497.827	9422
497.902	7884
497.976	10535
498.050	21947
498.125	55194
498.199	43656
498.273	8676
498.348	7961
498.422	7930
498.496	8847
498.570	9033
498.645	7490
498.719	7562
498.793	8215
498.867	9487
498.941	11487
499.016	28969
499.090	53388
499.164	19454
499.238	8617
499.312	7635
499.386	8305
499.460	9353
499.534	8851
499.609	10329
499.683	8863
499.757	10687
499.831	17219
499.905	39192
499.979	31069
500.053	10061
500.127	10327
500.201	9121
500.275	9290
500.349	9616
500.422	8968
500.496	9210
500.570	12941
500.644	25749
500.718	35913
500.792	13198
500.866	9324
500.940	9902
501.013	10623
501.087	9897
501.161	10146
501.235	10367
501.309	21292
501.382	34353
501.456	26896
501.530	13502
501.603	14922
501.677	10303
501.751	8505
501.825	11853
501.898	12029
501.972	17572
502.046	13001
502.119	8591
502.193	12315
502.266	17266
502.340	11199
502.413	13662
502.487	16965
502.561	12700
502.634	10529
502.708	10764
502.781	9894
502.855	10417
502.928	9205
503.002	10422
503.075	9121
503.149	10295
503.222	10671
503.295	10882
503.369	12909
503.442	14906
503.516	24208
503.589	34842
503.662	30416
503.736	30247
503.809	42011
503.882	52426
503.956	90064
504.029	189390
504.102	440929
504.175	533030
504.249	230523
504.322	97740
504.395	52964
504.468	36001
504.542	25669
504.615	19369
504.688	17660
504.761	13325
504.834	13957
504.907	12218
504.980	12026
505.053	10216
505.127	7492
505.200	11946
505.273	9210
505.346	8996
505.419	8113
505.492	9045
505.565	8581
505.638	8268
505.711	6631
505.784	6619
505.857	6233
505.930	8774
506.003	5978
506.076	8491
506.149	6023
506.221	5198
506.294	8603
506.367	9347
506.440	17416
506.513	10801
506.586	6943
506.659	6170
506.731	6928
506.804	5983
506.877	5156
506.950	6327
507.022	6831
507.095	5292
507.168	6211
507.241	6472
507.313	5556
507.386	5541
507.459	6205
507.531	6128
507.604	5037
507.677	6553
507.749	4871
507.822	7411
507.894	5516
507.967	6585
508.040	5034
508.112	6511
508.185	5214
508.257	4475
508.330	6865
508.402	5851
508.475	5864
508.547	6158
508.620	5420
508.692	7219
508.765	6004
508.837	4952
508.909	6118
508.982	5661
509.054	5949
509.127	5319
509.199	5602
509.271	4485
509.344	5737
509.416	5401
509.488	4907
509.560	6311
509.633	4771
509.705	4922
509.777	5387
509.849	6082
509.922	3878
509.994	4564
510.066	6961
510.138	4772
510.210	7711
510.283	5274
510.355	5814
510.427	6165
510.499	6073
510.571	5708
510.643	4897
510.715	6692
510.787	3051
510.859	6255
510.931	4902
511.003	5622
511.076	6222
511.148	4639
511.219	5162
511.291	6786
511.363	7360
511.435	5370
511.507	4024
511.579	6814
511.651	6731
511.723	5397
511.795	4835
511.867	5592
511.939	6012
512.010	6599
512.082	7451
512.154	4795
512.226	6276
512.298	7176
512.369	5419
512.441	6549
512.513	5858
512.585	4560
512.656	6461
512.728	4900
512.800	5338
512.871	6483
512.943	5903
513.015	4633
513.086	6190
513.158	6359
513.230	5437
513.301	5218
513.373	6911
513.444	5644
513.516	5743
513.588	6217
513.659	6439
513.731	5398
513.802	5031
513.874	6932
513.945	6504
514.016	5104
514.088	5702
514.159	4450
514.231	6454
514.302	5949
514.374	5432
514.445	5063
514.516	8779
514.588	5998
514.659	5479
514.730	6591
514.802	6582
514.873	3429
514.944	7740
515.016	6576
515.087	6281
515.158	6307
515.229	7429
515.301	4428
515.372	7058
515.443	4312
515.514	6174
515.585	5450
515.656	7468
515.728	7641
515.799	5272
515.870	7180
515.941	6010
516.012	6242
516.083	7500
516.154	6027
516.225	7004
516.296	8703
516.367	7860
516.438	8059
516.509	9051
516.580	11849
516.651	31790
516.722	66960
516.793	24035
516.864	10466
516.935	11493
517.006	12264
517.077	15166
517.148	33499
517.219	119950
517.289	127172
517.360	29568
517.431	15613
517.502	9693
517.573	10855
517.643	10494
517.714	10888
517.785	12748
517.856	12754
517.926	16787
517.997	18294
518.068	19394
518.138	27118
518.209	40609
518.280	117062
518.350	269114
518.421	98225
518.492	53511
518.562	67718
518.633	97112
518.703	170913
518.774	389050
518.845	760497
518.915	580209
518.986	202754
519.056	91457
519.127	58188
519.197	44529
519.268	41250
519.338	30103
519.408	19949
519.479	17495
519.549	13553
519.620	15038
519.690	12372
519.760	11029
519.831	10885
519.901	10078
519.971	10203
520.042	8995
520.112	7921
520.182	9461
520.253	8695
520.323	8430
520.393	7818
520.463	10538
520.534	7215
520.604	12222
520.674	8452
520.744	9039
520.814	9480
520.885	10347
520.955	12465
521.025	23807
521.095	11285
521.165	8341
521.235	7578
521.305	7196
521.375	7618
521.445	8758
521.515	7747
521.585	8980
521.655	6314
521.725	8406
521.795	8089
521.865	5375
521.935	9286
522.005	7501
522.075	7220
522.145	9362
522.215	8547
522.285	8958
522.355	8903
522.424	11625
522.494	10005
522.564	9325
522.634	8289
522.704	12026
522.774	7190
522.843	8559
522.913	10250
522.983	8462
523.053	8158
523.122	9530
523.192	8205
523.262	10009
523.331	8638
523.401	8661
523.471	8049
523.540	9562
523.610	7624
523.680	10646
523.749	10661
523.819	12104
523.888	11448
523.958	9308
524.027	9366
524.097	9234
524.166	9299
524.236	8399
524.305	11686
524.375	8400
524.444	8183
524.514	11784
524.583	9778
524.653	9226
524.722	10952
524.791	9701
524.861	12705
524.930	11432
524.999	10895
525.069	12496
525.138	12968
525.207	13741
525.277	15746
525.346	16478
525.415	20157
525.484	22179
525.554	25179
525.623	33188
525.692	40136
525.761	45837
525.830	57319
525.900	75495
525.969	134613
526.038	262966
526.107	612239
526.176	1184820
526.245	796410
526.314	335093
526.383	741243
526.452	822280
526.522	1140741
526.591	781539
526.660	184445
526.729	115040
526.797	126891
526.867	215652
526.935	638910
527.004	1364125
527.073	752062
527.142	172837
527.211	72664
527.280	49500
527.349	35150
527.418	26891
527.487	24459
527.555	18307
527.624	17377
527.693	14540
527.762	16398
527.831	12572
527.899	14048
527.968	12439
528.037	10963
528.106	11387
528.174	11692
528.243	11985
528.312	11545
528.380	10813
528.449	9154
528.518	11442
528.586	8123
528.655	11556
528.723	9732
528.792	9406
528.861	8730
528.929	8333
528.998	9922
529.066	9597
529.135	11265
529.203	11185
529.272	11584
529.340	12561
529.409	13127
529.477	11463
529.545	11290
529.614	13845
529.682	12686
529.751	13190
529.819	18099
529.887	14401
529.956	13028
530.024	14171
530.092	13195
530.161	13300
530.229	13787
530.297	13235
530.365	14687
530.434	14615
530.502	14517
530.570	13799
530.638	11821
530.707	12477
530.775	13574
530.843	11492
530.911	14045
530.979	13975
531.047	14332
531.115	13666
531.183	13196
531.252	13466
531.320	13429
531.388	12817
531.456	14015
531.524	13096
531.592	16611
531.660	17060
531.728	13459
531.796	13860
531.864	15602
531.932	14444
532.000	14163
532.067	15258
532.135	15949
532.203	17770
532.271	16898
532.339	19633
532.407	19513
532.475	17533
532.542	17845
532.610	17123
532.678	16386
532.746	21840
532.814	24120
532.881	18601
532.949	17174
533.017	17679
533.084	15967
533.152	16375
533.220	15618
533.287	14891
533.355	16833
533.423	17049
533.490	16262
533.558	16896
533.625	17416
533.693	15515
533.761	16521
533.828	16910
533.896	15158
533.963	19389
534.031	20795
534.098	25040
534.166	25524
534.233	24113
534.300	27468
534.368	28421
534.435	28417
534.503	29821
534.570	32865
534.637	37771
534.705	44844
534.772	66322
534.840	170759
534.907	658141
534.974	525904
535.041	77335
535.109	36940
535.176	28413
535.243	27540
535.310	25638
535.378	22516
535.445	23516
535.512	23258
535.579	22612
535.646	20904
535.714	22154
535.781	25201
535.848	23797
535.915	23689
535.982	21103
536.049	20821
536.116	22084
536.183	20414
536.250	20159
536.317	21175
536.384	22113
536.451	23963
536.518	22124
536.585	20310
536.652	23967
536.719	23530
536.786	19712
536.853	20976
536.920	23512
536.987	22171
537.053	20528
537.120	25625
537.187	25988
537.254	24196
537.321	23693
537.388	24790
537.454	22552
537.521	23905
537.588	22649
537.654	24430
537.721	23932
537.788	24980
537.855	22899
537.921	23927
537.988	22393
538.055	22522
538.121	19918
538.188	19783
538.254	20024
538.321	20718
538.388	22184
538.454	24016
538.521	26056
538.587	23736
538.654	23303
538.720	22839
538.787	24288
538.853	23593
538.920	22364
538.986	20665
539.053	19965
539.119	21971
539.185	21209
539.252	23936
539.318	22497
539.385	26816
539.451	23427
539.517	23530
539.583	24083
539.650	23087
539.716	23656
539.782	21843
539.849	21099
539.915	23467
539.981	21364
540.047	22609
540.114	21367
540.180	24674
540.246	23464
540.312	25113
540.378	24753
540.444	24384
540.510	25284
540.576	26092
540.643	22536
540.709	22310
540.775	22452
540.841	20682
540.907	21803
540.973	23452
541.039	22679
541.105	23619
541.171	24878
541.237	25585
541.303	24914
541.369	26324
541.435	24653
541.500	23241
541.566	20630
541.632	21075
541.698	21933
541.764	24729
541.830	21519
541.896	22327
541.961	23605
542.027	22432
542.093	25546
542.159	25695
542.224	22306
542.290	24203
542.356	22809
542.421	22827
542.487	22153
542.553	21487
542.618	22024
542.684	22527
542.750	22917
542.815	23393
542.881	23448
542.947	26640
543.012	24038
543.078	21689
543.143	23072
543.209	23332
543.274	20582
543.340	21979
543.405	23504
543.471	23944
543.536	22879
543.602	24385
543.667	21478
543.732	24566
543.798	23346
543.863	24590
543.928	24230
543.994	23249
544.059	24469
544.124	25299
544.190	24914
544.255	25752
544.320	26159
544.386	24604
544.451	26889
544.516	25558
544.581	26612
544.646	27225
544.712	27589
544.777	27600
544.842	26690
544.907	27803
544.972	27080
545.037	29228
545.102	29942
545.168	28596
545.233	29989
545.298	30223
545.363	29738
545.428	31810
545.493	33241
545.558	31106
545.623	31575
545.688	31202
545.753	32698
545.818	34647
545.883	38103
545.947	36262
546.012	38256
546.077	38737
546.142	41843
546.207	41945
546.272	45679
546.337	45179
546.401	47576
546.466	49397
546.531	51791
546.596	55611
546.661	58099
546.725	62524
546.790	63650
546.855	70876
546.919	77170
546.984	84457
547.049	92069
547.113	105022
547.178	114762
547.243	130517
547.307	151643
547.372	164973
547.436	164645
547.501	174117
547.565	183837
547.630	166026
547.695	163134
547.759	164739
547.823	167831
547.888	170241
547.952	174676
548.017	182360
548.081	188498
548.146	183732
548.210	189563
548.274	202834
548.339	192830
548.403	176704
548.468	168881
548.532	169053
548.596	172307
548.660	173697
548.725	191007
548.789	200624
548.853	192710
548.917	186823
548.982	179842
549.046	161974
549.110	148649
549.174	157333
549.238	186833
549.303	197338
549.367	198757
549.431	189066
549.495	178351
549.559	183187
549.623	211257
549.687	223157
549.751	224738
549.815	263656
549.879	261297
549.943	253612
550.007	265869
550.071	258007
550.135	232044
550.199	224496
550.263	219285
550.327	210473
550.391	221534
550.455	245965
550.519	254410
550.582	272986
550.646	305417
550.710	304880
550.774	301906
550.838	309922
550.901	321989
550.965	343297
551.029	364427
551.093	403443
551.156	456205
551.220	524222
551.284	521204
551.347	399021
551.411	340089
551.475	323825
551.538	323120
551.602	294408
551.666	281796
551.729	264180
551.793	258416
551.856	255149
551.920	250303
551.983	248659
552.047	247314
552.110	249549
552.174	253292
552.237	255988
552.301	234989
552.364	226006
552.428	220719
552.491	230205
552.554	230492
552.618	229748
552.681	234141
552.745	224051
552.808	236675
552.871	243040
552.934	237539
552.998	231890
553.061	225177
553.124	214793
553.187	217504
553.251	223084
553.314	221523
553.377	227588
553.440	242909
553.503	253453
553.567	250767
553.630	239947
553.693	237154
553.756	239061
553.819	230133
553.882	221893
553.945	224668
554.008	224690
554.071	228008
554.134	224844
554.197	212505
554.260	209498
554.323	213440
554.386	218584
554.449	229787
554.512	225761
554.575	216162
554.638	214774
554.701	215026
554.764	212271
554.827	205205
554.889	195037
554.952	186895
555.015	182179
555.078	186785
555.141	189539
555.203	185564
555.266	185288
555.329	182763
555.391	175966
555.454	174323
555.517	169577
555.580	165705
555.642	158121
555.705	155746
555.768	154326
555.830	149277
555.893	140806
555.955	138466
556.018	135970
556.080	138755
556.143	143640
556.206	139207
556.268	135408
556.330	134336
556.393	129693
556.455	127986
556.518	124469
556.580	120839
556.643	117122
556.705	116334
556.767	112271
556.830	111497
556.892	111149
556.955	107045
557.017	103643
557.079	105851
557.142	103756
557.204	103460
557.266	104659
557.328	96836
557.391	90632
557.453	90239
557.515	89869
557.577	91963
557.639	92590
557.701	93712
557.764	93209
557.826	96986
557.888	99448
557.950	106080
558.012	123061
558.074	185887
558.136	467431
558.198	738059
558.260	229846
558.322	119738
558.384	112833
558.446	118726
558.508	128682
558.570	144223
558.632	172079
558.694	240710
558.756	464035
558.818	1115020
558.880	1363588
558.942	801234
559.003	832539
559.065	335019
559.127	166833
559.189	155112
559.251	180005
559.312	288767
559.374	717142
559.436	1232313
559.498	572855
559.559	196316
559.621	158102
559.683	191323
559.744	353767
559.806	932549
559.868	874912
559.929	248104
559.991	192964
560.052	380588
560.114	787797
560.176	424293
560.237	575705
560.299	604652
560.360	133627
560.422	66437
560.483	56875
560.545	51166
560.606	48943
560.667	45254
560.729	43325
560.790	40526
560.852	40166
560.913	37170
560.974	36862
561.036	36965
561.097	37208
561.158	36132
561.220	35597
561.281	32511
561.342	32281
561.403	33227
561.465	32178
561.526	32431
561.587	32726
561.648	29891
561.709	29795
561.771	30092
561.832	28956
561.893	29285
561.954	28113
562.015	28129
562.076	27718
562.137	26699
562.198	27693
562.259	28431
562.320	27835
562.381	27263
562.442	27393
562.503	26170
562.564	25549
562.625	24851
562.686	25212
562.747	25232
562.808	25102
562.869	25232
562.930	25574
562.991	23991
563.051	23345
563.112	24404
563.173	22942
563.234	23318
563.294	22998
563.355	22457
563.416	23414
563.477	23640
563.537	22829
563.598	22605
563.659	21969
563.720	22196
563.780	22595
563.841	22369
563.901	22271
563.962	22000
564.023	21153
564.083	21105
564.144	21660
564.204	20660
564.265	20561
564.325	20865
564.386	22674
564.446	20936
564.507	20052
564.567	19121
564.628	19975
564.688	20011
564.749	19395
564.809	20536
564.869	20223
564.930	19765
564.990	19902
565.050	19347
565.111	19885
565.171	19430
565.231	19546
565.292	19715
565.352	18025
565.412	20422
565.472	19267
565.532	18709
565.593	19057
565.653	18149
565.713	18715
565.773	19351
565.833	19910
565.893	20721
565.953	18868
566.013	18075
566.074	18361
566.134	17419
566.194	19083
566.254	19696
566.314	18539
566.374	17008
566.434	17387
566.494	17228
566.554	17810
566.614	18330
566.673	19214
566.733	19058
566.793	19253
566.853	18204
566.913	19490
566.973	18128
567.033	19531
567.092	18498
567.152	18776
567.212	19152
567.272	19934
567.331	19901
567.391	19789
567.451	19763
567.511	21381
567.570	21071
567.630	19753
567.690	18771
567.749	18682
567.809	18879
567.868	18587
567.928	17941
567.988	18687
568.047	19062
568.107	19330
568.166	19168
568.226	19179
568.285	20095
568.345	20098
568.404	19210
568.464	18837
568.523	17909
568.582	19603
568.642	18617
568.701	16950
568.761	17505
568.820	17973
568.879	17960
568.939	19595
568.998	18910
569.057	17760
569.116	18910
569.176	18883
569.235	19071
569.294	18077
569.353	17313
569.413	17220
569.472	16939
569.531	18062
569.590	17103
569.649	16849
569.708	16241
569.767	17777
569.827	18509
569.886	16756
569.945	16308
570.004	17108
570.063	17278
570.122	18651
570.181	18738
570.240	18655
570.299	19569
570.358	18597
570.417	18699
570.475	18590
570.534	19759
570.593	18404
570.652	19510
570.711	19184
570.770	18144
570.829	19352
570.887	18883
570.946	19703
571.005	20129
571.064	19185
571.122	19818
571.181	18862
571.240	20063
571.299	19288
571.357	17766
571.416	17882
571.475	19298
571.533	19408
571.592	22200
571.650	21086
571.709	22776
571.768	26734
571.826	27562
571.885	23950
571.943	21730
572.002	19762
572.060	19508
572.119	18267
572.177	18251
572.236	18960
572.294	19235
572.352	21135
572.411	21339
572.469	20038
572.528	18064
572.586	17759
572.644	18308
572.703	17796
572.761	16810
572.819	16715
572.877	16638
572.936	16545
572.994	16608
573.052	18005
573.110	18064
573.169	19151
573.227	18866
573.285	18803
573.343	18788
573.401	17052
573.459	19219
573.517	20101
573.576	21142
573.634	21723
573.692	20401
573.750	20188
573.808	18929
573.866	18497
573.924	18344
573.982	18865
574.040	18207
574.098	17604
574.155	17116
574.213	18002
574.271	19337
574.329	21850
574.387	19333
574.445	17124
574.503	16995
574.560	17160
574.618	16943
574.676	17539
574.734	17166
574.792	16110
574.849	15088
574.907	14563
574.965	13812
575.022	13173
575.080	12906
575.138	13479
575.195	13400
575.253	13081
575.311	12540
575.368	13719
575.426	13485
575.483	13778
575.541	14659
575.598	13369
575.656	13993
575.713	16566
575.771	17203
575.828	15172
575.886	13655
575.943	14445
576.001	13014
576.058	11702
576.115	13993
576.173	13906
576.230	14486
576.287	14884
576.345	14327
576.402	15446
576.459	15411
576.517	14046
576.574	12657
576.631	12512
576.688	11324
576.746	12161
576.803	11750
576.860	12263
576.917	12959
576.974	13100
577.031	11912
577.089	12048
577.146	11057
577.203	11289
577.260	11502
577.317	10936
577.374	11442
577.431	11479
577.488	10848
577.545	10910
577.602	11617
577.659	11815
577.716	11211
577.773	12482
577.830	11725
577.886	11322
577.943	10998
578.000	11869
578.057	10652
578.114	11266
578.171	11914
578.227	11421
578.284	11315
578.341	11664
578.398	11227
578.454	11848
578.511	11154
578.568	11666
578.625	11145
578.681	11154
578.738	12088
578.794	11351
578.851	12510
578.908	12048
578.964	11577
579.021	11962
579.077	12022
579.134	10952
579.190	12336
579.247	11979
579.303	11526
579.360	11935
579.416	11941
579.473	11840
579.529	11569
579.586	12479
579.642	12010
579.698	12034
579.755	11994
579.811	11932
579.867	13113
579.924	12685
579.980	11820
580.036	12931
580.093	12938
580.149	12841
580.205	13466
580.261	13123
580.317	13836
580.374	14650
580.430	14208
580.486	14094
580.542	13724
580.598	14418
580.619	14444
580.654	14498
580.692	13715
580.710	13344
580.765	13256
580.767	13263
580.823	14452
580.838	14467
580.879	14534
580.911	14540
580.935	14560
580.984	14049
580.991	13989
581.047	14827
581.057	14789
581.103	14623
581.130	13935
581.159	13256
581.203	12900
581.215	12807
581.270	13647
581.276	13550
581.326	12683
581.349	12684
581.382	12674
581.422	12996
581.438	13149
581.494	12536
581.494	12530
581.550	12214
581.567	12610
581.606	13416
581.640	12825
581.661	12494
581.713	13451
581.717	13529
581.773	13885
581.786	13759
581.829	13386
581.859	13515
581.885	13601
581.932	13502
581.940	13499
581.996	13790
582.004	13822
582.052	13974
582.077	13896
582.107	13749
582.150	14079
582.163	14202
582.219	13721
582.223	13734
582.274	13841
582.296	13545
582.330	13168
582.368	13865
582.386	14176
582.441	14250
582.441	14249
582.497	13669
582.514	13732
582.552	13918
582.587	14088
582.608	14269
582.659	14718
582.663	14745
582.719	15847
582.732	15544
582.774	14482
582.805	14294
582.830	14245
582.877	15218
582.885	15347
582.941	14944
582.950	14952
582.996	15111
583.023	15726
583.052	16486
583.095	16167
583.107	16006
583.162	16222
583.168	16224
583.218	16167
583.240	15831
583.273	15441
583.313	14658
583.328	14427
583.384	15388
583.385	15375
583.439	14415
583.458	14475
583.494	14973
583.531	15251
583.549	15370
583.603	15112
583.605	15099
583.660	16395
583.676	16227
583.715	15846
583.748	16473
583.770	16942
583.820	16512
583.825	16436
583.881	16082
583.893	15981
583.936	15915
583.965	15391
583.991	14975
584.038	16433
584.046	16669
584.101	15538
584.110	15803
584.156	17217
584.183	17114
584.211	17005
584.255	17206
584.266	17278
584.321	17978
584.328	17967
584.376	18063
584.400	18589
584.431	19077
584.472	18988
584.486	19040
584.541	20163
584.545	20168
584.596	20056
584.617	20086
584.651	20573
584.689	22115
584.706	22704
584.761	23374
584.762	23373
584.816	24377
584.834	25112
584.871	26338
584.906	26744
584.926	27206
584.978	29021
584.980	29109
585.035	32687
585.051	33395
585.090	35711
585.123	38858
585.145	41026
585.195	44734
585.200	45264
585.254	52891
585.267	55083
585.309	62871
585.340	69314
585.364	75551
585.412	89060
585.419	91476
585.473	118543
585.484	126844
585.528	172884
585.556	218484
585.583	290574
585.628	464349
585.637	514619
585.692	935877
585.700	977889
585.747	1093236
585.772	969658
585.801	694134
585.845	382995
585.856	326456
585.910	167219
585.917	151382
585.965	107222
585.989	89208
586.019	77191
586.061	63702
586.074	61194
586.128	52889
586.133	52178
586.183	47385
586.205	45547
586.237	43832
586.277	42603
586.292	42448
586.346	40795
586.349	40699
586.401	39597
586.421	38948
586.455	38130
586.493	38005
586.509	38542
586.564	39675
586.565	39701
586.618	44211
586.637	45626
586.672	49605
586.709	55516
586.727	58609
586.781	64679
586.781	64732
586.835	54072
586.853	51216
586.889	45432
586.925	41156
586.944	40011
586.996	37877
586.998	37898
587.052	36139
587.068	35879
587.106	36018
587.140	35753
587.161	35872
587.212	35983
587.215	36033
587.269	35961
587.284	36037
587.323	36887
587.356	38084
587.377	38895
587.427	38909
587.431	38905
587.485	38349
587.499	38371
587.539	40156
587.571	41321
587.593	42126
587.643	44157
587.648	44344
587.702	44681
587.715	44770
587.755	45206
587.786	45094
587.810	44903
587.858	44645
587.864	44758
587.917	45377
587.930	45361
587.971	45496
588.001	45563
588.025	45772
588.073	46019
588.079	46140
588.133	46070
588.145	46087
588.187	46061
588.217	45941
588.241	46498
588.288	47176
588.295	47359
588.348	48668
588.360	48740
588.402	49272
588.431	49690
588.456	50249
588.503	50971
588.510	51396
588.564	54538
588.575	55186
588.617	57680
588.646	59185
588.671	60544
588.718	63021
588.725	64011
588.778	73434
588.789	76011
588.832	103900
588.861	126003
588.886	174298
588.932	283366
588.939	295285
588.993	355794
589.004	356010
589.047	196500
589.075	109448
589.100	91256
589.147	63998
589.154	63520
589.207	59155
589.218	58364
589.261	59544
589.290	60129
589.314	61222
589.361	64143
589.368	65840
589.421	80647
589.433	84557
589.475	129552
589.504	165784
589.528	216659
589.576	312515
589.582	302905
589.635	167381
589.647	142398
589.689	93244
589.718	61921
589.742	59871
589.790	55642
589.795	55773
589.849	56017
589.861	55952
589.902	55673
589.932	55001
589.955	54316
590.004	53101
590.009	53229
590.062	52734
590.075	52502
590.115	52837
590.146	53341
590.168	53218
590.218	51857
590.222	52132
590.275	54345
590.289	54840
590.328	55655
590.360	55889
590.381	56644
590.431	58315
590.435	58479
590.488	58495
590.503	58354
590.541	58881
590.574	59125
590.594	59991
590.645	61938
590.647	62159
590.700	63693
590.716	64067
590.753	65772
590.787	66882
590.806	67877
590.859	70048
590.859	70233
590.912	70471
590.930	70388
590.965	71733
591.001	72794
591.018	72653
591.071	71253
591.072	71050
591.124	70900
591.143	70609
591.177	70913
591.214	70970
591.230	71507
591.283	72538
591.285	72383
591.336	71993
591.356	71588
591.389	72155
591.427	72406
591.442	72463
591.495	71967
591.498	71740
591.547	72567
591.569	72664
591.600	73849
591.640	74865
591.653	75146
591.706	75505
591.711	75360
591.759	78109
591.782	79103
591.811	81317
591.853	84077
591.864	84246
591.917	83741
591.924	83442
591.969	83778
591.995	83653
592.022	84434
592.066	85015
592.075	85677
592.127	88401
592.137	88631
592.180	90235
592.208	90892
592.233	91674
592.279	92456
592.285	93104
592.338	96286
592.350	96743
592.390	95916
592.421	94787
592.443	96103
592.491	98163
592.495	98513
592.548	99450
592.562	99421
592.600	100309
592.633	100551
592.653	101019
592.704	100902
592.705	101501
592.775	102401
592.846	107028
592.916	107595
592.987	107114
593.058	109343
593.128	108656
593.199	110904
593.270	112053
593.341	113498
593.411	116383
593.482	121892
593.553	124903
593.623	125329
593.694	131583
593.764	132452
593.835	132327
593.906	132406
593.976	136778
594.047	139316
594.117	147680
594.188	149645
594.258	148987
594.329	149331
594.399	153652
594.470	158591
594.540	164560
594.611	167903
594.681	164750
594.751	165878
594.822	173293
594.892	177802
594.963	183808
595.033	188267
595.103	193770
595.174	194714
595.244	202022
595.314	207815
595.384	210067
595.455	215503
595.525	223379
595.595	231091
595.665	232157
595.736	225423
595.806	230454
595.876	233713
595.946	233672
596.016	245130
596.087	252054
596.157	251399
596.227	254952
596.297	265462
596.367	282463
596.437	297920
596.507	298531
596.577	297384
596.647	305291
596.717	319238
596.787	326512
596.857	323911
596.927	326180
596.997	325581
597.067	332513
597.137	336822
597.207	337943
597.277	339396
597.347	330174
597.417	316542
597.487	316876
597.557	324582
597.626	332918
597.696	336325
597.766	335255
597.836	318448
597.906	300843
597.975	294686
598.045	301532
598.115	312471
598.185	335276
598.254	371777
598.324	402109
598.394	405706
598.464	391337
598.533	389435
598.603	365151
598.672	352402
598.742	361521
598.812	363677
598.881	373119
598.951	372807
599.020	377173
599.090	388868
599.159	395799
599.229	380323
599.299	373840
599.368	382862
599.437	377585
599.507	348241
599.576	337829
599.646	333532
599.715	327319
599.785	328201
599.854	315677
599.924	312770
599.993	311665
600.062	319102
600.132	327596
600.201	344483
600.270	394923
600.340	416430
600.409	409544
600.478	403756
600.547	410899
600.617	376441
600.686	303759
600.755	278010
600.824	264713
600.894	259897
600.963	260387
601.032	258037
601.101	249066
601.170	235905
601.239	228887
601.308	230754
601.378	229708
601.447	231961
601.516	232433
601.585	234965
601.654	238321
601.723	236694
601.792	246306
601.861	251956
601.930	261274
601.999	263957
602.068	264028
602.137	267461
602.206	269170
602.275	275361
602.343	278439
602.412	277406
602.481	282822
602.550	284844
602.619	292280
602.688	295100
602.756	299331
602.825	296906
602.894	306558
602.963	314188
603.032	316780
603.100	320315
603.169	318555
603.238	322013
603.307	320586
603.375	324901
603.444	332979
603.513	336915
603.581	343491
603.650	346505
603.719	337614
603.787	348981
603.856	355315
603.924	363908
603.993	377696
604.061	389527
604.130	403427
604.198	412260
604.267	417956
604.335	426182
604.404	429613
604.472	437111
604.541	439035
604.609	445845
604.678	444910
604.746	446239
604.815	460596
604.883	464274
604.951	464291
605.020	472881
605.088	481225
605.156	487300
605.225	495010
605.293	495406
605.361	497479
605.429	499688
605.498	507816
605.566	519628
605.634	542324
605.702	556402
605.771	572330
605.839	573859
605.907	564118
605.975	544693
606.043	535890
606.111	536166
606.180	535640
606.248	531030
606.316	523770
606.384	528428
606.452	528829
606.520	534365
606.588	553272
606.656	556777
606.724	543568
606.792	518389
606.860	474270
606.928	437706
606.996	421865
607.064	415685
607.132	427031
607.200	450986
607.267	462189
607.335	472847
607.403	482417
607.471	463809
607.539	455612
607.607	454404
607.674	406764
607.742	406518
607.810	401919
607.878	402810
607.946	414058
608.013	433679
608.081	436755
608.149	438926
608.216	457294
608.284	466117
608.352	470740
608.419	464138
608.487	455537
608.555	444723
608.622	460926
608.690	485735
608.757	528727
608.825	539442
608.893	526454
608.960	499980
609.028	482828
609.095	481473
609.163	482502
609.230	433778
609.298	398118
609.365	423422
609.432	454791
609.500	485564
609.567	545838
609.635	608904
609.702	631556
609.769	603134
609.837	489595
609.904	438920
609.971	455553
610.039	495177
610.106	604669
610.173	925082
610.241	1440254
610.308	1182005
610.375	641222
610.442	511621
610.509	469013
610.577	460745
610.644	461819
610.711	472820
610.778	479744
610.845	497438
610.912	525056
610.980	539980
611.047	541005
611.114	531323
611.181	518489
611.248	515218
611.315	540890
611.382	551956
611.449	570984
611.516	579356
611.583	571500
611.650	577703
611.717	584325
611.784	599779
611.851	624019
611.918	657142
611.984	744032
612.051	924625
612.118	1291126
612.185	1702827
612.252	1572058
612.319	1056235
612.386	827347
612.452	724158
612.519	672132
612.586	645709
612.653	648784
612.719	661371
612.786	635906
612.853	598507
612.919	586855
612.986	595704
613.053	564169
613.120	536083
613.186	517528
613.253	519343
613.319	520287
613.386	522431
613.453	528868
613.519	532044
613.586	519700
613.652	527273
613.719	523272
613.785	528158
613.852	536311
613.918	531462
613.985	531124
614.051	553658
614.118	550941
614.184	531221
614.250	532242
614.317	538619
614.383	536601
614.449	542904
614.516	538047
614.582	539572
614.648	533159
614.715	527904
614.781	521451
614.847	520929
614.914	518100
614.980	505743
615.046	504994
615.112	520541
615.179	524461
615.245	528076
615.311	523223
615.377	529440
615.443	538607
615.509	543865
615.575	564448
615.642	566855
615.708	579517
615.774	603400
615.840	639743
615.906	680610
615.972	785269
616.038	1019147
616.104	1437817
616.170	1771452
616.236	1710478
616.302	1319571
616.368	1091188
616.434	866184
616.500	751920
616.565	790237
616.631	950509
616.697	862256
616.763	834485
616.829	1073944
616.895	1503183
616.961	1506024
617.026	1032909
617.092	725124
617.158	623869
617.224	578970
617.289	535435
617.355	501341
617.421	492718
617.487	484596
617.552	463669
617.618	457690
617.684	455992
617.749	452648
617.815	439449
617.880	428040
617.946	427845
618.012	435394
618.077	446842
618.143	423440
618.208	426425
618.274	455042
618.339	455013
618.405	384801
618.470	382515
618.536	383390
618.601	376190
618.667	352347
618.732	334812
618.798	329650
618.863	330201
618.928	326363
618.994	330685
619.059	326760
619.124	329881
619.190	327295
619.255	325340
619.320	327844
619.386	326928
619.451	323077
619.516	313439
619.581	317899
619.647	327950
619.712	326750
619.777	312482
619.842	317304
619.907	319958
619.972	326887
620.038	324288
620.103	315842
620.168	316871
620.233	321946
620.298	322579
620.363	326591
620.428	333586
620.493	342285
620.558	347293
620.623	349112
620.688	350093
620.753	347551
620.818	352882
620.883	354801
620.948	353176
621.013	348677
621.078	341918
621.143	348137
621.207	352964
621.272	345446
621.337	336709
621.402	333933
621.467	328655
621.532	329868
621.596	332719
621.661	322564
621.726	321442
621.791	322770
621.855	323961
621.920	319314
621.985	323779
622.049	332128
622.114	332647
622.179	337352
622.243	345095
622.308	355238
622.373	363872
622.437	358671
622.502	342998
622.566	336007
622.631	337712
622.695	343690
622.760	341243
622.824	342627
622.889	342458
622.953	342371
623.018	361135
623.082	365731
623.147	361435
623.211	353251
623.276	355720
623.340	342176
623.404	333924
623.469	331853
623.533	336426
623.597	327265
623.662	328090
623.726	306461
623.790	289585
623.854	280356
623.919	287619
623.983	291293
624.047	296564
624.111	296658
624.176	301979
624.240	304915
624.304	313445
624.368	303314
624.432	302567
624.496	311075
624.560	325025
624.625	331662
624.689	327414
624.753	340769
624.817	326580
624.881	318653
624.945	288969
625.009	281993
625.073	287894
625.137	294551
625.201	308169
625.265	307844
625.329	296489
625.393	302630
625.456	303447
625.520	311253
625.584	316445
625.648	323347
625.712	333470
625.776	336371
625.839	318935
625.903	271178
625.967	251918
626.031	269423
626.095	315570
626.158	293800
626.222	232781
626.286	219069
626.349	211941
626.413	198305
626.477	196314
626.540	201310
626.604	199237
626.668	195976
626.731	192641
626.795	194833
626.858	194928
626.922	191986
626.986	191338
627.049	190238
627.113	200716
627.176	192170
627.240	188121
627.303	188690
627.366	186632
627.430	188762
627.493	187167
627.557	182554
627.620	186737
627.684	195591
627.747	197526
627.810	180934
627.874	163692
627.937	157847
628.000	163009
628.064	158158
628.127	143734
628.190	141642
628.253	138191
628.317	133151
628.380	127434
628.443	123784
628.506	122403
628.569	117772
628.632	111822
628.696	112966
628.759	112973
628.822	108181
628.885	105078
628.948	103538
629.011	102756
629.074	98112
629.137	97017
629.200	94261
629.263	93076
629.326	92357
629.389	93284
629.452	91306
629.515	90590
629.578	89025
629.641	92470
629.704	91659
629.767	91125
629.830	86797
629.892	85867
629.955	84772
630.018	87135
630.081	85157
630.144	86324
630.207	83767
630.269	86513
630.332	83095
630.395	82430
630.458	81184
630.520	76796
630.583	78287
630.646	80733
630.708	81196
630.771	82396
630.834	87918
630.896	85644
630.959	85107
631.021	84053
631.084	83883
631.146	85309
631.209	86377
631.272	85855
631.334	88903
631.397	90395
631.459	91148
631.522	96787
631.584	100668
631.646	106477
631.709	111297
631.771	111470
631.834	107277
631.896	99320
631.958	94177
632.021	92190
632.083	87396
632.145	83904
632.208	82787
632.270	81699
632.332	80837
632.395	79626
632.457	81019
632.519	79503
632.581	79606
632.643	78563
632.706	79650
632.768	77443
632.830	78725
632.892	80117
632.954	80229
633.016	82742
633.078	80666
633.141	80755
633.203	79748
633.265	81240
633.327	79161
633.389	81010
633.451	83410
633.513	80388
633.575	84907
633.637	83772
633.698	85657
633.760	91224
633.822	94722
633.884	97921
633.946	101948
634.008	105893
634.070	110749
634.132	116918
634.193	128338
634.255	137384
634.317	139010
634.379	138362
634.441	124063
634.502	114265
634.564	102894
634.626	96489
634.687	90204
634.749	86185
634.811	84308
634.873	82300
634.934	83473
634.996	83073
635.057	83251
635.119	84656
635.181	87526
635.242	89343
635.304	87126
635.365	90666
635.427	87920
635.488	87973
635.550	87451
635.611	90392
635.673	91506
635.734	99355
635.796	103505
635.857	115302
635.918	123542
635.980	134917
636.041	145067
636.102	152650
636.164	153059
636.225	146589
636.286	129852
636.348	115758
636.409	104647
636.470	96746
636.531	92009
636.593	86633
636.654	83526
636.715	79027
636.776	78345
636.838	73922
636.899	72733
636.960	72605
637.021	70591
637.082	68841
637.143	66719
637.204	65631
637.265	65755
637.326	66849
637.387	68415
637.448	67417
637.509	67520
637.570	67203
637.631	66232
637.692	61918
637.753	61908
637.814	61713
637.875	60275
637.936	60925
637.997	60206
638.058	60031
638.119	60238
638.179	60601
638.240	59118
638.301	60003
638.362	57089
638.423	56037
638.483	57020
638.544	54277
638.605	55500
638.666	54685
638.726	55760
638.787	55729
638.848	55559
638.908	54311
638.969	51811
639.030	51353
639.090	51089
639.151	52570
639.211	53839
639.272	53744
639.332	54877
639.393	57669
639.453	61655
639.514	64990
639.574	55665
639.635	51578
639.695	51166
639.756	48290
639.816	47941
639.877	48881
639.937	49091
639.997	50646
640.058	49175
640.118	49610
640.178	50444
640.239	48818
640.299	49970
640.359	51909
640.420	55890
640.480	63048
640.540	71696
640.600	75350
640.661	69073
640.721	64405
640.781	66867
640.841	62426
640.901	54880
640.961	52642
641.021	55360
641.082	60954
641.142	53677
641.202	51164
641.262	46169
641.322	47986
641.382	45480
641.442	47892
641.502	46214
641.562	48440
641.622	49824
641.682	55376
641.742	63346
641.802	61053
641.861	50977
641.921	46245
641.981	45745
642.041	43100
642.101	42693
642.161	41356
642.221	44013
642.280	43120
642.340	42732
642.400	43365
642.460	45949
642.519	45781
642.579	45623
642.639	47824
642.698	45440
642.758	49774
642.818	48180
642.877	46445
642.937	47778
642.997	46545
643.056	46534
643.116	46202
643.175	48767
643.235	49666
643.294	51210
643.354	55410
643.414	59380
643.473	69300
643.532	81779
643.592	106652
643.651	153126
643.711	239407
643.770	421895
643.830	816864
643.889	1135834
643.948	592494
644.008	206389
644.067	118478
644.126	84424
644.186	70530
644.245	60890
644.304	55626
644.363	55321
644.423	50327
644.482	51504
644.541	54307
644.600	57314
644.659	69498
644.719	84032
644.778	119103
644.837	188159
644.896	356771
644.955	679330
645.014	294307
645.073	98525
645.132	70607
645.191	61565
645.250	58600
645.309	61253
645.368	68047
645.427	88744
645.486	151900
645.545	257998
645.604	87739
645.663	53583
645.722	52338
645.781	55662
645.840	62029
645.898	72805
645.957	97813
646.016	138097
646.075	222656
646.134	394943
646.192	804235
646.251	958796
646.310	362563
646.369	143620
646.427	106636
646.486	78302
646.545	59696
646.603	52060
646.662	48097
646.721	46484
646.779	46296
646.838	48507
646.896	59904
646.955	76039
647.014	114305
647.072	212499
647.131	505499
647.189	278307
647.248	65046
647.306	45408
647.365	40610
647.423	34234
647.481	37498
647.540	32971
647.598	34671
647.657	34862
647.715	34378
647.773	32185
647.832	33059
647.890	30108
647.948	30010
648.007	29766
648.065	27293
648.123	27400
648.181	29883
648.240	28199
648.298	26213
648.356	26871
648.414	28909
648.472	25834
648.531	26096
648.589	25721
648.647	26866
648.705	26642
648.763	27643
648.821	28365
648.879	30582
648.937	32956
648.995	39896
649.053	49000
649.111	68552
649.169	105152
649.227	180830
649.285	355385
649.343	751080
649.401	450824
649.459	110616
649.516	58820
649.574	46088
649.632	45224
649.690	48675
649.748	59895
649.806	85014
649.863	153504
649.921	387951
649.979	277076
650.037	54503
650.094	32145
650.152	28677
650.210	25503
650.268	26336
650.325	25378
650.383	28129
650.440	20916
650.498	21883
650.556	20887
650.613	20077
650.671	21120
650.728	22734
650.786	23944
650.843	36151
650.901	27398
650.958	19960
651.016	19211
651.073	18039
651.131	16937
651.188	17403
651.246	17130
651.303	16494
651.360	16612
651.418	16860
651.475	16316
651.532	16328
651.590	15973
651.647	15585
651.704	15370
651.762	16358
651.819	15690
651.876	14770
651.933	15201
651.990	15940
652.048	14011
652.105	14350
652.162	15212
652.219	15701
652.276	15124
652.333	15610
652.390	14549
652.448	15217
652.505	14621
652.562	14658
652.619	13313
652.676	15137
652.733	15298
652.790	13495
652.847	12385
652.904	14584
652.961	13276
653.017	13112
653.074	14215
653.131	14263
653.188	12785
653.245	13759
653.302	12851
653.359	13480
653.415	14220
653.472	13097
653.529	13594
653.586	13351
653.642	13306
653.699	14790
653.756	13225
653.813	14138
653.869	14404
653.926	14847
653.983	13144
654.039	13959
654.096	13284
654.152	14145
654.209	11999
654.266	13430
654.322	11295
654.379	13526
654.435	13211
654.492	12347
654.548	12318
654.605	13126
654.661	14761
654.717	12883
654.774	14048
654.830	13588
654.887	13149
654.943	13451
655.000	15606
655.056	14167
655.112	13306
655.168	12983
655.225	13026
655.281	14492
655.337	13649
655.394	13764
655.450	12432
655.506	12789
655.562	12426
655.618	13592
655.675	10925
655.731	10847
655.787	11864
655.843	13256
655.899	11494
655.955	12498
656.011	12876
656.067	12296
656.123	12630
656.179	12414
656.235	14052
656.291	11473
656.347	13933
656.403	12498
656.459	12553
656.515	12429
656.571	11706
656.627	12629
656.683	11488
656.739	12135
656.795	11820
656.850	12575
656.906	11142
656.962	14178
657.018	13180
657.074	16628
657.129	22641
657.185	34907
657.241	75544
657.297	45445
657.352	14176
657.408	11699
657.464	13044
657.519	10884
657.575	9781
657.630	11367
657.686	10780
657.742	10451
657.797	10220
657.853	11595
657.908	11443
657.964	10180
658.019	10897
658.075	10342
658.130	10557
658.186	10453
658.241	9743
658.297	9309
658.352	9859
658.407	11138
658.463	9426
658.518	11199
658.573	9811
658.629	9122
658.684	9521
658.739	9993
658.795	9266
658.850	10388
658.905	8800
658.960	9505
659.016	9575
659.071	9686
659.126	10066
659.181	9347
659.236	10106
659.291	9918
659.346	9381
659.401	9637
659.457	9773
659.512	9519
659.567	9916
659.622	9806
659.677	8627
659.732	8223
659.787	9165
659.842	8959
659.897	9182
659.952	9319
660.007	9544
660.061	8930
660.116	9157
660.171	8716
660.226	8509
660.281	9613
660.336	8183
660.391	9549
660.445	8262
660.500	8453
660.555	8652
660.610	8618
660.664	9725
660.719	8665
660.774	9399
660.828	9684
660.883	8312
660.938	9676
660.992	7959
661.047	8921
661.101	8753
661.156	8377
661.211	7847
661.265	9263
661.320	8670
661.374	8551
661.429	8321
661.483	9231
661.538	7959
661.592	9131
661.647	9429
661.701	11841
661.755	9257
661.810	9383
661.864	7998
661.919	8310
661.973	8607
662.027	8028
662.081	7901
662.136	7842
662.190	7957
662.244	9100
662.299	8669
662.353	9069
662.407	7360
662.461	8187
662.515	8207
662.569	7725
662.624	8250
662.678	7524
662.732	7784
662.786	7873
662.840	7814
662.894	8079
662.948	8210
663.002	8817
663.056	8645
663.110	7118
663.164	7968
663.218	8813
663.272	9137
663.326	8818
663.380	8377
663.434	8124
663.488	7649
663.542	8745
663.595	8502
663.649	8245
663.703	8350
663.757	9322
663.811	7817
663.864	7370
663.918	7419
663.972	9016
664.026	7654
664.079	8792
664.133	9265
664.187	9260
664.240	8704
664.294	9009
664.348	8851
664.401	9271
664.455	8135
664.508	8637
664.562	8240
664.615	9130
664.669	7909
664.722	7903
664.776	7864
664.829	8381
664.883	7995
664.936	8085
664.990	7672
665.043	9205
665.097	8397
665.150	8936
665.203	8340
665.257	8994
665.310	8823
665.363	9797
665.417	9816
665.470	9401
665.523	8755
665.576	9424
665.630	9168
665.683	8915
665.736	9443
665.789	9520
665.842	8002
665.895	9878
665.949	8624
666.002	9219
666.055	8238
666.108	10048
666.161	9033
666.214	9747
666.267	9154
666.320	9821
666.373	9891
666.426	10910
666.479	10107
666.532	10966
666.585	10366
666.638	11465
666.691	9568
666.744	10125
666.796	8883
666.849	9877
666.902	9649
666.955	9963
667.008	8681
667.060	9094
667.113	9352
667.166	9800
667.219	9526
667.271	10931
667.324	9324
667.377	9972
667.430	9026
667.482	9049
667.535	9232
667.587	9385
667.640	9226
667.693	9780
667.745	9734
667.798	9945
667.850	9262
667.903	9434
667.955	9118
668.008	9568
668.060	9720
668.113	10047
668.165	8048
668.218	9532
668.270	9247
668.322	8602
668.375	8558
668.427	10484
668.479	8762
668.532	10539
668.584	8429
668.636	9674
668.689	9144
668.741	8958
668.793	8137
668.845	9583
668.898	9125
668.950	9250
669.002	9556
669.054	8977
669.106	7611
669.158	8543
669.211	8326
669.263	9488
669.315	8242
669.367	8807
669.419	7880
669.471	9947
669.523	7228
669.575	9278
669.627	7744
669.679	7608
669.731	8821
669.783	8791
669.835	8553
669.886	7768
669.938	7077
669.990	9678
670.042	7813
670.094	7898
670.146	8737
670.197	9047
670.249	7593
670.301	9974
670.353	9775
670.404	9462
670.456	10377
670.508	14480
670.560	17436
670.611	25042
670.663	36441
670.715	76947
670.766	117169
670.818	40615
670.869	15427
670.921	13366
670.972	12833
671.024	11278
671.075	9380
671.127	11684
671.178	11365
671.230	13326
671.281	13409
671.333	16215
671.384	18567
671.436	25668
671.487	33680
671.538	46978
671.590	71893
671.641	112954
671.692	189172
671.744	322166
671.795	275741
671.846	137476
671.897	73375
671.949	47213
672.000	33142
672.051	25910
672.102	20038
672.153	16622
672.204	14744
672.256	13778
672.307	13095
672.358	11339
672.409	10439
672.460	9973
672.511	8957
672.562	9354
672.613	8143
672.664	9126
672.715	8667
672.766	7129
672.817	7360
672.868	7162
672.919	6405
672.970	6553
673.021	7069
673.071	6861
673.122	5996
673.173	6696
673.224	6543
673.275	6447
673.326	6182
673.376	6947
673.427	6211
673.478	6442
673.528	6657
673.579	6671
673.630	6348
673.680	7730
673.731	5836
673.782	6212
673.832	6209
673.883	6487
673.934	6008
673.984	6850
674.035	6528
674.085	6862
674.136	6211
674.186	7207
674.237	6643
674.287	7400
674.338	7352
674.388	8172
674.438	7288
674.489	8303
674.539	8786
674.589	9077
674.640	7764
674.690	7927
674.740	7264
674.791	7242
674.841	7309
674.891	6493
674.942	5693
674.992	5530
675.042	5266
675.092	5870
675.142	5407
675.193	5485
675.243	5579
675.293	5698
675.343	4999
675.393	6100
675.443	5975
675.493	6084
675.543	4602
675.593	6224
675.643	5814
675.693	6132
675.743	4961
675.793	6276
675.843	5043
675.893	5001
675.943	5348
675.993	4628
676.043	4917
676.093	5792
676.142	4475
676.192	5544
676.242	5467
676.292	5770
676.341	5021
676.391	3806
676.441	4614
676.491	4334
676.540	3379
676.590	4452
676.640	4278
676.689	4966
676.739	3468
676.789	4613
676.838	4555
676.888	5205
676.937	4693
676.987	4379
677.037	4224
677.086	4258
677.136	3686
677.185	3777
677.235	3175
677.284	4914
677.333	4365
677.383	4714
677.432	3731
677.482	4428
677.531	3754
677.580	4172
677.630	4191
677.679	4279
677.728	3666
677.778	3850
677.827	3666
677.876	4230
677.925	4191
677.975	4386
678.024	4510
678.073	4523
678.122	4703
678.171	5044
678.220	5469
678.269	7554
678.319	7959
678.368	8567
678.417	6482
678.466	5496
678.515	4831
678.564	4546
678.613	3662
678.662	4676
678.711	3533
678.760	4176
678.809	4122
678.857	5096
678.906	4149
678.955	4759
679.004	4225
679.053	4757
679.102	3842
679.151	3667
679.199	3083
679.248	4303
679.297	4112
679.346	4174
679.394	2907
679.443	3155
679.492	4024
679.540	4312
679.589	4006
679.638	4235
679.686	4270
679.735	4374
679.784	5189
679.832	6919
679.881	4920
679.929	5088
679.978	4185
680.026	3732
680.075	4063
680.123	3931
680.172	2725
680.220	3399
680.268	2892
680.317	3314
680.365	2969
680.414	2722
680.462	3858
680.510	4014
680.559	3154
680.607	3698
680.655	3031
680.703	4800
680.752	3798
680.800	3457
680.848	2540
680.896	3544
680.945	3414
680.993	2894
681.041	2526
681.089	2945
681.137	2661
681.185	3223
681.233	2849
681.258	2778
681.281	2687
681.329	2650
681.377	2635
681.380	2686
681.425	3196
681.473	3782
681.502	3703
681.521	3607
681.569	4956
681.617	4462
681.624	4371
681.665	3602
681.713	3498
681.745	3836
681.761	3969
681.809	2971
681.857	4957
681.867	4740
681.904	3895
681.952	3843
681.989	3381
682.000	3207
682.048	4352
682.096	4330
682.111	4318
682.143	4225
682.191	3867
682.233	5073
682.239	5233
682.286	3302
682.334	4514
682.354	4232
682.382	3821
682.430	4404
682.476	4108
682.477	4080
682.525	4611
682.572	4218
682.598	4291
682.620	4333
682.667	4517
682.715	4423
682.720	4401
682.763	3937
682.810	4491
682.841	4479
682.857	4453
682.905	4390
682.952	4311
682.963	4487
683.000	5002
683.047	4504
683.085	4946
683.095	5053
683.142	4816
683.190	5133
683.206	5254
683.237	5384
683.284	4926
683.328	4779
683.332	4753
683.379	4296
683.426	4231
683.449	4599
683.473	4929
683.521	4865
683.568	4958
683.571	5001
683.615	5306
683.662	4977
683.693	5391
683.709	5587
683.757	5039
683.804	5510
683.814	5337
683.851	4684
683.898	5482
683.936	5469
683.945	5461
683.992	4992
684.039	5549
684.057	5543
684.086	5473
684.133	6130
684.179	5517
684.180	5481
684.227	5430
684.274	6513
684.300	6213
684.321	5953
684.368	5665
684.415	5184
684.422	5138
684.462	4824
684.509	5124
684.543	5809
684.556	6051
684.603	6024
684.649	5664
684.665	6103
684.696	6949
684.743	5903
684.786	6638
684.790	6681
684.837	6011
684.883	6267
684.908	6265
684.930	6275
684.977	6390
685.023	5978
685.029	6029
685.070	6292
685.117	6316
685.150	6145
685.164	6086
685.210	6245
685.257	6846
685.272	6997
685.303	7271
685.350	6422
685.393	6916
685.396	6933
685.443	6301
685.490	6452
685.514	6716
685.536	6950
685.583	6090
685.629	6006
685.636	5956
685.675	5730
685.722	6918
685.757	6620
685.768	6540
685.815	7377
685.861	6845
685.878	6860
685.908	6786
685.954	6427
686.000	7017
686.000	7021
686.047	7126
686.093	7631
686.121	7155
686.139	6814
686.185	7693
686.232	7073
686.242	7214
686.278	7715
686.324	7319
686.363	7445
686.370	7453
686.416	7611
686.463	7883
686.484	7816
686.509	7768
686.555	7488
686.601	7712
686.606	7729
686.647	7652
686.693	7042
686.727	7107
686.739	7230
686.785	7554
686.831	7832
686.848	7946
686.877	7945
686.923	7543
686.969	7365
686.969	7365
687.015	7903
687.061	7979
687.090	8741
687.107	9066
687.153	9026
687.199	8805
687.211	8477
687.245	7645
687.291	8384
687.332	7713
687.336	7659
687.382	8237
687.428	8143
687.453	8429
687.474	8708
687.520	8875
687.565	9311
687.574	9178
687.611	8715
687.657	9390
687.695	10215
687.702	10462
687.748	11838
687.794	13044
687.816	13310
687.839	12780
687.885	11533
687.931	10856
687.937	10585
687.976	9334
688.022	9948
688.058	9291
688.067	9175
688.113	9607
688.158	9204
688.179	9161
688.204	9238
688.249	9143
688.295	9421
688.300	9420
688.340	9461
688.386	9316
688.421	9119
688.431	9081
688.477	8971
688.522	9633
688.542	9757
688.567	9945
688.613	9641
688.658	10169
688.663	10142
688.703	9916
688.749	9499
688.784	9962
688.794	10108
688.839	10131
688.884	10170
688.905	10234
688.930	10164
688.975	10266
689.020	9713
689.026	9652
689.065	9616
689.110	10013
689.146	9985
689.155	9981
689.201	10562
689.246	10674
689.267	10621
689.291	10447
689.336	9825
689.381	10085
689.388	10036
689.426	9984
689.471	10250
689.509	9807
689.516	9720
689.561	10098
689.606	9515
689.630	9586
689.651	9796
689.696	9692
689.741	10635
689.750	10628
689.785	10600
689.830	10485
689.871	10455
689.875	10448
689.920	10718
689.965	10365
689.992	10214
690.010	10122
690.054	9899
690.099	10045
690.112	9914
690.144	9774
690.189	10320
690.233	10221
690.233	10233
690.278	10333
690.323	10271
690.354	10274
690.367	10305
690.412	10488
690.457	10550
690.474	10541
690.501	10478
690.546	10572
690.590	10214
690.595	10207
690.635	10326
690.680	10160
690.716	10065
690.724	10098
690.769	10545
690.813	10568
690.836	10738
690.857	11052
690.902	11099
690.946	11696
690.957	11807
690.991	12209
691.035	12499
691.077	13360
691.080	13404
691.124	13229
691.168	13094
691.198	12732
691.213	12409
691.257	12323
691.301	11546
691.318	11401
691.346	11528
691.390	11241
691.434	11211
691.439	11215
691.478	11459
691.522	11527
691.559	11070
691.567	11031
691.611	11452
691.655	11866
691.680	11778
691.699	11692
691.743	11752
691.787	11994
691.800	11835
691.831	11326
691.875	11509
691.919	11235
691.921	11213
691.964	11260
692.008	11012
692.041	10754
692.052	10804
692.096	11299
692.139	11641
692.162	11759
692.183	11590
692.227	11613
692.271	11211
692.282	11141
692.315	11361
692.359	11296
692.402	11986
692.403	12011
692.447	11473
692.490	12127
692.523	12046
692.534	11992
692.578	11901
692.622	11714
692.643	11717
692.666	11762
692.709	11304
692.753	11533
692.763	11480
692.797	11610
692.840	11796
692.884	11960
692.884	11983
692.928	12235
692.971	11786
693.004	11759
693.015	11782
693.059	11779
693.102	11927
693.124	11803
693.146	11815
693.189	12106
693.233	12002
693.245	12043
693.276	12132
693.320	12282
693.363	12273
693.365	12234
693.407	12095
693.450	12437
693.485	12734
693.493	12816
693.537	13052
693.580	12774
693.605	13041
693.624	13352
693.667	13403
693.710	14114
693.725	14152
693.753	14893
693.797	16237
693.840	17411
693.845	17541
693.883	17113
693.926	16046
693.966	15558
693.970	15536
694.013	14842
694.056	14118
694.086	13615
694.099	13611
694.142	13609
694.185	13171
694.206	13174
694.229	13180
694.272	12973
694.315	12785
694.326	12594
694.358	12457
694.401	12928
694.444	13232
694.446	13216
694.487	12977
694.530	12307
694.566	12110
694.573	12180
694.616	12384
694.659	12438
694.686	12518
694.702	12718
694.745	13227
694.787	13350
694.806	13710
694.830	14041
694.873	13948
694.916	14010
694.926	13980
694.959	14126
695.002	14289
695.044	14681
695.046	14663
695.087	14832
695.130	14464
695.166	14884
695.172	15002
695.215	14625
695.258	14939
695.286	14994
695.301	15196
695.343	15521
695.386	16016
695.406	16208
695.428	16758
695.471	17777
695.514	18770
695.526	19027
695.556	20393
695.599	22405
695.641	23849
695.646	24003
695.684	22805
695.726	21197
695.766	19823
695.769	19855
695.811	19303
695.854	19373
695.886	19001
695.896	19000
695.938	19073
695.981	19033
696.005	19097
696.023	19701
696.065	20785
696.108	22146
696.125	22490
696.150	22687
696.192	23372
696.235	23685
696.245	23787
696.277	23822
696.319	23496
696.361	23334
696.365	23258
696.404	23216
696.446	23241
696.485	23033
696.488	23057
696.530	22953
696.572	22580
696.604	22368
696.614	22458
696.656	22467
696.698	22642
696.724	22627
696.740	22808
696.783	23184
696.825	23585
696.844	23732
696.867	23740
696.909	23567
696.951	23365
696.964	23266
696.992	23396
697.034	23472
697.076	23589
697.083	23565
697.118	24567
697.160	25534
697.202	26641
697.203	26607
697.244	26145
697.286	25713
697.323	25078
697.327	25194
697.369	25907
697.411	26490
697.442	26965
697.453	26944
697.494	26418
697.536	26056
697.562	25694
697.578	25793
697.620	25983
697.661	26072
697.682	26119
697.703	26457
697.744	26943
697.786	27483
697.801	27583
697.828	27723
697.869	27810
697.911	27956
697.921	27928
697.952	27578
697.994	26948
698.035	26378
698.040	26243
698.077	26848
698.118	27553
698.160	28139
698.160	28074
698.201	28623
698.243	29067
698.279	29464
698.284	29618
698.325	30335
698.367	31086
698.399	31576
698.408	31771
698.449	32311
698.491	32867
698.518	33164
698.532	33094
698.573	32624
698.614	32162
698.638	31814
698.656	32039
698.697	32375
698.738	32725
698.757	32817
698.779	32838
698.820	32715
698.862	32588
698.877	32461
698.903	32446
698.944	32310
698.985	32160
698.996	32044
699.026	32124
699.067	32129
699.116	32060
699.235	32911
699.354	31766
699.474	29312
699.593	30269
699.713	30148
699.832	30491
699.951	31235
700.070	31747
700.190	28882
700.309	28395
700.428	27903
700.547	28866
700.667	26646
700.786	27692
700.905	25954
701.024	28446
701.143	26804
701.262	27913
701.381	29026
701.500	29106
701.619	27997
701.738	27994
701.857	27602
701.976	25875
702.095	26866
702.214	28135
702.333	26734
702.452	27870
702.571	27882
702.690	28248
702.809	27709
702.928	26167
703.047	24504
703.165	25847
703.284	26621
703.403	25304
703.522	25058
703.640	25421
703.759	24532
703.878	24110
703.997	25190
704.115	25049
704.234	24700
704.353	25711
704.471	23152
704.590	23531
704.708	22218
704.827	22732
704.946	21947
705.064	23487
705.183	21925
705.301	23047
705.420	21603
705.538	21624
705.656	19190
705.775	20125
705.893	21350
706.012	22169
706.130	19657
706.249	21839
706.367	19820
706.485	20959
706.604	19815
706.722	21000
706.840	23362
706.958	30780
707.077	24725
707.195	19816
707.313	19265
707.431	18649
707.549	18624
707.668	17672
707.786	19767
707.904	18047
708.022	19410
708.140	17738
708.258	18561
708.376	20511
708.494	17456
708.612	20584
708.730	20594
708.848	19642
708.966	19641
709.084	18957
709.202	18766
709.320	17375
709.438	17693
709.556	17292
709.674	15297
709.791	16539
709.909	14639
710.027	16237
710.145	16164
710.263	16884
710.380	16250
710.498	15408
710.616	16004
710.733	14796
710.851	16140
710.969	15528
711.086	14236
711.204	16530
711.322	15273
711.439	15745
711.557	13565
711.674	14526
711.792	15262
711.909	13985
712.027	13902
712.144	13997
712.262	15458
712.379	15727
712.497	15321
712.614	15311
712.732	15373
712.849	14444
712.966	14573
713.084	16353
713.201	13820
713.318	15869
713.436	17884
713.553	16323
713.670	19472
713.787	18793
713.905	17441
714.022	18560
714.139	20903
714.256	25782
714.373	39811
714.490	79773
714.608	209146
714.725	719066
714.842	664119
714.959	102630
715.076	39498
715.193	27844
715.310	22986
715.427	16428
715.544	17176
715.661	16783
715.778	15398
715.895	15525
716.011	14765
716.128	14862
716.245	14533
716.362	14322
716.479	12886
716.596	13277
716.713	13134
716.829	12976
716.946	12003
717.063	12003
717.180	10098
717.296	12190
717.413	12252
717.530	11593
717.646	10802
717.763	10816
717.880	11076
717.996	9803
718.113	10732
718.229	11358
718.346	10380
718.462	10318
718.579	11406
718.695	11133
718.812	12302
718.928	10530
719.045	10596
719.161	11203
719.277	12184
719.394	12161
719.510	12350
719.626	14988
719.743	19968
719.859	33114
719.975	75269
720.092	288230
720.208	549398
720.324	87597
720.440	22833
720.557	15818
720.673	13528
720.789	13017
720.905	13267
721.021	11601
721.137	10494
721.253	9816
721.369	10440
721.486	9947
721.602	9885
721.718	10452
721.834	9718
721.950	9796
722.066	9073
722.181	9119
722.297	8609
722.413	9479
722.529	9125
722.645	9185
722.761	9470
722.877	9425
722.993	12069
723.108	16579
723.224	13671
723.340	10591
723.456	9595
723.571	9052
723.687	8443
723.803	8800
723.918	8603
724.034	7792
724.150	8677
724.265	7761
724.381	9211
724.497	8546
724.612	8435
724.728	8018
724.843	6985
724.959	8595
725.074	8552
725.190	9501
725.305	7767
725.421	8175
725.536	8520
725.651	8558
725.767	7882
725.882	8953
725.997	7524
726.113	7854
726.228	7886
726.343	7638
726.459	7383
726.574	8310
726.689	7771
726.804	7371
726.920	8391
727.035	7732
727.150	7028
727.265	7230
727.380	7475
727.495	8243
727.610	7156
727.725	7093
727.841	8136
727.956	8730
728.071	7871
728.186	7550
728.301	6909
728.416	8408
728.531	7158
728.645	7319
728.760	7639
728.875	7973
728.990	7867
729.105	6855
729.220	7639
729.335	8449
729.449	7887
729.564	8066
729.679	6917
729.794	8968
729.908	7865
730.023	8114
730.138	7752
730.253	8939
730.367	8303
730.482	7531
730.596	8670
730.711	10369
730.826	14855
730.940	15092
731.055	11248
731.169	11235
731.284	12321
731.398	12474
731.513	14278
731.627	16309
731.742	20134
731.856	24313
731.970	27412
732.085	35832
732.199	55148
732.313	106722
732.428	262859
732.542	607932
732.656	342392
732.771	86325
732.885	45111
732.999	34612
733.113	33939
733.227	30143
733.342	27768
733.456	27051
733.570	24747
733.684	23421
733.798	22019
733.912	22047
734.026	21725
734.140	21931
734.254	21418
734.368	21560
734.482	21577
734.596	21031
734.710	20123
734.824	20383
734.938	19785
735.052	19931
735.166	19852
735.280	19781
735.393	18497
735.507	18891
735.621	18378
735.735	18595
735.849	18912
735.962	16849
736.076	18004
736.190	17790
736.303	17970
736.417	18673
736.531	16718
736.644	17643
736.758	16263
736.872	17244
736.985	17472
737.099	16702
737.212	16037
737.326	15977
737.439	17120
737.553	14345
737.666	16943
737.780	15133
737.893	16104
738.007	15486
738.120	15839
738.233	14989
738.347	15793
738.460	14640
738.573	16117
738.687	15259
738.800	14535
738.913	16400
739.026	15016
739.140	14234
739.253	14260
739.366	14143
739.479	13745
739.592	15038
739.705	12659
739.818	16346
739.932	13022
740.045	15391
740.158	13830
740.271	15162
740.384	14117
740.497	12688
740.610	14790
740.723	13262
740.836	13181
740.949	13108
741.062	15496
741.174	12853
741.287	13801
741.400	13236
741.513	10967
741.626	13924
741.739	12574
741.851	12536
741.964	13919
742.077	11833
742.189	11422
742.302	13408
742.415	11932
742.527	13115
742.640	13038
742.753	10761
742.865	12198
742.978	12595
743.090	11770
743.203	12608
743.316	10711
743.428	12115
743.541	11852
743.653	10527
743.766	11249
743.878	12225
743.990	11268
744.103	12100
744.215	10764
744.327	10660
744.440	12243
744.552	10180
744.664	10504
744.777	12078
744.889	10641
745.001	10950
745.113	11516
745.226	11100
745.338	10009
745.450	12592
745.562	9781
745.674	10083
745.786	12370
745.898	10802
746.010	9856
746.122	10749
746.234	10842
746.347	11362
746.459	10475
746.570	7658
746.682	10963
746.794	11799
746.906	8651
747.018	10157
747.130	10044
747.242	9392
747.354	9843
747.466	10685
747.577	9306
747.689	9708
747.801	9737
747.913	9329
748.024	9805
748.136	9525
748.248	8328
748.359	8782
748.471	9993
748.583	9258
748.694	8658
748.806	9539
748.918	8832
749.029	8595
749.141	8607
749.252	9805
749.364	6911
749.475	8111
749.587	7509
749.698	7646
749.809	8074
749.921	9498
750.032	7690
750.144	7864
750.255	7562
750.366	9036
750.478	7739
750.589	8557
750.700	7071
750.811	8542
750.923	7560
751.034	7651
751.145	8740
751.256	6939
751.367	7196
751.479	7790
751.590	6754
751.701	8204
751.812	6864
751.923	6847
752.034	9352
752.145	8016
752.256	8093
752.367	7104
752.478	7452
752.589	8507
752.700	8458
752.811	6899
752.922	7605
753.032	8356
753.143	7681
753.254	7372
753.365	9763
753.476	9289
753.586	7022
753.697	7568
753.808	7269
753.919	6981
754.029	6773
754.140	6737
754.251	7140
754.361	6850
754.472	7788
754.582	7119
754.693	7288
754.804	7929
754.914	7490
755.025	5501
755.135	7156
755.246	7916
755.356	5856
755.466	7009
755.577	7092
755.687	7710
755.798	6983
755.908	7203
756.018	6212
756.129	7374
756.239	7268
756.349	7222
756.460	7821
756.570	9005
756.680	7067
756.790	7228
756.900	6885
757.011	6516
757.121	5922
757.231	5926
757.341	6177
757.451	6590
757.561	5329
757.671	6439
757.781	6441
757.891	7136
758.001	6310
758.111	7521
758.221	8252
758.331	7566
758.441	7806
758.551	8008
758.661	7871
758.771	8923
758.880	8703
758.990	8362
759.100	7869
759.210	8496
759.320	7896
759.429	9046
759.539	9716
759.649	9704
759.758	12231
759.868	13561
759.978	13193
760.087	13903
760.197	13085
760.307	13026
760.416	12189
760.526	11193
760.635	11876
760.745	12827
760.854	13825
760.964	16149
761.073	16159
761.182	15410
761.292	12835
761.401	10934
761.511	8850
761.620	7636
761.729	8038
761.839	6876
761.948	7180
762.057	6891
762.166	7685
762.276	6734
762.385	7737
762.494	6503
762.603	6672
762.712	5762
762.822	6924
762.931	5603
763.040	5762
763.149	6013
763.258	6480
763.367	7018
763.476	4936
763.585	6226
763.694	6208
763.803	6266
763.912	6330
764.021	6264
764.130	6690
764.238	7149
764.347	7052
764.456	8290
764.565	8319
764.674	7377
764.783	6446
764.891	7615
765.000	8226
765.109	7604
765.217	7817
765.326	9402
765.435	10728
765.543	12380
765.652	12743
765.761	15063
765.869	20521
765.978	27985
766.086	43198
766.195	70901
766.303	142524
766.412	296445
766.520	253444
766.629	93680
766.737	49304
766.846	31901
766.954	22702
767.062	19338
767.171	14758
767.279	13319
767.387	10431
767.496	10231
767.604	9026
767.712	8701
767.820	8068
767.928	7918
768.037	6715
768.145	7766
768.253	7649
768.361	6943
768.469	6445
768.577	6863
768.685	7667
768.793	8004
768.901	6895
769.009	8753
769.117	9955
769.225	10298
769.333	15294
769.441	21855
769.549	34165
769.657	65530
769.765	154149
769.873	252378
769.981	108229
770.088	39693
770.196	24149
770.304	18097
770.412	15130
770.519	12897
770.627	11427
770.735	9977
770.842	10051
770.950	10141
771.058	9206
771.165	10820
771.273	11244
771.380	11357
771.488	15813
771.595	17512
771.703	13783
771.810	13911
771.918	14257
772.025	17629
772.133	18876
772.240	17586
772.348	20759
772.455	19281
772.562	18065
772.670	17093
772.777	17599
772.884	16471
772.991	15408
773.099	17606
773.206	15230
773.313	15049
773.420	16295
773.528	16116
773.635	14617
773.742	16492
773.849	15263
773.956	16281
774.063	14494
774.170	15505
774.277	15177
774.384	14221
774.491	14333
774.598	15634
774.705	14114
774.812	15232
774.919	14107
775.026	13811
775.133	14088
775.239	14335
775.346	13977
775.453	13634
775.560	12751
775.667	14356
775.773	13161
775.880	13377
775.987	13062
776.093	13714
776.200	13689
776.307	10365
776.413	12562
776.520	15305
776.627	12316
776.733	11184
776.840	10828
776.946	15598
777.053	11597
777.159	12022
777.266	11329
777.372	11764
777.478	13470
777.585	12679
777.691	9860
777.798	12895
777.904	10280
778.010	11092
778.117	11733
778.223	10691
778.329	10850
778.435	9824
778.542	11942
778.648	9720
778.754	10426
778.860	11429
778.966	10407
779.072	10091
779.178	10837
779.284	8859
779.391	9951
779.497	11235
779.603	12755
779.708	9452
779.815	10576
779.920	17785
780.026	18270
780.132	11004
780.238	9865
780.344	9187
780.450	12642
780.556	7908
780.661	9106
780.767	11346
780.873	6557
780.979	8495
781.085	9784
781.190	8480
781.296	8711
781.402	9418
781.507	8506
781.613	7305
781.719	7736
781.824	10409
781.930	8894
782.035	9388
782.141	9525
782.246	7083
782.352	7626
782.457	9011
782.563	8032
782.668	8588
782.773	7504
782.879	6532
782.984	8241
783.090	8675
783.195	8115
783.300	9384
783.405	6962
783.511	7012
783.616	8116
783.721	8227
783.826	6802
783.932	6883
784.037	7598
784.142	7870
784.247	7397
784.352	7517
784.457	5646
784.562	7662
784.667	7496
784.772	5299
784.877	5375
784.982	7925
785.087	7755
785.192	6521
785.297	6829
785.402	8052
785.507	7245
785.611	7260
785.716	5843
785.821	6972
785.926	6190
786.031	6660
786.135	5750
786.240	7000
786.345	4809
786.450	5649
786.554	6114
786.659	6084
786.763	5412
786.868	6426
786.973	6483
787.077	5500
787.182	4829
787.286	6192
787.391	7682
787.495	4885
787.600	4094
787.704	5056
787.809	7110
787.913	5242
788.017	6215
788.122	6872
788.226	5628
788.330	4102
788.435	6072
788.539	6905
788.643	5315
788.747	4572
788.852	5646
788.956	4906
789.060	6501
789.164	5625
789.268	4795
789.372	5887
789.476	4101
789.580	3690
789.684	4730
789.788	6353
789.892	5236
789.996	4805
790.100	3347
790.204	5891
790.308	6165
790.412	3945
790.516	3740
790.620	4676
790.724	6184
790.828	5020
790.931	2825
791.035	5821
791.139	3771
791.242	3986
791.346	4491
791.450	4978
791.554	4105
791.657	2999
791.761	4404
791.864	5880
791.968	4403
792.072	4869
792.175	3264
792.279	4032
792.382	3822
792.486	4070
792.589	4726
792.693	4821
792.796	3161
792.899	4956
793.003	5221
793.106	3599
793.209	4313
793.313	4660
793.416	1991
793.519	4894
793.623	5378
793.726	4920
793.829	3009
793.932	3235
794.035	3510
794.138	5940
794.242	6732
794.345	3352
794.448	3430
794.551	3808
794.654	9065
794.757	9523
794.860	4460
794.963	4688
795.066	3023
795.169	5069
795.272	3900
795.375	5687
795.477	2399
795.580	3772
795.683	1940
795.786	5144
795.889	3194
795.991	4620
796.094	4379
796.197	2720
796.300	5246
796.402	4162
796.505	2523
796.608	3651
796.710	4400
796.813	5475
796.915	4385
797.018	5398
797.120	4674
797.223	2846
797.326	5518
797.428	3548
797.530	2024
797.633	2953
797.735	5996
797.838	3387
797.940	5671
798.042	2986
798.145	4206
798.247	4735
798.349	1737
798.452	5083
798.554	3518
798.656	4292
798.758	5399
798.860	4108
798.962	3462
799.065	3223
799.167	2142
799.269	5115
799.371	5097
799.473	7600
799.575	4972
799.677	3491
799.779	4474
799.881	2868
799.983	4642
800.085	3660
800.187	3772
800.289	2677
800.390	2465
800.492	4641
800.594	4349
800.696	2710
800.798	3181
800.899	3474
801.001	3092
801.103	3427
801.205	3116
801.306	3883
801.408	3248
801.509	2948
801.611	3424
801.713	2945
801.814	1705
801.916	2329
802.017	2224
802.119	2097
802.220	3115
802.322	2099
802.423	3974
802.525	1598
802.626	1685
802.727	3104
802.829	2982
802.930	148
803.031	4134
803.133	2664
803.234	3582
803.335	2817
803.436	2304
803.538	3002
803.639	2235
803.740	3283
803.841	3099
803.942	3078
804.043	3239
804.144	1740
804.245	2379
804.346	2181
804.447	2248
804.548	2152
804.649	4137
804.750	2690
804.851	2522
804.952	3115
805.053	2348
805.154	1536
805.255	3086
805.355	3555
805.456	1842
805.557	1288
805.658	1542
805.758	2649
805.859	2292
805.960	2672
806.061	2041
806.161	2168
806.262	2070
806.362	2504
806.463	1291
806.564	2723
806.664	1488
806.765	2504
806.865	1646
806.966	1475
807.066	1018
807.166	3163
807.267	2390
807.367	1877
807.468	2031
807.568	1560
807.668	2060
807.769	3219
807.869	1505
807.969	1886
808.069	2726
808.170	2083
808.270	1476
808.370	2157
808.470	2284
808.570	1284
808.670	2339
808.770	1700
808.870	1190
808.970	2508
809.070	1257
809.170	2474
809.271	2940
809.370	2132
809.470	2553
809.570	1688
809.670	1082
809.770	2193
809.870	1867
809.970	2005
810.070	2113
810.169	2687
810.269	551
810.369	2975
810.469	1994
810.568	1578
810.668	1747
810.768	1875
810.867	3350
810.967	1139
811.066	1526
811.166	2224
811.265	2575
811.365	1047
811.464	1294
811.564	2358
811.663	2779
811.763	1185
811.862	2862
811.962	2665
812.061	1313
812.160	736
812.260	1850
812.359	1485
812.458	1812
812.557	2699
812.657	1905
812.756	2532
812.855	2336
812.954	1582
813.053	2508
813.153	2547
813.252	805
813.351	2867
813.450	2550
813.549	2304
813.648	1802
813.747	1378
813.846	3096
813.945	3042
814.044	2156
814.143	2435
814.242	2512
814.341	2227
814.439	2975
814.538	3459
814.637	3224
814.736	2792
814.835	3352
814.933	2517
815.032	4701
815.131	5990
815.229	11026
815.328	14228
815.427	10539
815.525	10122
815.624	8775
815.722	8678
815.821	9031
815.919	10199
816.018	10066
816.116	10327
816.215	9428
816.313	11378
816.412	12140
816.510	12818
816.609	13172
816.707	14166
816.805	12523
816.904	12582
817.002	13457
817.100	13176
817.198	13933
817.296	11785
817.395	13667
817.493	12672
817.591	10987
817.689	12157
817.787	11241
817.885	11070
817.983	9755
818.081	11813
818.179	11690
818.277	14009
818.375	11675
818.473	11371
818.571	10195
818.669	10603
818.767	12302
818.865	10171
818.963	8717
819.061	10799
819.158	9577
819.256	12470
819.354	10665
819.452	14887
819.549	10953
819.647	11824
819.745	8974
819.842	9139
819.940	9679
820.038	7740
820.135	8464
820.233	10359
820.330	8936
820.428	8105
820.525	9716
820.623	8254
820.720	7568
820.818	9489
820.915	9203
821.012	8883
821.110	7602
821.207	9182
821.304	7710
821.402	8940
821.499	8878
821.596	7487
821.693	8217
821.791	7994
821.888	8073
821.985	10049
822.082	6597
822.179	7645
822.276	8985
822.373	7367
822.470	7374
822.567	8322
822.664	6161
822.761	8491
822.858	7645
822.955	7870
823.052	6629
823.149	7422
823.246	7751
823.343	5192
823.440	6975
823.536	8053
823.633	6796
823.730	7092
823.827	8211
823.923	6759
824.020	6574
824.117	8729
824.213	6993
824.310	6761
824.407	5292
824.503	7665
824.600	6823
824.696	6094
824.793	7996
824.889	7916
824.986	6613
825.082	4918
825.179	5876
825.275	7942
825.371	7531
825.468	6064
825.564	3209
825.660	7521
825.757	7854
825.853	6650
825.949	5080
826.045	5638
826.142	6252
826.238	6351
826.334	6578
826.430	5964
826.526	4225
826.622	4197
826.718	6670
826.814	7231
826.910	5683
827.006	3670
827.102	4391
827.198	7223
827.294	7344
827.390	6416
827.486	4463
827.582	3061
827.678	4187
827.774	7635
827.869	4634
827.965	5084
828.061	4421
828.157	6175
828.252	5918
828.348	5136
828.444	4668
828.539	4039
828.635	5326
828.731	6280
828.826	4142
828.922	6073
829.017	6400
829.113	6451
829.208	4438
829.304	5059
829.399	7782
829.495	6492
829.590	5034
829.685	4792
829.781	5757
829.876	6013
829.971	3199
830.066	3288
830.162	4646
830.257	7626
830.352	5246
830.447	4550
830.543	4941
830.638	5504
830.733	6572
830.828	5421
830.923	5259
831.018	5900
831.113	6554
831.208	4184
831.303	2925
831.398	3320
831.493	5233
831.588	7447
831.683	3169
831.778	3515
831.873	4279
831.967	6216
832.062	5579
832.157	4532
832.252	5067
832.346	4350
832.441	5274
832.536	4711
832.631	4373
832.725	4137
832.820	4216
832.914	4525
833.009	3609
833.104	2935
833.198	3157
833.293	3708
833.387	6011
833.482	4387
833.576	3875
833.670	5993
833.765	5319
833.859	5817
833.954	5018
834.048	5148
834.142	3938
834.237	2310
834.331	3733
834.425	4624
834.519	2760
834.613	3431
834.708	3855
834.802	3678
834.896	2929
834.990	3665
835.084	3200
835.178	2926
835.272	3354
835.366	4960
835.460	5932
835.554	4219
835.648	1987
835.742	2151
835.836	3416
835.930	2999
836.024	4341
836.117	3812
836.211	2475
836.305	3513
836.399	3571
836.493	2633
836.586	3872
836.680	3015
836.774	2169
836.867	3863
836.961	1732
837.055	2519
837.148	2362
837.242	3074
837.335	3247
837.429	3089
837.522	2864
837.616	2646
837.709	3563
837.803	2462
837.896	4349
837.989	3221
838.083	2844
838.176	2149
838.269	1152
838.363	3715
838.456	2569
838.549	3647
838.642	2087
838.735	2827
838.829	3238
838.922	2752
839.015	1877
839.108	2759
839.201	2939
839.294	3657
839.387	2490
839.480	808
839.573	2430
839.666	1552
839.759	3006
839.852	893
839.945	2613
840.038	1939
840.131	1608
840.223	1653
840.316	3415
840.409	3638
840.502	2962
840.594	4154
840.687	64
840.780	1795
840.873	423
840.965	1834
841.058	2086
841.150	3350
841.243	1997
841.336	3243
841.428	1309
841.521	2020
841.613	1433
841.706	2639
841.798	1644
841.890	2506
841.983	523
842.075	2752
842.167	1993
842.260	2419
842.352	3246
842.444	1813
842.537	1693
842.629	1944
842.721	1602
842.813	2838
842.905	1457
842.997	2631
843.090	1585
843.182	2000
843.274	913
843.366	2874
843.458	3243
843.550	3532
843.642	2150
843.734	2223
843.826	676
843.918	1130
844.009	1732
844.101	1581
844.193	2457
844.285	3073
844.377	2388
844.469	1729
844.560	730
844.652	1465
844.744	1345
844.835	2208
844.927	2263
845.019	2382
845.110	2033
845.202	2328
845.293	1496
845.385	1476
845.476	2251
845.568	2304
845.659	1186
845.751	2113
845.842	1578
845.934	2111
846.025	1489
846.116	2438
846.208	1873
846.299	1086
846.390	717
846.482	2209
846.573	2149
846.664	1708
846.755	1002
846.846	1941
846.937	412
847.029	1216
847.120	1553
847.211	2146
847.302	2672
847.393	1862
847.484	2163
847.575	941
847.666	816
847.757	1591
847.847	1504
847.938	2492
848.029	2842
848.120	2427
848.211	1178
848.302	944
848.392	997
848.483	2633
848.574	1793
848.664	1542
848.755	1591
848.846	2133
848.936	1026
849.027	2877
849.118	2920
849.208	2155
849.299	4984
849.389	8868
849.480	15869
849.570	31482
849.661	55568
849.751	84609
849.841	34825
849.932	8709
850.022	4233
850.112	3934
850.203	3264
850.293	2587
850.383	2794
850.474	1886
850.564	1907
850.654	2062
850.744	2018
850.834	1975
850.924	1650
851.014	2693
851.104	1967
851.194	1884
851.284	1127
851.374	943
851.464	1492
851.554	1881
851.644	1962
851.734	2085
851.824	2869
851.914	1442
852.004	1882
852.094	1428
852.183	1549
852.273	2093
852.363	1272
852.452	1735
852.542	2192
852.632	1865
852.721	2034
852.811	2207
852.901	2776
852.990	3084
853.080	2430
853.169	3477
853.259	4722
853.348	4235
853.438	7280
853.527	8673
853.617	12093
853.706	20490
853.795	33744
853.885	63067
853.974	103071
854.063	167328
854.152	199269
854.242	106274
854.331	40578
854.420	20293
854.509	13177
854.598	9476
854.687	6719
854.777	6168
854.866	4455
854.955	4379
855.044	3601
855.133	3226
855.222	3168
855.311	1880
855.400	1841
855.488	1992
855.577	742
855.666	2111
855.755	2045
855.844	1557
855.933	1257
856.021	2525
856.110	952
856.199	1322
856.288	912
856.376	1393
856.465	451
856.554	2351
856.642	1814
856.731	2078
856.819	2141
856.908	1091
856.996	1475
857.085	1696
857.173	1085
857.262	380
857.350	1073
857.438	1751
857.527	1690
857.615	1245
857.703	1707
857.792	1234
857.880	830
857.968	353
858.056	1587
858.145	1658
858.233	949
858.321	872
858.409	1611
858.497	1172
858.585	1313
858.673	656
858.761	238
858.849	1426
858.937	1057
859.025	1484
859.113	1350
859.201	1180
859.289	2295
859.377	1711
859.465	1548
859.552	623
859.640	274
859.728	1579
859.816	893
859.903	957
859.991	733
860.079	1629
860.166	1114
860.254	1838
860.342	1175
860.429	1178
860.517	329
860.604	1556
860.692	1100
860.779	122
860.867	1043
860.954	1591
861.042	1398
861.129	1922
861.216	2059
861.304	1754
861.391	1670
861.478	2095
861.565	1989
861.653	1818
861.740	1046
861.827	1672
861.914	1232
862.001	1743
862.089	1295
862.176	1578
862.263	1620
862.350	1477
862.437	409
862.524	2066
862.611	560
862.698	1956
862.785	1239
862.871	2582
862.958	1534
863.045	2056
863.132	310
863.219	1103
863.306	406
863.392	2069
863.479	1573
863.566	1247
863.652	1923
863.739	2068
863.826	2440
863.912	1138
863.999	1321
864.086	2517
864.172	2061
864.259	3187
864.345	2685
864.432	2397
864.518	1925
864.604	3660
864.691	2475
864.777	2661
864.863	4510
864.950	5946
865.036	8738
865.122	14172
865.209	14422
865.295	12956
865.381	12960
865.467	12106
865.553	15500
865.639	18266
865.726	25823
865.812	39900
865.898	64045
865.984	91006
866.070	140599
866.156	136191
866.242	61918
866.328	27523
866.414	17550
866.499	14926
866.585	12818
866.671	11565
866.757	11704
866.843	10230
866.928	9885
867.014	10347
867.100	9156
867.186	9147
867.271	9352
867.357	9167
867.442	9328
867.528	8895
867.614	9339
867.699	9053
867.785	9689
867.870	7498
867.956	9029
868.041	8805
868.127	7968
868.212	8607
868.297	8017
868.383	9063
868.468	7537
868.553	8914
868.639	6938
868.724	8305
868.809	7814
868.894	8046
868.979	8340
869.065	8393
869.150	6999
869.235	7414
869.320	7905
869.405	6866
869.490	7998
869.575	8222
869.660	5424
869.745	8166
869.830	8122
869.915	5851
870.000	6512
870.085	6889
870.169	9086
870.254	9158
870.339	5958
870.424	6092
870.509	7003
870.593	9021
870.678	7744
870.763	5695
870.847	5513
870.932	7354
871.016	6753
871.101	5601
871.186	6212
871.270	8208
871.355	5004
871.439	6342
871.523	7470
871.608	6097
871.692	5918
871.777	7306
871.861	7216
871.945	5776
872.030	7131
872.114	6565
872.198	5081
872.282	6111
872.367	5053
872.451	5632
872.535	5308
872.619	6177
872.703	5846
872.787	6649
872.871	6290
872.955	5267
873.039	4098
873.123	6568
873.207	6533
873.291	4597
873.375	5144
873.459	7110
873.543	5106
873.627	5001
873.711	4345
873.794	6949
873.878	5173
873.962	4244
874.045	4905
874.129	4897
874.137	4918
874.213	5134
874.245	4984
874.296	4739
874.352	4236
874.380	3996
874.460	4600
874.464	4624
874.547	4053
874.568	4430
874.631	5592
874.676	5218
874.714	4863
874.784	6328
874.798	6637
874.881	5063
874.892	4777
874.965	2744
874.999	3833
875.048	5323
875.107	5326
875.131	5329
875.215	2835
875.215	2835
875.298	3287
875.323	3661
875.381	4562
875.430	5448
875.465	6081
875.538	5980
875.548	5943
875.631	3571
875.646	3458
875.714	3083
875.753	3437
875.798	3834
875.861	4302
875.881	4429
875.964	4077
875.968	4019
876.047	3009
876.076	3353
876.130	4039
876.183	4011
876.213	4008
876.291	4872
876.296	4926
876.379	3958
876.398	3941
876.462	3781
876.506	3746
876.545	3778
876.613	3387
876.628	3308
876.711	3605
876.721	3713
876.794	4726
876.828	4710
876.877	4339
876.935	3586
876.960	3393
877.043	3101
877.043	3105
877.125	4016
877.150	4300
877.208	4804
877.258	4373
877.291	4105
877.365	3195
877.374	3091
877.456	3164
877.472	3107
877.539	2907
877.579	3713
877.622	4635
877.687	4019
877.704	3808
877.787	3708
877.794	3706
877.869	3832
877.901	4030
877.952	4023
878.008	2876
878.034	2542
878.115	4006
878.117	4026
878.199	3066
878.222	3179
878.282	4004
878.329	4238
878.364	4098
878.437	4413
878.447	4465
878.529	3409
878.544	3244
878.611	2491
878.651	2562
878.694	2973
878.758	3668
878.776	3692
878.858	3783
878.865	3760
878.941	3676
878.972	3262
879.023	2507
879.078	2846
879.105	3279
879.185	4274
879.187	4282
879.269	3986
879.292	3979
879.351	3875
879.399	3545
879.433	3261
879.506	2788
879.516	2796
879.598	3618
879.613	3613
879.680	3301
879.720	3759
879.762	4222
879.827	2985
879.844	2644
879.926	2929
879.933	2917
880.007	3326
880.040	3227
880.089	2474
880.147	2595
880.171	3068
880.253	4799
880.254	4796
880.335	3419
880.360	3562
880.417	4339
880.467	4475
880.499	4275
880.574	4267
880.580	4325
880.662	4509
880.680	4397
880.744	2810
880.787	2390
880.825	2902
880.893	3592
880.907	3601
880.989	3094
881.000	3161
881.070	4165
881.106	4368
881.152	3826
881.213	2963
881.233	2931
881.315	3141
881.319	3149
881.396	2953
881.426	2778
881.478	3026
881.532	4204
881.559	4455
881.639	3454
881.641	3432
881.722	3334
881.745	3125
881.803	3251
881.852	3866
881.885	3970
881.958	2799
881.966	2654
882.047	2945
882.064	2770
882.129	2376
882.171	2288
882.210	2168
882.277	2405
882.291	2620
882.372	3634
882.383	3792
882.454	4170
882.489	3930
882.535	3704
882.596	4029
882.616	4116
882.697	4218
882.702	4161
882.778	2997
882.808	3078
882.859	3057
882.914	2460
882.940	2435
883.020	3102
883.021	3113
883.102	3429
883.127	3908
883.183	4561
883.233	4172
883.264	3532
883.339	2120
883.345	2074
883.426	2335
883.445	2340
883.507	2236
883.551	2145
883.587	2580
883.657	3631
883.668	3743
883.749	4154
883.763	4172
883.830	2846
883.869	2105
883.910	1915
883.975	2168
883.991	2469
884.072	3660
884.081	3765
884.152	4002
884.187	4117
884.233	4259
884.292	4329
884.314	3873
884.394	1611
884.398	1544
884.475	1632
884.504	1562
884.555	1482
884.610	1360
884.636	1897
884.716	3869
884.716	3878
884.797	4484
884.821	4557
884.877	4381
884.927	4051
884.958	3364
885.033	1916
885.038	1893
885.118	1599
885.139	1520
885.199	1609
885.244	1729
885.279	2367
885.350	3816
885.359	3895
885.439	4188
885.456	4203
885.520	3367
885.561	2923
885.600	2600
885.667	2218
885.680	2352
885.760	2906
885.773	3006
885.840	2191
885.878	1758
885.920	2139
885.984	2657
886.000	2791
886.080	3509
886.089	3564
886.160	3544
886.195	3543
886.240	3127
886.300	2585
886.320	2863
886.400	4195
886.406	4248
886.480	2836
886.511	2309
886.560	2960
886.616	3643
886.640	3392
886.720	2886
886.722	2864
886.800	2515
886.827	2405
886.879	3113
886.932	3825
886.959	3919
887.038	4018
887.039	4019
887.119	3523
887.143	3385
887.198	3548
887.248	3710
887.278	3638
887.354	3223
887.358	3227
887.437	3276
887.459	3307
887.517	3280
887.564	3160
887.596	2994
887.669	2522
887.676	2438
887.755	1614
887.774	1392
887.835	2038
887.880	2476
887.914	2786
887.985	3486
887.994	3569
888.073	4280
888.090	4400
888.153	4516
888.195	4534
888.232	3905
888.300	2858
888.311	2880
888.391	2904
888.405	2917
888.470	2885
888.510	2822
888.549	2654
888.615	2478
888.628	2643
888.708	3586
888.720	3726
888.787	3691
888.825	3608
888.866	2931
888.930	1953
888.945	2141
889.024	3125
889.035	3258
889.103	3334
889.140	3322
889.182	3160
889.245	2975
889.261	3024
889.340	3204
889.349	3223
889.419	3044
889.454	2938
889.498	2745
889.559	2500
889.577	2787
889.656	4023
889.664	4141
889.735	3604
889.768	3332
889.814	3215
889.873	3048
889.978	2447
890.083	2607
890.187	4261
890.292	3226
890.397	3512
890.501	2775
890.606	2465
890.710	2989
890.815	3922
890.919	2576
891.024	3971
891.128	2493
891.233	3071
891.337	3778
891.442	3202
891.546	2539
891.650	3068
891.755	2668
891.859	4508
891.963	3874
892.068	3345
892.172	2707
892.276	1387
892.380	2206
892.484	4593
892.589	4461
892.693	3949
892.797	2356
892.901	2577
893.005	1997
893.109	4583
893.213	2853
893.317	2772
893.421	2801
893.525	1011
893.629	1695
893.733	4097
893.837	3174
893.941	3584
894.045	2204
894.148	2217
894.252	1508
894.356	4113
894.460	4431
894.564	2497
894.667	1901
894.771	2330
894.875	1322
894.978	2523
895.082	2917
895.186	3458
895.289	2614
895.393	2451
895.496	3654
895.600	2247
895.703	1792
895.807	2676
895.910	2239
896.014	3128
896.117	1419
896.221	2327
896.324	2303
896.427	2469
896.531	1514
896.634	3705
896.737	1840
896.840	3343
896.944	2674
897.047	3745
897.150	2391
897.253	2696
897.356	1521
897.460	1468
897.563	1731
897.666	3606
897.769	2702
897.872	2151
897.975	1805
898.078	1866
898.181	1098
898.284	3018
898.387	2835
898.490	3248
898.593	2043
898.695	2396
898.798	1855
898.901	2010
899.004	2131
899.107	2467
899.209	3063
899.312	4105
899.415	1130
899.518	1686
899.620	1516
899.723	1749
899.826	1727
899.928	2513
900.031	2172
900.133	3432
900.236	2089
900.338	1626
900.441	1107
900.543	2461
900.646	2027
900.748	2716
900.851	2891
900.953	2023
901.055	1345
901.158	2265
901.260	1677
901.362	1426
901.465	1621
901.567	3216
901.669	2377
901.771	2159
901.873	2099
901.976	2001
902.078	1557
902.180	2021
902.282	915
902.384	1893
902.486	3170
902.588	2490
902.690	1327
902.792	1420
902.894	1527
902.996	3089
903.098	2438
903.200	1388
903.302	1623
903.404	1476
903.505	1524
903.607	1813
903.709	3206
903.811	2447
903.913	1695
904.014	1364
904.116	705
904.218	2394
904.319	2056
904.421	4930
904.523	2442
904.624	1734
904.726	1149
904.827	1355
904.929	1184
905.030	2396
905.132	2429
905.233	2998
905.335	752
905.436	1783
905.537	1170
905.639	2320
905.740	2010
905.841	2544
905.943	2550
906.044	1773
906.145	1820
906.247	1436
906.348	1910
906.449	2287
906.550	2530
906.651	1735
906.752	1582
906.854	1306
906.955	795
907.056	1637
907.157	2500
907.258	3281
907.359	1214
907.460	2098
907.561	1672
907.662	1038
907.762	2014
907.863	2682
907.964	2137
908.065	2518
908.166	346
908.267	2061
908.367	610
908.468	2454
908.569	1603
908.670	2497
908.770	1614
908.871	2185
908.971	1495
909.072	1152
909.173	1084
909.273	1911
909.374	2526
909.474	2480
909.575	1263
909.675	1568
909.776	2545
909.876	1960
909.977	1320
910.077	1984
910.177	2965
910.278	2070
910.378	1742
910.478	2450
910.579	2250
910.679	2814
910.779	1984
910.879	2611
910.980	1734
911.080	3020
911.180	1650
911.280	1594
911.380	939
911.480	2172
911.580	738
911.680	1610
911.780	1922
911.880	2032
911.980	1379
912.080	1247
912.180	1796
912.280	2003
912.380	1059
912.480	1452
912.580	838
912.679	3065
912.779	1860
912.879	2134
912.979	1694
913.078	1903
913.178	132
913.278	910
913.377	1227
913.477	1922
913.577	1189
913.676	3406
913.776	2054
913.875	1665
913.975	1934
914.074	1966
914.174	2121
914.273	717
914.373	1958
914.472	1836
914.572	1226
914.671	852
914.770	579
914.870	1296
914.969	1274
915.068	2390
915.167	1935
915.267	1865
915.366	1880
915.465	2566
915.564	1380
915.663	1326
915.763	1427
915.862	2755
915.961	1622
916.060	1118
916.159	1592
916.258	582
916.357	1038
916.456	2325
916.555	1298
916.654	1637
916.752	2291
916.851	1340
916.950	973
917.049	1604
917.148	1098
917.247	1935
917.345	1149
917.444	1551
917.543	1696
917.642	1629
917.740	1611
917.839	3226
917.937	2469
918.036	2085
918.135	1196
918.233	1469
918.332	1155
918.430	2328
918.529	564
918.627	2335
918.726	2426
918.824	2365
918.923	934
919.021	1732
919.119	1052
919.218	1783
919.316	1724
919.414	2658
919.512	2393
919.611	3229
919.709	1101
919.807	2772
919.905	2770
920.003	3046
920.102	1890
920.200	2538
920.298	3614
920.396	2896
920.494	2534
920.592	2314
920.690	2161
920.788	2292
920.886	2274
920.984	3089
921.082	2273
921.180	3218
921.277	3085
921.375	4539
921.473	4854
921.571	6338
921.669	4466
921.766	4673
921.864	5281
921.962	5873
922.060	4077
922.157	5447
922.255	5078
922.352	5508
922.450	5360
922.548	5800
922.645	5948
922.743	8802
922.840	13235
922.938	14524
923.035	12064
923.133	12686
923.230	14649
923.327	17758
923.425	15188
923.522	16344
923.619	14008
923.717	13771
923.814	12117
923.911	12465
924.008	13117
924.106	12971
924.203	11820
924.300	13370
924.397	11917
924.494	12809
924.591	11853
924.688	11370
924.786	12300
924.883	12728
924.979	12471
925.077	12070
925.173	11026
925.270	11345
925.367	11495
925.464	13224
925.561	13866
925.658	14383
925.755	11644
925.852	12579
925.948	12157
926.045	12575
926.142	12538
926.239	12674
926.335	9529
926.432	12627
926.529	12106
926.625	12787
926.722	9623
926.818	11179
926.915	11773
927.011	11533
927.108	11563
927.204	10448
927.301	9660
927.397	11944
927.494	13031
927.590	9096
927.687	9897
927.783	13192
927.879	12148
927.976	10291
928.072	9088
928.168	11355
928.264	11007
928.361	9717
928.457	11696
928.553	9119
928.649	9356
928.745	10698
928.841	8850
928.937	11121
929.033	9940
929.129	9984
929.225	10878
929.321	9637
929.417	9437
929.513	10607
929.609	7859
929.705	8748
929.801	10261
929.897	9433
929.993	9018
930.089	10348
930.184	8588
930.280	10175
930.376	11016
930.471	8699
930.567	7329
930.663	8996
930.758	7649
930.854	8112
930.950	8407
931.045	7843
931.141	8784
931.236	11216
931.332	8269
931.427	7665
931.523	11019
931.618	9249
931.714	4908
931.809	7979
931.905	8850
932.000	5732
932.095	5386
932.191	9743
932.286	10723
932.381	8237
932.476	5880
932.572	8291
932.667	6366
932.762	7436
932.857	8496
932.952	9853
933.047	8515
933.142	6812
933.237	7412
933.332	9371
933.427	8424
933.522	7667
933.617	6315
933.712	7204
933.807	9193
933.902	9798
933.997	9423
934.092	6218
934.187	7691
934.282	8485
934.376	7377
934.471	8037
934.566	5951
934.661	6906
934.755	8349
934.850	9306
934.945	6263
935.039	6249
935.134	4673
935.228	7416
935.323	9847
935.417	6496
935.512	4530
935.606	6039
935.701	7124
935.795	9006
935.890	7028
935.984	6803
936.079	4279
936.173	7609
936.267	5763
936.362	6054
936.456	7029
936.550	9522
936.644	6882
936.738	5543
936.833	5096
936.927	4633
937.021	6103
937.115	7256
937.209	6839
937.303	6519
937.397	4616
937.491	6259
937.585	6944
937.679	7148
937.773	5280
937.867	4912
937.961	4373
938.055	8751
938.149	5627
938.243	4591
938.337	4232
938.430	5547
938.524	6794
938.618	5667
938.712	4012
938.805	4962
938.899	7362
938.993	8191
939.086	4448
939.180	3904
939.274	4450
939.367	5958
939.461	6566
939.554	5732
939.648	3551
939.741	4598
939.835	5299
939.928	7480
940.022	6995
940.115	5421
940.208	6445
940.302	8436
940.395	7621
940.488	5418
940.582	5875
940.675	4099
940.768	4659
940.861	7370
940.954	6391
941.048	4355
941.141	2794
941.234	4656
941.327	5367
941.420	6834
941.513	6262
941.606	4982
941.699	5187
941.792	7084
941.885	5715
941.978	6009
942.071	5755
942.164	3400
942.257	4317
942.349	4749
942.442	5828
942.535	3815
942.628	3713
942.721	5278
942.813	4261
942.906	6241
942.999	4518
943.091	4628
943.184	3874
943.277	5889
943.369	3230
943.462	2576
943.554	3636
943.647	3983
943.739	6117
943.832	5938
943.924	2273
944.017	3264
944.109	3245
944.201	4403
944.294	4310
944.386	4740
944.478	3808
944.571	3712
944.663	3650
944.755	5108
944.847	5068
944.940	4340
945.032	2546
945.124	2333
945.216	3839
945.308	4501
945.400	3972
945.492	3480
945.584	5095
945.676	4873
945.768	3955
945.860	5674
945.952	4946
946.044	4987
946.136	3353
946.228	4092
946.320	2852
946.412	5061
946.503	4629
946.595	5526
946.687	2804
946.779	2680
946.870	3454
946.962	3412
947.054	3042
947.145	4209
947.237	2743
947.329	4475
947.420	3863
947.512	2583
947.603	2298
947.695	3251
947.786	1643
947.878	3571
947.969	4809
948.061	4976
948.152	3557
948.243	2614
948.335	2329
948.426	2974
948.517	4059
948.609	3850
948.700	3671
948.791	2699
948.882	1954
948.973	2828
949.065	3228
949.156	3851
949.247	2051
949.338	3433
949.429	1734
949.520	2992
949.611	3033
949.702	4370
949.793	2642
949.884	3259
949.975	2184
950.066	2769
950.157	2948
950.247	3117
950.338	2601
950.429	2875
950.520	2725
950.611	2757
950.701	2143
950.792	4528
950.883	4072
950.973	2931
951.064	3857
951.155	4093
951.245	3429
951.336	3533
951.427	4115
951.517	5791
951.608	3554
951.698	3492
951.788	2370
951.879	1620
951.969	2012
952.060	3333
952.150	3327
952.240	4783
952.331	2654
952.421	4665
952.511	1222
952.602	1988
952.692	1862
952.782	1403
952.872	2925
952.962	3888
953.052	3087
953.143	1897
953.233	2658
953.323	2932
953.413	2576
953.503	2920
953.593	2621
953.683	3023
953.773	861
953.863	2442
953.953	1626
954.042	3787
954.132	3003
954.222	3275
954.312	2015
954.402	2922
954.492	2591
954.581	2662
954.671	2319
954.761	1931
954.850	3165
954.940	1800
955.030	866
955.119	2434
955.209	2324
955.298	2239
955.388	2825
955.477	3442
955.567	751
955.656	1943
955.746	1459
955.835	1659
955.925	1311
956.014	2654
956.103	3519
956.193	4165
956.282	3594
956.371	3311
956.461	2104
956.550	2033
956.639	2279
956.728	2844
956.817	1917
956.906	2307
956.995	2417
957.085	2275
957.174	2316
957.263	2271
957.352	2175
957.441	2674
957.530	1876
957.619	2242
957.708	1709
957.796	2382
957.885	1848
957.974	2377
958.063	1758
958.152	1352
958.241	892
958.329	1404
958.418	2003
958.507	1913
958.596	3222
958.684	1564
958.773	2290
958.861	1394
958.950	867
959.039	1218
959.127	1941
959.216	2126
959.304	1658
959.393	2132
959.481	2585
959.570	1571
959.658	547
959.746	1382
959.835	2010
959.923	1372
960.011	1624
960.100	2960
960.188	1981
960.276	1602
960.365	999
960.453	1891
960.541	860
960.629	1561
960.717	853
960.805	1092
960.893	1499
960.981	2802
961.069	3243
961.158	3241
961.245	3352
961.333	2909
961.421	1413
961.509	1457
961.597	1455
961.685	2073
961.773	1185
961.861	1819
961.949	2824
962.036	1040
962.124	1557
962.212	1798
962.299	1031
962.387	2034
962.475	1708
962.562	1004
962.650	1724
962.738	1598
962.825	662
962.913	1203
963.000	955
963.088	2898
963.175	2006
963.263	2084
963.350	1418
963.438	1731
963.525	466
963.612	1870
963.700	608
963.787	2626
963.874	1409
963.962	1971
964.049	984
964.136	1110
964.223	825
964.310	1317
964.398	1112
964.485	1113
964.572	1356
964.659	2036
964.746	102
964.833	53
964.920	813
965.007	1480
965.094	2155
965.181	1645
965.268	2396
965.355	1629
965.441	1568
965.528	1442
965.615	2367
965.702	1320
965.789	1603
965.875	2857
965.962	1842
966.049	2117
966.136	2486
966.222	2801
966.309	3272
966.395	2712
966.482	1781
966.569	2144
966.655	1453
966.742	993
966.828	995
966.915	784
967.001	1030
967.087	1404
967.174	1078
967.260	1976
967.347	761
967.433	2226
967.519	2348
967.605	2178
967.692	683
967.778	1408
967.864	728
967.950	1748
968.036	915
968.123	2275
968.209	1021
968.295	632
968.381	1486
968.467	2078
968.553	365
968.639	1744
968.725	1809
968.811	3957
968.897	2125
968.983	1731
969.069	-134
969.154	1374
969.240	729
969.326	536
969.412	896
969.497	1125
969.583	465
969.669	2320
969.755	1580
969.840	1929
969.926	3323
970.012	4773
970.097	7053
970.183	5285
970.268	2837
970.354	2199
970.439	901
970.525	1818
970.610	1461
970.696	2832
970.781	1557
970.866	1046
970.952	1239
971.037	669
971.122	1188
971.208	1784
971.293	1846
971.378	828
971.463	1253
971.549	1580
971.634	975
971.719	2186
971.804	405
971.889	871
971.974	1066
972.059	1242
972.144	1856
972.229	1062
972.314	30
972.399	1803
972.484	1142
972.569	1725
972.654	-349
972.739	1841
972.824	807
972.908	888
972.993	318
973.078	933
973.163	1153
973.247	2126
973.332	-199
973.417	2348
973.501	615
973.586	1971
973.671	777
973.755	1774
973.840	1142
973.924	3493
974.009	1861
974.093	2682
974.178	3164
974.262	1675
974.346	1860
974.431	2209
974.515	1442
974.600	1631
974.684	1644
974.768	1285
974.852	2409
974.937	1018
975.021	997
975.105	1364
975.189	646
975.273	1955
975.358	1163
975.442	822
975.526	1677
975.610	37
975.694	601
975.778	1946
975.862	275
975.946	-634
976.030	1891
976.114	1408
976.198	506
976.281	1245
976.365	1535
976.449	819
976.533	1473
976.617	759
976.700	690
976.784	1234
976.868	666
976.951	1133
977.035	586
977.119	1674
977.202	847
977.286	1734
977.369	2006
977.453	3692
977.536	2699
977.620	2049
977.703	2098
977.787	2021
977.870	2701
977.953	2723
978.037	312
978.120	2296
978.203	983
978.287	1797
978.370	1360
978.453	1846
978.536	521
978.620	3027
978.703	1405
978.786	393
978.869	468
978.952	368
979.035	2572
979.118	1932
979.201	154
979.284	1369
979.367	-329
979.450	2155
979.533	1100
979.616	1446
979.699	680
979.782	1157
979.865	829
979.948	1725
980.030	-88
980.113	2089
980.196	932
980.279	2217
980.361	616
980.444	1355
980.526	1909
980.609	3308
980.692	2581
980.774	3693
980.857	959
980.939	2400
981.022	1562
981.104	1815
981.187	1205
981.269	1961
981.352	2029
981.434	1423
981.516	1451
981.599	2693
981.681	1271
981.763	1313
981.846	2145
981.928	1862
982.010	1029
982.092	1509
982.174	2351
982.256	1969
982.339	1186
982.421	2118
982.503	1604
982.585	1910
982.667	1015
982.749	1051
982.831	1137
982.913	1322
982.995	2041
983.077	885
983.158	2528
983.240	992
983.322	2512
983.404	4778
983.486	3294
983.568	3326
983.649	2710
983.731	2897
983.813	2194
983.894	3486
983.976	1125
984.058	2438
984.139	2635
984.221	1243
984.302	3423
984.384	1854
984.465	1523
984.547	2235
984.628	1613
984.710	2947
984.791	2428
984.872	2180
984.954	2524
985.035	2397
985.116	1719
985.198	2158
985.279	2620
985.360	1974
985.441	1666
985.522	2825
985.604	1870
985.685	318
985.766	2944
985.847	3218
985.928	1405
986.009	1840
986.090	1943
986.171	3317
986.252	1034
986.333	3702
986.414	2733
986.495	2878
986.576	1455
986.656	2543
986.737	2877
986.818	3051
986.899	2159
986.980	2440
987.060	3531
987.141	3141
987.222	2950
987.302	3749
987.383	3790
987.464	3006
987.544	3571
987.625	4172
987.705	4201
987.786	4388
987.866	3101
987.947	3334
988.027	2974
988.108	3181
988.188	3498
988.268	3330
988.349	3225
988.429	3516
988.509	2865
988.589	3134
988.670	1542
988.750	4133
988.830	3102
988.910	3526
988.990	2594
989.070	2912
989.151	2583
989.231	2034
989.311	2512
989.391	2522
989.471	2045
989.551	3573
989.631	1475
989.711	3945
989.791	2306
989.870	2042
989.950	3752
990.030	2928
990.110	2572
990.190	2032
990.269	1707
990.349	2823
990.429	2544
990.509	2508
990.588	898
990.668	3502
990.747	2827
990.827	2204
990.907	2269
990.986	2996
991.066	2274
991.145	1941
991.225	2043
991.304	2107
991.383	1595
991.463	2244
991.542	2383
991.622	1607
991.701	1591
991.780	2178
991.859	972
991.939	1932
992.018	1837
992.097	2233
992.176	1624
992.256	2211
992.335	1601
992.414	2708
992.493	667
992.572	1302
992.651	2703
992.730	2213
992.809	1092
992.888	684
992.967	1553
993.046	2299
993.125	544
993.203	2273
993.282	1446
993.361	2130
993.440	1011
993.519	1325
993.597	1273
993.676	909
993.755	2265
993.834	1875
993.912	-134
993.991	2210
994.069	130
994.148	1880
994.226	654
994.305	1673
994.384	1165
994.462	2818
994.540	356
994.619	845
994.697	566
994.776	1491
994.854	954
994.932	988
995.011	1287
995.089	1264
995.167	1108
995.245	1125
995.324	511
995.402	1422
995.480	364
995.558	1908
995.636	-121
995.714	425
995.792	1871
995.870	980
995.948	890
996.026	1247
996.104	15
996.182	1056
996.260	455
996.338	1176
996.416	-498
996.494	531
996.572	1415
996.649	1448
996.727	-314
996.805	1308
996.883	310
996.960	820
997.038	909
997.116	1026
997.193	-569
997.271	947
997.348	-507
997.426	557
997.504	515
997.581	1635
997.658	-257
997.736	-968
997.813	-247
997.891	1452
997.968	-528
998.046	953
998.123	144
998.200	1406
998.277	187
998.355	736
998.432	-1509
998.509	499
998.586	976
998.663	260
998.741	237
998.818	94
998.895	-317
998.972	894
999.049	101
999.126	162
999.203	-66
999.280	526
999.357	-26
999.434	603
999.511	228
999.587	727
999.664	-296
999.741	584
999.818	278
999.895	-360
999.971	-396
1000.048	150
1000.125	85
1000.202	186
1000.278	-654
1000.355	1051
1000.431	-686
1000.508	-402
1000.584	-1143
1000.661	933
1000.738	-1169
1000.814	-761
1000.890	350
1000.967	85
1001.043	-520
1001.120	-941
1001.196	-320
1001.272	-427
1001.349	3
1001.425	268
1001.501	-433
1001.577	-592
1001.654	-102
1001.730	-656
1001.806	-869
1001.882	-478
1001.958	32
1002.034	514
1002.110	-252
1002.186	-322
1002.262	-896
1002.338	-129
1002.414	-657
1002.490	704
1002.566	-665
1002.642	24
1002.718	-337
1002.794	-159
1002.870	-247
1002.945	-659
1003.021	-256
1003.097	98
1003.173	234
1003.248	287
1003.324	-586
1003.400	255
1003.475	-1497
1003.551	378
1003.626	-1596
1003.702	-197
1003.777	-972
1003.853	-880
1003.928	58
1004.004	-289
1004.079	99
1004.155	-228
1004.230	-1658
1004.305	677
1004.381	-1515
1004.456	-302
1004.531	-2069
1004.607	-198
1004.682	-345
1004.757	161
1004.832	-705
1004.907	-1055
1004.982	-670
1005.057	-431
1005.133	-562
1005.208	-532
1005.283	-1061
1005.358	-232
1005.433	-1520
1005.508	-608
1005.583	-1055
1005.657	-75
1005.732	-27
1005.807	-1068
1005.882	-1061
1005.957	-974
1006.032	-965
1006.106	-374
1006.181	-578
1006.256	249
1006.331	-961
1006.405	-390
1006.480	-1423
1006.554	-740
1006.629	-411
1006.704	-698
1006.778	-1493
1006.853	-74
1006.927	-1114
1007.002	-1238
1007.076	-1046
1007.150	-775
1007.225	-441
1007.299	-431
1007.373	-1099
1007.448	-805
1007.522	-1168
1007.596	-1285
1007.671	-1813
1007.745	-125
1007.819	-1304
1007.893	-720
1007.967	-687
1008.041	-1520
1008.115	-582
1008.190	-473
1008.264	-929
1008.338	-1443
1008.412	-1303
1008.486	-1037
1008.560	-992
1008.633	-749
1008.707	-1550
1008.781	-223
1008.855	-531
1008.929	-947
1009.003	-1584
1009.076	-1062
1009.150	-1851
1009.224	-866
1009.298	-754
1009.371	-1017
1009.445	-1161
1009.519	-901
1009.592	-1694
1009.666	-618
1009.739	-280
1009.813	-1468
1009.886	-67
1009.960	-1793
1010.033	-1254
1010.107	-560
1010.180	-1933
1010.253	-852
1010.327	-1881
1010.400	-1393
1010.473	-1140
1010.547	-103
1010.620	-2027
1010.693	-985
1010.766	-2052
1010.840	144
1010.913	-1148
1010.986	-1510
1011.059	-1397
1011.132	-1303
1011.205	-997
1011.278	-1743
1011.351	-1939
1011.424	-574
1011.497	-1051
1011.570	-735
1011.643	-1164
1011.716	-875
1011.789	-1830
1011.862	-632
1011.934	-1501
1012.007	-1596
1012.080	-1078
1012.153	-416
1012.225	-1210
1012.298	-1141
1012.371	-1347
1012.443	-747
1012.516	-2299
1012.588	-694
1012.661	-2027
1012.733	-435
1012.806	-1195
1012.879	-1610
1012.951	-1124
1013.023	29
1013.096	-1242
1013.168	-1468
1013.241	-778
1013.313	-1334
1013.385	-1297
1013.458	-1074
1013.530	-496
1013.602	-1134
1013.674	-290
1013.746	-1081
1013.819	-1962
1013.891	-895
1013.963	-1351
1014.035	-1075
1014.107	-734
1014.179	-903
1014.251	-1522
1014.323	-1178
1014.395	-1967
1014.467	-1823
1014.539	-911
1014.611	-1250
1014.683	-1254
1014.754	-1374
1014.826	-2033
1014.898	-1460
1014.970	-2279
1015.042	-262
1015.113	-942
1015.185	-451
1015.257	-2246
1015.328	-735
1015.400	-1852
1015.471	-1273
1015.543	-1330
1015.615	-987
1015.686	-1365
1015.757	-562
1015.829	-1823
1015.901	-1418
1015.972	-1952
1016.043	-1189
1016.115	-1741
1016.186	-1085
1016.257	-1637
1016.328	-1081
1016.400	-1035
1016.471	-1498
1016.542	-2127
1016.613	-1053
1016.685	-1068
1016.756	-232
1016.827	-1394
1016.898	-1551
1016.969	-515
1017.040	-1309
1017.111	-1747
1017.182	-1611
1017.253	-1140
1017.324	-1624
1017.395	-1456
1017.466	-641
1017.537	-1920
1017.608	-1388
1017.678	-1761
1017.749	-1247
1017.820	-1686
1017.891	-1446
1017.961	-812
1018.032	-1121
1018.103	-1294
1018.173	-1542
1018.244	-2114
1018.315	-1965
1018.385	-1623
1018.456	-1105
1018.526	-1993
1018.597	-1967
1018.667	-952
1018.738	-1832
1018.808	-1961
1018.878	-1327
1018.949	-1131
1019.019	-851
1019.089	-2466
1019.160	-1278
1019.230	-1416
1019.300	-869
1019.371	-2332
1019.441	-1139
1019.511	-1329
1019.581	-2091
1019.651	-2228
1019.721	-1466
1019.791	-1231
1019.861	-425
1019.931	-1369
1020.001	-1091
1020.071	-1848
1020.141	-690
1020.211	-1165
1020.281	-1899
1020.351	-1392
1020.421	-829
1020.491	-1523
1020.560	-1716
1020.630	-1573
1020.700	-883
1020.770	-2423
1020.839	-1535
1020.909	-1432
1020.979	-1187
1021.048	-1596
1021.118	-1347
1021.187	-1627
1021.257	-1801
1021.326	-1348
1021.396	-1635
1021.465	-955
1021.535	-2180
1021.604	-2241
1021.674	-1819
1021.743	-1118
1021.812	-769
1021.882	-1752
1021.951	-1364
1022.020	-1026
1022.089	-740
1022.159	-2150
1022.228	-1374
1022.297	-2581
1022.366	-842
1022.435	-1455
1022.504	-818
1022.573	-2179
1022.642	-911
1022.711	-1546
1022.781	-1179
1022.849	-1417
1022.918	-2096
1022.987	-1514
1023.056	-1562
1023.125	-1400
1023.194	-1492
1023.263	-1586
1023.331	-538
1023.400	-1859
1023.469	-978
1023.538	-1421
1023.606	-1678
1023.675	-1554
1023.744	-1756
1023.812	-2355
1023.881	-2150
1023.949	-1157
1024.018	-713
1024.086	-1809
1024.155	-1162
1024.223	-1892
1024.292	-1172
1024.360	-2052
1024.429	-1778
1024.497	-2505
1024.565	-1111
1024.634	-1316
1024.702	-1576
1024.770	-1584
1024.838	-1514
1024.907	-1277
1024.975	-1798
1025.043	-2071
1025.111	-1701
1025.179	-1854
1025.247	-1523
1025.315	-2787
1025.383	-1520
1025.451	-797
1025.519	-1580
1025.587	-2331
1025.655	-883
1025.723	-1325
1025.791	-935
1025.859	-2108
1025.927	-1084
1025.995	-2071
1026.062	-159
1026.130	-1190
1026.198	-1157
1026.266	-1691
1026.333	-738
1026.401	-1575
1026.469	-1288
1026.536	-1603
1026.604	-1282
1026.671	-2014
1026.739	-1520
1026.806	-1648
1026.874	-2480
1026.941	-1856
1027.009	-489
1027.076	-2305
1027.144	-1016
1027.211	-1975
1027.278	-1272
1027.345	-2255
1027.413	-1539
1027.480	-2348
1027.547	-1053
1027.614	-1802
1027.682	-1086
1027.749	-2098
1027.816	-1216
1027.883	-2078
1027.950	-987
1028.017	-1723
1028.084	-1059
1028.151	-2858
1028.218	-1603
1028.285	-1480
1028.352	-1760
1028.419	-2202
1028.486	-1101
1028.553	-1315
1028.619	-1872
1028.686	-1810
1028.753	-1545
1028.820	-2307
1028.886	-654
1028.953	-1258
1029.020	-1882
1029.086	-1945
1029.153	-1154
1029.220	-1593
1029.286	-2428
1029.353	-1768
1029.419	-1141
1029.486	-1423
1029.552	-1379
1029.619	-2545
1029.685	-1376
1029.751	-2169
1029.818	-346
1029.884	-1929
1029.951	-955
1030.017	-2147
1030.083	-1426
1030.149	-1369
1030.216	-2460
1030.282	-1569
1030.348	-1476
1030.414	-2207
1030.480	-1257
1030.546	-2267
1030.612	-1428
1030.678	-1805
1030.744	-1141
1030.810	-2204
1030.876	-1294
1030.942	-2229
1031.008	-1389
1031.074	-2728
1031.140	-1113
1031.206	-1622
1031.272	-2259
1031.337	-1833
1031.403	-1160
1031.469	-2627
1031.534	-1725
1031.600	-1920
1031.666	-1703
1031.731	-2571
1031.797	-1533
1031.863	-1821
1031.928	-2044
1031.994	-2273
1032.059	-1439
1032.125	-1566
1032.190	-1716
1032.256	-2192
1032.321	-1423
1032.386	-2526
1032.452	-1487
1032.517	-2776
1032.582	-1340
1032.647	-2281
1032.713	-2205
1032.778	-1184
1032.843	-1532
1032.908	-1728
1032.974	-1228
1033.039	-1540
1033.104	-866
1033.169	-2480
1033.234	-1501
1033.299	-1774
1033.364	-1055
1033.429	-2100
1033.494	-984
1033.559	-1920
1033.624	-2263
1033.688	-1115
1033.753	-2101
1033.818	-1840
1033.883	-983
1033.948	-1125
1034.013	-50
1034.077	-282
1034.142	1113
1034.207	1202
1034.271	3539
1034.336	3499
1034.400	2930
1034.465	296
1034.530	-388
1034.594	-1476
1034.658	-475
1034.723	-2322
1034.787	-1783
1034.852	-2537
1034.916	-1328
1034.981	-2461
1035.045	-1395
1035.109	-2429
1035.173	-1763
1035.238	-2199
1035.302	-1718
1035.366	-2044
1035.430	-1944
1035.495	-2219
1035.559	-1908
1035.623	-2212
1035.687	-1231
1035.751	-2080
1035.815	-1878
1035.879	-1579
1035.943	-951
1036.007	-2130
1036.071	-1767
1036.135	-2204
1036.198	-1501
1036.262	-2282
1036.326	-1624
1036.390	-868
1036.454	-1794
1036.517	-1699
1036.581	-2012
1036.645	-2590
1036.709	-2069
1036.772	-2969
1036.836	-1531
1036.900	-2087
1036.963	-1762
1037.026	-1884
1037.090	-1572
1037.154	-2934
1037.217	-1706
1037.280	-2376
1037.344	-1619
1037.407	-2530
1037.471	-1530
1037.534	-1983
1037.597	-2411
1037.661	-2299
1037.724	-1314
1037.787	-2133
1037.850	-1764
1037.913	-2075
1037.977	-1276
1038.040	-2394
1038.103	-1944
1038.166	-2441
1038.229	-1779
1038.292	-2424
1038.355	-2595
1038.418	-1999
1038.481	-1767
1038.544	-2182
1038.607	-1430
1038.670	-2562
1038.732	-2013
1038.795	-2172
1038.858	-2066
1038.921	-2322
1038.984	-1425
1039.046	-2317
1039.109	-1403
1039.172	-1760
1039.234	-1645
1039.297	-2581
1039.360	-1511
1039.422	-2572
1039.485	-1395
1039.547	-2239
1039.610	-1653
1039.672	-1768
1039.734	-1588
1039.797	-1616
1039.859	-2121
1039.922	-2549
1039.984	-1627
1040.046	-2711
1040.109	-2079
1040.171	-1854
1040.233	-2140
1040.295	-2015
1040.358	-1557
1040.420	-2401
1040.482	-2565
1040.544	-2441
1040.606	-2334
1040.668	-2190
1040.730	-1727
1040.792	-2287
1040.854	-2132
1040.916	-2054
1040.978	-1829
1041.040	-1377
1041.102	-1619
1041.164	-2547
1041.225	-1655
1041.287	-2907
1041.349	-853
1041.411	-2472
1041.472	-1790
1041.534	-2179
1041.596	-2285
1041.657	-2020
1041.719	-1899
1041.781	-1933
1041.842	-2412
1041.904	-2816
1041.965	-2533
1042.027	-2705
1042.088	-2036
1042.150	-2599
1042.211	-2486
1042.272	-2353
1042.334	-2170
1042.395	-1919
1042.456	-1549
1042.518	-2064
1042.579	-1536
1042.640	-2342
1042.701	-2282
1042.763	-2549
1042.824	-1961
1042.885	-3448
1042.946	-2023
1043.007	-2332
1043.068	-1760
1043.129	-2622
1043.190	-2236
1043.251	-1929
1043.312	-1710
1043.373	-1967
1043.434	-1742
1043.495	-2414
1043.556	-641
1043.616	-1899
1043.677	-2203
1043.738	-2373
1043.799	-2364
1043.859	-1826
1043.920	-1539
1043.981	-2351
1044.041	-2160
1044.102	-2797
1044.162	-2519
1044.223	-2446
1044.284	-1644
1044.344	-2313
1044.405	-2180
1044.465	-2845
1044.525	-1168
1044.586	-2029
1044.646	-1334
1044.707	-1523
1044.767	-1157
1044.827	-3092
1044.887	-1576
1044.948	-2603
1045.008	-1739
1045.068	-1910
1045.128	-817
1045.188	-2305
1045.249	-1762
1045.309	-2321
1045.369	-1810
1045.429	-2122
1045.489	-1490
1045.549	-2566
1045.609	-1855
1045.669	-2208
1045.729	-1414
1045.789	-1921
1045.848	-1913
1045.908	-1475
1045.968	-1325
1046.028	-2087
1046.088	-1668
1046.147	-1882
1046.207	-1227
1046.267	-1802
1046.326	-803
1046.386	-1530
1046.446	-1396
1046.505	-1884
1046.565	-610
1046.624	-1232
1046.684	-515
1046.743	-728
1046.803	-527
1046.862	-1370
1046.922	0
