'Start Wavelength	183.907
'End Wavelength	1046.922
'Gate Delay	5.000
'Gate Width (ms)	1.050
'Laser Output Level	0.000
'X Position	0.000
'Y Position	0.000
'Z Position	0.000
'Grid Point Number	1.000
'Shot Number	100.000
183.907	667.000
183.977	1208.000
184.047	481
184.116	1185
184.186	927
184.256	341
184.325	205
184.395	-716
184.465	1491
184.534	219
184.604	-54
184.674	1367
184.743	-454
184.813	1233
184.883	866
184.952	991
185.022	776
185.092	423
185.161	574
185.231	880
185.301	631
185.370	897
185.440	255
185.509	243
185.579	779
185.649	801
185.718	1010
185.788	1591
185.857	411
185.927	396
185.996	605
186.066	467
186.136	1105
186.205	825
186.275	340
186.344	1554
186.414	886
186.483	230
186.553	2896
186.622	3266
186.692	2378
186.761	1061
186.831	1493
186.900	462
186.970	1538
187.039	1697
187.109	1453
187.178	1101
187.248	1148
187.317	1713
187.387	727
187.456	1197
187.526	685
187.595	1459
187.664	1736
187.734	1569
187.803	680
187.873	1848
187.942	1080
188.012	653
188.081	447
188.150	1523
188.220	2803
188.289	3606
188.358	1972
188.428	1569
188.497	1522
188.567	2237
188.636	1004
188.705	2130
188.775	1226
188.844	675
188.913	1435
188.983	1606
189.052	697
189.121	1585
189.191	910
189.260	1841
189.329	936
189.399	581
189.468	1578
189.537	1378
189.606	1666
189.676	864
189.745	947
189.814	1478
189.883	1582
189.953	1167
190.022	1153
190.091	1140
190.161	2400
190.230	1959
190.299	1500
190.368	1220
190.437	1582
190.507	1119
190.576	1211
190.645	919
190.714	567
190.783	1029
190.853	1050
190.922	2438
190.991	1436
191.060	1381
191.129	380
191.198	1289
191.268	736
191.337	1129
191.406	1531
191.475	1159
191.544	1502
191.613	1983
191.682	1818
191.752	1783
191.821	815
191.890	727
191.959	1392
192.028	742
192.097	634
192.166	1032
192.235	425
192.304	1431
192.373	688
192.442	1102
192.511	844
192.580	1202
192.650	809
192.719	826
192.788	1628
192.857	1980
192.926	575
192.995	1740
193.064	2868
193.133	1469
193.202	2052
193.271	2412
193.340	1477
193.409	1638
193.478	1886
193.547	2314
193.615	2534
193.684	3325
193.753	1756
193.822	1390
193.891	775
193.960	1636
194.029	834
194.098	1017
194.167	608
194.236	1535
194.305	449
194.374	1914
194.443	980
194.512	1081
194.580	1723
194.649	1875
194.718	2777
194.787	1235
194.856	-141
194.925	1723
194.994	857
195.062	1938
195.131	1413
195.200	1104
195.269	2291
195.338	2091
195.407	1289
195.475	391
195.544	2089
195.613	1613
195.682	739
195.751	1788
195.819	803
195.888	1299
195.957	1790
196.026	2039
196.094	1490
196.163	1208
196.232	855
196.301	1605
196.369	1287
196.438	1387
196.507	1341
196.576	862
196.644	1777
196.713	1294
196.782	946
196.850	1691
196.919	1482
196.988	907
197.056	307
197.125	1369
197.194	1493
197.262	1492
197.331	1171
197.400	1057
197.468	979
197.537	1085
197.606	2194
197.674	2273
197.743	2823
197.812	2538
197.880	1952
197.949	1645
198.017	2295
198.086	2036
198.155	1323
198.223	1372
198.292	2679
198.360	1503
198.429	1953
198.497	1684
198.566	1689
198.635	3548
198.703	1625
198.772	1746
198.840	2841
198.909	3563
198.977	2178
199.046	1493
199.114	1606
199.183	1567
199.251	959
199.320	599
199.388	1724
199.457	1675
199.525	1162
199.594	1249
199.662	1545
199.731	1000
199.799	1294
199.867	2047
199.936	1508
200.004	2268
200.073	1355
200.141	1722
200.210	1168
200.278	2430
200.346	1904
200.415	3339
200.483	2825
200.552	3481
200.620	2772
200.688	1828
200.757	1427
200.825	1468
200.893	1744
200.962	1505
201.030	1504
201.098	1680
201.167	2037
201.235	2549
201.303	1818
201.372	3303
201.440	2173
201.508	3849
201.577	3355
201.645	2619
201.713	2435
201.781	2730
201.850	4699
201.918	2706
201.986	1888
202.055	2096
202.123	2232
202.191	1768
202.259	1987
202.327	2817
202.396	1907
202.464	2815
202.532	4885
202.600	10373
202.669	9365
202.737	5366
202.805	3201
202.873	2629
202.941	2125
203.009	2606
203.078	2471
203.146	3221
203.214	2417
203.282	1042
203.350	2045
203.418	2514
203.487	2459
203.555	1552
203.623	1789
203.691	1587
203.759	1176
203.827	1436
203.895	2986
203.963	2379
204.031	2931
204.099	3411
204.168	1679
204.236	3132
204.304	3627
204.372	1941
204.440	1924
204.508	1486
204.576	1043
204.644	1991
204.712	1400
204.780	2776
204.848	3111
204.916	2052
204.984	1756
205.052	1590
205.120	1444
205.188	2277
205.256	1037
205.324	1564
205.392	1452
205.460	3228
205.528	1218
205.596	2552
205.664	2029
205.732	1830
205.799	3311
205.867	5945
205.935	1529
206.003	2792
206.071	1981
206.139	2010
206.207	1719
206.275	3060
206.343	1747
206.411	2399
206.478	2647
206.546	1886
206.614	2267
206.682	2022
206.750	3090
206.818	5271
206.885	4986
206.953	2450
207.021	3005
207.089	1889
207.157	1404
207.225	1793
207.292	1178
207.360	1603
207.428	2430
207.496	2168
207.563	1993
207.631	2018
207.699	2076
207.767	2112
207.834	1570
207.902	3445
207.970	2494
208.038	2660
208.105	3261
208.173	3036
208.241	2865
208.309	3665
208.376	3215
208.444	3687
208.512	2571
208.579	2174
208.647	4219
208.715	4747
208.782	2816
208.850	2590
208.918	2114
208.985	2899
209.053	2401
209.120	2183
209.188	1981
209.256	1992
209.323	1245
209.391	1374
209.459	3573
209.526	1551
209.594	1947
209.661	3183
209.729	2354
209.796	2611
209.864	3802
209.932	2243
209.999	4113
210.067	2942
210.134	2523
210.202	2521
210.269	4137
210.337	7148
210.404	4528
210.472	2808
210.539	2734
210.607	2002
210.674	3083
210.742	2894
210.809	2541
210.877	2630
210.944	2324
211.012	2069
211.079	4078
211.146	3323
211.214	4172
211.281	8555
211.349	7626
211.416	3930
211.484	3039
211.551	2721
211.618	3711
211.686	3647
211.753	2734
211.821	2746
211.888	3430
211.955	4302
212.023	2523
212.090	2627
212.157	2414
212.225	2829
212.292	3882
212.359	6694
212.427	17963
212.494	8545
212.561	3287
212.629	3092
212.696	1750
212.763	3230
212.831	2958
212.898	3097
212.965	1541
213.032	2900
213.100	1914
213.167	3089
213.234	2990
213.301	2048
213.369	3742
213.436	2087
213.503	1432
213.570	3372
213.638	2711
213.705	1669
213.772	1500
213.839	2401
213.906	3179
213.973	3056
214.041	2028
214.108	3564
214.175	2920
214.242	2000
214.309	2211
214.376	3156
214.444	2312
214.511	3877
214.578	2608
214.645	4201
214.712	3459
214.779	3781
214.846	3380
214.913	4354
214.980	4375
215.048	7165
215.115	8621
215.182	7244
215.249	5023
215.316	3523
215.383	3303
215.450	3031
215.517	2226
215.584	2692
215.651	2037
215.718	2905
215.785	3214
215.852	3269
215.919	3319
215.986	2635
216.053	2261
216.120	2080
216.187	3309
216.254	3418
216.321	2664
216.388	3000
216.455	3245
216.522	3008
216.589	2780
216.656	4280
216.722	4805
216.789	3861
216.856	3288
216.923	3807
216.990	2630
217.057	2618
217.124	3411
217.191	2836
217.258	4709
217.324	4421
217.391	4885
217.458	3520
217.525	3323
217.592	3330
217.659	2755
217.725	4208
217.792	3745
217.859	5738
217.926	2602
217.993	2937
218.059	3537
218.126	2722
218.193	1870
218.260	2226
218.327	1667
218.393	1893
218.460	1754
218.527	1637
218.594	3615
218.660	4059
218.727	4834
218.794	2877
218.860	3216
218.927	2622
218.994	2453
219.061	1998
219.127	2742
219.194	4542
219.261	2992
219.327	2764
219.394	2923
219.461	1947
219.527	2582
219.594	3923
219.661	2958
219.727	2160
219.794	4642
219.860	4408
219.927	5287
219.994	10771
220.060	18563
220.127	19210
220.193	11422
220.260	6753
220.326	6594
220.393	6683
220.460	7351
220.526	5623
220.593	3117
220.659	5468
220.726	4825
220.792	11725
220.859	10612
220.925	10388
220.992	10771
221.058	12779
221.125	14938
221.191	11899
221.258	5206
221.324	4747
221.391	3144
221.457	2898
221.524	2874
221.590	4962
221.657	11852
221.723	9801
221.789	8683
221.856	8624
221.922	3755
221.989	5330
222.055	3699
222.121	3462
222.188	6845
222.254	4849
222.321	4271
222.387	2782
222.453	3279
222.520	2216
222.586	2253
222.652	2815
222.719	1666
222.785	3656
222.851	2648
222.918	2735
222.984	2172
223.050	3139
223.116	551
223.183	3318
223.249	2434
223.315	1883
223.382	1531
223.448	2712
223.514	1100
223.580	1928
223.647	2006
223.713	1563
223.779	2182
223.845	1708
223.911	3095
223.978	972
224.044	2652
224.110	2051
224.176	2633
224.242	2298
224.309	1904
224.375	2942
224.441	2533
224.507	2610
224.573	927
224.639	2349
224.705	1590
224.772	3259
224.838	1672
224.904	3251
224.970	2648
225.036	2764
225.102	1507
225.168	3644
225.234	3123
225.300	3273
225.366	3793
225.432	2951
225.499	3143
225.565	3799
225.631	2538
225.697	2975
225.763	3136
225.829	3772
225.895	3988
225.961	4835
226.027	5528
226.093	3095
226.159	6095
226.225	9121
226.291	13790
226.357	21796
226.423	11810
226.489	8101
226.554	5571
226.620	5443
226.686	5452
226.752	8035
226.818	12848
226.884	31747
226.950	28403
227.016	12051
227.082	8880
227.148	6767
227.214	6652
227.279	6565
227.345	6122
227.411	9632
227.477	19685
227.543	34276
227.609	40669
227.674	23210
227.740	12464
227.806	8754
227.872	7330
227.938	5466
228.003	5758
228.069	4328
228.135	3970
228.201	4395
228.267	2906
228.332	4236
228.398	3597
228.464	3864
228.530	1994
228.595	3137
228.661	2108
228.727	4820
228.792	4656
228.858	2447
228.924	2187
228.990	4925
229.055	3164
229.121	4948
229.187	2929
229.252	3480
229.318	2831
229.384	3749
229.449	3201
229.515	1207
229.581	1401
229.646	4020
229.712	3479
229.777	6883
229.843	7179
229.909	4453
229.974	5085
230.040	4099
230.105	3595
230.171	3455
230.236	4668
230.302	5236
230.368	3962
230.433	2836
230.499	3458
230.564	3328
230.630	2325
230.695	3273
230.761	3500
230.826	1651
230.892	4534
230.957	3067
231.023	2301
231.088	3152
231.154	2663
231.219	3571
231.284	3688
231.350	5707
231.415	2577
231.481	4183
231.546	3111
231.612	2937
231.677	2370
231.742	1970
231.808	4120
231.873	2801
231.939	1333
232.004	5227
232.069	5910
232.135	3726
232.200	2419
232.265	3477
232.331	2498
232.396	3012
232.461	2201
232.527	2313
232.592	1885
232.657	4861
232.723	4903
232.788	3657
232.853	3853
232.918	3436
232.984	2439
233.049	2505
233.114	3988
233.179	6608
233.245	7478
233.310	7008
233.375	2274
233.440	3850
233.506	1920
233.571	3036
233.636	2635
233.701	3274
233.766	3643
233.832	4058
233.897	2641
233.962	1954
234.027	4314
234.092	4201
234.157	4547
234.222	5727
234.288	6795
234.353	11018
234.418	8401
234.483	5999
234.548	4695
234.613	4130
234.678	4042
234.743	3775
234.808	9943
234.873	6445
234.938	4835
235.004	3995
235.069	3572
235.134	2437
235.199	3598
235.264	3704
235.329	2258
235.394	4072
235.459	4171
235.524	3233
235.589	4160
235.654	3530
235.719	1965
235.784	4410
235.849	3959
235.913	5433
235.978	5540
236.043	7436
236.108	3652
236.173	4059
236.238	5002
236.303	3276
236.368	3293
236.433	5469
236.498	6748
236.563	7169
236.627	11612
236.692	45611
236.757	38630
236.822	12709
236.887	8756
236.952	8398
237.017	5513
237.081	8156
237.146	8381
237.211	17171
237.276	44258
237.341	84923
237.405	32663
237.470	12914
237.535	8922
237.600	7246
237.664	7089
237.729	5665
237.794	5671
237.859	10308
237.923	7343
237.988	5891
238.053	6452
238.118	6702
238.182	16722
238.247	15684
238.312	4882
238.376	5991
238.441	2919
238.506	5879
238.570	3552
238.635	6019
238.700	4981
238.764	4347
238.829	6831
238.893	7957
238.958	6326
239.023	5994
239.087	4816
239.152	6882
239.216	5756
239.281	5342
239.346	5109
239.410	5215
239.475	4941
239.539	15898
239.604	15040
239.668	10219
239.733	14527
239.797	35400
239.862	70856
239.926	59592
239.991	25072
240.055	13655
240.120	9477
240.184	7810
240.249	5987
240.313	6379
240.378	5546
240.442	9380
240.507	14814
240.571	5735
240.635	6559
240.700	8691
240.764	5258
240.829	4966
240.893	4438
240.957	5342
241.022	8290
241.086	12467
241.151	7092
241.215	3513
241.279	5910
241.344	6782
241.408	5411
241.472	4122
241.537	6348
241.601	5265
241.665	3939
241.730	4395
241.794	5801
241.858	4420
241.922	5090
241.987	5070
242.051	4384
242.115	3286
242.179	4664
242.244	4150
242.308	4894
242.372	4797
242.436	4327
242.501	5322
242.565	3597
242.629	4656
242.693	4858
242.757	3767
242.822	4123
242.886	4637
242.950	5611
243.014	4539
243.078	4980
243.142	5764
243.206	3875
243.271	5202
243.335	4844
243.399	8782
243.463	22339
243.527	68863
243.591	20529
243.655	8739
243.719	6481
243.783	7982
243.847	8514
243.911	10995
243.975	10705
244.040	8200
244.104	6489
244.168	5299
244.232	5700
244.296	9090
244.360	9641
244.424	5375
244.488	5240
244.552	5388
244.615	3071
244.679	3957
244.743	5027
244.807	6454
244.871	5586
244.935	5836
244.999	3950
245.063	6641
245.127	6651
245.191	7800
245.255	8260
245.319	8963
245.383	5552
245.446	5959
245.510	4287
245.574	5477
245.638	5807
245.702	4742
245.766	12563
245.829	11054
245.893	5211
245.957	5634
246.021	7485
246.085	7468
246.149	7164
246.212	15490
246.276	22642
246.340	10636
246.404	7281
246.467	8172
246.531	11014
246.595	8515
246.659	7880
246.722	6193
246.786	8231
246.850	7458
246.913	10437
246.977	5718
247.041	6593
247.104	6818
247.168	7449
247.232	13332
247.295	30766
247.359	14602
247.423	8206
247.486	12556
247.550	8729
247.614	7380
247.677	8859
247.741	7787
247.804	8178
247.868	17523
247.932	14503
247.995	29873
248.059	11697
248.122	7010
248.186	9979
248.249	12831
248.313	42783
248.376	46144
248.440	29616
248.503	11528
248.567	10352
248.630	12994
248.694	15585
248.757	20518
248.821	48947
248.884	27483
248.948	24362
249.011	36615
249.075	54834
249.138	46413
249.202	16771
249.265	11721
249.328	12107
249.392	9446
249.455	9817
249.519	10084
249.582	10941
249.645	15835
249.709	13576
249.772	9664
249.835	8598
249.899	10102
249.962	10827
250.025	8669
250.089	19052
250.152	25729
250.215	10982
250.279	8963
250.342	9469
250.405	9707
250.468	8520
250.532	11278
250.595	17259
250.658	62628
250.721	111031
250.785	34010
250.848	18653
250.911	12670
250.974	12194
251.038	15913
251.101	31825
251.164	14558
251.227	15354
251.290	14571
251.354	22392
251.417	89270
251.480	90925
251.543	53185
251.606	169232
251.669	120202
251.732	39753
251.795	41472
251.859	44760
251.922	107002
251.985	58787
252.048	21771
252.111	15468
252.174	15084
252.237	25110
252.300	57400
252.363	57905
252.426	139549
252.489	51220
252.552	21663
252.615	16246
252.678	18831
252.741	44085
252.804	57027
252.867	142497
252.930	72192
252.993	36177
253.056	22360
253.119	16519
253.182	13617
253.245	18527
253.308	16336
253.371	14342
253.434	13396
253.497	13633
253.559	26822
253.622	17988
253.685	17721
253.748	17588
253.811	11990
253.874	12427
253.937	11361
254.000	11276
254.062	19366
254.125	30343
254.188	22178
254.251	18853
254.314	11614
254.376	17155
254.439	18752
254.502	15256
254.565	19805
254.628	33046
254.690	17112
254.753	10852
254.816	10972
254.878	11366
254.941	20825
255.004	23625
255.067	11641
255.129	10339
255.192	8425
255.255	7527
255.317	9706
255.380	8593
255.443	8432
255.505	9683
255.568	7185
255.631	7388
255.693	10164
255.756	8576
255.819	11434
255.881	11285
255.944	8721
256.006	8041
256.069	7313
256.132	7222
256.194	8399
256.257	12989
256.319	12094
256.382	14342
256.444	18002
256.507	13377
256.569	10633
256.632	9163
256.694	12266
256.757	24511
256.819	74898
256.882	28688
256.944	13891
257.007	12247
257.069	12324
257.132	8652
257.194	10053
257.257	8462
257.319	9278
257.381	10472
257.444	20731
257.506	87570
257.569	89265
257.631	36339
257.693	21301
257.756	13536
257.818	11746
257.880	10096
257.943	9764
258.005	8866
258.067	8794
258.130	8189
258.192	10026
258.254	12009
258.317	9433
258.379	10102
258.441	18161
258.503	18392
258.566	17735
258.628	21197
258.690	9973
258.753	10230
258.815	13002
258.877	10075
258.939	9186
259.001	8637
259.064	8994
259.126	8762
259.188	10004
259.250	8884
259.312	10807
259.375	15889
259.437	12065
259.499	9152
259.561	9863
259.623	9880
259.685	8885
259.747	9749
259.809	17791
259.872	27966
259.934	44744
259.996	35573
260.058	14344
260.120	9710
260.182	9526
260.244	9653
260.306	8673
260.368	9134
260.430	8340
260.492	11083
260.554	15900
260.616	14645
260.678	24338
260.740	28118
260.802	12070
260.864	10792
260.926	9399
260.988	10846
261.050	10066
261.112	12293
261.174	26520
261.236	23196
261.298	12128
261.359	15797
261.421	18263
261.483	10355
261.545	10666
261.607	8302
261.669	10064
261.731	12157
261.793	19816
261.854	12023
261.916	11479
261.978	9216
262.040	10204
262.102	10031
262.164	11458
262.225	11125
262.287	10838
262.349	15923
262.411	14419
262.472	11555
262.534	13397
262.596	17597
262.658	12044
262.719	9938
262.781	12828
262.843	18534
262.904	13710
262.966	11946
263.028	15336
263.090	34874
263.151	78685
263.213	29244
263.275	18499
263.336	13961
263.398	14046
263.459	10949
263.521	12395
263.583	18224
263.644	14442
263.706	10576
263.767	9527
263.829	9934
263.891	9449
263.952	8591
264.014	9254
264.075	9118
264.137	12648
264.198	10741
264.260	7931
264.321	7913
264.383	11643
264.444	16969
264.506	10586
264.567	10011
264.629	11758
264.690	11951
264.752	11805
264.813	9313
264.875	8763
264.936	9341
264.998	9640
265.059	12484
265.120	12562
265.182	12095
265.243	31638
265.305	35007
265.366	14585
265.427	10290
265.489	12164
265.550	9124
265.611	10956
265.673	10862
265.734	10511
265.795	9737
265.857	9310
265.918	10553
265.979	16708
266.040	58430
266.102	48603
266.163	18992
266.224	14917
266.286	13249
266.347	11872
266.408	12698
266.469	12506
266.530	12336
266.592	12773
266.653	16350
266.714	20525
266.775	14801
266.836	14372
266.898	13810
266.959	16109
267.020	15753
267.081	15878
267.142	15676
267.203	15449
267.264	15325
267.326	18214
267.387	17847
267.448	15987
267.509	16283
267.570	16244
267.631	14315
267.692	13253
267.753	14204
267.814	12828
267.875	15213
267.936	21020
267.997	13891
268.058	12512
268.119	10849
268.180	10049
268.241	9386
268.302	9761
268.363	8616
268.424	8707
268.485	9516
268.546	7871
268.607	8138
268.668	8463
268.729	7853
268.790	7705
268.851	8066
268.912	13050
268.972	14437
269.033	10235
269.094	7479
269.155	9182
269.216	7421
269.277	7821
269.338	7780
269.398	8470
269.459	8636
269.520	10155
269.581	10825
269.642	11203
269.702	10226
269.763	9214
269.824	9858
269.885	10344
269.945	11584
270.006	9866
270.067	7099
270.128	8518
270.188	6794
270.249	7406
270.310	7365
270.370	8158
270.431	7186
270.492	7300
270.553	7911
270.613	11099
270.674	15653
270.734	10190
270.795	8530
270.856	10292
270.916	8244
270.977	9168
271.038	9248
271.098	9356
271.159	11366
271.219	11275
271.280	9867
271.340	8971
271.401	8846
271.462	12597
271.522	11559
271.583	9686
271.643	10078
271.704	11403
271.764	13041
271.825	17764
271.885	40926
271.946	56604
272.006	24472
272.066	31764
272.127	53304
272.187	45460
272.248	26271
272.308	19717
272.369	38931
272.429	26315
272.489	18845
272.550	20700
272.610	21452
272.671	17416
272.731	17984
272.791	20751
272.852	19461
272.912	19081
272.972	17128
273.033	18099
273.093	20040
273.153	21971
273.214	22812
273.274	26364
273.334	40977
273.394	62439
273.455	40209
273.515	41423
273.575	56568
273.635	43230
273.696	48658
273.756	69991
273.816	47181
273.876	39642
273.936	40686
273.997	42012
274.057	27603
274.117	24914
274.177	25754
274.237	55372
274.297	48846
274.358	30481
274.418	39980
274.478	29990
274.538	19628
274.598	17263
274.658	23971
274.718	26716
274.778	17464
274.838	14127
274.898	19304
274.958	34048
275.018	43684
275.078	31406
275.138	16046
275.198	13165
275.258	12512
275.318	13546
275.378	15650
275.438	16417
275.498	15217
275.558	22362
275.618	36441
275.678	31804
275.738	22167
275.798	17639
275.858	12278
275.918	11964
275.978	12578
276.038	13333
276.098	13932
276.157	16529
276.217	28277
276.277	17963
276.337	14330
276.397	14013
276.457	14363
276.517	14478
276.576	14365
276.636	14103
276.696	16558
276.756	20638
276.815	21010
276.875	19495
276.935	18403
276.995	17448
277.055	17576
277.114	20601
277.174	18465
277.234	26814
277.293	18664
277.353	15934
277.413	15183
277.472	17310
277.532	20493
277.592	30156
277.651	89862
277.711	156675
277.771	72515
277.830	162533
277.890	145493
277.950	129975
278.009	277405
278.069	137568
278.128	130398
278.188	174640
278.248	105060
278.307	197839
278.367	118672
278.426	45775
278.486	33734
278.545	28275
278.605	27108
278.664	26060
278.724	25648
278.783	35201
278.843	59318
278.902	34184
278.962	32091
279.021	37273
279.081	73868
279.140	68392
279.199	47521
279.259	52099
279.318	64613
279.378	89476
279.437	148054
279.496	334934
279.556	714893
279.615	648806
279.675	291619
279.734	166372
279.793	171496
279.853	181676
279.912	91534
279.971	70045
280.031	66426
280.090	83228
280.149	125543
280.208	201599
280.268	532479
280.327	557288
280.386	216499
280.445	115328
280.505	80537
280.564	59114
280.623	48236
280.682	45496
280.742	44776
280.801	32726
280.860	29398
280.919	27787
280.978	30726
281.037	30674
281.097	27823
281.156	30724
281.215	26735
281.274	25576
281.333	41177
281.392	33715
281.451	23443
281.510	22072
281.569	22770
281.628	23222
281.688	21701
281.747	22498
281.806	20744
281.865	19340
281.924	18691
281.983	18638
282.042	17761
282.101	17891
282.160	18063
282.219	18388
282.278	18611
282.337	25399
282.396	21387
282.454	19801
282.513	20512
282.572	30378
282.631	24064
282.690	19057
282.749	18432
282.808	20504
282.867	22218
282.926	21308
282.985	21766
283.043	21485
283.102	22459
283.161	23220
283.220	29624
283.279	39053
283.338	27676
283.396	25679
283.455	27126
283.514	26836
283.573	27739
283.631	28451
283.690	27568
283.749	28115
283.808	32972
283.866	34054
283.925	32918
283.984	34034
284.043	35365
284.101	38291
284.160	39508
284.219	45943
284.277	48365
284.336	54182
284.395	70990
284.453	74337
284.512	71560
284.570	82205
284.629	93275
284.688	112304
284.746	135712
284.805	162213
284.863	203137
284.922	253510
284.981	306379
285.039	389557
285.098	487402
285.156	496195
285.215	298064
285.273	308381
285.332	519552
285.390	514178
285.449	412743
285.507	318911
285.566	249133
285.624	199761
285.683	162340
285.741	135405
285.799	112349
285.858	97438
285.916	84793
285.975	74249
286.033	65786
286.091	58859
286.150	53898
286.208	50695
286.267	46219
286.325	42765
286.383	41401
286.442	39267
286.500	36284
286.558	34512
286.616	31646
286.675	31615
286.733	30079
286.791	28844
286.850	28770
286.908	26991
286.966	28854
287.024	24593
287.083	23345
287.141	23017
287.199	23185
287.257	23015
287.315	21413
287.374	21891
287.432	24298
287.490	22774
287.548	19279
287.606	18148
287.664	19637
287.723	19415
287.781	20224
287.839	18676
287.897	18698
287.955	20672
288.013	25776
288.071	42687
288.129	114838
288.187	299629
288.245	131007
288.303	49030
288.361	33019
288.419	27382
288.477	22823
288.535	20927
288.593	18173
288.651	17441
288.709	15552
288.767	15176
288.825	15371
288.883	15077
288.941	13872
288.999	14595
289.057	14133
289.115	13242
289.173	14034
289.231	14367
289.289	13883
289.346	13330
289.404	14163
289.462	15654
289.520	14961
289.578	12577
289.636	12297
289.694	13216
289.751	12816
289.809	12925
289.867	13792
289.925	13867
289.983	12888
290.040	12774
290.098	12343
290.156	11080
290.214	13327
290.271	12277
290.329	13577
290.387	14141
290.444	11998
290.502	11933
290.560	11616
290.617	11639
290.675	11177
290.733	11474
290.790	11470
290.848	12403
290.906	11032
290.963	11020
291.021	11978
291.078	11573
291.136	12177
291.194	16088
291.251	22534
291.309	13807
291.366	12063
291.424	11603
291.481	14102
291.539	21439
291.596	26568
291.654	14605
291.711	12700
291.769	12421
291.826	13676
291.884	13428
291.941	10753
291.999	10631
292.056	10810
292.114	12253
292.171	11103
292.228	13505
292.286	13130
292.343	13488
292.401	13436
292.458	11949
292.515	11756
292.573	13443
292.630	13296
292.687	12118
292.745	11516
292.802	13769
292.859	22252
292.917	33482
292.974	20548
293.031	14322
293.089	12612
293.146	11801
293.203	11679
293.260	11630
293.318	11985
293.375	12659
293.432	11333
293.489	13688
293.546	14868
293.604	19566
293.661	42724
293.718	67860
293.775	36389
293.832	29872
293.889	40766
293.947	31489
294.004	20744
294.061	18886
294.118	23125
294.175	36367
294.232	53752
294.289	39949
294.346	22793
294.403	19162
294.460	15604
294.517	14297
294.574	13695
294.631	13607
294.688	15222
294.745	19896
294.802	44034
294.859	36668
294.916	18859
294.973	14529
295.030	13500
295.087	12819
295.144	11859
295.201	11317
295.258	11387
295.315	13631
295.372	21937
295.429	37868
295.486	19847
295.542	14327
295.599	16877
295.656	21465
295.713	21890
295.770	30839
295.827	17046
295.883	13426
295.940	11724
295.997	13118
296.054	12778
296.111	11517
296.167	10200
296.224	9526
296.281	10347
296.338	9755
296.394	10929
296.451	11600
296.508	18337
296.564	26933
296.621	21347
296.678	38256
296.734	53063
296.791	22975
296.848	15942
296.904	16171
296.961	22714
297.018	35205
297.074	28858
297.131	15931
297.187	14388
297.244	18839
297.301	41943
297.357	70266
297.414	28957
297.470	16819
297.527	13077
297.583	13104
297.640	12496
297.696	11226
297.753	11075
297.809	10781
297.866	9820
297.922	11180
297.979	10821
298.035	11895
298.092	12835
298.148	24691
298.204	23214
298.261	16442
298.317	21858
298.374	46238
298.430	31690
298.486	17054
298.543	14237
298.599	13657
298.656	14261
298.712	18155
298.768	28892
298.824	23752
298.881	14494
298.937	12600
298.993	12398
299.050	13154
299.106	12471
299.162	12282
299.218	13165
299.275	13162
299.331	16328
299.387	23909
299.443	56322
299.500	96206
299.556	70058
299.612	34065
299.668	32805
299.724	69427
299.780	83718
299.837	38398
299.893	33122
299.949	70025
300.005	98334
300.061	74720
300.117	115406
300.173	58343
300.229	28639
300.285	25269
300.341	24188
300.397	18915
300.453	17004
300.510	19136
300.566	24599
300.622	37631
300.678	102173
300.734	135139
300.790	72848
300.845	66448
300.901	71402
300.957	100194
301.013	54742
301.069	27856
301.125	21576
301.181	18230
301.237	17487
301.293	14715
301.349	14092
301.405	13546
301.461	12920
301.516	13310
301.572	12394
301.628	14969
301.684	14212
301.740	17939
301.796	23243
301.851	19734
301.907	25594
301.963	28637
302.019	43068
302.074	105682
302.130	102928
302.186	48863
302.242	25075
302.297	20363
302.353	18825
302.409	25691
302.464	23836
302.520	21908
302.576	38203
302.631	44306
302.687	25310
302.743	16385
302.798	13263
302.854	11852
302.910	12015
302.965	13502
303.021	15937
303.076	14751
303.132	16738
303.187	17831
303.243	14111
303.299	12025
303.354	11584
303.410	10914
303.465	10936
303.521	11116
303.576	11729
303.632	13905
303.687	18652
303.743	38838
303.798	35267
303.853	17913
303.909	13505
303.964	12645
304.020	13208
304.075	16569
304.130	15511
304.186	20292
304.241	20852
304.297	18699
304.352	14049
304.358	13864
304.407	12363
304.449	12470
304.463	12512
304.518	12270
304.539	12510
304.573	12886
304.629	14719
304.630	14769
304.684	17617
304.720	26960
304.739	31516
304.794	44695
304.811	39279
304.850	26115
304.902	16350
304.905	15749
304.960	13365
304.992	12898
305.015	12530
305.071	12772
305.083	12789
305.126	12842
305.173	11622
305.181	11428
305.236	10649
305.264	10748
305.292	10879
305.347	11548
305.354	11557
305.402	11673
305.445	11510
305.457	11440
305.512	12575
305.535	12805
305.567	13187
305.622	12969
305.626	13174
305.678	18973
305.716	30960
305.733	34895
305.788	41207
305.807	36763
305.843	30392
305.897	40477
305.898	40553
305.953	40091
305.988	27715
306.008	21335
306.063	14964
306.078	14136
306.118	12704
306.168	11811
306.173	11752
306.228	10813
306.259	10993
306.283	11101
306.338	11146
306.349	11118
306.393	11081
306.440	11781
306.448	11931
306.503	12602
306.530	12654
306.558	13243
306.613	16113
306.620	16672
306.668	21842
306.711	30814
306.723	31925
306.778	27825
306.801	23124
306.833	17993
306.888	13736
306.892	13602
306.943	13062
306.982	12460
306.997	12350
307.052	12522
307.072	12522
307.107	12506
307.162	13296
307.163	13287
307.217	13471
307.253	14854
307.272	15527
307.327	16156
307.343	16434
307.381	17333
307.434	18953
307.436	19142
307.491	22864
307.524	26612
307.546	27440
307.600	29693
307.614	28050
307.655	22386
307.704	18144
307.710	18033
307.765	18265
307.795	19568
307.819	20842
307.874	24077
307.885	24451
307.929	25470
307.975	27267
307.984	28573
308.038	37794
308.065	45273
308.093	76953
308.148	149612
308.156	165240
308.202	240949
308.246	296003
308.257	285737
308.312	147622
308.336	96818
308.366	76099
308.421	55539
308.426	53861
308.475	47177
308.517	44301
308.530	44330
308.585	45613
308.607	45994
308.639	46983
308.694	50213
308.697	50326
308.748	54957
308.787	58592
308.803	59700
308.857	62961
308.877	64512
308.912	74659
308.967	93843
308.967	94049
309.021	143477
309.058	182472
309.076	209125
309.130	299921
309.148	327512
309.185	439209
309.238	612527
309.239	615528
309.293	723748
309.328	748672
309.348	685772
309.402	460576
309.418	397529
309.457	326669
309.508	251134
309.511	252868
309.566	300038
309.598	336329
309.620	415235
309.674	635589
309.688	692293
309.729	675157
309.778	600064
309.783	586292
309.837	393057
309.868	288213
309.892	253086
309.946	183155
309.959	169257
310.001	147846
310.049	124512
310.055	121169
310.109	89991
310.139	73214
310.163	65783
310.218	52150
310.229	49625
310.272	44662
310.319	40036
310.326	39372
310.381	34789
310.409	32630
310.435	31338
310.489	28382
310.499	27948
310.543	27027
310.589	25963
310.598	25729
310.652	24374
310.679	23577
310.706	23069
310.760	22115
310.769	21941
310.814	21789
310.859	21782
310.868	21777
310.923	21368
310.948	21236
310.977	21194
311.031	21060
311.038	21014
311.085	20022
311.128	18860
311.139	18854
311.193	18917
311.218	18848
311.247	18763
311.301	18872
311.308	18823
311.356	18430
311.398	18052
311.410	17900
311.464	17124
311.488	16737
311.518	16891
311.572	17173
311.578	17178
311.626	17734
311.668	18138
311.680	18200
311.734	18330
311.758	18366
311.788	18051
311.842	17400
311.847	17305
311.896	18280
311.937	19068
311.950	18856
312.004	17800
312.027	17298
312.058	17145
312.112	16821
312.117	16751
312.165	16895
312.207	16958
312.297	17473
312.386	17499
312.476	17258
312.566	20064
312.656	17899
312.745	16112
312.835	17257
312.925	17521
313.015	17998
313.104	18270
313.194	19834
313.284	20270
313.374	22136
313.463	21496
313.553	23164
313.643	23035
313.732	24661
313.822	24283
313.912	26749
314.001	28395
314.091	29981
314.180	30046
314.270	30408
314.360	30347
314.449	29297
314.539	28176
314.628	28863
314.718	29635
314.808	31642
314.897	33467
314.987	35409
315.076	38168
315.166	37468
315.255	34483
315.345	34887
315.434	34839
315.524	38463
315.613	47846
315.703	74550
315.792	208580
315.881	787531
315.971	252563
316.060	64757
316.150	42044
316.239	37194
316.328	32285
316.418	34592
316.507	36415
316.597	41375
316.686	40333
316.775	39527
316.865	39713
316.954	32479
317.043	31761
317.133	29030
317.222	28339
317.311	28054
317.400	29638
317.490	37127
317.579	45558
317.668	65748
317.757	115186
317.847	349538
317.936	1087792
318.025	354016
318.114	337594
318.203	141710
318.293	49671
318.382	57195
318.471	60514
318.560	52067
318.649	52972
318.738	31471
318.828	26565
318.917	22891
319.006	23659
319.095	28440
319.184	48257
319.273	34116
319.362	27101
319.451	21901
319.540	21333
319.629	25489
319.718	29128
319.807	23711
319.896	29879
319.985	56035
320.074	30957
320.163	22581
320.252	25332
320.341	25004
320.430	26011
320.519	30327
320.608	29608
320.697	33114
320.786	37753
320.875	44020
320.964	49127
321.053	53044
321.142	59125
321.230	65152
321.319	67800
321.408	82679
321.497	69942
321.586	60887
321.675	54270
321.764	52741
321.852	50051
321.941	57984
322.030	56425
322.119	61547
322.207	79864
322.296	78566
322.385	84075
322.474	94432
322.562	109783
322.651	78948
322.740	63759
322.829	58595
322.917	50534
323.006	44648
323.095	42122
323.183	37006
323.272	37055
323.361	40333
323.449	59571
323.538	35928
323.626	46384
323.715	36162
323.804	29527
323.892	40781
323.981	31803
324.069	24919
324.158	30793
324.246	29878
324.335	25467
324.424	28035
324.512	23454
324.601	25402
324.689	32884
324.778	43063
324.866	28115
324.954	21126
325.043	20252
325.131	21729
325.220	24518
325.308	25432
325.397	24512
325.485	21390
325.574	18836
325.662	19474
325.750	19322
325.839	19716
325.927	18386
326.015	19321
326.104	19701
326.192	20174
326.280	18061
326.369	18713
326.457	20181
326.545	22812
326.634	18678
326.722	19082
326.810	21674
326.898	24709
326.987	25516
327.075	26217
327.163	24543
327.251	22965
327.340	30012
327.428	39935
327.516	39445
327.604	30537
327.692	24629
327.781	21407
327.869	21027
327.957	17842
328.045	17764
328.133	16183
328.221	16657
328.309	16477
328.397	17588
328.485	22788
328.574	37078
328.662	57404
328.750	34919
328.838	23846
328.926	19179
329.014	17732
329.102	17519
329.190	21140
329.278	19004
329.366	16373
329.454	15483
329.542	16466
329.630	15655
329.718	16073
329.806	16501
329.893	16378
329.981	16626
330.069	16439
330.157	18346
330.245	23062
330.333	19366
330.421	17598
330.509	19182
330.597	32349
330.684	24714
330.772	17763
330.860	17182
330.948	19320
331.036	17336
331.123	15978
331.211	16525
331.299	16727
331.387	19366
331.475	21923
331.562	18515
331.650	18663
331.738	17832
331.825	18734
331.913	16784
332.001	17323
332.089	19067
332.176	20363
332.264	25364
332.352	23319
332.439	20077
332.527	20434
332.614	18855
332.702	21356
332.790	24336
332.877	38669
332.965	101708
333.052	97065
333.140	109004
333.228	285736
333.315	86977
333.403	39865
333.490	51441
333.578	117792
333.665	408814
333.753	176866
333.840	48692
333.928	40446
334.015	44478
334.103	56400
334.190	90244
334.278	85195
334.365	105747
334.452	102837
334.540	76101
334.627	76628
334.715	96307
334.802	136703
334.889	223471
334.977	262746
335.064	158188
335.151	87379
335.239	64727
335.326	57786
335.413	69790
335.501	75582
335.588	59944
335.675	68834
335.762	84295
335.850	113313
335.937	162175
336.024	248917
336.111	369043
336.199	302336
336.286	149392
336.373	89762
336.460	63095
336.547	49604
336.635	42751
336.722	37801
336.809	33286
336.896	34040
336.983	38520
337.070	52885
337.157	65364
337.245	52437
337.332	42862
337.419	29312
337.506	29325
337.593	28201
337.680	31588
337.767	41412
337.854	27388
337.941	26989
338.028	27639
338.115	24246
338.202	26162
338.289	29880
338.376	41978
338.463	27333
338.550	31446
338.637	30395
338.724	23793
338.811	24562
338.898	20636
338.984	20460
339.071	19727
339.158	20328
339.245	25994
339.332	22493
339.419	22837
339.506	21658
339.593	19617
339.679	21024
339.766	20044
339.853	21348
339.940	22592
340.027	19245
340.113	19468
340.200	20008
340.287	19199
340.374	19500
340.460	22253
340.547	18044
340.634	21391
340.720	34957
340.807	25400
340.894	19386
340.980	19000
341.067	19185
341.154	20247
341.240	20415
341.327	24550
341.414	19577
341.500	18171
341.587	18598
341.674	19119
341.760	23246
341.847	21485
341.933	18078
342.020	16823
342.106	17671
342.193	18993
342.279	20079
342.366	19162
342.452	21572
342.539	19900
342.625	24707
342.712	34545
342.798	23102
342.885	18554
342.971	16904
343.058	17476
343.144	17162
343.230	18314
343.317	17547
343.403	17279
343.490	17921
343.576	16949
343.662	18240
343.749	18376
343.835	20424
343.921	29532
344.008	102155
344.094	183004
344.180	45895
344.267	25496
344.353	48310
344.439	42078
344.525	24584
344.612	21452
344.698	20053
344.784	18364
344.870	17836
344.957	17301
345.043	20189
345.129	17507
345.215	21154
345.301	18750
345.387	17596
345.474	17005
345.560	16620
345.646	16500
345.732	17450
345.818	17163
345.904	18824
345.990	17871
346.076	16928
346.162	19502
346.249	17435
346.335	17216
346.421	20451
346.507	34915
346.593	66794
346.679	26525
346.765	25381
346.851	39039
346.937	31208
347.023	22552
347.108	21120
347.194	19246
347.280	22576
347.366	31922
347.452	84015
347.538	139935
347.624	72446
347.710	46310
347.796	23245
347.882	20290
347.967	19884
348.053	19021
348.139	18413
348.225	19679
348.311	19826
348.397	19543
348.482	22123
348.568	24877
348.654	38455
348.740	102820
348.825	107356
348.911	49182
348.997	60560
349.083	78027
349.168	26175
349.254	20817
349.340	19796
349.425	19846
349.511	21467
349.597	21560
349.682	26231
349.768	44717
349.854	29047
349.939	19931
350.025	20322
350.110	18576
350.196	18336
350.282	18409
350.367	20175
350.453	20056
350.538	19701
350.624	19084
350.709	20814
350.795	18116
350.880	19101
350.966	19626
351.051	20482
351.137	19252
351.222	19680
351.308	25408
351.393	36411
351.479	21829
351.564	18900
351.649	19669
351.735	19000
351.820	18159
351.906	18862
351.991	20368
352.076	31972
352.162	35586
352.247	20400
352.332	19541
352.418	21475
352.503	24484
352.588	47089
352.673	35796
352.759	21452
352.844	19229
352.929	19941
353.014	19672
353.100	20485
353.185	22479
353.270	24432
353.355	22940
353.441	20519
353.526	19509
353.611	23694
353.696	22992
353.781	22232
353.866	19383
353.952	21416
354.037	24241
354.122	31667
354.207	29216
354.292	21422
354.377	19233
354.462	20607
354.547	20798
354.632	21573
354.717	22885
354.802	24248
354.887	19679
354.972	19333
355.057	19847
355.142	20263
355.227	21180
355.312	23215
355.397	27028
355.482	39601
355.567	27074
355.652	27008
355.737	29228
355.822	55257
355.907	41826
355.991	23513
356.076	21569
356.161	21382
356.246	21469
356.331	23152
356.416	33085
356.501	103213
356.585	89221
356.670	27803
356.755	26775
356.840	30625
356.924	79442
357.009	210181
357.094	74404
357.179	28219
357.263	24740
357.348	24644
357.433	23822
357.517	24747
357.602	23352
357.687	24424
357.771	26681
357.856	34470
357.941	34277
358.025	75391
358.110	239537
358.195	103062
358.279	35992
358.364	36167
358.448	50900
358.533	84059
358.617	64081
358.702	61219
358.787	35294
358.871	30085
358.956	30082
359.040	26990
359.125	23724
359.209	24223
359.294	30720
359.378	47778
359.462	39333
359.547	25581
359.631	21981
359.716	20803
359.800	21558
359.885	23315
359.969	21736
360.053	21906
360.138	21922
360.222	24109
360.306	26391
360.391	25192
360.475	28875
360.559	37372
360.644	41688
360.728	36493
360.812	69280
360.896	136537
360.981	54538
361.065	33384
361.149	27727
361.233	26431
361.318	25781
361.402	27292
361.486	29358
361.570	29963
361.654	32684
361.739	45543
361.823	112914
361.907	147159
361.991	55554
362.075	56852
362.159	83094
362.243	139147
362.327	298629
362.411	371334
362.495	158599
362.580	86699
362.664	82097
362.748	101100
362.832	156724
362.916	314763
363.000	724767
363.084	896310
363.168	440930
363.252	148406
363.336	86146
363.420	71387
363.503	83319
363.587	77652
363.671	56772
363.755	57520
363.839	65852
363.923	71289
364.007	91540
364.091	124408
364.175	198940
364.258	416761
364.342	866219
364.426	1257735
364.510	671692
364.594	238016
364.677	135034
364.761	176943
364.845	115772
364.929	61021
365.013	48580
365.096	44884
365.180	42211
365.264	46038
365.347	75986
365.431	45429
365.515	31020
365.598	29706
365.682	30619
365.766	30490
365.849	30411
365.933	29501
366.017	31252
366.100	30106
366.184	28626
366.267	30014
366.351	28306
366.435	27664
366.518	26694
366.602	27824
366.685	28109
366.769	28916
366.852	29446
366.936	32175
367.019	30619
367.103	29077
367.186	31749
367.270	29671
367.353	29619
367.436	34253
367.520	33495
367.603	34611
367.687	34360
367.770	37229
367.853	35851
367.937	55064
368.020	62486
368.104	33035
368.187	32507
368.270	32957
368.353	30747
368.437	31349
368.520	35826
368.603	34611
368.687	48343
368.770	63015
368.853	31316
368.936	30746
369.020	28211
369.103	24805
369.186	24425
369.269	23973
369.352	27889
369.436	28861
369.519	25980
369.602	23665
369.685	26817
369.768	24807
369.851	25736
369.934	23589
370.018	25888
370.101	29298
370.184	30421
370.267	29699
370.350	33126
370.433	50605
370.516	166217
370.599	451976
370.682	210160
370.765	67700
370.848	64051
370.931	87688
371.014	46904
371.097	32145
371.180	31661
371.263	31541
371.346	30914
371.429	33305
371.511	33069
371.594	36692
371.677	39470
371.760	43073
371.843	50690
371.926	123461
372.009	218277
372.091	97664
372.174	75385
372.257	110759
372.340	68337
372.423	59291
372.505	55780
372.588	45092
372.671	55942
372.754	93263
372.836	59061
372.919	50629
373.002	58566
373.085	48500
373.167	51112
373.250	66305
373.332	100313
373.415	152885
373.498	278406
373.580	189125
373.663	635465
373.746	596430
373.828	116151
373.911	53677
373.993	45361
374.076	57279
374.159	52564
374.241	48395
374.324	79474
374.406	64196
374.489	104508
374.571	205772
374.654	89242
374.736	68860
374.819	144614
374.901	199670
374.983	193430
375.066	60182
375.148	45414
375.231	60352
375.313	72430
375.395	52745
375.478	43989
375.560	43325
375.643	45201
375.725	70669
375.807	175176
375.890	111783
375.972	47162
376.054	42701
376.136	43084
376.219	38251
376.301	70890
376.383	131933
376.465	60581
376.548	43423
376.630	55309
376.712	107171
376.794	56445
376.877	31063
376.959	27345
377.041	28579
377.123	29803
377.205	31094
377.287	27330
377.369	29568
377.452	29791
377.534	28579
377.616	29040
377.698	28659
377.780	29002
377.862	29132
377.944	30210
378.026	27666
378.108	28646
378.190	28976
378.272	28435
378.354	29266
378.436	28433
378.518	29971
378.600	35489
378.682	38259
378.764	56995
378.846	47191
378.928	32537
379.010	33714
379.091	31370
379.173	31180
379.255	30154
379.337	31032
379.419	45819
379.501	72803
379.583	43498
379.664	33691
379.746	38850
379.828	60833
379.910	68859
379.991	63571
380.073	35600
380.155	35869
380.237	33092
380.318	34895
380.400	35160
380.482	42095
380.564	43419
380.645	45911
380.727	43447
380.809	42046
380.890	38952
380.972	39814
381.053	44009
381.135	45679
381.217	52496
381.298	71950
381.380	56323
381.461	62865
381.543	136800
381.624	142248
381.706	67003
381.787	61894
381.869	68680
381.951	112317
382.032	247660
382.113	162072
382.195	89588
382.276	96408
382.358	125095
382.439	185072
382.521	227035
382.602	314524
382.684	290938
382.765	508466
382.846	1189680
382.928	2106940
383.009	1366377
383.090	1261586
383.172	2393681
383.253	2551132
383.334	1238065
383.416	674144
383.497	523263
383.578	643881
383.659	1152805
383.741	2267383
383.822	2909061
383.903	1994103
383.984	877546
384.066	513025
384.147	315626
384.228	207537
384.309	173250
384.390	152560
384.471	133647
384.553	123340
384.634	118137
384.715	114083
384.796	110228
384.877	120173
384.958	144150
385.039	134318
385.120	100666
385.201	88020
385.282	91362
385.363	116035
385.444	145522
385.525	140573
385.606	163635
385.687	137821
385.768	95356
385.849	94283
385.930	163160
386.011	212572
386.092	108886
386.173	84995
386.254	70453
386.335	66947
386.416	66806
386.496	79097
386.577	85415
386.658	68307
386.739	65830
386.820	69115
386.901	70984
386.981	79127
387.062	91739
387.143	102810
387.224	109355
387.304	103194
387.385	88647
387.466	85638
387.547	91490
387.627	94037
387.708	105558
387.789	146725
387.869	148620
387.950	93702
388.031	78876
388.111	78240
388.192	89522
388.273	101671
388.353	89017
388.434	55668
388.514	62064
388.595	125617
388.676	123890
388.756	69480
388.837	66181
388.917	52941
388.998	42677
389.078	45818
389.159	46982
389.239	44128
389.320	46839
389.400	42957
389.480	54513
389.561	80486
389.641	56526
389.722	45229
389.802	46096
389.883	56539
389.963	81817
390.043	58588
390.124	42808
390.204	48979
390.284	70154
390.365	56717
390.445	64219
390.525	132967
390.605	119329
390.686	56952
390.766	48128
390.846	47112
390.927	45052
391.007	46168
391.087	49278
391.167	49592
391.247	49440
391.328	53692
391.408	55762
391.488	57261
391.568	56885
391.648	61572
391.728	66243
391.808	69749
391.888	74444
391.969	89945
392.049	99743
392.129	92636
392.209	105447
392.289	138344
392.369	122945
392.449	126990
392.529	138096
392.609	155758
392.689	186265
392.769	244049
392.849	285781
392.929	356731
393.009	510583
393.089	740817
393.169	1260271
393.248	2262560
393.328	2902393
393.408	2822921
393.488	2103377
393.568	1137357
393.648	649041
393.728	420329
393.807	297631
393.887	230329
393.967	188003
394.047	160466
394.127	139174
394.206	136806
394.286	212611
394.366	625906
394.446	596764
394.525	171850
394.605	97262
394.685	88075
394.764	99197
394.844	155765
394.924	170139
395.003	95810
395.083	73286
395.163	70529
395.242	66408
395.322	68636
395.402	67609
395.481	74895
395.561	97081
395.640	218265
395.720	359169
395.799	209794
395.879	122332
395.958	119498
396.038	249180
396.117	781597
396.197	785855
396.276	271406
396.356	196493
396.435	231666
396.515	310494
396.594	486330
396.673	946711
396.753	1959908
396.832	2702554
396.912	2307101
396.991	1175153
397.070	555421
397.150	329219
397.229	258188
397.308	372928
397.388	549457
397.467	279309
397.546	129576
397.625	97934
397.705	87554
397.784	77141
397.863	70080
397.942	63698
398.022	59717
398.101	60807
398.180	70264
398.259	55021
398.338	49356
398.417	45812
398.497	43387
398.576	41917
398.655	39713
398.734	38266
398.813	37216
398.892	44523
398.971	58558
399.050	42114
399.129	33239
399.208	33084
399.287	32721
399.366	30322
399.445	30120
399.524	29688
399.603	28005
399.682	31375
399.761	38479
399.840	57568
399.919	45749
399.998	27155
400.077	24474
400.156	23909
400.235	26795
400.313	24916
400.392	26062
400.471	38612
400.550	42784
400.629	26617
400.708	24419
400.786	21837
400.865	25099
400.944	24661
401.023	24474
401.102	20240
401.180	21325
401.259	20890
401.338	20856
401.416	21730
401.495	20360
401.574	22054
401.652	19349
401.731	21351
401.810	19201
401.888	18969
401.967	18887
402.046	19271
402.124	19878
402.203	18954
402.281	19763
402.360	18542
402.438	23012
402.517	19430
402.596	19081
402.674	19309
402.753	19410
402.831	19554
402.910	21953
402.988	31715
403.066	64135
403.145	41122
403.223	35023
403.302	56105
403.380	46044
403.459	46186
403.537	31770
403.615	27249
403.694	24413
403.772	24671
403.850	24178
403.929	22168
404.007	21927
404.085	25145
404.164	24935
404.242	24452
404.320	32560
404.398	55562
404.477	63491
404.555	140108
404.633	108919
404.711	46248
404.789	30710
404.868	21444
404.946	19611
405.024	19433
405.102	18747
405.180	17736
405.258	17422
405.336	18800
405.415	17416
405.493	21596
405.571	22242
405.649	20184
405.727	21653
405.805	26630
405.883	28034
405.961	25600
406.039	21666
406.117	20248
406.195	23726
406.273	41709
406.351	99128
406.429	55356
406.507	19975
406.585	17216
406.663	19386
406.740	18550
406.818	17060
406.896	16756
406.974	18924
407.052	23976
407.130	63191
407.208	70899
407.285	25897
407.363	17909
407.441	18154
407.519	18085
407.596	20321
407.674	31158
407.752	73893
407.830	54439
407.907	24551
407.985	18552
408.063	17943
408.141	16395
408.218	18467
408.296	17385
408.373	19561
408.451	22158
408.529	21449
408.606	21409
408.684	23613
408.762	23687
408.839	24708
408.917	26980
408.994	30230
409.072	34679
409.149	43844
409.227	68089
409.304	98127
409.382	108339
409.459	127161
409.537	154355
409.614	140740
409.692	117042
409.769	116377
409.846	161217
409.924	185046
410.001	142479
410.079	103023
410.156	77630
410.233	61633
410.311	51559
410.388	45840
410.465	42001
410.543	38366
410.620	37058
410.697	36212
410.775	35038
410.852	35255
410.929	38056
411.006	37595
411.083	34558
411.161	33357
411.238	32259
411.315	29892
411.392	26864
411.469	27815
411.547	25048
411.624	23643
411.701	23371
411.778	23509
411.855	24429
411.932	21577
412.009	19645
412.086	19931
412.163	20633
412.240	19598
412.317	18579
412.394	18310
412.471	17813
412.548	17092
412.625	17429
412.702	17430
412.779	18088
412.856	17522
412.933	16305
413.010	16267
413.087	18194
413.164	28711
413.241	30409
413.318	18410
413.395	17001
413.471	17768
413.548	15369
413.625	16283
413.702	15159
413.779	15481
413.855	14563
413.932	14320
414.009	13873
414.086	14140
414.162	15164
414.239	16818
414.316	27918
414.393	41430
414.469	19867
414.546	14516
414.623	14456
414.699	13814
414.776	15147
414.853	13403
414.929	13799
415.006	13779
415.082	14755
415.159	14932
415.236	13958
415.312	15683
415.389	15940
415.465	15863
415.542	14449
415.618	14078
415.695	16365
415.771	14714
415.848	14531
415.924	13498
416.000	13751
416.077	14981
416.153	12584
416.230	13719
416.306	14239
416.383	14764
416.459	15616
416.535	15112
416.612	17394
416.688	20179
416.764	22905
416.841	21880
416.917	21354
416.993	20055
417.069	19009
417.146	17816
417.222	18319
417.298	16557
417.374	14143
417.451	15548
417.527	15402
417.603	15228
417.679	14842
417.755	13825
417.831	13543
417.908	14379
417.984	14625
418.060	14083
418.136	17304
418.212	16554
418.288	13579
418.364	13720
418.440	13192
418.516	14991
418.592	14830
418.668	17373
418.744	19886
418.820	18861
418.896	14527
418.972	13885
419.048	14512
419.124	18036
419.200	16570
419.276	15402
419.352	14799
419.428	17242
419.504	16508
419.579	18376
419.655	18937
419.731	18475
419.807	22002
419.883	26078
419.959	22505
420.034	21041
420.110	24449
420.186	37901
420.262	30901
420.337	22348
420.413	23308
420.489	23176
420.565	24843
420.640	26010
420.716	27396
420.792	27290
420.867	30290
420.943	31009
421.019	34280
421.094	35201
421.170	37771
421.245	38870
421.321	42772
421.397	47678
421.472	60503
421.548	82688
421.623	74203
421.699	68958
421.774	74692
421.850	86147
421.925	103373
422.001	121144
422.076	144444
422.152	184676
422.227	243680
422.302	339139
422.378	498153
422.453	777344
422.529	1124095
422.604	1120306
422.679	810831
422.755	1175392
422.830	1144535
422.905	759503
422.981	502790
423.056	351836
423.131	261918
423.207	199637
423.282	163314
423.357	135702
423.432	112201
423.508	99299
423.583	89288
423.658	79205
423.733	69056
423.808	65234
423.883	67285
423.959	75574
424.034	86520
424.109	76061
424.184	56757
424.259	46516
424.334	41952
424.409	36888
424.484	33736
424.559	32075
424.634	30079
424.709	28506
424.784	27592
424.859	25474
424.934	27081
425.009	35291
425.084	40809
425.159	25982
425.234	21759
425.309	21119
425.384	22294
425.459	21649
425.534	20639
425.609	18609
425.683	18409
425.758	18153
425.833	17642
425.908	19295
425.983	25390
426.058	34670
426.132	22653
426.207	17412
426.282	17840
426.357	15863
426.431	15510
426.506	15926
426.581	15494
426.655	15314
426.730	14670
426.805	14210
426.879	16075
426.954	14669
427.029	17211
427.103	40635
427.178	74093
427.253	35016
427.327	16279
427.402	15311
427.476	17484
427.551	15813
427.625	14856
427.700	14669
427.774	14949
427.849	16097
427.923	17237
427.998	21207
428.072	26031
428.147	56863
428.221	230302
428.296	572313
428.370	289547
428.444	56431
428.519	29500
428.593	25976
428.667	27674
428.742	37101
428.816	95317
428.890	380698
428.965	490881
429.039	127917
429.113	35727
429.188	22301
429.262	18874
429.336	20418
429.410	23833
429.485	21616
429.559	21423
429.633	24161
429.707	32717
429.781	88881
429.855	363834
429.930	443473
430.004	134227
430.078	107460
430.152	284372
430.226	774840
430.300	668228
430.374	171978
430.448	59972
430.522	47013
430.596	64347
430.670	142111
430.744	479914
430.818	448227
430.892	92162
430.966	28298
431.040	19065
431.114	15681
431.188	15042
431.262	15107
431.336	13562
431.410	16517
431.484	19424
431.557	20699
431.631	23149
431.705	45583
431.779	188856
431.853	548504
431.927	326299
432.000	58855
432.074	22391
432.148	15584
432.222	12022
432.295	11464
432.369	10180
432.443	12573
432.516	36918
432.590	70061
432.664	24433
432.737	9554
432.811	8351
432.885	7685
432.958	7568
433.032	7544
433.106	7308
433.179	8790
433.253	8089
433.326	7812
433.400	7934
433.473	8286
433.547	7633
433.620	9054
433.694	9684
433.767	10838
433.841	9114
433.914	10394
433.988	9775
434.061	10788
434.134	10689
434.208	10654
434.281	9423
434.355	9885
434.428	9253
434.501	9623
434.575	8793
434.648	9628
434.721	10272
434.795	10845
434.868	11396
434.941	13657
435.014	15993
435.088	19458
435.161	29212
435.234	41715
435.307	45961
435.381	44760
435.454	57433
435.527	77239
435.600	84106
435.673	70169
435.746	53984
435.819	41586
435.892	32362
435.966	26875
436.039	21190
436.112	18521
436.185	15695
436.258	13984
436.331	12894
436.404	12037
436.477	11587
436.550	10260
436.623	10189
436.696	9863
436.769	9276
436.842	9273
436.915	9298
436.987	9695
437.060	7941
437.133	8151
437.206	8003
437.279	7521
437.352	7094
437.425	7179
437.498	7664
437.570	8650
437.643	8699
437.716	6760
437.789	6577
437.861	7607
437.934	8154
438.007	6849
438.080	6814
438.152	8143
438.225	12175
438.298	54423
438.370	109889
438.443	35375
438.516	10456
438.588	8456
438.661	6727
438.734	7290
438.806	6827
438.879	7285
438.951	7608
439.024	8269
439.096	6900
439.169	7171
439.241	6283
439.314	6449
439.386	7068
439.459	8341
439.531	7703
439.604	6663
439.676	6508
439.749	6326
439.821	5635
439.893	6448
439.966	6829
440.038	6671
440.110	7100
440.183	6092
440.255	6677
440.327	9551
440.400	21746
440.472	60441
440.544	31409
440.617	9669
440.689	8670
440.761	9320
440.833	9189
440.905	9168
440.978	7318
441.050	7969
441.122	8239
441.194	8414
441.266	8326
441.338	8770
441.411	10665
441.483	22953
441.555	25112
441.627	12573
441.699	10725
441.771	11118
441.843	11419
441.915	12358
441.987	13633
442.059	14949
442.131	17601
442.203	22072
442.275	29886
442.347	53018
442.419	133799
442.491	496645
442.563	830597
442.635	319049
442.706	82638
442.778	42877
442.850	29364
442.922	26672
442.994	27940
443.066	31648
443.137	38777
443.209	55481
443.281	88609
443.353	193247
443.425	573613
443.496	1264162
443.568	1235048
443.640	515659
443.711	142742
443.783	64918
443.855	41174
443.926	30954
443.998	25912
444.070	22308
444.141	20252
444.213	19931
444.285	19438
444.356	18321
444.428	18836
444.499	16699
444.571	17804
444.642	19715
444.714	19952
444.785	22288
444.857	25172
444.928	28565
445.000	32711
445.071	42336
445.143	54646
445.214	85333
445.285	148931
445.357	363969
445.428	944052
445.500	1377453
445.571	1190667
445.642	764141
445.714	269975
445.785	98636
445.856	53965
445.928	38172
445.999	28778
446.070	22942
446.141	20798
446.213	19448
446.284	15494
446.355	14623
446.426	12118
446.497	12278
446.569	11420
446.640	11369
446.711	10194
446.782	10363
446.853	8340
446.924	9376
446.995	8296
447.066	7945
447.138	8217
447.209	8292
447.280	6079
447.351	5350
447.422	5383
447.493	6398
447.564	5915
447.635	7266
447.706	5075
447.777	5705
447.847	5283
447.918	4830
447.989	6007
448.060	7843
448.131	9838
448.202	8252
448.273	6705
448.344	5308
448.414	5270
448.485	5751
448.556	4978
448.627	4874
448.698	6200
448.768	4553
448.839	3493
448.910	5382
448.981	5634
449.051	4758
449.122	4564
449.193	4678
449.263	5036
449.334	5023
449.405	5648
449.475	7904
449.546	7977
449.616	8269
449.687	7597
449.758	6374
449.828	5593
449.899	4655
449.969	5145
450.040	4481
450.110	4403
450.181	4793
450.251	4426
450.322	4322
450.392	4708
450.463	5081
450.533	4460
450.604	6234
450.674	5963
450.744	9077
450.815	9647
450.885	9528
450.955	10195
451.026	10657
451.096	9171
451.166	9626
451.237	14026
451.307	16660
451.377	12207
451.447	8057
451.518	7152
451.588	6359
451.658	6307
451.728	6265
451.799	8218
451.869	8798
451.939	6090
452.009	5524
452.079	5595
452.149	6487
452.219	7205
452.289	10464
452.360	10232
452.430	11410
452.500	16317
452.570	27457
452.640	65486
452.710	145248
452.780	143450
452.850	76722
452.920	38494
452.990	22848
453.060	15705
453.129	12541
453.199	10205
453.269	14900
453.339	15914
453.409	16972
453.479	20550
453.549	24349
453.619	21556
453.688	9988
453.758	6342
453.828	5164
453.898	4434
453.968	5116
454.037	4416
454.087	3771
454.107	3477
454.168	4073
454.177	4126
454.247	3858
454.249	3904
454.316	4339
454.330	4451
454.386	4743
454.411	5027
454.456	5342
454.492	5325
454.525	5297
454.574	4911
454.595	4729
454.655	4978
454.665	4979
454.734	5507
454.736	5588
454.804	7261
454.817	7392
454.873	7631
454.898	7484
454.943	7080
454.979	5910
455.013	4824
455.060	4735
455.082	4720
455.141	5243
455.152	5276
455.221	7265
455.222	7327
455.291	8839
455.303	8921
455.360	8817
455.384	11042
455.430	14733
455.465	11947
455.499	9249
455.546	8260
455.569	7773
455.627	7356
455.638	7253
455.707	4711
455.708	4751
455.777	5352
455.789	5427
455.846	5672
455.869	5791
455.916	5865
455.950	5869
455.985	5818
456.031	5660
456.054	5527
456.112	5573
456.124	5570
456.193	5667
456.193	5627
456.262	6115
456.274	6329
456.332	6864
456.355	6738
456.401	6696
456.436	6945
456.470	6908
456.516	6917
456.540	6948
456.597	7531
456.609	7548
456.678	7218
456.678	7181
456.747	7748
456.759	7653
456.817	7379
456.840	7823
456.886	8197
456.920	8513
456.955	9185
457.001	9981
457.024	10230
457.082	11927
457.093	12050
457.162	13878
457.163	13918
457.232	11498
457.243	11372
457.301	11059
457.324	11069
457.370	11354
457.405	12468
457.439	13812
457.485	15344
457.508	16085
457.566	19592
457.577	20835
457.646	28081
457.647	28293
457.715	68288
457.727	78294
457.784	142119
457.808	193561
457.853	262488
457.889	296132
457.922	288212
457.969	186421
457.991	178784
458.050	221141
458.060	229669
458.129	410935
458.130	415293
458.198	430311
458.211	389154
458.267	201240
458.292	139494
458.336	88410
458.372	81292
458.405	108299
458.453	164918
458.474	209529
458.533	389035
458.543	404279
458.611	647959
458.614	649221
458.680	400347
458.694	324054
458.749	141605
458.775	97797
458.818	57920
458.855	44563
458.887	36631
458.936	29098
458.955	26662
459.016	22370
459.024	21941
459.093	20068
459.097	19957
459.162	17507
459.177	17260
459.230	16691
459.257	16437
459.299	15775
459.338	15417
459.368	15113
459.418	14408
459.437	14244
459.499	13700
459.505	13594
459.574	13272
459.579	13244
459.643	12886
459.659	12845
459.711	13081
459.740	13594
459.780	13773
459.820	13595
459.849	13635
459.900	13741
459.917	13621
459.981	12839
459.986	12742
460.054	11911
460.061	11891
460.123	12554
460.141	12768
460.191	13261
460.222	13272
460.260	13058
460.302	13371
460.328	13595
460.382	13728
460.397	13641
460.462	13234
460.465	13336
460.534	16694
460.543	17191
460.602	34605
460.623	41246
460.671	57514
460.703	75082
460.739	73731
460.783	58514
460.808	47644
460.864	16328
460.876	14055
460.944	12282
460.945	12249
461.013	12060
461.024	12039
461.081	12547
461.104	12753
461.150	12867
461.184	12873
461.218	13060
461.264	13695
461.286	13621
461.345	12723
461.355	12623
461.423	12460
461.425	12443
461.491	11545
461.505	11646
461.559	12648
461.585	12833
461.628	13970
461.665	15370
461.696	15841
461.745	16344
461.764	15738
461.825	12853
461.832	12812
461.901	12867
461.905	12901
461.969	12163
461.985	12047
462.037	13189
462.065	13554
462.105	13135
462.145	12900
462.173	13193
462.225	13662
462.241	13959
462.305	15623
462.310	15639
462.378	15246
462.385	15210
462.446	15295
462.465	15326
462.514	15029
462.545	14743
462.582	13913
462.625	12922
462.650	12741
462.705	12500
462.718	12526
462.785	12815
462.786	12829
462.854	12910
462.865	12979
462.922	13850
462.945	14162
462.990	13450
463.025	12991
463.058	13117
463.104	12925
463.126	12808
463.184	12991
463.194	13138
463.262	13553
463.264	13580
463.330	14180
463.344	14138
463.398	14096
463.424	14240
463.466	13522
463.504	12869
463.533	13220
463.583	13765
463.601	13816
463.663	13731
463.669	13732
463.737	14020
463.743	13996
463.805	14934
463.823	15260
463.873	16316
463.903	17065
463.940	17469
463.982	17757
464.008	16872
464.062	14510
464.076	14326
464.142	13863
464.144	13881
464.211	13828
464.221	13841
464.279	13803
464.301	13723
464.347	14028
464.381	14093
464.414	14010
464.461	14224
464.482	14590
464.540	15338
464.550	15265
464.617	14422
464.620	14383
464.685	14737
464.699	14760
464.753	15384
464.779	15700
464.820	15661
464.859	15652
464.888	15386
464.938	14938
464.956	15406
465.018	16507
465.023	16426
465.091	15455
465.098	15325
465.158	14852
465.177	14701
465.226	15057
465.257	15189
465.293	15592
465.336	16130
465.361	16300
465.416	16502
465.428	16673
465.495	17565
465.496	17597
465.563	18320
465.575	18475
465.631	19199
465.654	19450
465.698	18184
465.734	16939
465.765	16401
465.813	15544
465.833	15536
465.893	15565
465.900	15677
465.968	16386
465.972	16418
466.035	15681
466.052	15395
466.102	15939
466.131	16246
466.170	15910
466.210	15556
466.237	15589
466.290	15498
466.304	15660
466.369	16284
466.372	16318
466.439	16410
466.449	16395
466.506	17460
466.528	17866
466.573	18224
466.607	18368
466.641	20259
466.687	22893
466.708	23943
466.766	26693
466.775	25928
466.842	19780
466.845	19451
466.909	18428
466.925	18166
466.977	18425
467.004	18510
467.044	18650
467.083	18729
467.111	19522
467.163	20904
467.178	21103
467.242	21746
467.245	21781
467.312	21684
467.321	21633
467.379	21485
467.400	21365
467.446	21776
467.480	21999
467.559	22812
467.638	22198
467.717	21364
467.796	24817
467.875	26938
467.955	27594
468.034	30539
468.113	40333
468.192	48462
468.271	55036
468.350	76083
468.429	110828
468.508	119860
468.588	76959
468.667	46131
468.746	34849
468.825	29610
468.904	27653
468.983	25750
469.062	25943
469.141	26773
469.220	22717
469.299	22632
469.378	22982
469.456	24786
469.535	24085
469.614	23283
469.693	23302
469.772	26951
469.851	28541
469.930	29669
470.009	33277
470.088	41967
470.166	69002
470.245	133753
470.324	180152
470.403	125998
470.482	68023
470.560	44726
470.639	36016
470.718	31168
470.797	28137
470.875	26711
470.954	24319
471.033	24112
471.111	22157
471.190	21882
471.269	21261
471.347	20792
471.426	21298
471.505	21457
471.583	21886
471.662	21576
471.740	21778
471.819	21027
471.898	21457
471.976	20889
472.055	19509
472.133	21021
472.212	22584
472.290	21159
472.369	18874
472.447	20038
472.526	20911
472.604	21020
472.683	21371
472.761	21380
472.839	21452
472.918	22430
472.996	22427
473.075	22764
473.153	23354
473.231	21751
473.310	23898
473.388	22417
473.466	22397
473.545	23092
473.623	24967
473.701	25140
473.780	23730
473.858	22119
473.936	24703
474.014	22189
474.093	23379
474.171	25185
474.249	24680
474.327	23889
474.405	22133
474.484	22464
474.562	21874
474.640	22446
474.718	20945
474.796	21735
474.874	21814
474.952	20285
475.030	20584
475.108	20560
475.187	21546
475.265	20631
475.343	23640
475.421	23250
475.499	21902
475.577	21449
475.655	22003
475.733	22450
475.811	25340
475.889	25413
475.966	24143
476.044	20033
476.122	21190
476.200	22481
476.278	20385
476.356	20060
476.434	19695
476.512	21150
476.590	23480
476.667	21959
476.745	19651
476.823	20209
476.901	21011
476.979	20464
477.056	20950
477.134	19569
477.212	19849
477.290	19232
477.367	18727
477.445	20305
477.523	18861
477.601	19219
477.678	19343
477.756	20806
477.834	19273
477.911	19075
477.989	20200
478.066	20351
478.144	19254
478.222	19874
478.299	23762
478.377	24589
478.454	20455
478.532	18794
478.609	20174
478.687	20322
478.764	19893
478.842	19745
478.919	20339
478.997	20089
479.074	19042
479.152	20229
479.229	20425
479.307	18691
479.384	18604
479.461	19304
479.539	19244
479.616	19191
479.694	19186
479.771	20327
479.848	19063
479.926	19469
480.003	22211
480.080	20090
480.157	20389
480.235	20487
480.312	21357
480.389	20764
480.467	23083
480.544	25490
480.621	26543
480.698	27561
480.775	26941
480.853	24723
480.930	21850
481.007	22730
481.084	22483
481.161	25562
481.238	23507
481.315	21168
481.392	22046
481.470	24040
481.547	24310
481.624	23676
481.701	25024
481.778	25412
481.855	27340
481.932	29801
482.009	33735
482.086	35772
482.163	39430
482.240	46946
482.317	49597
482.393	43103
482.470	36605
482.547	35243
482.624	32387
482.701	31098
482.778	30380
482.855	29881
482.932	31241
483.009	35300
483.085	39042
483.162	44322
483.239	47242
483.316	50255
483.393	50264
483.469	41893
483.546	36580
483.623	33200
483.699	30003
483.776	26245
483.853	27393
483.930	27346
484.006	31585
484.083	37220
484.160	36421
484.236	42437
484.313	38054
484.389	37980
484.466	43901
484.543	50515
484.619	65789
484.696	75327
484.772	51903
484.849	39414
484.925	35066
485.002	34512
485.078	31790
485.155	29550
485.231	27989
485.308	27813
485.384	28246
485.461	29030
485.537	30341
485.614	32546
485.690	27240
485.766	26996
485.843	27149
485.919	30369
485.995	31910
486.072	26622
486.148	25920
486.224	26688
486.301	26967
486.377	27655
486.453	26968
486.530	27804
486.606	31765
486.682	32178
486.758	33460
486.835	35733
486.911	32969
486.987	39686
487.063	48160
487.139	58744
487.215	59384
487.292	57073
487.368	64962
487.444	82292
487.520	118993
487.596	175700
487.672	397592
487.748	1301124
487.824	2087943
487.900	900863
487.976	250065
488.052	119318
488.128	79322
488.204	59894
488.280	50480
488.356	44885
488.432	43270
488.508	45891
488.584	37173
488.660	34313
488.736	33281
488.812	29874
488.888	32542
488.964	35108
489.039	48436
489.115	64579
489.191	50170
489.267	29745
489.343	27784
489.418	26524
489.494	27851
489.570	26306
489.646	27605
489.722	27700
489.797	27855
489.873	29168
489.949	34400
490.024	35350
490.100	28354
490.176	29454
490.251	30344
490.327	32462
490.403	29058
490.478	28636
490.554	26453
490.629	27210
490.705	26404
490.781	27604
490.856	26334
490.932	27780
491.007	27923
491.083	26943
491.158	25772
491.234	27027
491.309	30555
491.385	29824
491.460	25185
491.536	25764
491.611	25304
491.686	25462
491.762	27776
491.837	37825
491.913	49060
491.988	59975
492.063	74014
492.139	34513
492.214	26591
492.289	24905
492.365	24398
492.440	24958
492.515	23794
492.590	24029
492.666	23741
492.741	25412
492.816	26052
492.891	24489
492.967	25164
493.042	24401
493.117	24754
493.192	24926
493.267	26926
493.342	38730
493.418	45078
493.493	27768
493.568	24092
493.643	23944
493.718	24097
493.793	25056
493.868	28636
493.943	26372
494.018	23857
494.093	23352
494.168	23959
494.243	23192
494.318	24231
494.393	24521
494.468	23545
494.543	25485
494.618	25566
494.693	25148
494.768	25969
494.842	26881
494.917	26375
494.992	25873
495.067	25084
495.142	25843
495.217	26596
495.292	25711
495.366	26501
495.441	26131
495.516	28494
495.591	31084
495.665	59925
495.740	119699
495.815	68533
495.890	28406
495.964	26321
496.039	30223
496.114	28809
496.188	34029
496.263	33045
496.338	27198
496.412	25370
496.487	27010
496.561	27713
496.636	28657
496.710	26759
496.785	26387
496.860	28085
496.934	27340
497.009	27524
497.083	28596
497.158	29615
497.232	29840
497.307	31916
497.381	35244
497.455	34043
497.530	28858
497.604	26304
497.679	26051
497.753	28223
497.827	28347
497.902	28032
497.976	31042
498.050	42999
498.125	106128
498.199	124979
498.273	41630
498.348	35785
498.422	35755
498.496	40036
498.570	43984
498.645	29289
498.719	22436
498.793	24601
498.867	27191
498.941	30434
499.016	51176
499.090	108165
499.164	65849
499.238	30378
499.312	30337
499.386	35401
499.460	35612
499.534	38999
499.609	47358
499.683	39956
499.757	26223
499.831	28961
499.905	69510
499.979	77611
500.053	29915
500.127	29514
500.201	31056
500.275	31150
500.349	31125
500.422	33799
500.496	39813
500.570	55552
500.644	81832
500.718	103418
500.792	40858
500.866	23014
500.940	22463
501.013	23270
501.087	22973
501.161	26828
501.235	28318
501.309	34832
501.382	61255
501.456	64177
501.530	29859
501.603	30782
501.677	24107
501.751	18924
501.825	23722
501.898	23993
501.972	33742
502.046	30639
502.119	20982
502.193	25257
502.266	35278
502.340	27097
502.413	24211
502.487	33824
502.561	27832
502.634	25096
502.708	25520
502.781	23385
502.855	23821
502.928	20909
503.002	20966
503.075	21535
503.149	21602
503.222	22295
503.295	22585
503.369	25301
503.442	27745
503.516	38756
503.589	61233
503.662	60519
503.736	55790
503.809	76709
503.882	99792
503.956	146713
504.029	278485
504.102	772608
504.175	1236646
504.249	580945
504.322	210275
504.395	108539
504.468	69788
504.542	49117
504.615	38146
504.688	34106
504.761	28052
504.834	29113
504.907	26111
504.980	29895
505.053	24075
505.127	21455
505.200	26165
505.273	20734
505.346	19511
505.419	18592
505.492	20978
505.565	18829
505.638	17731
505.711	17200
505.784	15728
505.857	16186
505.930	18098
506.003	14347
506.076	19000
506.149	16266
506.221	15498
506.294	17876
506.367	18302
506.440	35265
506.513	30026
506.586	17809
506.659	15551
506.731	15354
506.804	15451
506.877	17401
506.950	15335
507.022	16597
507.095	13143
507.168	16708
507.241	17576
507.313	14674
507.386	14982
507.459	17417
507.531	14927
507.604	14467
507.677	15993
507.749	13040
507.822	17056
507.894	19174
507.967	23029
508.040	16743
508.112	17159
508.185	17297
508.257	15573
508.330	20134
508.402	15425
508.475	16554
508.547	16590
508.620	15518
508.692	16237
508.765	16183
508.837	14878
508.909	15885
508.982	15985
509.054	16663
509.127	15356
509.199	15611
509.271	14835
509.344	15033
509.416	14888
509.488	14501
509.560	15944
509.633	15805
509.705	16734
509.777	16180
509.849	18437
509.922	15687
509.994	14607
510.066	16013
510.138	15167
510.210	21147
510.283	18252
510.355	17597
510.427	17279
510.499	16810
510.571	16297
510.643	17081
510.715	20194
510.787	17652
510.859	18389
510.931	16737
511.003	20616
511.076	19666
511.148	15596
511.219	16131
511.291	17964
511.363	19186
511.435	15973
511.507	15615
511.579	15566
511.651	18440
511.723	15687
511.795	16996
511.867	16046
511.939	16840
512.010	18361
512.082	20138
512.154	16463
512.226	17376
512.298	20475
512.369	21847
512.441	20503
512.513	20157
512.585	17119
512.656	18913
512.728	18220
512.800	17401
512.871	18097
512.943	18166
513.015	16195
513.086	17807
513.158	17839
513.230	18043
513.301	19811
513.373	23600
513.444	19315
513.516	18479
513.588	17706
513.659	19534
513.731	19498
513.802	19379
513.874	26414
513.945	35290
514.016	21634
514.088	19370
514.159	17471
514.231	21030
514.302	24000
514.374	21386
514.445	18717
514.516	24862
514.588	21239
514.659	21222
514.730	21680
514.802	23714
514.873	19033
514.944	22701
515.016	22395
515.087	21286
515.158	21833
515.229	25249
515.301	21602
515.372	23147
515.443	21757
515.514	22008
515.585	21798
515.656	24874
515.728	25994
515.799	25690
515.870	27371
515.941	30565
516.012	31784
516.083	38978
516.154	43316
516.225	54599
516.296	66499
516.367	80609
516.438	103622
516.509	134935
516.580	202776
516.651	702841
516.722	2510097
516.793	1392726
516.864	251419
516.935	184012
517.006	208643
517.077	275148
517.148	585204
517.219	2424407
517.289	3581824
517.360	1036196
517.431	256612
517.502	127645
517.573	97869
517.643	84957
517.714	84660
517.785	90723
517.856	104168
517.926	134779
517.997	171976
518.068	227566
518.138	314764
518.209	514769
518.280	1665317
518.350	3953100
518.421	2791076
518.492	653245
518.562	326582
518.633	284971
518.703	338487
518.774	628172
518.845	1552830
518.915	1645186
518.986	572228
519.056	237480
519.127	149914
519.197	117793
519.268	104604
519.338	77628
519.408	53126
519.479	50153
519.549	43332
519.620	38336
519.690	34226
519.760	32903
519.831	31424
519.901	29330
519.971	26949
520.042	27616
520.112	24769
520.182	27436
520.253	28207
520.323	24162
520.393	22984
520.463	27697
520.534	21849
520.604	28454
520.674	24035
520.744	22817
520.814	26953
520.885	28438
520.955	26986
521.025	47273
521.095	34207
521.165	22854
521.235	21058
521.305	20367
521.375	20713
521.445	21686
521.515	23419
521.585	25020
521.655	23058
521.725	22511
521.795	22940
521.865	18403
521.935	23545
522.005	21082
522.075	20266
522.145	21800
522.215	20845
522.285	23060
522.355	22572
522.424	27175
522.494	27390
522.564	24868
522.634	31726
522.704	67390
522.774	40648
522.843	23426
522.913	22618
522.983	24398
523.053	22405
523.122	25057
523.192	24141
523.262	42550
523.331	46011
523.401	25039
523.471	21881
523.540	23732
523.610	22244
523.680	22951
523.749	23382
523.819	23264
523.888	24697
523.958	23972
524.027	24097
524.097	23940
524.166	23846
524.236	23082
524.305	25099
524.375	22330
524.444	23105
524.514	25606
524.583	23978
524.653	23283
524.722	25900
524.791	23575
524.861	26999
524.930	24694
524.999	26764
525.069	30249
525.138	27498
525.207	29384
525.277	32207
525.346	33692
525.415	37231
525.484	42458
525.554	47944
525.623	58405
525.692	73869
525.761	92715
525.830	120566
525.900	161488
525.969	252418
526.038	480433
526.107	926529
526.176	2677444
526.245	2434511
526.314	762235
526.383	1295339
526.452	1995426
526.522	2331142
526.591	2507114
526.660	566639
526.729	279728
526.797	269783
526.867	365196
526.935	1000850
527.004	3164786
527.073	2550399
527.142	492202
527.211	177962
527.280	105429
527.349	77058
527.418	56539
527.487	49060
527.555	39735
527.624	36322
527.693	32990
527.762	34483
527.831	31356
527.899	30146
527.968	27271
528.037	25056
528.106	27627
528.174	29788
528.243	27876
528.312	27612
528.380	31867
528.449	23845
528.518	23744
528.586	20680
528.655	23772
528.723	22276
528.792	21140
528.861	22421
528.929	20671
528.998	22902
529.066	21865
529.135	24106
529.203	24572
529.272	26243
529.340	30528
529.409	29363
529.477	25988
529.545	26283
529.614	28581
529.682	28048
529.751	31984
529.819	35180
529.887	34633
529.956	32772
530.024	31708
530.092	29592
530.161	32593
530.229	34433
530.297	33130
530.365	32298
530.434	33403
530.502	33745
530.570	32774
530.638	29410
530.707	31134
530.775	30843
530.843	29336
530.911	32260
530.979	32077
531.047	33680
531.115	33612
531.183	32243
531.252	30799
531.320	30382
531.388	29387
531.456	33049
531.524	32374
531.592	34496
531.660	37575
531.728	33262
531.796	32928
531.864	33672
531.932	33462
532.000	33888
532.067	35418
532.135	37822
532.203	39563
532.271	40632
532.339	46494
532.407	58663
532.475	51464
532.542	41815
532.610	42494
532.678	43359
532.746	74483
532.814	147415
532.881	68382
532.949	40919
533.017	39368
533.084	37592
533.152	35776
533.220	37195
533.287	37508
533.355	38230
533.423	38924
533.490	39811
533.558	39856
533.625	39605
533.693	37025
533.761	39245
533.828	39034
533.896	38341
533.963	46512
534.031	50382
534.098	60433
534.166	60562
534.233	55838
534.300	61616
534.368	61253
534.435	63953
534.503	68449
534.570	79479
534.637	93079
534.705	108346
534.772	128432
534.840	239057
534.907	1095313
534.974	1692514
535.041	283316
535.109	96346
535.176	65498
535.243	58942
535.310	53779
535.378	51661
535.445	50859
535.512	51867
535.579	50236
535.646	48401
535.714	50814
535.781	53876
535.848	54909
535.915	52598
535.982	50219
536.049	50033
536.116	51250
536.183	48028
536.250	46311
536.317	47353
536.384	50911
536.451	53889
536.518	55561
536.585	51152
536.652	54150
536.719	57389
536.786	52593
536.853	50832
536.920	54527
536.987	58251
537.053	56505
537.120	93923
537.187	97885
537.254	57173
537.321	54982
537.388	55479
537.454	52183
537.521	52985
537.588	53398
537.654	52748
537.721	56302
537.788	56224
537.855	53025
537.921	53951
537.988	52838
538.055	50780
538.121	47615
538.188	47081
538.254	47331
538.321	54801
538.388	54482
538.454	57233
538.521	56749
538.587	55161
538.654	55348
538.720	54063
538.787	53893
538.853	53363
538.920	52198
538.986	46708
539.053	47929
539.119	49470
539.185	50029
539.252	52991
539.318	58781
539.385	61026
539.451	56296
539.517	55612
539.583	55202
539.650	61262
539.716	85125
539.782	57363
539.849	51407
539.915	51339
539.981	51214
540.047	51196
540.114	50085
540.180	53443
540.246	56228
540.312	59850
540.378	63157
540.444	63134
540.510	64856
540.576	93789
540.643	63803
540.709	50829
540.775	51187
540.841	49602
540.907	50585
540.973	53556
541.039	53522
541.105	56205
541.171	55925
541.237	57622
541.303	55735
541.369	57001
541.435	59025
541.500	60596
541.566	53886
541.632	50438
541.698	50726
541.764	54496
541.830	52332
541.896	51891
541.961	52002
542.027	51355
542.093	56351
542.159	59486
542.224	54454
542.290	57244
542.356	59114
542.421	61248
542.487	51948
542.553	49563
542.618	51679
542.684	50965
542.750	53376
542.815	54869
542.881	56571
542.947	85628
543.012	81747
543.078	52014
543.143	49544
543.209	51695
543.274	49766
543.340	52200
543.405	59942
543.471	72546
543.536	56374
543.602	54199
543.667	52707
543.732	54886
543.798	53206
543.863	55991
543.928	55186
543.994	53940
544.059	54885
544.124	56108
544.190	58103
544.255	58363
544.320	59182
544.386	57873
544.451	62632
544.516	61938
544.581	61732
544.646	75397
544.712	95056
544.777	66051
544.842	61077
544.907	61697
544.972	61558
545.037	63954
545.102	63587
545.168	66145
545.233	66975
545.298	68359
545.363	67356
545.428	73201
545.493	80340
545.558	95137
545.623	78245
545.688	72167
545.753	74660
545.818	75777
545.883	81349
545.947	82661
546.012	86003
546.077	87450
546.142	92738
546.207	96930
546.272	102660
546.337	105140
546.401	106371
546.466	111390
546.531	114854
546.596	123428
546.661	129599
546.725	135277
546.790	144475
546.855	155829
546.919	170263
546.984	193512
547.049	203922
547.113	232930
547.178	259413
547.243	290005
547.307	336236
547.372	378240
547.436	376460
547.501	395272
547.565	428621
547.630	393288
547.695	379136
547.759	377741
547.823	384477
547.888	387489
547.952	402142
548.017	414208
548.081	422819
548.146	418238
548.210	430355
548.274	468497
548.339	462194
548.403	419640
548.468	395963
548.532	388446
548.596	395973
548.660	395956
548.725	430324
548.789	471394
548.853	459097
548.917	435615
548.982	425433
549.046	384043
549.110	346398
549.174	354083
549.238	412737
549.303	454776
549.367	470755
549.431	453224
549.495	419506
549.559	418433
549.623	477527
549.687	530655
549.751	516836
549.815	611056
549.879	624412
549.943	598727
550.007	623233
550.071	622804
550.135	564400
550.199	531736
550.263	525843
550.327	491502
550.391	500247
550.455	555727
550.519	591955
550.582	623117
550.646	712974
550.710	729891
550.774	719856
550.838	734234
550.901	755666
550.965	806159
551.029	849805
551.093	923206
551.156	1036031
551.220	1221296
551.284	1391185
551.347	1066262
551.411	842481
551.475	768137
551.538	777147
551.602	727318
551.666	674557
551.729	638085
551.793	610065
551.856	601437
551.920	586905
551.983	587637
552.047	577959
552.110	582333
552.174	587343
552.237	608219
552.301	566713
552.364	537440
552.428	525683
552.491	544883
552.554	563204
552.618	563368
552.681	588711
552.745	593966
552.808	740053
552.871	973941
552.934	792281
552.998	622108
553.061	565312
553.124	529107
553.187	516365
553.251	531371
553.314	528218
553.377	528001
553.440	560380
553.503	576337
553.567	580778
553.630	562679
553.693	553958
553.756	554148
553.819	541112
553.882	514769
553.945	515618
554.008	516922
554.071	526036
554.134	527389
554.197	497415
554.260	480011
554.323	486707
554.386	493926
554.449	521103
554.512	522933
554.575	499815
554.638	493608
554.701	491433
554.764	485117
554.827	466459
554.889	451180
554.952	423163
555.015	413094
555.078	425163
555.141	429573
555.203	420529
555.266	419286
555.329	417436
555.391	400867
555.454	397091
555.517	385544
555.580	375503
555.642	360006
555.705	353854
555.768	349068
555.830	341602
555.893	322901
555.955	313217
556.018	307686
556.080	310928
556.143	319723
556.206	316617
556.268	309966
556.330	303478
556.393	291974
556.455	287115
556.518	281681
556.580	275123
556.643	263220
556.705	259685
556.767	255561
556.830	251369
556.892	246793
556.955	247116
557.017	238114
557.079	237028
557.142	229602
557.204	232598
557.266	245658
557.328	228649
557.391	203927
557.453	199231
557.515	200265
557.577	205103
557.639	209269
557.701	210255
557.764	213998
557.826	221411
557.888	233390
557.950	248025
558.012	270608
558.074	339880
558.136	752297
558.198	1982157
558.260	878455
558.322	300491
558.384	273006
558.446	282775
558.508	311155
558.570	354252
558.632	414901
558.694	524233
558.756	820086
558.818	2118483
558.880	3861109
558.942	2334498
559.003	2189449
559.065	1245014
559.127	440438
559.189	383508
559.251	398896
559.312	528149
559.374	1184238
559.436	3258852
559.498	2139327
559.559	573117
559.621	404324
559.683	410828
559.744	621888
559.806	1824468
559.868	2887297
559.929	865510
559.991	445185
560.052	640710
560.114	1852131
560.176	1383154
560.237	1051545
560.299	1874702
560.360	515575
560.422	175593
560.483	131461
560.545	114879
560.606	105673
560.667	100231
560.729	95263
560.790	88342
560.852	86663
560.913	83027
560.974	80587
561.036	78803
561.097	81434
561.158	77458
561.220	77040
561.281	73666
561.342	72576
561.403	72367
561.465	73740
561.526	83375
561.587	90312
561.648	69745
561.709	65376
561.771	64164
561.832	63374
561.893	64544
561.954	62671
562.015	60616
562.076	60513
562.137	60861
562.198	61041
562.259	60202
562.320	61074
562.381	61390
562.442	62586
562.503	60779
562.564	57754
562.625	55830
562.686	55285
562.747	56051
562.808	55721
562.869	57203
562.930	54526
562.991	53287
563.051	52348
563.112	52164
563.173	52898
563.234	52776
563.294	49962
563.355	49476
563.416	50434
563.477	50998
563.537	49258
563.598	49323
563.659	48954
563.720	48035
563.780	47857
563.841	49631
563.901	49241
563.962	48876
564.023	46953
564.083	46087
564.144	47054
564.204	45732
564.265	45980
564.325	46240
564.386	48810
564.446	47794
564.507	43750
564.567	43850
564.628	42741
564.688	43350
564.749	43391
564.809	43416
564.869	43113
564.930	43155
564.990	42549
565.050	41435
565.111	41855
565.171	41179
565.231	42397
565.292	43045
565.352	41405
565.412	41488
565.472	42015
565.532	43079
565.593	40934
565.653	41186
565.713	41791
565.773	42788
565.833	44187
565.893	47512
565.953	41174
566.013	40094
566.074	39586
566.134	40061
566.194	39752
566.254	41352
566.314	40018
566.374	38844
566.434	38453
566.494	38548
566.554	38277
566.614	40406
566.673	41763
566.733	42287
566.793	41569
566.853	41096
566.913	41593
566.973	40735
567.033	40651
567.092	40998
567.152	39530
567.212	41905
567.272	41579
567.331	42447
567.391	42881
567.451	44345
567.511	44955
567.570	44114
567.630	44300
567.690	41714
567.749	41436
567.809	42140
567.868	40746
567.928	41437
567.988	42714
568.047	42162
568.107	42658
568.166	41975
568.226	42839
568.285	44600
568.345	44028
568.404	44235
568.464	43546
568.523	42318
568.582	43144
568.642	43273
568.701	41461
568.761	40724
568.820	42053
568.879	42881
568.939	44606
568.998	43093
569.057	43103
569.116	42184
569.176	43033
569.235	41671
569.294	40513
569.353	39966
569.413	39062
569.472	37989
569.531	38488
569.590	37882
569.649	38378
569.708	37690
569.767	39633
569.827	40884
569.886	38346
569.945	37493
570.004	38716
570.063	39190
570.122	41797
570.181	41264
570.240	41473
570.299	41844
570.358	43085
570.417	42590
570.475	41635
570.534	42260
570.593	43294
570.652	43321
570.711	44424
570.770	43236
570.829	43355
570.887	43436
570.946	46662
571.005	46458
571.064	53690
571.122	66596
571.181	59723
571.240	47652
571.299	43501
571.357	41688
571.416	39441
571.475	41214
571.533	44284
571.592	45623
571.650	44812
571.709	48967
571.768	56902
571.826	61597
571.885	55771
571.943	46762
572.002	43749
572.060	41760
572.119	39947
572.177	40702
572.236	40307
572.294	41597
572.352	44661
572.411	47340
572.469	43420
572.528	39752
572.586	38950
572.644	38437
572.703	39766
572.761	36593
572.819	36265
572.877	36584
572.936	36325
572.994	35779
573.052	36150
573.110	38429
573.169	42203
573.227	42620
573.285	40619
573.343	39641
573.401	39154
573.459	39039
573.517	42294
573.576	48014
573.634	45558
573.692	43601
573.750	47714
573.808	41681
573.866	39927
573.924	38667
573.982	38355
574.040	39001
574.098	40023
574.155	37674
574.213	37761
574.271	40144
574.329	48029
574.387	44068
574.445	38069
574.503	36930
574.560	35251
574.618	37304
574.676	37613
574.734	37554
574.792	35870
574.849	32990
574.907	29932
574.965	29151
575.022	29699
575.080	28717
575.138	29501
575.195	27705
575.253	28939
575.311	28674
575.368	29095
575.426	26547
575.483	28581
575.541	30499
575.598	30498
575.656	30903
575.713	32606
575.771	37115
575.828	33098
575.886	30839
575.943	28866
576.001	27489
576.058	27759
576.115	27633
576.173	30731
576.230	31369
576.287	32822
576.345	29401
576.402	32729
576.459	33666
576.517	30545
576.574	28789
576.631	26611
576.688	26374
576.746	25676
576.803	25026
576.860	24810
576.917	26166
576.974	26564
577.031	27547
577.089	26158
577.146	24223
577.203	23876
577.260	24629
577.317	24699
577.374	24517
577.431	24871
577.488	24886
577.545	24310
577.602	24824
577.659	24133
577.716	24550
577.773	25265
577.830	25566
577.886	24230
577.943	23361
578.000	23344
578.057	24077
578.114	24177
578.171	26218
578.227	27263
578.284	26457
578.341	24979
578.398	26189
578.454	25934
578.511	25157
578.568	25671
578.625	24417
578.681	25519
578.738	23703
578.794	24270
578.851	24949
578.908	24936
578.964	24846
579.021	24814
579.077	25285
579.134	25369
579.190	25384
579.247	24739
579.303	24709
579.360	24831
579.416	24772
579.473	25599
579.529	24260
579.586	24536
579.642	24810
579.698	25290
579.755	25734
579.811	25093
579.867	26161
579.924	25399
579.980	26678
580.036	28228
580.093	28292
580.149	32058
580.205	31922
580.261	31564
580.317	31003
580.374	30580
580.430	30348
580.486	30335
580.542	28470
580.598	29540
580.619	29902
580.654	30560
580.692	29667
580.710	29267
580.765	29952
580.767	29998
580.823	29941
580.838	30482
580.879	31990
580.911	31580
580.935	31327
580.984	31710
580.991	31788
581.047	30988
581.057	30784
581.103	29984
581.130	29613
581.159	29242
581.203	29141
581.215	29145
581.270	28297
581.276	28231
581.326	27756
581.349	27904
581.382	28177
581.422	28996
581.438	29347
581.494	27582
581.494	27566
581.550	26907
581.567	27191
581.606	27845
581.640	28024
581.661	28176
581.713	28110
581.717	28109
581.773	28420
581.786	28372
581.829	28291
581.859	28343
581.885	28385
581.932	28875
581.940	28997
581.996	29459
582.004	29603
582.052	30194
582.077	29881
582.107	29619
582.150	28990
582.163	28794
582.219	28750
582.223	28727
582.274	28550
582.296	28588
582.330	28668
582.368	29171
582.386	29448
582.441	29826
582.441	29828
582.497	29242
582.514	29395
582.552	29984
582.587	30374
582.608	30578
582.659	30321
582.663	30309
582.719	30680
582.732	30910
582.774	31490
582.805	31514
582.830	31743
582.877	32138
582.885	32153
582.941	32229
582.950	32284
582.996	32698
583.023	33781
583.052	35045
583.095	35340
583.107	35410
583.162	36775
583.168	36703
583.218	35551
583.240	34693
583.273	33383
583.313	33152
583.328	33196
583.384	32167
583.385	32165
583.439	31849
583.458	31854
583.494	32122
583.531	32263
583.549	32315
583.603	32028
583.605	32013
583.660	32976
583.676	32832
583.715	32616
583.748	32826
583.770	32789
583.820	32156
583.825	32140
583.881	33235
583.893	33084
583.936	32481
583.965	32307
583.991	32165
584.038	33513
584.046	33775
584.101	33226
584.110	33387
584.156	34216
584.183	34611
584.211	34935
584.255	35131
584.266	35220
584.321	35368
584.328	35445
584.376	36051
584.400	36642
584.431	37530
584.472	37342
584.486	37307
584.541	39117
584.545	39149
584.596	39751
584.617	40263
584.651	41166
584.689	41787
584.706	42109
584.761	44758
584.762	44767
584.816	46895
584.834	47524
584.871	48706
584.906	51191
584.926	52724
584.978	56212
584.980	56404
585.035	62990
585.051	65169
585.090	71208
585.123	77201
585.145	81916
585.195	93526
585.200	94780
585.254	112020
585.267	116949
585.309	135472
585.340	150243
585.364	163994
585.412	192841
585.419	198173
585.473	247523
585.484	261146
585.528	341470
585.556	419878
585.583	576164
585.628	946981
585.637	1079820
585.692	2201612
585.700	2386616
585.747	2960920
585.772	2629704
585.801	1825469
585.845	763211
585.856	612547
585.910	290573
585.917	261840
585.965	183191
585.989	154622
586.019	132917
586.061	111466
586.074	106731
586.128	93665
586.133	92734
586.183	86202
586.205	83574
586.237	80456
586.277	77657
586.292	76985
586.346	74320
586.349	74182
586.401	72870
586.421	72054
586.455	71271
586.493	71010
586.509	71751
586.564	74000
586.565	74052
586.618	81862
586.637	85042
586.672	95560
586.709	110255
586.727	117120
586.781	135149
586.781	135211
586.835	104169
586.853	95594
586.889	83394
586.925	74140
586.944	72044
586.996	69947
586.998	69988
587.052	68472
587.068	68288
587.106	68798
587.140	68674
587.161	68531
587.212	68434
587.215	68530
587.269	69074
587.284	69243
587.323	71018
587.356	72403
587.377	73344
587.427	75304
587.431	75438
587.485	75313
587.499	75414
587.539	77649
587.571	79285
587.593	81183
587.643	85727
587.648	86041
587.702	86740
587.715	86963
587.755	88175
587.786	88409
587.810	88458
587.858	88223
587.864	88442
587.917	90214
587.930	90304
587.971	90632
588.001	91136
588.025	91704
588.073	91872
588.079	92132
588.133	92792
588.145	93112
588.187	94236
588.217	94443
588.241	96342
588.288	100259
588.295	100910
588.348	105759
588.360	106510
588.402	109757
588.431	111673
588.456	114118
588.503	119742
588.510	121018
588.564	130042
588.575	132037
588.617	140977
588.646	146467
588.671	153087
588.718	166610
588.725	170979
588.778	208290
588.789	218014
588.832	333296
588.861	425585
588.886	624213
588.932	1058985
588.939	1095461
588.993	1349766
589.004	1338810
589.047	724200
589.075	363770
589.100	274773
589.147	169545
589.154	167046
589.207	153341
589.218	150936
589.261	153251
589.290	155439
589.314	161136
589.361	173892
589.368	180959
589.421	244731
589.433	260796
589.475	458685
589.504	615053
589.528	812705
589.576	1234149
589.582	1194301
589.635	603978
589.647	483863
589.689	266217
589.718	144648
589.742	134565
589.790	118224
589.795	117648
589.849	111320
589.861	109966
589.902	109580
589.932	108850
589.955	107671
590.004	104707
590.009	104791
590.062	103478
590.075	103046
590.115	102644
590.146	101960
590.168	102298
590.218	102110
590.222	102496
590.275	105565
590.289	106124
590.328	107670
590.360	108196
590.381	108840
590.431	109618
590.435	109874
590.488	110476
590.503	110395
590.541	112415
590.574	113804
590.594	115379
590.645	118734
590.647	119137
590.700	122654
590.716	123472
590.753	126805
590.787	129506
590.806	130943
590.859	133743
590.859	134063
590.912	134972
590.930	135091
590.965	136497
591.001	137131
591.018	137033
591.071	135954
591.072	135637
591.124	134609
591.143	133831
591.177	134635
591.214	135295
591.230	136757
591.283	140259
591.285	140066
591.336	139307
591.356	138661
591.389	138270
591.427	136699
591.442	136865
591.495	136772
591.498	136441
591.547	138197
591.569	138535
591.600	140867
591.640	143231
591.653	143840
591.706	144628
591.711	144407
591.759	150132
591.782	152509
591.811	155382
591.853	158604
591.864	158900
591.917	158077
591.924	157584
591.969	158644
591.995	158648
592.022	159748
592.066	160685
592.075	161865
592.127	166616
592.137	167078
592.180	171101
592.208	173023
592.233	174516
592.279	176064
592.285	177084
592.338	182009
592.350	182625
592.390	182825
592.421	182208
592.443	184191
592.491	187072
592.495	187786
592.548	190946
592.562	191325
592.600	191128
592.633	190041
592.653	191099
592.704	191501
592.705	192670
592.775	196075
592.846	202066
592.916	204028
592.987	206920
593.058	208924
593.128	207122
593.199	212237
593.270	213569
593.341	217957
593.411	228483
593.482	235828
593.553	240038
593.623	242193
593.694	250492
593.764	250361
593.835	249280
593.906	251224
593.976	259762
594.047	265294
594.117	276300
594.188	284638
594.258	283676
594.329	280233
594.399	290750
594.470	299983
594.540	310550
594.611	315701
594.681	314919
594.751	313878
594.822	327112
594.892	341400
594.963	349551
595.033	359180
595.103	373368
595.174	370367
595.244	384225
595.314	394334
595.384	404142
595.455	414117
595.525	427584
595.595	447173
595.665	440441
595.736	432667
595.806	442651
595.876	448068
595.946	452621
596.016	472412
596.087	489608
596.157	483168
596.227	488257
596.297	517993
596.367	555494
596.437	583200
596.507	578468
596.577	579955
596.647	597867
596.717	628895
596.787	639958
596.857	636887
596.927	642482
596.997	643425
597.067	653269
597.137	659978
597.207	663465
597.277	668292
597.347	640769
597.417	621438
597.487	619995
597.557	637050
597.626	654065
597.696	659552
597.766	653038
597.836	614250
597.906	584655
597.975	575622
598.045	590730
598.115	615268
598.185	664530
598.254	740188
598.324	800916
598.394	816983
598.464	783756
598.533	772942
598.603	722983
598.672	698671
598.742	715983
598.812	720798
598.881	742446
598.951	734394
599.020	748656
599.090	778482
599.159	784972
599.229	750494
599.299	734177
599.368	760470
599.437	745510
599.507	679911
599.576	658289
599.646	645744
599.715	640245
599.785	635745
599.854	614587
599.924	608936
599.993	603963
600.062	623309
600.132	641327
600.201	684488
600.270	794140
600.340	828092
600.409	812576
600.478	805858
600.547	821827
600.617	732333
600.686	587291
600.755	534181
600.824	505088
600.894	495219
600.963	502331
601.032	489069
601.101	472460
601.170	452419
601.239	441049
601.308	436839
601.378	439996
601.447	441528
601.516	448223
601.585	450487
601.654	459596
601.723	460192
601.792	476398
601.861	490614
601.930	509013
601.999	515261
602.068	512596
602.137	520350
602.206	526732
602.275	538443
602.343	543660
602.412	547445
602.481	555151
602.550	560428
602.619	573682
602.688	580873
602.756	585977
602.825	590520
602.894	606006
602.963	616304
603.032	625373
603.100	627384
603.169	631173
603.238	639046
603.307	635270
603.375	645893
603.444	661734
603.513	663464
603.581	676889
603.650	687338
603.719	666740
603.787	684906
603.856	704617
603.924	722242
603.993	751397
604.061	780815
604.130	813356
604.198	826761
604.267	842352
604.335	855031
604.404	868050
604.472	879402
604.541	889006
604.609	900613
604.678	903594
604.746	907310
604.815	940927
604.883	950635
604.951	943975
605.020	968487
605.088	978147
605.156	994491
605.225	1007571
605.293	1007342
605.361	1014644
605.429	1024501
605.498	1047912
605.566	1066025
605.634	1121969
605.702	1159321
605.771	1187022
605.839	1190888
605.907	1161052
605.975	1123227
606.043	1100630
606.111	1100020
606.180	1103695
606.248	1086747
606.316	1074761
606.384	1081580
606.452	1071058
606.520	1095137
606.588	1132021
606.656	1134795
606.724	1108917
606.792	1043444
606.860	941092
606.928	863761
606.996	826685
607.064	818086
607.132	840405
607.200	892326
607.267	920682
607.335	943834
607.403	953360
607.471	920620
607.539	897827
607.607	893993
607.674	790959
607.742	793088
607.810	787148
607.878	790346
607.946	810484
608.013	848695
608.081	861952
608.149	865364
608.216	901829
608.284	924956
608.352	926762
608.419	918361
608.487	893924
608.555	882961
608.622	913787
608.690	976414
608.757	1073245
608.825	1079736
608.893	1050713
608.960	987911
609.028	945852
609.095	947756
609.163	941996
609.230	839236
609.298	777720
609.365	828478
609.432	892881
609.500	977306
609.567	1111987
609.635	1265443
609.702	1315071
609.769	1237613
609.837	963673
609.904	861629
609.971	912607
610.039	1009910
610.106	1268767
610.173	2150297
610.241	3748024
610.308	2433354
610.375	1127822
610.442	941075
610.509	883339
610.577	879126
610.644	891048
610.711	923413
610.778	939985
610.845	987435
610.912	1042766
610.980	1081721
611.047	1078582
611.114	1056347
611.181	1028662
611.248	1027177
611.315	1077851
611.382	1112297
611.449	1146267
611.516	1162894
611.583	1146203
611.650	1162379
611.717	1178570
611.784	1213960
611.851	1274180
611.918	1352967
611.984	1565000
612.051	2014519
612.118	3224713
612.185	4464978
612.252	3783258
612.319	1886616
612.386	1556276
612.452	1407181
612.519	1324470
612.586	1290306
612.653	1312314
612.719	1349842
612.786	1292677
612.853	1199368
612.919	1179315
612.986	1191166
613.053	1122627
613.120	1055289
613.186	1018311
613.253	1023282
613.319	1029078
613.386	1036280
613.453	1054209
613.519	1052186
613.586	1032678
613.652	1046788
613.719	1034304
613.785	1057549
613.852	1068778
613.918	1055718
613.985	1070719
614.051	1111775
614.118	1094118
614.184	1051655
614.250	1052844
614.317	1079499
614.383	1068102
614.449	1082058
614.516	1074332
614.582	1080553
614.648	1055506
614.715	1052486
614.781	1025390
614.847	1029048
614.914	1018960
614.980	991511
615.046	996903
615.112	1026808
615.179	1027823
615.245	1051722
615.311	1032515
615.377	1050275
615.443	1058847
615.509	1079750
615.575	1117629
615.642	1110889
615.708	1139134
615.774	1198562
615.840	1288118
615.906	1382351
615.972	1638660
616.038	2260196
616.104	3642774
616.170	4607199
616.236	4313501
616.302	2602871
616.368	2047543
616.434	1529918
616.500	1393444
616.565	1556669
616.631	1935727
616.697	1624412
616.763	1663706
616.829	2404187
616.895	3684958
616.961	3448742
617.026	1747239
617.092	1240491
617.158	1136493
617.224	1084744
617.289	994510
617.355	945604
617.421	932241
617.487	921597
617.552	878921
617.618	868396
617.684	867791
617.749	868343
617.815	831243
617.880	820701
617.946	818140
618.012	833911
618.077	846742
618.143	808731
618.208	814972
618.274	879593
618.339	868505
618.405	717721
618.470	716289
618.536	714098
618.601	698744
618.667	646066
618.732	611118
618.798	603966
618.863	602834
618.928	600240
618.994	610076
619.059	601630
619.124	613013
619.190	600325
619.255	599756
619.320	596711
619.386	600676
619.451	595017
619.516	570870
619.581	578560
619.647	598772
619.712	590196
619.777	561763
619.842	570168
619.907	580823
619.972	591438
620.038	583118
620.103	570770
620.168	572815
620.233	582165
620.298	585783
620.363	593727
620.428	609997
620.493	628199
620.558	637902
620.623	646404
620.688	637391
620.753	637793
620.818	647374
620.883	650250
620.948	647150
621.013	632047
621.078	622608
621.143	637623
621.207	636262
621.272	625453
621.337	603438
621.402	596440
621.467	585983
621.532	585156
621.596	589188
621.661	570090
621.726	567506
621.791	573213
621.855	571763
621.920	566981
621.985	581822
622.049	590756
622.114	592467
622.179	603522
622.243	620207
622.308	643594
622.373	662508
622.437	644106
622.502	605609
622.566	601752
622.631	603538
622.695	615558
622.760	610236
622.824	609771
622.889	613773
622.953	616889
623.018	656303
623.082	662554
623.147	652827
623.211	631682
623.276	635018
623.340	609410
623.404	590392
623.469	586944
623.533	595025
623.597	578629
623.662	576928
623.726	526876
623.790	495377
623.854	480162
623.919	491764
623.983	503401
624.047	511665
624.111	517194
624.176	526661
624.240	533582
624.304	548826
624.368	527702
624.432	529811
624.496	547106
624.560	580201
624.625	582880
624.689	576733
624.753	609524
624.817	573927
624.881	561709
624.945	498176
625.009	485930
625.073	497023
625.137	515648
625.201	542811
625.265	540181
625.329	519123
625.393	527553
625.456	530804
625.520	552167
625.584	556385
625.648	574916
625.712	591611
625.776	586760
625.839	550718
625.903	457749
625.967	431440
626.031	462050
626.095	559288
626.158	509156
626.222	394482
626.286	365129
626.349	351911
626.413	327172
626.477	324533
626.540	333237
626.604	328744
626.668	320733
626.731	320136
626.795	320619
626.858	323968
626.922	318005
626.986	314263
627.049	318597
627.113	330217
627.176	319010
627.240	311025
627.303	314203
627.366	312763
627.430	316303
627.493	312510
627.557	308499
627.620	313123
627.684	330532
627.747	332650
627.810	302753
627.874	271773
627.937	260811
628.000	271505
628.064	261301
628.127	233604
628.190	231198
628.253	223694
628.317	214226
628.380	202959
628.443	197176
628.506	196905
628.569	189544
628.632	179317
628.696	181245
628.759	179470
628.822	172993
628.885	167084
628.948	166181
629.011	161069
629.074	158179
629.137	152940
629.200	150783
629.263	148372
629.326	147888
629.389	149273
629.452	145731
629.515	144122
629.578	142542
629.641	146904
629.704	148911
629.767	143814
629.830	140297
629.892	139498
629.955	137536
630.018	142736
630.081	139287
630.144	142325
630.207	137029
630.269	141036
630.332	134634
630.395	136019
630.458	129728
630.520	125688
630.583	130157
630.646	131356
630.708	132973
630.771	137191
630.834	144602
630.896	141431
630.959	141278
631.021	137354
631.084	139352
631.146	141045
631.209	143410
631.272	141478
631.334	148611
631.397	150620
631.459	152842
631.522	160840
631.584	170184
631.646	181382
631.709	191378
631.771	191739
631.834	181009
631.896	170683
631.958	155873
632.021	150815
632.083	142406
632.145	140361
632.208	138179
632.270	136231
632.332	135532
632.395	132641
632.457	135444
632.519	131510
632.581	131013
632.643	130553
632.706	131345
632.768	127541
632.830	131865
632.892	134882
632.954	134451
633.016	137857
633.078	135695
633.141	135832
633.203	135056
633.265	134084
633.327	131769
633.389	135721
633.451	137576
633.513	136709
633.575	142491
633.637	140910
633.698	146190
633.760	153251
633.822	158716
633.884	164339
633.946	171833
634.008	179010
634.070	189506
634.132	199263
634.193	221929
634.255	241812
634.317	247967
634.379	239463
634.441	212990
634.502	190308
634.564	171580
634.626	158696
634.687	149216
634.749	140640
634.811	139535
634.873	135693
634.934	137013
634.996	137041
635.057	136718
635.119	141889
635.181	145485
635.242	145720
635.304	143021
635.365	145555
635.427	142754
635.488	143993
635.550	143834
635.611	146867
635.673	151827
635.734	163137
635.796	174659
635.857	194584
635.918	213836
635.980	236477
636.041	253917
636.102	270997
636.164	272706
636.225	257048
636.286	222968
636.348	193941
636.409	172612
636.470	156663
636.531	148379
636.593	139429
636.654	134831
636.715	125839
636.776	126565
636.838	119611
636.899	118192
636.960	115114
637.021	113511
637.082	113172
637.143	107185
637.204	106354
637.265	106702
637.326	109015
637.387	112668
637.448	108886
637.509	109140
637.570	108266
637.631	107092
637.692	101834
637.753	99111
637.814	99550
637.875	97719
637.936	98420
637.997	96893
638.058	94237
638.119	96985
638.179	98723
638.240	96928
638.301	96810
638.362	93963
638.423	89921
638.483	90594
638.544	88054
638.605	89225
638.666	87629
638.726	89125
638.787	88297
638.848	88080
638.908	87441
638.969	82773
639.030	82835
639.090	82770
639.151	84529
639.211	87920
639.272	87686
639.332	91314
639.393	93557
639.453	103766
639.514	105125
639.574	87396
639.635	79366
639.695	79943
639.756	77288
639.816	77987
639.877	78194
639.937	81607
639.997	83198
640.058	79382
640.118	78873
640.178	79716
640.239	78695
640.299	80911
640.359	83240
640.420	90230
640.480	105795
640.540	126534
640.600	125383
640.661	108806
640.721	101848
640.781	96695
640.841	84204
640.901	81466
640.961	83153
641.021	90499
641.082	98351
641.142	85238
641.202	78060
641.262	73326
641.322	75584
641.382	72425
641.442	74089
641.502	73017
641.562	76484
641.622	79015
641.682	88181
641.742	108424
641.802	93647
641.861	79123
641.921	73514
641.981	71532
642.041	68743
642.101	67751
642.161	67647
642.221	67997
642.280	69317
642.340	68594
642.400	68990
642.460	71598
642.519	71054
642.579	72100
642.639	73945
642.698	73184
642.758	78788
642.818	74848
642.877	74296
642.937	74559
642.997	74167
643.056	76439
643.116	73991
643.175	77867
643.235	79549
643.294	84448
643.354	92209
643.414	103554
643.473	124784
643.532	158721
643.592	216443
643.651	319360
643.711	510870
643.770	924088
643.830	2014495
643.889	3174335
643.948	1099062
644.008	296951
644.067	176571
644.126	129032
644.186	109251
644.245	94298
644.304	85650
644.363	86322
644.423	81821
644.482	86425
644.541	92993
644.600	103716
644.659	131145
644.719	168450
644.778	248739
644.837	406005
644.896	815762
644.955	1648291
645.014	558426
645.073	153226
645.132	114036
645.191	100624
645.250	97517
645.309	101931
645.368	117861
645.427	157061
645.486	286225
645.545	473592
645.604	141701
645.663	86508
645.722	87990
645.781	98562
645.840	114910
645.898	145368
645.957	205349
646.016	301208
646.075	486480
646.134	883545
646.192	2092781
646.251	2554213
646.310	611114
646.369	213561
646.427	169312
646.486	122219
646.545	93060
646.603	83166
646.662	79616
646.721	77359
646.779	82121
646.838	92546
646.896	117079
646.955	156860
647.014	240937
647.072	471138
647.131	1189931
647.189	557137
647.248	104774
647.306	73649
647.365	65637
647.423	57523
647.481	57786
647.540	54748
647.598	55298
647.657	55239
647.715	53758
647.773	50958
647.832	51264
647.890	47225
647.948	47752
648.007	45888
648.065	43524
648.123	43867
648.181	44415
648.240	44058
648.298	42980
648.356	42420
648.414	44224
648.472	42417
648.531	42055
648.589	41793
648.647	42845
648.705	44002
648.763	45464
648.821	49290
648.879	54356
648.937	64082
648.995	81403
649.053	109587
649.111	158942
649.169	244210
649.227	410885
649.285	838605
649.343	2010136
649.401	984462
649.459	180704
649.516	100309
649.574	82156
649.632	85856
649.690	97359
649.748	123598
649.806	180932
649.863	331598
649.921	897975
649.979	577054
650.037	89268
650.094	53350
650.152	47055
650.210	41443
650.268	39076
650.325	36534
650.383	35325
650.440	33792
650.498	32949
650.556	33156
650.613	32657
650.671	34120
650.728	33770
650.786	38760
650.843	57389
650.901	42919
650.958	31165
651.016	29095
651.073	28855
651.131	28258
651.188	28738
651.246	27371
651.303	27187
651.360	26904
651.418	26202
651.475	25634
651.532	25795
651.590	26736
651.647	25743
651.704	25275
651.762	24910
651.819	26264
651.876	24654
651.933	23808
651.990	25065
652.048	22772
652.105	23426
652.162	24122
652.219	24112
652.276	23007
652.333	23611
652.390	22626
652.448	22962
652.505	23561
652.562	22528
652.619	21955
652.676	22816
652.733	24110
652.790	21756
652.847	20797
652.904	22122
652.961	21243
653.017	20389
653.074	21592
653.131	21136
653.188	19975
653.245	22020
653.302	21311
653.359	21651
653.415	22564
653.472	19923
653.529	21836
653.586	19782
653.642	22079
653.699	22400
653.756	21823
653.813	21839
653.869	24022
653.926	22990
653.983	22485
654.039	21582
654.096	22048
654.152	20927
654.209	19300
654.266	20071
654.322	19101
654.379	19608
654.435	19691
654.492	19329
654.548	20512
654.605	19715
654.661	19631
654.717	20609
654.774	20504
654.830	19954
654.887	19449
654.943	19539
655.000	20326
655.056	20047
655.112	20397
655.168	20394
655.225	23129
655.281	22761
655.337	22145
655.394	20385
655.450	19615
655.506	20402
655.562	19015
655.618	19953
655.675	18601
655.731	19817
655.787	19279
655.843	20641
655.899	20169
655.955	22296
656.011	22466
656.067	21751
656.123	22489
656.179	22912
656.235	24300
656.291	22853
656.347	23933
656.403	22829
656.459	21487
656.515	21353
656.571	19588
656.627	19679
656.683	20487
656.739	19616
656.795	20133
656.850	21297
656.906	21626
656.962	23087
657.018	24463
657.074	30557
657.129	40143
657.185	63132
657.241	143238
657.297	79933
657.352	24144
657.408	19183
657.464	19294
657.519	17165
657.575	16944
657.630	17418
657.686	16565
657.742	16527
657.797	17146
657.853	16679
657.908	18743
657.964	16757
658.019	17533
658.075	16937
658.130	16867
658.186	15419
658.241	16979
658.297	15948
658.352	15863
658.407	16016
658.463	14944
658.518	15607
658.573	15079
658.629	15954
658.684	15436
658.739	16342
658.795	15120
658.850	15587
658.905	14795
658.960	14784
659.016	14569
659.071	14827
659.126	15063
659.181	13806
659.236	14543
659.291	16167
659.346	15023
659.401	15489
659.457	15997
659.512	15052
659.567	15229
659.622	14950
659.677	14363
659.732	14073
659.787	13320
659.842	13745
659.897	14524
659.952	14230
660.007	13875
660.061	14240
660.116	13200
660.171	13213
660.226	13961
660.281	14709
660.336	13466
660.391	14590
660.445	12163
660.500	13393
660.555	13556
660.610	13357
660.664	14031
660.719	13570
660.774	13685
660.828	13966
660.883	12814
660.938	14065
660.992	13115
661.047	13351
661.101	13768
661.156	13265
661.211	12847
661.265	13347
661.320	13777
661.374	14005
661.429	13098
661.483	14800
661.538	12272
661.592	13566
661.647	13443
661.701	13926
661.755	13313
661.810	14069
661.864	13281
661.919	12103
661.973	13199
662.027	13128
662.081	12471
662.136	12755
662.190	13944
662.244	13216
662.299	13816
662.353	13905
662.407	12767
662.461	13160
662.515	13381
662.569	11751
662.624	12118
662.678	12224
662.732	13190
662.786	12761
662.840	13446
662.894	13269
662.948	12588
663.002	13735
663.056	12932
663.110	12739
663.164	13637
663.218	14572
663.272	14015
663.326	14939
663.380	14335
663.434	14132
663.488	14488
663.542	13990
663.595	14518
663.649	13647
663.703	14161
663.757	14179
663.811	13667
663.864	14206
663.918	13926
663.972	15016
664.026	14301
664.079	13188
664.133	15200
664.187	14762
664.240	14142
664.294	14294
664.348	13981
664.401	13877
664.455	12905
664.508	13931
664.562	13888
664.615	13786
664.669	12996
664.722	13766
664.776	12551
664.829	14210
664.883	13532
664.936	12700
664.990	14171
665.043	14996
665.097	13774
665.150	14738
665.203	13864
665.257	14307
665.310	14649
665.363	15850
665.417	16311
665.470	14941
665.523	15586
665.576	16908
665.630	15866
665.683	16231
665.736	16534
665.789	15472
665.842	14520
665.895	15839
665.949	16236
666.002	14843
666.055	15783
666.108	17070
666.161	16386
666.214	15913
666.267	15507
666.320	17356
666.373	16865
666.426	18774
666.479	16772
666.532	17335
666.585	17781
666.638	17875
666.691	17759
666.744	17252
666.796	16380
666.849	16970
666.902	17649
666.955	15293
667.008	16324
667.060	15058
667.113	16525
667.166	17122
667.219	17459
667.271	18087
667.324	17554
667.377	17149
667.430	16514
667.482	16241
667.535	16033
667.587	16606
667.640	16593
667.693	16583
667.745	17358
667.798	17710
667.850	16191
667.903	17612
667.955	17902
668.008	16814
668.060	17118
668.113	16672
668.165	15963
668.218	15620
668.270	16739
668.322	16317
668.375	16488
668.427	16373
668.479	15967
668.532	16411
668.584	16334
668.636	15572
668.689	15269
668.741	15157
668.793	16199
668.845	16669
668.898	16071
668.950	16184
669.002	15937
669.054	16049
669.106	15533
669.158	15512
669.211	14967
669.263	15025
669.315	16050
669.367	15591
669.419	15122
669.471	15839
669.523	15147
669.575	15625
669.627	15225
669.679	16086
669.731	16026
669.783	15474
669.835	15729
669.886	16038
669.938	17250
669.990	16371
670.042	16359
670.094	16406
670.146	18069
670.197	18703
670.249	20846
670.301	24394
670.353	30941
670.404	39677
670.456	52185
670.508	71461
670.560	104974
670.611	156600
670.663	254043
670.715	589018
670.766	922173
670.818	303560
670.869	59534
670.921	38284
670.972	32390
671.024	26967
671.075	24025
671.127	23185
671.178	24962
671.230	27313
671.281	30031
671.333	35809
671.384	43539
671.436	57462
671.487	77127
671.538	107194
671.590	155360
671.641	241623
671.692	422550
671.744	751288
671.795	572733
671.846	229313
671.897	107818
671.949	67510
672.000	49215
672.051	36458
672.102	30595
672.153	25888
672.204	24184
672.256	21996
672.307	21170
672.358	18725
672.409	17917
672.460	16724
672.511	16607
672.562	14786
672.613	14057
672.664	14022
672.715	14933
672.766	13839
672.817	12619
672.868	13335
672.919	13359
672.970	12224
673.021	12035
673.071	13160
673.122	13101
673.173	11549
673.224	13416
673.275	12316
673.326	11877
673.376	12020
673.427	11501
673.478	13016
673.528	13988
673.579	11901
673.630	13167
673.680	14220
673.731	12842
673.782	11578
673.832	12580
673.883	12737
673.934	11868
673.984	12837
674.035	12423
674.085	13520
674.136	12819
674.186	13550
674.237	14098
674.287	13563
674.338	14625
674.388	16014
674.438	15287
674.489	16825
674.539	16266
674.589	17350
674.640	16623
674.690	15153
674.740	15480
674.791	15129
674.841	14424
674.891	12886
674.942	12067
674.992	10752
675.042	12011
675.092	11056
675.142	10437
675.193	11191
675.243	11243
675.293	11548
675.343	11751
675.393	13241
675.443	12922
675.493	12189
675.543	11269
675.593	11927
675.643	12129
675.693	12012
675.743	11335
675.793	10852
675.843	9843
675.893	9553
675.943	10124
675.993	9895
676.043	9467
676.093	9571
676.142	10222
676.192	10198
676.242	10138
676.292	9567
676.341	9796
676.391	10840
676.441	8129
676.491	8511
676.540	8691
676.590	8687
676.640	8965
676.689	8384
676.739	7833
676.789	8100
676.838	8763
676.888	8142
676.937	8334
676.987	8201
677.037	9351
677.086	8377
677.136	7687
677.185	8610
677.235	9064
677.284	8618
677.333	9100
677.383	9072
677.432	7647
677.482	8085
677.531	8179
677.580	7730
677.630	7802
677.679	7117
677.728	7889
677.778	8622
677.827	8027
677.876	8442
677.925	9434
677.975	9370
678.024	9749
678.073	9979
678.122	10334
678.171	11164
678.220	12403
678.269	13526
678.319	16330
678.368	17882
678.417	14441
678.466	11111
678.515	9696
678.564	8952
678.613	7494
678.662	7750
678.711	8022
678.760	8437
678.809	8660
678.857	9425
678.906	9547
678.955	8140
679.004	7271
679.053	6592
679.102	7594
679.151	7392
679.199	7973
679.248	8018
679.297	7625
679.346	6449
679.394	6221
679.443	6856
679.492	7170
679.540	8222
679.589	7797
679.638	8418
679.686	8874
679.735	9639
679.784	11349
679.832	15166
679.881	11073
679.929	9874
679.978	7131
680.026	8853
680.075	9071
680.123	8336
680.172	6697
680.220	7080
680.268	7054
680.317	7201
680.365	6710
680.414	5939
680.462	7522
680.510	7228
680.559	6890
680.607	7394
680.655	6786
680.703	8285
680.752	7027
680.800	7235
680.848	6616
680.896	7211
680.945	6987
680.993	5980
681.041	6570
681.089	6817
681.137	6522
681.185	6626
681.233	6985
681.258	7122
681.281	7233
681.329	6296
681.377	6138
681.380	6175
681.425	6521
681.473	7152
681.502	7882
681.521	8346
681.569	8096
681.617	8514
681.624	8393
681.665	7462
681.713	7731
681.745	7707
681.761	7663
681.809	7427
681.857	8061
681.867	8201
681.904	8632
681.952	8485
681.989	7902
682.000	7701
682.048	7628
682.096	7689
682.111	7547
682.143	7166
682.191	7715
682.233	8598
682.239	8711
682.286	8282
682.334	6481
682.354	6888
682.382	7414
682.430	8842
682.476	7856
682.477	7814
682.525	7619
682.572	7385
682.598	7568
682.620	7751
682.667	8017
682.715	7705
682.720	7792
682.763	8324
682.810	7840
682.841	8168
682.857	8310
682.905	8087
682.952	7433
682.963	7580
683.000	8079
683.047	7434
683.085	8566
683.095	8848
683.142	8553
683.190	8373
683.206	8093
683.237	7491
683.284	8078
683.328	7589
683.332	7534
683.379	7724
683.426	7172
683.449	7784
683.473	8413
683.521	7817
683.568	7744
683.571	7770
683.615	7921
683.662	8544
683.693	8077
683.709	7753
683.757	7283
683.804	7150
683.814	7320
683.851	7953
683.898	8140
683.936	8144
683.945	8121
683.992	7972
684.039	8150
684.057	8331
684.086	8517
684.133	7654
684.179	7514
684.180	7503
684.227	8234
684.274	8270
684.300	8269
684.321	8234
684.368	8090
684.415	8509
684.422	8613
684.462	9126
684.509	8063
684.543	8189
684.556	8216
684.603	8538
684.649	8070
684.665	8465
684.696	9305
684.743	8657
684.786	8820
684.790	8811
684.837	8673
684.883	8933
684.908	9096
684.930	9258
684.977	9318
685.023	9275
685.029	9203
685.070	8597
685.117	9231
685.150	9449
685.164	9506
685.210	9503
685.257	9267
685.272	9572
685.303	10232
685.350	9340
685.393	9857
685.396	9873
685.443	8320
685.490	8793
685.514	8769
685.536	8906
685.583	8565
685.629	9286
685.636	9241
685.675	8692
685.722	9330
685.757	9215
685.768	9191
685.815	9031
685.861	9075
685.878	9093
685.908	9179
685.954	9824
686.000	9610
686.000	9601
686.047	10071
686.093	10019
686.121	10290
686.139	10362
686.185	9979
686.232	9945
686.242	9886
686.278	9858
686.324	10121
686.363	9947
686.370	9887
686.416	10105
686.463	9896
686.484	9725
686.509	9635
686.555	9855
686.601	9544
686.606	9704
686.647	10854
686.693	8958
686.727	9546
686.739	9807
686.785	9441
686.831	9555
686.848	9802
686.877	10192
686.923	9813
686.969	9984
686.969	9986
687.015	9891
687.061	10951
687.090	11344
687.107	11393
687.153	11285
687.199	10182
687.211	9853
687.245	9298
687.291	10116
687.332	10934
687.336	11002
687.382	10566
687.428	11213
687.453	11300
687.474	11372
687.520	11373
687.565	10848
687.574	10916
687.611	11246
687.657	11562
687.695	11550
687.702	11549
687.748	11628
687.794	12569
687.816	12366
687.839	12108
687.885	11385
687.931	12570
687.937	12499
687.976	12001
688.022	11775
688.058	11808
688.067	11806
688.113	11240
688.158	10631
688.179	10873
688.204	11361
688.249	11735
688.295	11803
688.300	11850
688.340	12101
688.386	11346
688.421	11455
688.431	11503
688.477	11809
688.522	11373
688.542	11871
688.567	12640
688.613	13004
688.658	13222
688.663	13228
688.703	12870
688.749	12358
688.784	12350
688.794	12407
688.839	12250
688.884	12653
688.905	12648
688.930	12543
688.975	12299
689.020	12205
689.026	12148
689.065	11921
689.110	12390
689.146	12208
689.155	12208
689.201	11698
689.246	12042
689.267	12138
689.291	12146
689.336	12344
689.381	12181
689.388	12075
689.426	11855
689.471	12779
689.509	12975
689.516	13014
689.561	13353
689.606	13045
689.630	13164
689.651	13118
689.696	12623
689.741	13268
689.750	13094
689.785	12789
689.830	13280
689.871	13182
689.875	13155
689.920	13468
689.965	12752
689.992	12662
690.010	12680
690.054	12417
690.099	12365
690.112	12567
690.144	13037
690.189	12297
690.233	12071
690.233	12083
690.278	12503
690.323	12767
690.354	12791
690.367	12814
690.412	12791
690.457	12274
690.474	12575
690.501	12849
690.546	12910
690.590	12072
690.595	12002
690.635	12116
690.680	12782
690.716	13248
690.724	13302
690.769	13502
690.813	13995
690.836	13780
690.857	14246
690.902	15745
690.946	17637
690.957	18011
690.991	19390
691.035	21453
691.077	23805
691.080	23809
691.124	20944
691.168	19261
691.198	17677
691.213	17007
691.257	16016
691.301	14402
691.318	13920
691.346	13847
691.390	13627
691.434	13169
691.439	13100
691.478	12882
691.522	13752
691.559	13694
691.567	13761
691.611	14670
691.655	14782
691.680	14973
691.699	14719
691.743	13882
691.787	13366
691.800	13181
691.831	13342
691.875	13463
691.919	13855
691.921	13839
691.964	13650
692.008	13551
692.041	13346
692.052	13466
692.096	13712
692.139	14402
692.162	14626
692.183	14426
692.227	14155
692.271	13670
692.282	13445
692.315	13237
692.359	13795
692.402	14010
692.403	14030
692.447	13536
692.490	13502
692.523	13377
692.534	13526
692.578	13939
692.622	13950
692.643	14166
692.666	14086
692.709	13826
692.753	13774
692.763	13752
692.797	14126
692.840	14016
692.884	14286
692.884	14310
692.928	14406
692.971	14401
693.004	14128
693.015	14063
693.059	14145
693.102	14015
693.124	14028
693.146	14218
693.189	14142
693.233	14630
693.245	14716
693.276	14879
693.320	14994
693.363	14478
693.365	14461
693.407	15172
693.450	15624
693.485	16006
693.493	16095
693.537	16604
693.580	16554
693.605	17017
693.624	18065
693.667	19711
693.710	22109
693.725	22790
693.753	26096
693.797	32141
693.840	37739
693.845	38175
693.883	33566
693.926	28258
693.966	23634
693.970	23405
694.013	20896
694.056	18838
694.086	17136
694.099	16920
694.142	16235
694.185	15626
694.206	15315
694.229	15483
694.272	15746
694.315	16110
694.326	16148
694.358	16098
694.401	15761
694.444	15754
694.446	15709
694.487	15606
694.530	15864
694.566	15780
694.573	15788
694.616	15680
694.659	15703
694.686	15735
694.702	15889
694.745	16036
694.787	16327
694.806	16411
694.830	16390
694.873	16149
694.916	16106
694.926	16022
694.959	16385
695.002	16803
695.044	17435
695.046	17429
695.087	17601
695.130	17499
695.166	17260
695.172	17346
695.215	17674
695.258	18417
695.286	18811
695.301	19051
695.343	19616
695.386	20083
695.406	20292
695.428	21126
695.471	22765
695.514	24386
695.526	24888
695.556	26161
695.599	27460
695.641	28637
695.646	28703
695.684	27080
695.726	25355
695.766	23897
695.769	23894
695.811	22846
695.854	21832
695.886	21236
695.896	21517
695.938	22483
695.981	23258
696.005	23721
696.023	24489
696.065	26325
696.108	28059
696.125	28734
696.150	29020
696.192	29542
696.235	29762
696.245	29799
696.277	29769
696.319	29626
696.361	29465
696.365	29387
696.404	28763
696.446	28096
696.485	27329
696.488	27415
696.530	27814
696.572	28349
696.604	28664
696.614	28643
696.656	28262
696.698	27890
696.724	27662
696.740	28017
696.783	28634
696.825	29432
696.844	29720
696.867	29837
696.909	29778
696.951	29793
696.964	29769
696.992	30061
697.034	30207
697.076	30549
697.083	30540
697.118	31321
697.160	32188
697.202	32973
697.203	32924
697.244	32245
697.286	31566
697.323	30916
697.327	31058
697.369	31708
697.411	32477
697.442	32890
697.453	32919
697.494	32740
697.536	32640
697.562	32459
697.578	32642
697.620	32973
697.661	33337
697.682	33461
697.703	34014
697.744	34968
697.786	35834
697.801	36106
697.828	36014
697.869	35635
697.911	35277
697.921	35141
697.952	34856
697.994	34202
698.035	33640
698.040	33502
698.077	33915
698.118	34295
698.160	34658
698.160	34586
698.201	36181
698.243	37708
698.279	38987
698.284	39144
698.325	39817
698.367	40528
698.399	40947
698.408	41074
698.449	41283
698.491	41462
698.518	41492
698.532	41584
698.573	41619
698.614	41628
698.638	41553
698.656	41616
698.697	41555
698.738	41471
698.757	41350
698.779	41462
698.820	41471
698.862	41508
698.877	41430
698.903	41634
698.944	41812
698.985	41983
698.996	41940
699.026	42006
699.067	41965
699.116	41826
699.235	41874
699.354	40592
699.474	36804
699.593	38341
699.713	38184
699.832	39492
699.951	41421
700.070	39652
700.190	36058
700.309	35753
700.428	36325
700.547	35149
700.667	34202
700.786	34449
700.905	33338
701.024	35359
701.143	31962
701.262	36902
701.381	35783
701.500	36223
701.619	36072
701.738	35830
701.857	35771
701.976	32598
702.095	34539
702.214	36048
702.333	35439
702.452	36175
702.571	36573
702.690	35713
702.809	36137
702.928	34561
703.047	32708
703.165	34314
703.284	32186
703.403	34431
703.522	31796
703.640	32104
703.759	30958
703.878	30555
703.997	31319
704.115	32958
704.234	33279
704.353	32922
704.471	29137
704.590	30123
704.708	28334
704.827	29128
704.946	28312
705.064	30109
705.183	28532
705.301	30459
705.420	27391
705.538	28157
705.656	25648
705.775	26874
705.893	28420
706.012	27678
706.130	26871
706.249	27985
706.367	25026
706.485	27742
706.604	24526
706.722	25889
706.840	27639
706.958	28214
707.077	23732
707.195	25375
707.313	24575
707.431	23480
707.549	23678
707.668	24190
707.786	26231
707.904	23804
708.022	25291
708.140	24584
708.258	24448
708.376	26082
708.494	23528
708.612	27083
708.730	26754
708.848	27402
708.966	25513
709.084	26400
709.202	23972
709.320	21190
709.438	23368
709.556	23171
709.674	20892
709.791	22405
709.909	20404
710.027	21153
710.145	21198
710.263	21252
710.380	21854
710.498	19787
710.616	21258
710.733	20354
710.851	20495
710.969	21790
711.086	19001
711.204	21110
711.322	20617
711.439	20373
711.557	18379
711.674	19767
711.792	20043
711.909	18104
712.027	19331
712.144	19660
712.262	19327
712.379	20660
712.497	19800
712.614	18932
712.732	20006
712.849	19305
712.966	20916
713.084	21462
713.201	17983
713.318	21333
713.436	22361
713.553	23377
713.670	26470
713.787	24470
713.905	23728
714.022	25157
714.139	28766
714.256	43019
714.373	72829
714.490	165086
714.608	533353
714.725	2006760
714.842	1111512
714.959	105514
715.076	46911
715.193	38276
715.310	31075
715.427	23614
715.544	23767
715.661	24065
715.778	20821
715.895	21782
716.011	21634
716.128	20579
716.245	19646
716.362	18814
716.479	15414
716.596	16752
716.713	17259
716.829	16396
716.946	15437
717.063	15909
717.180	14981
717.296	16284
717.413	15901
717.530	15622
717.646	14884
717.763	15847
717.880	14512
717.996	14464
718.113	15606
718.229	14537
718.346	13064
718.462	14172
718.579	15542
718.695	16001
718.812	14847
718.928	14987
719.045	13480
719.161	16279
719.277	16238
719.394	17183
719.510	17572
719.626	23157
719.743	34006
719.859	71034
719.975	191937
720.092	864654
720.208	1094847
720.324	92965
720.440	29637
720.557	22375
720.673	22384
720.789	18294
720.905	18355
721.021	14783
721.137	13020
721.253	12822
721.369	13752
721.486	14726
721.602	13436
721.718	12247
721.834	12518
721.950	12778
722.066	12184
722.181	12588
722.297	12094
722.413	12353
722.529	12395
722.645	12075
722.761	12286
722.877	14221
722.993	19200
723.108	28231
723.224	16980
723.340	13842
723.456	11683
723.571	11312
723.687	10757
723.803	12268
723.918	11034
724.034	10405
724.150	11091
724.265	11474
724.381	10723
724.497	11827
724.612	11172
724.728	10365
724.843	10101
724.959	11430
725.074	12318
725.190	11876
725.305	9916
725.421	9737
725.536	11148
725.651	11766
725.767	10130
725.882	10393
725.997	10123
726.113	10663
726.228	9878
726.343	10262
726.459	10207
726.574	11021
726.689	9874
726.804	10839
726.920	9963
727.035	10389
727.150	9901
727.265	9525
727.380	10781
727.495	11151
727.610	9588
727.725	9882
727.841	10345
727.956	11330
728.071	9975
728.186	9709
728.301	9312
728.416	11388
728.531	10340
728.645	10626
728.760	10084
728.875	11208
728.990	10589
729.105	11014
729.220	10641
729.335	11035
729.449	10061
729.564	10080
729.679	8999
729.794	12115
729.908	9901
730.023	10283
730.138	10692
730.253	12138
730.367	9555
730.482	10713
730.596	11692
730.711	15365
730.826	18449
730.940	16590
731.055	15028
731.169	15549
731.284	16289
731.398	16025
731.513	17794
731.627	21983
731.742	29004
731.856	33669
731.970	37982
732.085	53354
732.199	89479
732.313	191591
732.428	577484
732.542	1368527
732.656	470988
732.771	94918
732.885	56977
732.999	49274
733.113	47317
733.227	44201
733.342	41545
733.456	39573
733.570	38404
733.684	35727
733.798	33358
733.912	34476
734.026	34154
734.140	34229
734.254	32314
734.368	32828
734.482	33328
734.596	31589
734.710	29333
734.824	29722
734.938	31013
735.052	30329
735.166	28916
735.280	29055
735.393	27737
735.507	29221
735.621	27398
735.735	28223
735.849	29344
735.962	27173
736.076	28990
736.190	27281
736.303	27450
736.417	28005
736.531	26674
736.644	26444
736.758	26611
736.872	26377
736.985	26196
737.099	24738
737.212	24984
737.326	24793
737.439	26907
737.553	22753
737.666	25049
737.780	23975
737.893	24349
738.007	24828
738.120	25222
738.233	23231
738.347	22860
738.460	23922
738.573	23678
738.687	23676
738.800	23610
738.913	25176
739.026	23352
739.140	22961
739.253	22941
739.366	22688
739.479	22625
739.592	21620
739.705	20642
739.818	25442
739.932	19948
740.045	24424
740.158	20929
740.271	24247
740.384	21361
740.497	20312
740.610	21880
740.723	20813
740.836	21169
740.949	22257
741.062	23518
741.174	19699
741.287	21527
741.400	20495
741.513	19591
741.626	22280
741.739	18822
741.851	19791
741.964	21243
742.077	19018
742.189	19235
742.302	23072
742.415	19387
742.527	20743
742.640	18550
742.753	17356
742.865	20242
742.978	17788
743.090	17040
743.203	20391
743.316	16994
743.428	19034
743.541	17866
743.653	16445
743.766	18399
743.878	17540
743.990	16701
744.103	21130
744.215	19374
744.327	17697
744.440	21104
744.552	15961
744.664	16581
744.777	19138
744.889	15228
745.001	15955
745.113	18931
745.226	16232
745.338	15488
745.450	18803
745.562	15229
745.674	15666
745.786	17713
745.898	16095
746.010	15846
746.122	16802
746.234	16024
746.347	16173
746.459	15377
746.570	15120
746.682	20269
746.794	24315
746.906	15917
747.018	16662
747.130	16039
747.242	13089
747.354	15190
747.466	16441
747.577	12664
747.689	15607
747.801	14634
747.913	13917
748.024	13054
748.136	14007
748.248	12737
748.359	13657
748.471	15141
748.583	12206
748.694	13328
748.806	15248
748.918	12752
749.029	13777
749.141	14583
749.252	13899
749.364	12342
749.475	13538
749.587	12561
749.698	12309
749.809	13697
749.921	13461
750.032	11150
750.144	12006
750.255	12050
750.366	12840
750.478	12376
750.589	11824
750.700	10991
750.811	13458
750.923	11271
751.034	13656
751.145	14690
751.256	11490
751.367	10789
751.479	11304
751.590	11258
751.701	10464
751.812	9340
751.923	11014
752.034	15337
752.145	12828
752.256	12042
752.367	11215
752.478	10924
752.589	12486
752.700	10880
752.811	11781
752.922	11075
753.032	12955
753.143	12686
753.254	12321
753.365	15950
753.476	13500
753.586	10955
753.697	11604
753.808	10434
753.919	10875
754.029	10321
754.140	10678
754.251	10599
754.361	12045
754.472	11994
754.582	10837
754.693	11711
754.804	13457
754.914	10247
755.025	9767
755.135	10364
755.246	11950
755.356	9368
755.466	9332
755.577	9714
755.687	10675
755.798	10332
755.908	9281
756.018	10207
756.129	10317
756.239	11389
756.349	12009
756.460	14986
756.570	14129
756.680	11867
756.790	11793
756.900	10635
757.011	10059
757.121	9265
757.231	10578
757.341	9801
757.451	10249
757.561	8684
757.671	11510
757.781	10410
757.891	10049
758.001	9107
758.111	10958
758.221	13099
758.331	13818
758.441	12703
758.551	13640
758.661	14871
758.771	15655
758.880	13480
758.990	13223
759.100	12701
759.210	13284
759.320	13941
759.429	14817
759.539	15771
759.649	19778
759.758	21881
759.868	22977
759.978	23201
760.087	25156
760.197	24450
760.307	23652
760.416	20166
760.526	18705
760.635	21219
760.745	24282
760.854	28172
760.964	31774
761.073	29058
761.182	25965
761.292	20931
761.401	17199
761.511	14129
761.620	13815
761.729	13043
761.839	11285
761.948	12000
762.057	11596
762.166	11905
762.276	10761
762.385	12716
762.494	11722
762.603	11362
762.712	12286
762.822	10259
762.931	9950
763.040	9932
763.149	9811
763.258	10014
763.367	11144
763.476	10677
763.585	10634
763.694	10598
763.803	11292
763.912	11593
764.021	10439
764.130	11303
764.238	13157
764.347	14480
764.456	15744
764.565	13577
764.674	13136
764.783	13683
764.891	15094
765.000	15566
765.109	17151
765.217	18546
765.326	20773
765.435	25867
765.543	30315
765.652	33883
765.761	45303
765.869	61871
765.978	100161
766.086	172313
766.195	353938
766.303	798356
766.412	1177646
766.520	962002
766.629	364397
766.737	159904
766.846	96396
766.954	66889
767.062	50785
767.171	36430
767.279	30936
767.387	26067
767.496	22955
767.604	20153
767.712	19108
767.820	18267
767.928	16770
768.037	15247
768.145	16935
768.253	14955
768.361	15549
768.469	14249
768.577	14016
768.685	16704
768.793	17504
768.901	17663
769.009	20268
769.117	22703
769.225	30585
769.333	44153
769.441	71980
769.549	135885
769.657	320200
769.765	795571
769.873	951746
769.981	374360
770.088	120520
770.196	66029
770.304	47330
770.412	35690
770.519	29417
770.627	24166
770.735	20739
770.842	19403
770.950	19516
771.058	18870
771.165	21724
771.273	20554
771.380	21801
771.488	28878
771.595	29881
771.703	24784
771.810	24682
771.918	26343
772.025	30994
772.133	32394
772.240	31768
772.348	35243
772.455	31954
772.562	30194
772.670	28647
772.777	29359
772.884	29813
772.991	27975
773.099	29692
773.206	26509
773.313	28093
773.420	27456
773.528	27216
773.635	26259
773.742	27450
773.849	24963
773.956	25924
774.063	26480
774.170	25599
774.277	26793
774.384	24913
774.491	23953
774.598	25504
774.705	24402
774.812	24233
774.919	23633
775.026	23163
775.133	24730
775.239	22858
775.346	22083
775.453	24604
775.560	21033
775.667	24485
775.773	19793
775.880	23662
775.987	20263
776.093	23575
776.200	22834
776.307	17326
776.413	20543
776.520	24559
776.627	18818
776.733	19292
776.840	19783
776.946	27020
777.053	26346
777.159	36783
777.266	26318
777.372	33614
777.478	32358
777.585	23112
777.691	17661
777.798	22097
777.904	16962
778.010	20065
778.117	19126
778.223	18770
778.329	18337
778.435	17089
778.542	19767
778.648	16940
778.754	16603
778.860	19134
778.966	16855
779.072	17438
779.178	17897
779.284	14771
779.391	17405
779.497	16999
779.603	19109
779.708	16249
779.815	21468
779.920	44133
780.026	36134
780.132	18954
780.238	14539
780.344	15141
780.450	20078
780.556	12535
780.661	16877
780.767	17068
780.873	11292
780.979	15166
781.085	16065
781.190	14616
781.296	14706
781.402	16110
781.507	14246
781.613	11995
781.719	15672
781.824	16197
781.930	11377
782.035	16567
782.141	14228
782.246	11225
782.352	13000
782.457	14459
782.563	14383
782.668	14610
782.773	11689
782.879	11801
782.984	14179
783.090	12363
783.195	14842
783.300	13944
783.405	10930
783.511	10755
783.616	12465
783.721	13636
783.826	10447
783.932	12148
784.037	12599
784.142	13450
784.247	12237
784.352	12244
784.457	8972
784.562	14275
784.667	12446
784.772	9548
784.877	10123
784.982	13943
785.087	11777
785.192	10543
785.297	11666
785.402	13369
785.507	11460
785.611	10062
785.716	8588
785.821	11870
785.926	11066
786.031	10617
786.135	10759
786.240	11328
786.345	7592
786.450	10054
786.554	10176
786.659	10514
786.763	9565
786.868	10197
786.973	11259
787.077	8917
787.182	8447
787.286	11638
787.391	11346
787.495	6851
787.600	8086
787.704	10343
787.809	9676
787.913	8707
788.017	9974
788.122	11123
788.226	8219
788.330	6812
788.435	10030
788.539	10337
788.643	6444
788.747	6998
788.852	9385
788.956	8391
789.060	10234
789.164	9476
789.268	8938
789.372	9689
789.476	8295
789.580	6238
789.684	8844
789.788	10585
789.892	7979
789.996	6832
790.100	6946
790.204	9738
790.308	9460
790.412	6422
790.516	5847
790.620	8579
790.724	9878
790.828	7709
790.931	4569
791.035	8007
791.139	7843
791.242	7704
791.346	8189
791.450	8522
791.554	6158
791.657	5730
791.761	7638
791.864	9069
791.968	8852
792.072	7779
792.175	6224
792.279	7177
792.382	5870
792.486	6556
792.589	6237
792.693	8595
792.796	5188
792.899	7818
793.003	7825
793.106	6579
793.209	6205
793.313	7172
793.416	3659
793.519	6452
793.623	9599
793.726	7906
793.829	5281
793.932	4454
794.035	4761
794.138	10116
794.242	7663
794.345	5134
794.448	5912
794.551	9316
794.654	19362
794.757	18299
794.860	6523
794.963	7614
795.066	5313
795.169	7382
795.272	6085
795.375	7738
795.477	3796
795.580	5566
795.683	4757
795.786	7470
795.889	5182
795.991	5800
796.094	5938
796.197	5256
796.300	8664
796.402	6844
796.505	4754
796.608	4726
796.710	7145
796.813	9142
796.915	8937
797.018	8052
797.120	7416
797.223	6269
797.326	7341
797.428	4098
797.530	4366
797.633	7454
797.735	8711
797.838	8094
797.940	8958
798.042	5723
798.145	5161
798.247	5226
798.349	3501
798.452	6275
798.554	8183
798.656	8719
798.758	9141
798.860	6957
798.962	5526
799.065	5049
799.167	4452
799.269	7958
799.371	9871
799.473	11583
799.575	7686
799.677	6201
799.779	6858
799.881	5718
799.983	7256
800.085	5507
800.187	5675
800.289	5229
800.390	5698
800.492	6969
800.594	5867
800.696	4351
800.798	5360
800.899	4965
801.001	4695
801.103	6639
801.205	6512
801.306	6701
801.408	4278
801.509	5725
801.611	5145
801.713	5450
801.814	3109
801.916	4365
802.017	3086
802.119	3837
802.220	4350
802.322	3290
802.423	5294
802.525	2322
802.626	4652
802.727	6541
802.829	5287
802.930	2526
803.031	5254
803.133	4481
803.234	5275
803.335	4954
803.436	3034
803.538	5061
803.639	2474
803.740	5686
803.841	3495
803.942	5763
804.043	4585
804.144	4723
804.245	4245
804.346	4191
804.447	3924
804.548	5129
804.649	5452
804.750	2985
804.851	4133
804.952	4138
805.053	3344
805.154	2333
805.255	4440
805.355	4335
805.456	2644
805.557	3385
805.658	2826
805.758	3825
805.859	3717
805.960	3787
806.061	2915
806.161	3864
806.262	2566
806.362	2243
806.463	3073
806.564	4901
806.664	3118
806.765	3329
806.865	2936
806.966	2564
807.066	2253
807.166	4763
807.267	3802
807.367	2889
807.468	3545
807.568	1438
807.668	3952
807.769	4686
807.869	3148
807.969	3844
808.069	3085
808.170	3542
808.270	3537
808.370	3948
808.470	3548
808.570	2671
808.670	2200
808.770	3482
808.870	2008
808.970	3783
809.070	2996
809.170	4379
809.271	4323
809.370	3132
809.470	3391
809.570	2983
809.670	2901
809.770	3431
809.870	3498
809.970	3424
810.070	3043
810.169	3781
810.269	2088
810.369	3835
810.469	3894
810.568	2876
810.668	2463
810.768	2971
810.867	3091
810.967	3041
811.066	2476
811.166	3312
811.265	3969
811.365	3492
811.464	2389
811.564	4027
811.663	3347
811.763	2651
811.862	4384
811.962	4091
812.061	2498
812.160	3614
812.260	2697
812.359	3456
812.458	3469
812.557	6925
812.657	4438
812.756	4535
812.855	3035
812.954	3394
813.053	3332
813.153	3263
813.252	2122
813.351	4158
813.450	4093
813.549	3537
813.648	2632
813.747	3603
813.846	4396
813.945	3833
814.044	3930
814.143	4529
814.242	3662
814.341	3427
814.439	4345
814.538	4595
814.637	4396
814.736	5313
814.835	5859
814.933	5709
815.032	7925
815.131	11541
815.229	19570
815.328	22911
815.427	16663
815.525	14635
815.624	14579
815.722	16468
815.821	15445
815.919	17247
816.018	14830
816.116	15314
816.215	15016
816.313	18006
816.412	21168
816.510	21080
816.609	23013
816.707	24918
816.805	20638
816.904	21933
817.002	22159
817.100	22684
817.198	24775
817.296	20181
817.395	21730
817.493	19133
817.591	18803
817.689	19210
817.787	18665
817.885	18274
817.983	18271
818.081	20093
818.179	24305
818.277	34216
818.375	23990
818.473	20651
818.571	16623
818.669	20379
818.767	20520
818.865	16113
818.963	15333
819.061	18181
819.158	18612
819.256	25201
819.354	29295
819.452	41743
819.549	23431
819.647	20193
819.745	14209
819.842	16775
819.940	16381
820.038	15748
820.135	14948
820.233	18481
820.330	15238
820.428	15074
820.525	16728
820.623	14667
820.720	13486
820.818	15942
820.915	15184
821.012	13877
821.110	14025
821.207	15240
821.304	13324
821.402	16617
821.499	16467
821.596	16682
821.693	16709
821.791	15187
821.888	14309
821.985	16083
822.082	10917
822.179	16604
822.276	15726
822.373	12303
822.470	13027
822.567	13887
822.664	10374
822.761	14820
822.858	13631
822.955	12077
823.052	11550
823.149	13594
823.246	12322
823.343	9855
823.440	11400
823.536	14577
823.633	11354
823.730	11773
823.827	12879
823.923	11139
824.020	11862
824.117	14939
824.213	12607
824.310	11504
824.407	10498
824.503	13989
824.600	9684
824.696	11764
824.793	14690
824.889	16384
824.986	10781
825.082	9200
825.179	10287
825.275	14706
825.371	13098
825.468	9542
825.564	7753
825.660	14852
825.757	14496
825.853	10188
825.949	8023
826.045	9652
826.142	10290
826.238	11263
826.334	11825
826.430	8689
826.526	6606
826.622	8657
826.718	13479
826.814	13069
826.910	8884
827.006	6441
827.102	6078
827.198	11489
827.294	11292
827.390	10820
827.486	7447
827.582	6898
827.678	8386
827.774	11439
827.869	6715
827.965	8382
828.061	7970
828.157	13067
828.252	10717
828.348	7669
828.444	7636
828.539	9086
828.635	9908
828.731	9823
828.826	7471
828.922	10766
829.017	12226
829.113	11277
829.208	8200
829.304	9852
829.399	12750
829.495	8843
829.590	8763
829.685	9491
829.781	11437
829.876	9239
829.971	5182
830.066	6481
830.162	9730
830.257	12421
830.352	7428
830.447	6390
830.543	7956
830.638	10256
830.733	10010
830.828	7892
830.923	9296
831.018	10411
831.113	10724
831.208	5781
831.303	4323
831.398	6051
831.493	9410
831.588	12366
831.683	6574
831.778	6598
831.873	7049
831.967	11015
832.062	9538
832.157	7159
832.252	7068
832.346	8344
832.441	9406
832.536	7567
832.631	7642
832.725	5989
832.820	7749
832.914	7415
833.009	5655
833.104	5334
833.198	6577
833.293	8158
833.387	8879
833.482	8326
833.576	7308
833.670	8250
833.765	9806
833.859	10257
833.954	8578
834.048	7872
834.142	6353
834.237	5455
834.331	7570
834.425	7809
834.519	5456
834.613	5746
834.708	5289
834.802	6168
834.896	6517
834.990	5892
835.084	4601
835.178	5678
835.272	6455
835.366	8222
835.460	8044
835.554	5862
835.648	4687
835.742	3676
835.836	5463
835.930	6408
836.024	6783
836.117	6365
836.211	4793
836.305	4754
836.399	4815
836.493	5309
836.586	6712
836.680	5791
836.774	3687
836.867	5087
836.961	4520
837.055	3928
837.148	4790
837.242	5470
837.335	5830
837.429	4850
837.522	3653
837.616	4742
837.709	5392
837.803	4445
837.896	7280
837.989	5924
838.083	3728
838.176	3947
838.269	3424
838.363	5590
838.456	4597
838.549	6841
838.642	4161
838.735	5601
838.829	5147
838.922	4604
839.015	4690
839.108	3970
839.201	4646
839.294	5717
839.387	3889
839.480	3467
839.573	2916
839.666	3207
839.759	4731
839.852	4053
839.945	4699
840.038	4303
840.131	2342
840.223	4142
840.316	4087
840.409	6521
840.502	4725
840.594	5140
840.687	1972
840.780	2705
840.873	2177
840.965	3478
841.058	5326
841.150	6002
841.243	3005
841.336	4744
841.428	3678
841.521	4284
841.613	3696
841.706	3411
841.798	3701
841.890	4918
841.983	2613
842.075	3203
842.167	3024
842.260	4452
842.352	6079
842.444	3996
842.537	2778
842.629	3700
842.721	2016
842.813	5191
842.905	3128
842.997	4541
843.090	3440
843.182	3236
843.274	2446
843.366	4243
843.458	6147
843.550	5480
843.642	3353
843.734	3662
843.826	1916
843.918	3271
844.009	3893
844.101	2383
844.193	3865
844.285	4724
844.377	4221
844.469	4975
844.560	5641
844.652	5894
844.744	3695
844.835	3598
844.927	4435
845.019	3252
845.110	2660
845.202	4953
845.293	2788
845.385	2654
845.476	3382
845.568	4491
845.659	3181
845.751	2810
845.842	2741
845.934	4265
846.025	3092
846.116	3328
846.208	2635
846.299	2470
846.390	1851
846.482	2507
846.573	3612
846.664	3638
846.755	3595
846.846	3642
846.937	1354
847.029	3006
847.120	2657
847.211	3201
847.302	4571
847.393	2965
847.484	2510
847.575	2434
847.666	1800
847.757	2651
847.847	3725
847.938	3731
848.029	4419
848.120	3176
848.211	2989
848.302	2533
848.392	3054
848.483	3523
848.574	3727
848.664	4080
848.755	3747
848.846	3801
848.936	3761
849.027	5978
849.118	6602
849.208	8152
849.299	14640
849.389	28535
849.480	57102
849.570	109300
849.661	217308
849.751	262714
849.841	73218
849.932	15140
850.022	7797
850.112	7670
850.203	5025
850.293	4047
850.383	4497
850.474	4071
850.564	2709
850.654	3005
850.744	3655
850.834	4433
850.924	4194
851.014	6340
851.104	4256
851.194	3102
851.284	2607
851.374	4062
851.464	3299
851.554	4253
851.644	3398
851.734	4443
851.824	4175
851.914	3685
852.004	4526
852.094	2707
852.183	2384
852.273	4757
852.363	3090
852.452	5149
852.542	3489
852.632	3795
852.721	4267
852.811	5331
852.901	7196
852.990	7238
853.080	6918
853.169	8497
853.259	9882
853.348	11161
853.438	15662
853.527	22473
853.617	34747
853.706	61393
853.795	112309
853.885	214950
853.974	362818
854.063	614261
854.152	658274
854.242	265164
854.331	82478
854.420	40908
854.509	28433
854.598	20986
854.687	15213
854.777	13549
854.866	10046
854.955	9506
855.044	6298
855.133	7374
855.222	6055
855.311	5790
855.400	4934
855.488	5494
855.577	4459
855.666	3948
855.755	4921
855.844	5016
855.933	4520
856.021	4411
856.110	3533
856.199	3121
856.288	2428
856.376	3245
856.465	2928
856.554	4199
856.642	3630
856.731	4259
856.819	3799
856.908	3936
856.996	2736
857.085	2503
857.173	2016
857.262	2297
857.350	2581
857.438	2900
857.527	2840
857.615	2511
857.703	3980
857.792	3084
857.880	2493
857.968	2865
858.056	2350
858.145	3492
858.233	3270
858.321	2915
858.409	2798
858.497	4124
858.585	1722
858.673	2662
858.761	1699
858.849	2333
858.937	1950
859.025	3755
859.113	3441
859.201	3342
859.289	4557
859.377	3711
859.465	3280
859.552	3159
859.640	2051
859.728	2991
859.816	2875
859.903	2674
859.991	1837
860.079	2930
860.166	2484
860.254	3510
860.342	3747
860.429	2843
860.517	2650
860.604	3243
860.692	1372
860.779	2448
860.867	2147
860.954	3537
861.042	3547
861.129	3185
861.216	4141
861.304	3401
861.391	2843
861.478	2787
861.565	2593
861.653	3248
861.740	1963
861.827	2624
861.914	2689
862.001	2386
862.089	3469
862.176	3498
862.263	1806
862.350	3458
862.437	2001
862.524	2415
862.611	4850
862.698	3967
862.785	4761
862.871	6838
862.958	4114
863.045	3667
863.132	2627
863.219	3423
863.306	2185
863.392	4185
863.479	3329
863.566	4064
863.652	3361
863.739	3972
863.826	3740
863.912	5122
863.999	4090
864.086	4200
864.172	5461
864.259	5534
864.345	4910
864.432	6166
864.518	5219
864.604	6117
864.691	5627
864.777	7453
864.863	9276
864.950	13693
865.036	18602
865.122	28342
865.209	27325
865.295	25785
865.381	26025
865.467	29130
865.553	34481
865.639	47170
865.726	71631
865.812	126192
865.898	203671
865.984	299913
866.070	493370
866.156	394647
866.242	130805
866.328	52094
866.414	33824
866.499	30850
866.585	26158
866.671	24023
866.757	23296
866.843	22499
866.928	19702
867.014	19775
867.100	18859
867.186	19176
867.271	18648
867.357	18278
867.442	17575
867.528	18624
867.614	17504
867.699	18116
867.785	18554
867.870	18367
867.956	21343
868.041	18157
868.127	16483
868.212	18223
868.297	18612
868.383	17202
868.468	16557
868.553	17146
868.639	15929
868.724	16452
868.809	16614
868.894	14684
868.979	15415
869.065	14637
869.150	12382
869.235	15602
869.320	15040
869.405	13249
869.490	16781
869.575	14486
869.660	11923
869.745	17090
869.830	14884
869.915	12322
870.000	13737
870.085	13623
870.169	17742
870.254	15712
870.339	10195
870.424	12693
870.509	14184
870.593	15866
870.678	14333
870.763	13100
870.847	12844
870.932	15168
871.016	13665
871.101	11094
871.186	16040
871.270	16046
871.355	9194
871.439	13495
871.523	13651
871.608	10718
871.692	11533
871.777	15872
871.861	13094
871.945	12750
872.030	12613
872.114	12450
872.198	10135
872.282	11580
872.367	10971
872.451	11182
872.535	11445
872.619	11717
872.703	11601
872.787	12958
872.871	11336
872.955	8807
873.039	8271
873.123	12074
873.207	11191
873.291	8316
873.375	11416
873.459	12569
873.543	11287
873.627	10724
873.711	9979
873.794	13260
873.878	10174
873.962	8941
874.045	9872
874.129	10600
874.137	10647
874.213	11112
874.245	10429
874.296	9326
874.352	8822
874.380	8584
874.460	9165
874.464	9188
874.547	9098
874.568	9677
874.631	11395
874.676	10468
874.714	9666
874.784	10941
874.798	11205
874.881	8320
874.892	8279
874.965	8065
874.999	9345
875.048	11032
875.107	10861
875.131	10791
875.215	7084
875.215	7085
875.298	7572
875.323	8617
875.381	11151
875.430	12317
875.465	12981
875.538	9889
875.548	9472
875.631	8365
875.646	8066
875.714	6914
875.753	7944
875.798	9086
875.861	10838
875.881	11322
875.964	7822
875.968	7805
876.047	7801
876.076	8355
876.130	9432
876.183	10155
876.213	10488
876.291	10551
876.296	10540
876.379	8980
876.398	8597
876.462	7428
876.506	7492
876.545	7673
876.613	8566
876.628	8791
876.711	9134
876.721	9476
876.794	11746
876.828	10721
876.877	9096
876.935	7717
876.960	7339
877.043	8034
877.043	8043
877.125	10353
877.150	10714
877.208	10980
877.258	9220
877.291	8087
877.365	7177
877.374	7095
877.456	7682
877.472	7580
877.539	7715
877.579	9412
877.622	10882
877.687	9872
877.704	9642
877.787	10467
877.794	10454
877.869	10287
877.901	10091
877.952	9035
878.008	7014
878.034	6437
878.115	7339
878.117	7371
878.199	8122
878.222	8818
878.282	10523
878.329	11192
878.364	11376
878.437	10043
878.447	9778
878.529	7444
878.544	7211
878.611	7187
878.651	7959
878.694	9022
878.758	10181
878.776	10374
878.858	10347
878.865	10231
878.941	7636
878.972	7136
879.023	7567
879.078	8633
879.105	9177
879.185	10055
879.187	10069
879.269	11018
879.292	10965
879.351	10354
879.399	9240
879.433	8584
879.506	9095
879.516	9205
879.598	9293
879.613	9222
879.680	9226
879.720	10303
879.762	11130
879.827	10105
879.844	9868
879.926	11010
879.933	11024
880.007	11518
880.040	11956
880.089	13021
880.147	17892
880.171	20375
880.253	28826
880.254	28870
880.335	37859
880.360	41146
880.417	58019
880.467	82898
880.499	95023
880.574	93438
880.580	90380
880.662	35163
880.680	27047
880.744	15012
880.787	10849
880.825	10729
880.893	10391
880.907	10193
880.989	9161
881.000	9201
881.070	11176
881.106	11205
881.152	9702
881.213	8092
881.233	8130
881.315	9065
881.319	9124
881.396	9573
881.426	9407
881.478	10076
881.532	11674
881.559	11812
881.639	9616
881.641	9570
881.722	8594
881.745	8477
881.803	9729
881.852	10071
881.885	9383
881.958	8035
881.966	8081
882.047	9787
882.064	9696
882.129	7928
882.171	7362
882.210	7262
882.277	7421
882.291	7821
882.372	10704
882.383	10867
882.454	11029
882.489	11001
882.535	10735
882.596	11646
882.616	11927
882.697	10850
882.702	10784
882.778	7857
882.808	6960
882.859	6999
882.914	7423
882.940	7903
883.020	8932
883.021	8956
883.102	10386
883.127	11013
883.183	12526
883.233	12336
883.264	10454
883.339	6763
883.345	6681
883.426	5871
883.445	5840
883.507	7329
883.551	8491
883.587	9837
883.657	11854
883.668	11936
883.749	11949
883.763	11825
883.830	8571
883.869	6934
883.910	6841
883.975	7504
883.991	7930
884.072	9367
884.081	9563
884.152	12035
884.187	12790
884.233	12992
884.292	12899
884.314	11635
884.394	6506
884.398	6303
884.475	5870
884.504	5583
884.555	6250
884.610	6763
884.636	7555
884.716	10685
884.716	10722
884.797	13405
884.821	13794
884.877	11712
884.927	10229
884.958	9531
885.033	7502
885.038	7424
885.118	6586
885.139	6296
885.199	7361
885.244	8400
885.279	9555
885.350	11626
885.359	11991
885.439	14855
885.456	15218
885.520	11182
885.561	9030
885.600	8970
885.667	9107
885.680	9350
885.760	9969
885.773	10085
885.840	8235
885.878	7374
885.920	8009
885.984	8794
886.000	9093
886.080	10601
886.089	10689
886.160	11747
886.195	12198
886.240	11171
886.300	10145
886.320	10330
886.400	10626
886.406	10626
886.480	8449
886.511	7603
886.560	8369
886.616	9048
886.640	8870
886.720	8582
886.722	8551
886.800	8956
886.827	9165
886.879	9924
886.932	10556
886.959	11035
887.038	12418
887.039	12427
887.119	10863
887.143	10389
887.198	10165
887.248	9797
887.278	9873
887.354	10170
887.358	10214
887.437	10550
887.459	10688
887.517	11212
887.564	11347
887.596	9955
887.669	6921
887.676	6896
887.755	6433
887.774	6315
887.835	6758
887.880	7169
887.914	8645
887.985	11407
887.994	11755
888.073	14887
888.090	15405
888.153	15139
888.195	14945
888.232	12796
888.300	8930
888.311	8884
888.391	8284
888.405	8177
888.470	7878
888.510	7593
888.549	8339
888.615	9878
888.628	10375
888.708	12866
888.720	13233
888.787	12412
888.825	11874
888.866	10158
888.930	7607
888.945	8139
889.024	10780
889.035	11100
889.103	11917
889.140	12329
889.182	11100
889.245	9279
889.261	9511
889.340	10473
889.349	10562
889.419	9663
889.454	9176
889.498	9029
889.559	8817
889.577	9563
889.656	12735
889.664	13023
889.735	11616
889.768	10894
889.814	10830
889.873	10679
889.978	10210
890.083	9568
890.187	12200
890.292	11147
890.397	10319
890.501	8817
890.606	8607
890.710	10876
890.815	13617
890.919	10728
891.024	12196
891.128	10480
891.233	8352
891.337	13354
891.442	12345
891.546	10717
891.650	8076
891.755	7445
891.859	11454
891.963	13115
892.068	11448
892.172	8486
892.276	7245
892.380	10062
892.484	14367
892.589	14530
892.693	11091
892.797	6674
892.901	6368
893.005	9934
893.109	14462
893.213	12130
893.317	9158
893.421	6806
893.525	5830
893.629	7875
893.733	12911
893.837	9348
893.941	8974
894.045	6943
894.148	6101
894.252	8174
894.356	13645
894.460	13797
894.564	8544
894.667	8013
894.771	5351
894.875	6142
894.978	8887
895.082	12208
895.186	10844
895.289	8304
895.393	7768
895.496	11689
895.600	8288
895.703	6883
895.807	8222
895.910	9156
896.014	10053
896.117	7129
896.221	10267
896.324	9243
896.427	6381
896.531	6165
896.634	7948
896.737	8067
896.840	10468
896.944	11183
897.047	11090
897.150	8959
897.253	5738
897.356	6372
897.460	4680
897.563	7776
897.666	11512
897.769	10276
897.872	5864
897.975	7482
898.078	7827
898.181	6411
898.284	7372
898.387	10680
898.490	10679
898.593	6815
898.695	6776
898.798	7375
898.901	6415
899.004	8803
899.107	7909
899.209	9050
899.312	12973
899.415	6602
899.518	5457
899.620	5551
899.723	6581
899.826	8175
899.928	6706
900.031	7899
900.133	10580
900.236	6969
900.338	6073
900.441	6404
900.543	7574
900.646	8224
900.748	7386
900.851	9430
900.953	6614
901.055	6257
901.158	6340
901.260	6136
901.362	5456
901.465	5638
901.567	9308
901.669	9062
901.771	7555
901.873	7323
901.976	7933
902.078	6923
902.180	5419
902.282	6335
902.384	7613
902.486	11128
902.588	7590
902.690	5995
902.792	5333
902.894	8086
902.996	8384
903.098	7981
903.200	5334
903.302	5484
903.404	5302
903.505	5647
903.607	6475
903.709	11813
903.811	10036
903.913	7021
904.014	4601
904.116	4950
904.218	4977
904.319	7709
904.421	11546
904.523	8819
904.624	6492
904.726	5598
904.827	4731
904.929	5213
905.030	6625
905.132	10807
905.233	8139
905.335	6225
905.436	4664
905.537	4619
905.639	5949
905.740	8148
905.841	9341
905.943	7334
906.044	6439
906.145	4819
906.247	4964
906.348	5623
906.449	6274
906.550	7369
906.651	5536
906.752	6093
906.854	5257
906.955	5877
907.056	7188
907.157	9730
907.258	8345
907.359	4667
907.460	4316
907.561	5225
907.662	5151
907.762	6435
907.863	7644
907.964	8405
908.065	6878
908.166	5192
908.267	6617
908.367	5081
908.468	4640
908.569	7465
908.670	7513
908.770	6962
908.871	8347
908.971	7748
909.072	6292
909.173	5448
909.273	6073
909.374	9012
909.474	7044
909.575	5558
909.675	6816
909.776	8361
909.876	6626
909.977	6420
910.077	8077
910.177	10295
910.278	6783
910.378	6289
910.478	7046
910.579	8832
910.679	8078
910.779	8001
910.879	8372
910.980	8151
911.080	7522
911.180	5256
911.280	5526
911.380	4134
911.480	5945
911.580	6771
911.680	6578
911.780	8446
911.880	7334
911.980	5642
912.080	5984
912.180	5917
912.280	6518
912.380	5578
912.480	4411
912.580	5565
912.679	5993
912.779	8344
912.879	6497
912.979	5886
913.078	4672
913.178	4354
913.278	4725
913.377	5655
913.477	4807
913.577	6073
913.676	7851
913.776	8852
913.875	5752
913.975	5562
914.074	6433
914.174	7317
914.273	4588
914.373	6320
914.472	5110
914.572	5085
914.671	5502
914.770	5908
914.870	5357
914.969	6350
915.068	7944
915.167	6964
915.267	5660
915.366	6190
915.465	6765
915.564	5852
915.663	6213
915.763	7185
915.862	9218
915.961	7896
916.060	5579
916.159	5334
916.258	5119
916.357	6510
916.456	7192
916.555	7126
916.654	7543
916.752	9222
916.851	7044
916.950	5439
917.049	5872
917.148	5439
917.247	5586
917.345	5236
917.444	4800
917.543	6523
917.642	6889
917.740	8407
917.839	10339
917.937	10573
918.036	8150
918.135	6424
918.233	5762
918.332	5459
918.430	6081
918.529	6486
918.627	6974
918.726	9486
918.824	6961
918.923	6643
919.021	6712
919.119	5297
919.218	5928
919.316	7250
919.414	7215
919.512	8609
919.611	8603
919.709	8724
919.807	10415
919.905	10798
920.003	9938
920.102	9689
920.200	9719
920.298	12142
920.396	10151
920.494	9592
920.592	8469
920.690	10317
920.788	8495
920.886	10720
920.984	11163
921.082	12624
921.180	12234
921.277	12703
921.375	15739
921.473	20101
921.571	18448
921.669	17244
921.766	14683
921.864	16776
921.962	15952
922.060	16224
922.157	16990
922.255	16811
922.352	17209
922.450	18949
922.548	19338
922.645	23044
922.743	30329
922.840	46353
922.938	46601
923.035	41356
923.133	42386
923.230	49606
923.327	57486
923.425	50593
923.522	50547
923.619	44998
923.717	42277
923.814	42180
923.911	41498
924.008	43729
924.106	40044
924.203	39532
924.300	42668
924.397	40876
924.494	41255
924.591	39990
924.688	40139
924.786	40208
924.883	41058
924.979	42278
925.077	39603
925.173	39332
925.270	39375
925.367	40600
925.464	42998
925.561	45646
925.658	44253
925.755	41143
925.852	44200
925.948	40900
926.045	38742
926.142	43421
926.239	39282
926.335	33675
926.432	39999
926.529	41633
926.625	42317
926.722	32403
926.818	37107
926.915	39970
927.011	36176
927.108	38054
927.204	35899
927.301	33759
927.397	42013
927.494	40222
927.590	27610
927.687	34872
927.783	42737
927.879	38304
927.976	32148
928.072	32140
928.168	38735
928.264	34488
928.361	35414
928.457	38252
928.553	31522
928.649	35068
928.745	32850
928.841	30315
928.937	35622
929.033	32764
929.129	33463
929.225	37244
929.321	30655
929.417	31442
929.513	35483
929.609	29740
929.705	32579
929.801	34080
929.897	29061
929.993	30319
930.089	31214
930.184	28314
930.280	33919
930.376	37549
930.471	27402
930.567	26712
930.663	29784
930.758	27873
930.854	29060
930.950	29038
931.045	24782
931.141	29017
931.236	36074
931.332	27331
931.427	26555
931.523	35600
931.618	28329
931.714	21244
931.809	27769
931.905	30352
932.000	20803
932.095	24007
932.191	34894
932.286	35610
932.381	25630
932.476	24198
932.572	26006
932.667	24160
932.762	24775
932.857	29208
932.952	32704
933.047	26333
933.142	23205
933.237	27458
933.332	29476
933.427	29748
933.522	23602
933.617	23213
933.712	25094
933.807	33136
933.902	32181
933.997	29920
934.092	22349
934.187	26553
934.282	26540
934.376	28356
934.471	27433
934.566	22531
934.661	23468
934.755	28715
934.850	27987
934.945	22825
935.039	20848
935.134	19375
935.228	28345
935.323	33591
935.417	19399
935.512	17802
935.606	19958
935.701	27126
935.795	27114
935.890	23137
935.984	19316
936.079	19231
936.173	22535
936.267	20751
936.362	19208
936.456	26260
936.550	28716
936.644	22736
936.738	18220
936.833	17909
936.927	16070
937.021	21998
937.115	23919
937.209	25437
937.303	19864
937.397	17794
937.491	21564
937.585	25174
937.679	21821
937.773	17754
937.867	16086
937.961	19622
938.055	26522
938.149	19642
938.243	14732
938.337	15220
938.430	20605
938.524	25894
938.618	18629
938.712	16725
938.805	18660
938.899	24418
938.993	25906
939.086	14807
939.180	13750
939.274	18142
939.367	24056
939.461	21896
939.554	17431
939.648	16383
939.741	18095
939.835	22473
939.928	25804
940.022	22904
940.115	18886
940.208	23151
940.302	26062
940.395	25787
940.488	18179
940.582	18343
940.675	15801
940.768	17593
940.861	24312
940.954	21738
941.048	13003
941.141	14444
941.234	17062
941.327	19487
941.420	20889
941.513	20183
941.606	15385
941.699	18110
941.792	22749
941.885	19501
941.978	20253
942.071	18570
942.164	13425
942.257	14634
942.349	18118
942.442	18938
942.535	13710
942.628	14870
942.721	17216
942.813	17505
942.906	17951
942.999	15508
943.091	14584
943.184	16699
943.277	15312
943.369	11357
943.462	11657
943.554	16410
943.647	16038
943.739	21330
943.832	17306
943.924	9785
944.017	11967
944.109	13854
944.201	14652
944.294	13990
944.386	16124
944.478	13766
944.571	12754
944.663	13755
944.755	16062
944.847	17734
944.940	14511
945.032	9969
945.124	11707
945.216	15265
945.308	16290
945.400	14162
945.492	15152
945.584	19661
945.676	18129
945.768	15292
945.860	18122
945.952	18800
946.044	14367
946.136	12695
946.228	13691
946.320	13400
946.412	15530
946.503	18167
946.595	16142
946.687	12136
946.779	10654
946.870	12349
946.962	10752
947.054	12994
947.145	14693
947.237	12865
947.329	15387
947.420	14000
947.512	11663
947.603	10638
947.695	11969
947.786	11045
947.878	12805
947.969	14852
948.061	16601
948.152	12536
948.243	9787
948.335	9194
948.426	10863
948.517	14455
948.609	14382
948.700	13501
948.791	12029
948.882	9554
948.973	10400
949.065	13405
949.156	10880
949.247	9276
949.338	10325
949.429	8242
949.520	10572
949.611	13726
949.702	12981
949.793	10531
949.884	12513
949.975	9664
950.066	7798
950.157	9028
950.247	10129
950.338	9256
950.429	10391
950.520	9605
950.611	9012
950.701	13569
950.792	14602
950.883	12257
950.973	10721
951.064	14021
951.155	12986
951.245	13143
951.336	13790
951.427	15037
951.517	15186
951.608	12374
951.698	10691
951.788	7898
951.879	8007
951.969	9902
952.060	10065
952.150	13262
952.240	14667
952.331	12935
952.421	11641
952.511	8493
952.602	8710
952.692	7451
952.782	8301
952.872	10930
952.962	10354
953.052	9574
953.143	9153
953.233	9509
953.323	10241
953.413	13322
953.503	11777
953.593	10435
953.683	11040
953.773	8373
953.863	7297
953.953	8508
954.042	11113
954.132	12866
954.222	10621
954.312	9611
954.402	9229
954.492	8687
954.581	11207
954.671	9275
954.761	9408
954.850	9045
954.940	5141
955.030	7860
955.119	7159
955.209	8448
955.298	9581
955.388	11840
955.477	10878
955.567	6873
955.656	8054
955.746	9443
955.835	8114
955.925	7837
956.014	11794
956.103	13638
956.193	14633
956.282	11267
956.371	9921
956.461	10695
956.550	9292
956.639	8269
956.728	8305
956.817	9237
956.906	10300
956.995	10661
957.085	7816
957.174	9140
957.263	8215
957.352	9248
957.441	9464
957.530	8275
957.619	7474
957.708	8908
957.796	8359
957.885	8568
957.974	7875
958.063	7781
958.152	6182
958.241	6976
958.329	7301
958.418	7587
958.507	8179
958.596	10607
958.684	7496
958.773	8902
958.861	6321
958.950	6075
959.039	7585
959.127	8087
959.216	8394
959.304	7535
959.393	8428
959.481	9301
959.570	7498
959.658	6355
959.746	6730
959.835	8129
959.923	7019
960.011	6497
960.100	8084
960.188	9792
960.276	7368
960.365	7194
960.453	5387
960.541	5893
960.629	6351
960.717	5546
960.805	4500
960.893	7454
960.981	9199
961.069	12629
961.158	12383
961.245	13315
961.333	10459
961.421	7940
961.509	8753
961.597	8912
961.685	6795
961.773	8832
961.861	9758
961.949	9378
962.036	5975
962.124	6288
962.212	6207
962.299	6049
962.387	5373
962.475	6642
962.562	6929
962.650	7756
962.738	6635
962.825	5194
962.913	5773
963.000	6812
963.088	7597
963.175	7291
963.263	5516
963.350	7130
963.438	6750
963.525	6422
963.612	7493
963.700	6832
963.787	9046
963.874	7224
963.962	5793
964.049	5501
964.136	5361
964.223	5941
964.310	5325
964.398	5812
964.485	7114
964.572	6896
964.659	5849
964.746	5208
964.833	4945
964.920	5900
965.007	5725
965.094	5673
965.181	7656
965.268	7108
965.355	6653
965.441	6811
965.528	5957
965.615	8319
965.702	7130
965.789	7032
965.875	8243
965.962	7676
966.049	7065
966.136	10885
966.222	9710
966.309	11298
966.395	9137
966.482	9248
966.569	8451
966.655	8281
966.742	6357
966.828	7046
966.915	6071
967.001	5317
967.087	4462
967.174	5706
967.260	5938
967.347	7338
967.433	7707
967.519	8751
967.605	7673
967.692	6924
967.778	5924
967.864	5875
967.950	6297
968.036	5657
968.123	7534
968.209	5158
968.295	4854
968.381	6611
968.467	5473
968.553	5537
968.639	8517
968.725	9674
968.811	11186
968.897	7891
968.983	6414
969.069	5298
969.154	3901
969.240	5193
969.326	3959
969.412	4478
969.497	5327
969.583	4698
969.669	8115
969.755	7279
969.840	9097
969.926	14942
970.012	17435
970.097	22248
970.183	13721
970.268	9080
970.354	7813
970.439	5696
970.525	7098
970.610	5488
970.696	6175
970.781	5403
970.866	4692
970.952	5457
971.037	5550
971.122	6722
971.208	5515
971.293	6024
971.378	5582
971.463	5650
971.549	5683
971.634	5249
971.719	6441
971.804	5392
971.889	6280
971.974	5630
972.059	5349
972.144	4972
972.229	6061
972.314	4912
972.399	4868
972.484	4304
972.569	5073
972.654	3748
972.739	5544
972.824	4185
972.908	4489
972.993	4809
973.078	4944
973.163	5445
973.247	5538
973.332	5230
973.417	6899
973.501	5902
973.586	5827
973.671	6162
973.755	5077
973.840	6754
973.924	8061
974.009	10071
974.093	9111
974.178	9058
974.262	7258
974.346	7200
974.431	6159
974.515	6065
974.600	6936
974.684	6609
974.768	5315
974.852	7512
974.937	5059
975.021	6541
975.105	5957
975.189	5023
975.273	6344
975.358	4641
975.442	4859
975.526	6688
975.610	5399
975.694	4696
975.778	5959
975.862	5679
975.946	3759
976.030	8148
976.114	5535
976.198	5630
976.281	5027
976.365	6406
976.449	5052
976.533	5269
976.617	3896
976.700	3759
976.784	4934
976.868	4593
976.951	5427
977.035	5033
977.119	5023
977.202	6291
977.286	7766
977.369	10211
977.453	13712
977.536	10484
977.620	8503
977.703	8469
977.787	6939
977.870	7612
977.953	7634
978.037	4394
978.120	6965
978.203	6764
978.287	7548
978.370	6107
978.453	4964
978.536	5172
978.620	6585
978.703	6542
978.786	5362
978.869	5150
978.952	5126
979.035	8291
979.118	6399
979.201	5761
979.284	6335
979.367	6137
979.450	6388
979.533	5570
979.616	4879
979.699	6098
979.782	5993
979.865	6050
979.948	5165
980.030	4763
980.113	5204
980.196	4965
980.279	5490
980.361	5541
980.444	6196
980.526	9871
980.609	12484
980.692	13118
980.774	10836
980.857	8032
980.939	9787
981.022	7452
981.104	7776
981.187	7297
981.269	8485
981.352	7684
981.434	6466
981.516	6983
981.599	7939
981.681	7470
981.763	6381
981.846	7355
981.928	7374
982.010	6623
982.092	6057
982.174	7808
982.256	6727
982.339	6782
982.421	6157
982.503	6625
982.585	5677
982.667	6739
982.749	6343
982.831	6425
982.913	5450
982.995	8001
983.077	7391
983.158	9165
983.240	6443
983.322	11371
983.404	15609
983.486	12485
983.568	10968
983.649	10967
983.731	10258
983.813	8939
983.894	9136
983.976	8917
984.058	8230
984.139	8764
984.221	7165
984.302	8851
984.384	8469
984.465	8395
984.547	8476
984.628	8345
984.710	8829
984.791	8887
984.872	8382
984.954	8032
985.035	10274
985.116	8735
985.198	7432
985.279	10063
985.360	8027
985.441	7789
985.522	9199
985.604	8504
985.685	6921
985.766	9144
985.847	10481
985.928	8317
986.009	8046
986.090	8074
986.171	9543
986.252	7919
986.333	9319
986.414	8401
986.495	8366
986.576	9234
986.656	9713
986.737	10882
986.818	9749
986.899	9160
986.980	8058
987.060	10760
987.141	10156
987.222	11472
987.302	13298
987.383	13380
987.464	12408
987.544	12306
987.625	12167
987.705	14347
987.786	13860
987.866	11748
987.947	11978
988.027	12550
988.108	11227
988.188	10457
988.268	11305
988.349	12006
988.429	10380
988.509	10461
988.589	9979
988.670	9468
988.750	11972
988.830	10278
988.910	11340
988.990	10875
989.070	9446
989.151	10685
989.231	9196
989.311	9703
989.391	9429
989.471	10536
989.551	9334
989.631	9482
989.711	9905
989.791	9543
989.870	8437
989.950	10072
990.030	9503
990.110	8702
990.190	8029
990.269	9381
990.349	10037
990.429	9831
990.509	8215
990.588	6982
990.668	8522
990.747	8656
990.827	7536
990.907	8638
990.986	9461
991.066	8446
991.145	7082
991.225	9157
991.304	8985
991.383	8222
991.463	8019
991.542	7802
991.622	7125
991.701	7798
991.780	6796
991.859	6536
991.939	6619
992.018	8683
992.097	7717
992.176	6469
992.256	6950
992.335	6808
992.414	7993
992.493	5788
992.572	6020
992.651	7917
992.730	6707
992.809	6815
992.888	6074
992.967	6927
993.046	7313
993.125	4971
993.203	6678
993.282	6780
993.361	6121
993.440	6678
993.519	5572
993.597	5844
993.676	6439
993.755	7334
993.834	6057
993.912	4721
993.991	7635
994.069	5838
994.148	5550
994.226	5035
994.305	5994
994.384	5949
994.462	6971
994.540	4968
994.619	4185
994.697	6403
994.776	5712
994.854	6452
994.932	4203
995.011	5130
995.089	4016
995.167	4117
995.245	5556
995.324	5888
995.402	6499
995.480	4095
995.558	5281
995.636	4031
995.714	4953
995.792	5690
995.870	4013
995.948	4101
996.026	4290
996.104	4282
996.182	4700
996.260	3575
996.338	3814
996.416	4589
996.494	4424
996.572	4880
996.649	3492
996.727	4185
996.805	4560
996.883	4827
996.960	4280
997.038	5067
997.116	4816
997.193	2546
997.271	3113
997.348	2791
997.426	4558
997.504	4002
997.581	5112
997.658	3079
997.736	912
997.813	3066
997.891	4455
997.968	2504
998.046	2902
998.123	4164
998.200	4243
998.277	3775
998.355	4139
998.432	2148
998.509	2918
998.586	4704
998.663	3527
998.741	2954
998.818	2813
998.895	3797
998.972	4176
999.049	4302
999.126	2664
999.203	3288
999.280	3333
999.357	2122
999.434	3000
999.511	3491
999.587	2578
999.664	2577
999.741	2830
999.818	3522
999.895	2815
999.971	2916
1000.048	1891
1000.125	3344
1000.202	2437
1000.278	3204
1000.355	2933
1000.431	2251
1000.508	1047
1000.584	1249
1000.661	2694
1000.738	2578
1000.814	2917
1000.890	3203
1000.967	1957
1001.043	2399
1001.120	1504
1001.196	2679
1001.272	1656
1001.349	1740
1001.425	3161
1001.501	2683
1001.577	1756
1001.654	2347
1001.730	2015
1001.806	2610
1001.882	1421
1001.958	2522
1002.034	2343
1002.110	1511
1002.186	583
1002.262	777
1002.338	1351
1002.414	1786
1002.490	1908
1002.566	2106
1002.642	1089
1002.718	2985
1002.794	2311
1002.870	1693
1002.945	1665
1003.021	847
1003.097	1450
1003.173	2904
1003.248	748
1003.324	1647
1003.400	1812
1003.475	1481
1003.551	894
1003.626	1006
1003.702	825
1003.777	1127
1003.853	-83
1003.928	1081
1004.004	1510
1004.079	1586
1004.155	1645
1004.230	434
1004.305	1585
1004.381	1022
1004.456	123
1004.531	293
1004.607	860
1004.682	547
1004.757	1185
1004.832	400
1004.907	451
1004.982	1478
1005.057	1148
1005.133	1692
1005.208	719
1005.283	789
1005.358	704
1005.433	184
1005.508	889
1005.583	417
1005.657	1391
1005.732	1540
1005.807	162
1005.882	399
1005.957	621
1006.032	804
1006.106	927
1006.181	797
1006.256	914
1006.331	591
1006.405	-528
1006.480	-79
1006.554	34
1006.629	94
1006.704	968
1006.778	4
1006.853	983
1006.927	456
1007.002	48
1007.076	572
1007.150	-528
1007.225	488
1007.299	163
1007.373	-982
1007.448	89
1007.522	3
1007.596	827
1007.671	1281
1007.745	742
1007.819	159
1007.893	-78
1007.967	951
1008.041	321
1008.115	1046
1008.190	251
1008.264	775
1008.338	-653
1008.412	295
1008.486	-483
1008.560	341
1008.633	1018
1008.707	1308
1008.781	1242
1008.855	523
1008.929	95
1009.003	295
1009.076	-657
1009.150	1029
1009.224	75
1009.298	661
1009.371	-333
1009.445	-21
1009.519	219
1009.592	-80
1009.666	-672
1009.739	585
1009.813	-1032
1009.886	805
1009.960	-273
1010.033	677
1010.107	-194
1010.180	-1299
1010.253	-1309
1010.327	-1094
1010.400	95
1010.473	-180
1010.547	135
1010.620	-618
1010.693	-384
1010.766	-695
1010.840	-482
1010.913	-169
1010.986	-728
1011.059	59
1011.132	-764
1011.205	-424
1011.278	-1115
1011.351	-1397
1011.424	-822
1011.497	-932
1011.570	-1056
1011.643	-764
1011.716	-567
1011.789	-1181
1011.862	-658
1011.934	25
1012.007	-1480
1012.080	-668
1012.153	-457
1012.225	62
1012.298	-1404
1012.371	-1151
1012.443	-222
1012.516	-538
1012.588	-333
1012.661	-508
1012.733	-1933
1012.806	-421
1012.879	-1566
1012.951	-628
1013.023	-694
1013.096	-666
1013.168	-1169
1013.241	-873
1013.313	-1521
1013.385	-1098
1013.458	-1676
1013.530	-845
1013.602	-697
1013.674	-575
1013.746	-1668
1013.819	-1423
1013.891	-1034
1013.963	-823
1014.035	-338
1014.107	-889
1014.179	-824
1014.251	-1435
1014.323	-583
1014.395	-505
1014.467	-1814
1014.539	-690
1014.611	-1453
1014.683	-1203
1014.754	-2325
1014.826	-1072
1014.898	-585
1014.970	-1454
1015.042	-961
1015.113	-623
1015.185	-1055
1015.257	-1780
1015.328	-861
1015.400	-359
1015.471	-707
1015.543	-1192
1015.615	-347
1015.686	-1168
1015.757	-1433
1015.829	-592
1015.901	-1032
1015.972	-64
1016.043	-1827
1016.115	-686
1016.186	-2278
1016.257	-2390
1016.328	-1343
1016.400	-124
1016.471	-2076
1016.542	-1600
1016.613	-1635
1016.685	-1001
1016.756	-891
1016.827	-1150
1016.898	-1758
1016.969	-797
1017.040	-1179
1017.111	-1276
1017.182	-1766
1017.253	-1010
1017.324	-1687
1017.395	-1646
1017.466	-2280
1017.537	-2088
1017.608	-1201
1017.678	-1715
1017.749	-1564
1017.820	-1652
1017.891	-1715
1017.961	-1827
1018.032	-712
1018.103	-654
1018.173	-2109
1018.244	-1256
1018.315	-1505
1018.385	-1536
1018.456	-1361
1018.526	-2173
1018.597	-1983
1018.667	-1417
1018.738	-1939
1018.808	-1100
1018.878	-1771
1018.949	-1261
1019.019	-2070
1019.089	-870
1019.160	-1107
1019.230	-1844
1019.300	-1804
1019.371	-2170
1019.441	-1592
1019.511	-1648
1019.581	-1454
1019.651	-1670
1019.721	-2094
1019.791	-1477
1019.861	-1771
1019.931	-1896
1020.001	-1305
1020.071	-1569
1020.141	-1743
1020.211	-1621
1020.281	-2020
1020.351	-2024
1020.421	-1916
1020.491	-1209
1020.560	-2414
1020.630	-1622
1020.700	-2134
1020.770	-1919
1020.839	-2198
1020.909	-1280
1020.979	-1740
1021.048	-1539
1021.118	-1554
1021.187	-2039
1021.257	-1962
1021.326	-1532
1021.396	-1865
1021.465	-1271
1021.535	-1844
1021.604	-1949
1021.674	-2417
1021.743	-1061
1021.812	-2103
1021.882	-538
1021.951	-1537
1022.020	-1468
1022.089	-1128
1022.159	-1261
1022.228	-1267
1022.297	-1936
1022.366	-1850
1022.435	-1751
1022.504	-1669
1022.573	-1776
1022.642	-1562
1022.711	-2028
1022.781	-2087
1022.849	-1667
1022.918	-2294
1022.987	-2368
1023.056	-1118
1023.125	-1961
1023.194	-2212
1023.263	-1036
1023.331	-1206
1023.400	-2078
1023.469	-1094
1023.538	-1580
1023.606	-2134
1023.675	-1353
1023.744	-2167
1023.812	-1095
1023.881	-1897
1023.949	-883
1024.018	-2599
1024.086	-1747
1024.155	-1735
1024.223	-2280
1024.292	-1631
1024.360	-2114
1024.429	-1986
1024.497	-2006
1024.565	-1513
1024.634	-2346
1024.702	-2262
1024.770	-1809
1024.838	-2313
1024.907	-1867
1024.975	-1756
1025.043	-689
1025.111	-1838
1025.179	-1572
1025.247	-1553
1025.315	-1644
1025.383	-1946
1025.451	-1197
1025.519	-2590
1025.587	-2167
1025.655	-1692
1025.723	-1578
1025.791	-2162
1025.859	-1824
1025.927	-1800
1025.995	-2428
1026.062	-2221
1026.130	-1167
1026.198	-2488
1026.266	-2127
1026.333	-1277
1026.401	-1092
1026.469	-2213
1026.536	-1589
1026.604	-1861
1026.671	-1759
1026.739	-1470
1026.806	-1617
1026.874	-1696
1026.941	-2157
1027.009	-1296
1027.076	-1606
1027.144	-1693
1027.211	-1575
1027.278	-2471
1027.345	-2571
1027.413	-2052
1027.480	-1891
1027.547	-1309
1027.614	-1820
1027.682	-1782
1027.749	-2627
1027.816	-1718
1027.883	-1729
1027.950	-970
1028.017	-1993
1028.084	-919
1028.151	-1743
1028.218	-1291
1028.285	-1769
1028.352	-1945
1028.419	-1714
1028.486	-3055
1028.553	-2269
1028.619	-2376
1028.686	-1312
1028.753	-1949
1028.820	-1859
1028.886	-1911
1028.953	-2753
1029.020	-1626
1029.086	-2297
1029.153	-2463
1029.220	-1573
1029.286	-1798
1029.353	-1382
1029.419	-2109
1029.486	-1370
1029.552	-2624
1029.619	-826
1029.685	-2852
1029.751	-1719
1029.818	-1116
1029.884	-1278
1029.951	-1074
1030.017	-2433
1030.083	-2148
1030.149	-1946
1030.216	-1516
1030.282	-1972
1030.348	-1823
1030.414	-1847
1030.480	-1813
1030.546	-1747
1030.612	-1318
1030.678	-1004
1030.744	-2465
1030.810	-2046
1030.876	-1920
1030.942	-2465
1031.008	-1846
1031.074	-2226
1031.140	-2106
1031.206	-980
1031.272	-2656
1031.337	-1545
1031.403	-1977
1031.469	-2014
1031.534	-1896
1031.600	-1941
1031.666	-2381
1031.731	-1663
1031.797	-1817
1031.863	-1972
1031.928	-1827
1031.994	-2267
1032.059	-1607
1032.125	-2244
1032.190	-1986
1032.256	-1845
1032.321	-2236
1032.386	-2087
1032.452	-1230
1032.517	-2225
1032.582	-1671
1032.647	-1849
1032.713	-2118
1032.778	-1728
1032.843	-1385
1032.908	-1583
1032.974	-1627
1033.039	-1751
1033.104	-1347
1033.169	-1322
1033.234	-1204
1033.299	-318
1033.364	-422
1033.429	-827
1033.494	-601
1033.559	-940
1033.624	-1423
1033.688	-1029
1033.753	-1844
1033.818	104
1033.883	751
1033.948	1646
1034.013	1694
1034.077	3434
1034.142	5427
1034.207	9090
1034.271	13804
1034.336	14278
1034.400	7395
1034.465	4521
1034.530	1284
1034.594	-294
1034.658	-733
1034.723	-966
1034.787	-1074
1034.852	-1298
1034.916	-1509
1034.981	-1551
1035.045	-1086
1035.109	-1583
1035.173	-1804
1035.238	-2240
1035.302	-1918
1035.366	-1759
1035.430	-1082
1035.495	-1766
1035.559	-1021
1035.623	-1957
1035.687	-2296
1035.751	-1314
1035.815	-2321
1035.879	-1502
1035.943	-2500
1036.007	-1630
1036.071	-1108
1036.135	-1297
1036.198	-1774
1036.262	-1720
1036.326	-701
1036.390	-1076
1036.454	-1314
1036.517	-507
1036.581	319
1036.645	1351
1036.709	-413
1036.772	-1490
1036.836	-1354
1036.900	-1089
1036.963	-1590
1037.026	-1474
1037.090	-2416
1037.154	-1586
1037.217	-1740
1037.280	-1597
1037.344	-1922
1037.407	-2304
1037.471	-1336
1037.534	-574
1037.597	-340
1037.661	-1025
1037.724	-1092
1037.787	-543
1037.850	-1434
1037.913	-933
1037.977	-1531
1038.040	-2060
1038.103	-3012
1038.166	-2360
1038.229	-1987
1038.292	-2149
1038.355	-1550
1038.418	-1065
1038.481	-1691
1038.544	-1993
1038.607	-1142
1038.670	-1690
1038.732	-2570
1038.795	-1645
1038.858	-1565
1038.921	-1483
1038.984	-2644
1039.046	-1206
1039.109	-1874
1039.172	-2000
1039.234	-1919
1039.297	-1296
1039.360	-2144
1039.422	-1329
1039.485	-2297
1039.547	-2474
1039.610	-1853
1039.672	-1896
1039.734	-1680
1039.797	-2167
1039.859	-1576
1039.922	-1388
1039.984	-1959
1040.046	-1600
1040.109	-1469
1040.171	-2504
1040.233	-1863
1040.295	-1962
1040.358	-2093
1040.420	-1528
1040.482	-2013
1040.544	-1377
1040.606	-2043
1040.668	-1455
1040.730	-1546
1040.792	-1581
1040.854	-2371
1040.916	-1449
1040.978	-2520
1041.040	-1176
1041.102	-2274
1041.164	-1549
1041.225	-2490
1041.287	-2185
1041.349	-1706
1041.411	-2533
1041.472	-1723
1041.534	-2462
1041.596	-2837
1041.657	-1926
1041.719	-2375
1041.781	-2130
1041.842	-2109
1041.904	-2243
1041.965	-1641
1042.027	-1541
1042.088	-2599
1042.150	-2105
1042.211	-2452
1042.272	-1354
1042.334	-1707
1042.395	-2558
1042.456	-3547
1042.518	-1490
1042.579	-2240
1042.640	-2172
1042.701	-1743
1042.763	-1848
1042.824	-2246
1042.885	-1861
1042.946	-1654
1043.007	-2348
1043.068	-2083
1043.129	-1778
1043.190	-2555
1043.251	-1599
1043.312	-2501
1043.373	-1961
1043.434	-2234
1043.495	-1557
1043.556	-1631
1043.616	-1864
1043.677	-2122
1043.738	-2079
1043.799	-2289
1043.859	-1922
1043.920	-1628
1043.981	-2194
1044.041	-1651
1044.102	-1379
1044.162	-2002
1044.223	-1539
1044.284	-1444
1044.344	-1607
1044.405	-1914
1044.465	-2349
1044.525	-2167
1044.586	-1857
1044.646	-2829
1044.707	-1749
1044.767	-1753
1044.827	-1279
1044.887	-1940
1044.948	-1663
1045.008	-1755
1045.068	-1135
1045.128	-1863
1045.188	-2079
1045.249	-1019
1045.309	-1914
1045.369	-1735
1045.429	-1940
1045.489	-2436
1045.549	-1681
1045.609	-1717
1045.669	-2510
1045.729	-1809
1045.789	-1868
1045.848	-1578
1045.908	-1474
1045.968	-1214
1046.028	-1545
1046.088	-2284
1046.147	-1129
1046.207	-1873
1046.267	-941
1046.326	-1404
1046.386	-1474
1046.446	-1150
1046.505	-1023
1046.565	-842
1046.624	-614
1046.684	-1134
1046.743	-40
1046.803	-626
1046.862	-607
1046.922	0
