'Start Wavelength	183.907
'End Wavelength	1046.922
'Gate Delay	5.000
'Gate Width (ms)	1.050
'Laser Output Level	0.000
'X Position	0.000
'Y Position	0.000
'Z Position	0.000
'Grid Point Number	1.000
'Shot Number	100.000
183.907	161.000
183.977	88.000
184.047	145
184.116	871
184.186	80
184.256	551
184.325	-249
184.395	360
184.465	653
184.534	118
184.604	125
184.674	253
184.743	-474
184.813	-250
184.883	710
184.952	143
185.022	746
185.092	293
185.161	455
185.231	603
185.301	272
185.370	10
185.440	-516
185.509	302
185.579	-224
185.649	254
185.718	5
185.788	364
185.857	169
185.927	-604
185.996	487
186.066	-337
186.136	-34
186.205	-132
186.275	859
186.344	133
186.414	194
186.483	327
186.553	321
186.622	1461
186.692	319
186.761	-65
186.831	496
186.900	29
186.970	248
187.039	508
187.109	1687
187.178	998
187.248	444
187.317	1096
187.387	618
187.456	1197
187.526	2016
187.595	1450
187.664	1037
187.734	1799
187.803	1197
187.873	1467
187.942	1281
188.012	218
188.081	987
188.150	689
188.220	1939
188.289	2170
188.358	502
188.428	1476
188.497	78
188.567	148
188.636	717
188.705	868
188.775	697
188.844	207
188.913	1017
188.983	623
189.052	817
189.121	1134
189.191	1703
189.260	1933
189.329	2714
189.399	1938
189.468	1411
189.537	-287
189.606	1401
189.676	968
189.745	2056
189.814	1003
189.883	1808
189.953	1811
190.022	3627
190.091	9556
190.161	13572
190.230	6006
190.299	1376
190.368	790
190.437	1770
190.507	1788
190.576	2473
190.645	919
190.714	1101
190.783	1134
190.853	1465
190.922	1279
190.991	1425
191.060	1709
191.129	1630
191.198	1085
191.268	950
191.337	792
191.406	983
191.475	929
191.544	539
191.613	892
191.682	936
191.752	507
191.821	661
191.890	214
191.959	889
192.028	748
192.097	1606
192.166	1697
192.235	568
192.304	1147
192.373	739
192.442	648
192.511	390
192.580	154
192.650	338
192.719	962
192.788	1566
192.857	1314
192.926	1257
192.995	1781
193.064	3180
193.133	3709
193.202	3902
193.271	3668
193.340	2940
193.409	2646
193.478	3613
193.547	4639
193.615	7287
193.684	6946
193.753	2777
193.822	2965
193.891	2049
193.960	1960
194.029	1946
194.098	2121
194.167	681
194.236	2984
194.305	1093
194.374	1692
194.443	616
194.512	1415
194.580	1469
194.649	2372
194.718	2434
194.787	1068
194.856	1696
194.925	1456
194.994	1014
195.062	1311
195.131	1716
195.200	1767
195.269	2395
195.338	2008
195.407	1834
195.475	2041
195.544	1972
195.613	2156
195.682	1756
195.751	2380
195.819	2075
195.888	2361
195.957	2727
196.026	3184
196.094	2206
196.163	2492
196.232	2826
196.301	2705
196.369	2395
196.438	2754
196.507	1945
196.576	2191
196.644	1163
196.713	1485
196.782	1947
196.850	1832
196.919	1432
196.988	1428
197.056	757
197.125	2110
197.194	2686
197.262	2238
197.331	1674
197.400	2353
197.468	2374
197.537	2511
197.606	2944
197.674	5071
197.743	13413
197.812	5779
197.880	12364
197.949	8234
198.017	11311
198.086	8478
198.155	4706
198.223	5126
198.292	14655
198.360	7261
198.429	4046
198.497	3553
198.566	8356
198.635	14990
198.703	5539
198.772	5249
198.840	15935
198.909	17739
198.977	4935
199.046	3385
199.114	3924
199.183	3505
199.251	2457
199.320	2249
199.388	2084
199.457	2249
199.525	2311
199.594	1924
199.662	2651
199.731	1923
199.799	1964
199.867	3413
199.936	1527
200.004	2862
200.073	2522
200.141	1740
200.210	1797
200.278	1609
200.346	2844
200.415	2370
200.483	2735
200.552	2508
200.620	1712
200.688	1610
200.757	2315
200.825	2661
200.893	2276
200.962	1922
201.030	1997
201.098	1908
201.167	3175
201.235	1922
201.303	2469
201.372	2384
201.440	1741
201.508	2298
201.577	2056
201.645	2483
201.713	1818
201.781	2045
201.850	3203
201.918	2619
201.986	2903
202.055	2836
202.123	2497
202.191	2127
202.259	2818
202.327	3135
202.396	2337
202.464	2397
202.532	3549
202.600	8748
202.669	5722
202.737	3247
202.805	2152
202.873	2897
202.941	2326
203.009	2775
203.078	2133
203.146	2606
203.214	2483
203.282	1837
203.350	3405
203.418	2181
203.487	2801
203.555	2753
203.623	2765
203.691	2600
203.759	2761
203.827	2670
203.895	3285
203.963	2225
204.031	2005
204.099	2341
204.168	4014
204.236	2590
204.304	3443
204.372	3721
204.440	3152
204.508	2557
204.576	2449
204.644	3290
204.712	2325
204.780	2610
204.848	3314
204.916	2742
204.984	3275
205.052	3830
205.120	3673
205.188	4039
205.256	3637
205.324	3537
205.392	2892
205.460	3854
205.528	5148
205.596	4246
205.664	4416
205.732	5885
205.799	16367
205.867	29913
205.935	8511
206.003	6722
206.071	5015
206.139	5688
206.207	4441
206.275	4421
206.343	3201
206.411	4185
206.478	3340
206.546	4056
206.614	4682
206.682	4038
206.750	3518
206.818	4524
206.885	4862
206.953	2599
207.021	4470
207.089	3654
207.157	3663
207.225	4267
207.292	3868
207.360	3875
207.428	4389
207.496	3383
207.563	4431
207.631	3863
207.699	2832
207.767	3796
207.834	2744
207.902	4370
207.970	3922
208.038	4031
208.105	4486
208.173	5334
208.241	7367
208.309	6412
208.376	5749
208.444	10889
208.512	7539
208.579	3680
208.647	4845
208.715	5069
208.782	4007
208.850	4592
208.918	4065
208.985	4589
209.053	4473
209.120	4598
209.188	3260
209.256	4131
209.323	3434
209.391	5904
209.459	5169
209.526	4631
209.594	4359
209.661	4184
209.729	4497
209.796	5176
209.864	3800
209.932	3394
209.999	5416
210.067	4483
210.134	4737
210.202	5266
210.269	7078
210.337	6285
210.404	4251
210.472	4808
210.539	4614
210.607	5055
210.674	6962
210.742	5392
210.809	5685
210.877	5946
210.944	7039
211.012	5125
211.079	6758
211.146	5411
211.214	5243
211.281	5635
211.349	6817
211.416	5917
211.484	5903
211.551	6183
211.618	5974
211.686	6382
211.753	5146
211.821	6584
211.888	6088
211.955	6156
212.023	6630
212.090	6930
212.157	8337
212.225	9622
212.292	19299
212.359	36578
212.427	86114
212.494	44216
212.561	17109
212.629	10740
212.696	9387
212.763	8199
212.831	7337
212.898	7542
212.965	6269
213.032	6862
213.100	6976
213.167	6255
213.234	7894
213.301	5506
213.369	6843
213.436	6164
213.503	6199
213.570	6454
213.638	7034
213.705	6230
213.772	5450
213.839	6671
213.906	6857
213.973	7661
214.041	5934
214.108	6970
214.175	6174
214.242	6042
214.309	5784
214.376	6753
214.444	6869
214.511	7793
214.578	6355
214.645	6456
214.712	7117
214.779	7156
214.846	7077
214.913	8486
214.980	8088
215.048	8451
215.115	9313
215.182	7791
215.249	6995
215.316	6421
215.383	5898
215.450	6625
215.517	5756
215.584	6527
215.651	6916
215.718	6066
215.785	7129
215.852	6625
215.919	7630
215.986	6683
216.053	6033
216.120	5869
216.187	7017
216.254	7741
216.321	6450
216.388	7543
216.455	8379
216.522	7310
216.589	8970
216.656	12705
216.722	14799
216.789	10360
216.856	9860
216.923	8960
216.990	8664
217.057	9353
217.124	10518
217.191	9928
217.258	11253
217.324	12915
217.391	12819
217.458	10760
217.525	9163
217.592	9503
217.659	7475
217.725	9048
217.792	12518
217.859	11392
217.926	6685
217.993	6128
218.059	7296
218.126	6934
218.193	6328
218.260	5480
218.327	5554
218.393	5899
218.460	6037
218.527	5807
218.594	6805
218.660	11270
218.727	13013
218.794	5877
218.860	6264
218.927	5527
218.994	5169
219.061	5414
219.127	7246
219.194	11493
219.261	6432
219.327	5211
219.394	6194
219.461	4690
219.527	4881
219.594	9139
219.661	7809
219.727	4604
219.794	6809
219.860	5167
219.927	6966
219.994	8599
220.060	14013
220.127	10483
220.193	8349
220.260	9634
220.326	12703
220.393	17822
220.460	21909
220.526	15990
220.593	12028
220.659	13764
220.726	15197
220.792	37731
220.859	31822
220.925	30144
220.992	35653
221.058	44819
221.125	52922
221.191	41243
221.258	17687
221.324	10964
221.391	10707
221.457	9376
221.524	9981
221.590	14861
221.657	50649
221.723	38831
221.789	31533
221.856	28429
221.922	16030
221.989	10471
222.055	7733
222.121	7519
222.188	8994
222.254	8275
222.321	6975
222.387	5705
222.453	6123
222.520	6015
222.586	5319
222.652	6240
222.719	5789
222.785	6200
222.851	5789
222.918	6535
222.984	5860
223.050	6406
223.116	5374
223.183	6526
223.249	4729
223.315	4188
223.382	4704
223.448	4744
223.514	4341
223.580	4375
223.647	4842
223.713	4858
223.779	4927
223.845	5287
223.911	5915
223.978	4172
224.044	4957
224.110	5727
224.176	4905
224.242	5635
224.309	3908
224.375	4350
224.441	5327
224.507	4857
224.573	3934
224.639	5648
224.705	3764
224.772	3854
224.838	4351
224.904	5237
224.970	5122
225.036	5179
225.102	5029
225.168	5495
225.234	5039
225.300	5583
225.366	4836
225.432	5743
225.499	4681
225.565	5980
225.631	6644
225.697	6744
225.763	8510
225.829	9143
225.895	9489
225.961	15455
226.027	12857
226.093	11599
226.159	15382
226.225	18888
226.291	39262
226.357	60173
226.423	33677
226.489	19934
226.554	15213
226.620	14271
226.686	17599
226.752	25450
226.818	40402
226.884	80898
226.950	71419
227.016	32432
227.082	18492
227.148	14033
227.214	13053
227.279	11697
227.345	10634
227.411	9557
227.477	8277
227.543	10868
227.609	12872
227.674	11509
227.740	8646
227.806	9165
227.872	8640
227.938	7308
228.003	12101
228.069	7304
228.135	5660
228.201	6321
228.267	5978
228.332	7009
228.398	8728
228.464	7728
228.530	6083
228.595	6088
228.661	5118
228.727	9357
228.792	7976
228.858	5968
228.924	6739
228.990	11284
229.055	7562
229.121	11264
229.187	6231
229.252	6677
229.318	5704
229.384	6484
229.449	8177
229.515	3958
229.581	3791
229.646	6732
229.712	6865
229.777	15197
229.843	16406
229.909	10746
229.974	12049
230.040	12040
230.105	10323
230.171	11886
230.236	17885
230.302	27756
230.368	18159
230.433	11086
230.499	10827
230.564	12177
230.630	8910
230.695	7843
230.761	8447
230.826	6165
230.892	12401
230.957	7418
231.023	6818
231.088	6751
231.154	7704
231.219	8178
231.284	9479
231.350	10845
231.415	6407
231.481	7588
231.546	6528
231.612	6627
231.677	5938
231.742	4855
231.808	7556
231.873	5311
231.939	4632
232.004	10046
232.069	10903
232.135	7110
232.200	6693
232.265	5897
232.331	5407
232.396	5635
232.461	4912
232.527	5324
232.592	6011
232.657	5696
232.723	9691
232.788	8835
232.853	6542
232.918	6187
232.984	5282
233.049	5158
233.114	8681
233.179	9919
233.245	13162
233.310	19147
233.375	6718
233.440	6892
233.506	6121
233.571	5684
233.636	5986
233.701	6060
233.766	9998
233.832	14800
233.897	7354
233.962	5283
234.027	8063
234.092	7182
234.157	6562
234.222	7478
234.288	11665
234.353	35790
234.418	29238
234.483	16776
234.548	12223
234.613	9631
234.678	11227
234.743	10920
234.808	32686
234.873	22694
234.938	11699
235.004	9776
235.069	7873
235.134	8411
235.199	8233
235.264	7844
235.329	6543
235.394	8409
235.459	10360
235.524	9282
235.589	8580
235.654	7471
235.719	6864
235.784	8164
235.849	9587
235.913	17561
235.978	19100
236.043	21687
236.108	11746
236.173	9517
236.238	10852
236.303	9407
236.368	9670
236.433	15004
236.498	25930
236.563	20026
236.627	33522
236.692	109341
236.757	97529
236.822	40004
236.887	28057
236.952	23049
237.017	19422
237.081	22321
237.146	27123
237.211	52434
237.276	109311
237.341	185107
237.405	93847
237.470	38058
237.535	24936
237.600	17101
237.664	15412
237.729	12865
237.794	16378
237.859	29374
237.923	23336
237.988	14502
238.053	18059
238.118	18511
238.182	51158
238.247	47188
238.312	19775
238.376	14500
238.441	12359
238.506	11870
238.570	8117
238.635	9750
238.700	9319
238.764	8014
238.829	19682
238.893	28001
238.958	13662
239.023	12222
239.087	8795
239.152	8913
239.216	7002
239.281	7546
239.346	8296
239.410	8426
239.475	10482
239.539	45573
239.604	41209
239.668	12969
239.733	8807
239.797	8876
239.862	14848
239.926	33653
239.991	16042
240.055	8391
240.120	7080
240.184	7873
240.249	7067
240.313	7426
240.378	8305
240.442	24924
240.507	46247
240.571	14381
240.635	20693
240.700	24959
240.764	10042
240.829	7966
240.893	6191
240.957	9237
241.022	23680
241.086	42411
241.151	20271
241.215	8823
241.279	11640
241.344	21974
241.408	12809
241.472	10333
241.537	11878
241.601	9897
241.665	8579
241.730	9490
241.794	11841
241.858	10097
241.922	10116
241.987	9978
242.051	8770
242.115	9048
242.179	9254
242.244	8601
242.308	10277
242.372	9953
242.436	12699
242.501	10752
242.565	8443
242.629	8765
242.693	9880
242.757	8449
242.822	8759
242.886	9087
242.950	10435
243.014	11556
243.078	11061
243.142	11448
243.206	12163
243.271	15776
243.335	18081
243.399	29855
243.463	100750
243.527	254044
243.591	85297
243.655	30981
243.719	18006
243.783	17113
243.847	30909
243.911	41729
243.975	33109
244.040	22158
244.104	15939
244.168	12178
244.232	15279
244.296	22523
244.360	36009
244.424	16711
244.488	12127
244.552	11091
244.615	7688
244.679	9661
244.743	11150
244.807	11062
244.871	9427
244.935	8789
244.999	7693
245.063	8949
245.127	10783
245.191	23852
245.255	24631
245.319	12175
245.383	11205
245.446	9735
245.510	7641
245.574	8385
245.638	9176
245.702	9362
245.766	22070
245.829	14218
245.893	10839
245.957	9902
246.021	11396
246.085	11168
246.149	13920
246.212	28500
246.276	49449
246.340	21541
246.404	14452
246.467	14690
246.531	21691
246.595	15767
246.659	13079
246.722	11748
246.786	13866
246.850	15070
246.913	19799
246.977	10690
247.041	11178
247.104	12927
247.168	12226
247.232	26644
247.295	66422
247.359	31038
247.423	14163
247.486	23535
247.550	15689
247.614	12186
247.677	14468
247.741	12127
247.804	10635
247.868	14065
247.932	25055
247.995	60767
248.059	22672
248.122	13385
248.186	16776
248.249	26415
248.313	99766
248.376	102384
248.440	64957
248.503	24162
248.567	18637
248.630	25376
248.694	33844
248.757	43742
248.821	112240
248.884	62559
248.948	54824
249.011	78957
249.075	125398
249.138	106686
249.202	39228
249.265	25569
249.328	33281
249.392	25032
249.455	20352
249.519	17814
249.582	20658
249.645	29965
249.709	24538
249.772	20592
249.835	19427
249.899	22214
249.962	19492
250.025	17847
250.089	41105
250.152	54665
250.215	27751
250.279	22431
250.342	23699
250.405	24903
250.468	26652
250.532	36722
250.595	59948
250.658	223647
250.721	374672
250.785	132708
250.848	59752
250.911	38151
250.974	34413
251.038	42335
251.101	79229
251.164	47020
251.227	47903
251.290	52598
251.354	85007
251.417	314356
251.480	333534
251.543	236353
251.606	546613
251.669	443040
251.732	179729
251.795	139274
251.859	146976
251.922	355969
251.985	218116
252.048	81351
252.111	57091
252.174	51020
252.237	71446
252.300	152641
252.363	189554
252.426	426941
252.489	190071
252.552	88873
252.615	62749
252.678	59837
252.741	121146
252.804	197095
252.867	449717
252.930	244266
252.993	112654
253.056	61346
253.119	48977
253.182	42627
253.245	87239
253.308	60642
253.371	41607
253.434	36227
253.497	33701
253.559	60086
253.622	41948
253.685	42402
253.748	40757
253.811	23543
253.874	30931
253.937	29491
254.000	22141
254.062	36938
254.125	62802
254.188	48442
254.251	42605
254.314	22388
254.376	35468
254.439	38273
254.502	29926
254.565	37179
254.628	68742
254.690	34907
254.753	20253
254.816	18006
254.878	20374
254.941	41361
255.004	47092
255.067	19399
255.129	18086
255.192	12383
255.255	10378
255.317	11800
255.380	10499
255.443	8257
255.505	9244
255.568	8799
255.631	9884
255.693	10396
255.756	8457
255.819	8618
255.881	8349
255.944	7525
256.006	8410
256.069	8731
256.132	9233
256.194	12764
256.257	34280
256.319	26516
256.382	24073
256.444	14855
256.507	12730
256.569	13401
256.632	15488
256.694	24708
256.757	55161
256.819	170439
256.882	78689
256.944	30014
257.007	19808
257.069	21500
257.132	17193
257.194	15068
257.257	13814
257.319	16312
257.381	21437
257.444	43372
257.506	192159
257.569	209238
257.631	80434
257.693	43621
257.756	25222
257.818	21777
257.880	15213
257.943	13704
258.005	11922
258.067	12414
258.130	13239
258.192	12793
258.254	24684
258.317	18051
258.379	13486
258.441	30895
258.503	31752
258.566	42930
258.628	59653
258.690	15977
258.753	15286
258.815	21540
258.877	14910
258.939	12319
259.001	11621
259.064	11236
259.126	14023
259.188	18809
259.250	14267
259.312	14796
259.375	27452
259.437	20851
259.499	11934
259.561	10581
259.623	13545
259.685	13708
259.747	15230
259.809	42317
259.872	81022
259.934	124742
259.996	107765
260.058	30445
260.120	14903
260.182	11289
260.244	10374
260.306	10267
260.368	11248
260.430	11160
260.492	22353
260.554	33884
260.616	22868
260.678	52879
260.740	80390
260.802	21236
260.864	14649
260.926	12345
260.988	13889
261.050	14290
261.112	32848
261.174	87526
261.236	69129
261.298	19950
261.359	34187
261.421	48119
261.483	15308
261.545	12816
261.607	9352
261.669	11062
261.731	20738
261.793	47114
261.854	21121
261.916	14404
261.978	12533
262.040	15708
262.102	12015
262.164	19502
262.225	16041
262.287	10293
262.349	23874
262.411	20403
262.472	11644
262.534	20779
262.596	48926
262.658	17050
262.719	10510
262.781	15674
262.843	45955
262.904	26077
262.966	21198
263.028	29766
263.090	131259
263.151	352284
263.213	109464
263.275	43258
263.336	20830
263.398	15551
263.459	12292
263.521	12329
263.583	23828
263.644	17642
263.706	9727
263.767	7802
263.829	7296
263.891	7089
263.952	6962
264.014	7016
264.075	14194
264.137	34872
264.198	15404
264.260	7989
264.321	7819
264.383	19581
264.444	50905
264.506	18538
264.567	12145
264.629	21827
264.690	47505
264.752	17763
264.813	11867
264.875	9205
264.936	10642
264.998	7968
265.059	8757
265.120	10302
265.182	15507
265.243	75996
265.305	82147
265.366	21490
265.427	12600
265.489	10384
265.550	7745
265.611	9367
265.673	9598
265.734	9485
265.795	9027
265.857	8951
265.918	11543
265.979	22724
266.040	130242
266.102	116974
266.163	31135
266.224	21762
266.286	12464
266.347	8045
266.408	9497
266.469	11688
266.530	9188
266.592	7323
266.653	12992
266.714	21801
266.775	8925
266.836	7617
266.898	6680
266.959	12793
267.020	9917
267.081	7588
267.142	7505
267.203	7311
267.264	6489
267.326	7695
267.387	7156
267.448	5921
267.509	6788
267.570	6406
267.631	5791
267.692	6268
267.753	7710
267.814	6446
267.875	14136
267.936	31706
267.997	19533
268.058	15897
268.119	9455
268.180	8725
268.241	7316
268.302	6678
268.363	5941
268.424	6732
268.485	8871
268.546	6704
268.607	5792
268.668	6100
268.729	6192
268.790	6568
268.851	7600
268.912	18004
268.972	21979
269.033	11160
269.094	6751
269.155	6543
269.216	6831
269.277	7380
269.338	7158
269.398	6573
269.459	8260
269.520	10010
269.581	12494
269.642	14461
269.702	10869
269.763	9882
269.824	8122
269.885	9733
269.945	14583
270.006	7449
270.067	6539
270.128	6198
270.188	6651
270.249	6704
270.310	6092
270.370	6540
270.431	7214
270.492	6748
270.553	7586
270.613	13523
270.674	27294
270.734	14280
270.795	8125
270.856	10588
270.916	10298
270.977	7355
271.038	8574
271.098	8192
271.159	12944
271.219	13748
271.280	7580
271.340	7139
271.401	9183
271.462	21885
271.522	13093
271.583	9025
271.643	10023
271.704	9573
271.764	10545
271.825	21762
271.885	78715
271.946	119269
272.006	33699
272.066	48706
272.127	94109
272.187	26052
272.248	15577
272.308	16906
272.369	62801
272.429	34748
272.489	21880
272.550	22254
272.610	20395
272.671	16741
272.731	16912
272.791	29345
272.852	14771
272.912	12404
272.972	8957
273.033	8392
273.093	14523
273.153	15191
273.214	11241
273.274	12132
273.334	43448
273.394	87597
273.455	31265
273.515	28029
273.575	67172
273.635	27713
273.696	36042
273.756	84153
273.816	31815
273.876	18743
273.936	42676
273.997	80487
274.057	23135
274.117	17178
274.177	21039
274.237	98416
274.297	89779
274.358	57829
274.418	64200
274.478	45056
274.538	19766
274.598	17897
274.658	60946
274.718	80288
274.778	31518
274.838	17195
274.898	35442
274.958	111600
275.018	94118
275.078	56507
275.138	21607
275.198	14217
275.258	11316
275.318	13772
275.378	22457
275.438	22224
275.498	17013
275.558	50343
275.618	103972
275.678	58884
275.738	30111
275.798	23543
275.858	15410
275.918	10057
275.978	9799
276.038	11222
276.098	8900
276.157	15955
276.217	43921
276.277	21622
276.337	14104
276.397	9275
276.457	10798
276.517	9061
276.576	7182
276.636	7253
276.696	12311
276.756	27616
276.815	21630
276.875	9948
276.935	11865
276.995	10305
277.055	7527
277.114	7679
277.174	10435
277.234	36538
277.293	16959
277.353	9932
277.413	8338
277.472	8918
277.532	8910
277.592	9866
277.651	24002
277.711	45164
277.771	18029
277.830	53687
277.890	45514
277.950	35475
278.009	109135
278.069	40280
278.128	31582
278.188	44891
278.248	19630
278.307	46627
278.367	32346
278.426	13744
278.486	10801
278.545	9791
278.605	8403
278.664	9677
278.724	10793
278.783	29407
278.843	86969
278.902	25670
278.962	13675
279.021	13720
279.081	17928
279.140	18033
279.199	15085
279.259	16062
279.318	18765
279.378	24304
279.437	35418
279.496	109810
279.556	380253
279.615	312993
279.675	72606
279.734	40374
279.793	52251
279.853	84307
279.912	33858
279.971	21600
280.031	20199
280.090	33796
280.149	57815
280.208	48279
280.268	258755
280.327	279941
280.386	60565
280.445	40694
280.505	36652
280.564	19440
280.623	16763
280.682	22925
280.742	33825
280.801	14047
280.860	10240
280.919	9975
280.978	9735
281.037	9587
281.097	7835
281.156	9061
281.215	8267
281.274	9909
281.333	49299
281.392	39520
281.451	11752
281.510	7286
281.569	7750
281.628	7624
281.688	7103
281.747	7793
281.806	8612
281.865	6375
281.924	6656
281.983	6849
282.042	4900
282.101	5142
282.160	5848
282.219	5986
282.278	5741
282.337	22551
282.396	16457
282.454	7346
282.513	8305
282.572	33018
282.631	20563
282.690	8133
282.749	5538
282.808	8623
282.867	9375
282.926	8472
282.985	6498
283.043	6023
283.102	6399
283.161	7876
283.220	20586
283.279	44917
283.338	14098
283.396	8282
283.455	7738
283.514	8376
283.573	12948
283.631	10319
283.690	7410
283.749	6483
283.808	14983
283.866	17577
283.925	7334
283.984	6882
284.043	10403
284.101	10158
284.160	8639
284.219	15158
284.277	11302
284.336	12310
284.395	44876
284.453	40798
284.512	13006
284.570	15812
284.629	13899
284.688	12174
284.746	11140
284.805	13228
284.863	16167
284.922	20903
284.981	26757
285.039	37295
285.098	59829
285.156	147783
285.215	472226
285.273	463991
285.332	187559
285.390	87034
285.449	51326
285.507	33889
285.566	26125
285.624	22049
285.683	18349
285.741	15066
285.799	13437
285.858	12918
285.916	11492
285.975	9808
286.033	8631
286.091	8241
286.150	7854
286.208	8569
286.267	10848
286.325	9794
286.383	13085
286.442	11634
286.500	7134
286.558	7028
286.616	6411
286.675	9376
286.733	8710
286.791	8164
286.850	9882
286.908	12401
286.966	18845
287.024	9799
287.083	8061
287.141	6875
287.199	8255
287.257	11365
287.315	9976
287.374	10891
287.432	22397
287.490	16492
287.548	12292
287.606	11910
287.664	11777
287.723	17490
287.781	23831
287.839	21677
287.897	28124
287.955	40582
288.013	62697
288.071	122689
288.129	416357
288.187	973155
288.245	530840
288.303	187641
288.361	100067
288.419	68292
288.477	46241
288.535	34650
288.593	29136
288.651	23870
288.709	18003
288.767	16152
288.825	14092
288.883	12489
288.941	11934
288.999	9356
289.057	9542
289.115	8982
289.173	9155
289.231	9023
289.289	9289
289.346	8595
289.404	8336
289.462	12734
289.520	13354
289.578	8774
289.636	6107
289.694	6310
289.751	6069
289.809	5479
289.867	6129
289.925	8565
289.983	8568
290.040	6862
290.098	4879
290.156	7482
290.214	7389
290.271	5468
290.329	4712
290.387	5064
290.444	4168
290.502	3985
290.560	5626
290.617	5460
290.675	5212
290.733	4307
290.790	6190
290.848	4752
290.906	5750
290.963	5900
291.021	5598
291.078	5854
291.136	7056
291.194	21022
291.251	46710
291.309	14339
291.366	7157
291.424	5444
291.481	4898
291.539	5487
291.596	4187
291.654	4877
291.711	4435
291.769	5697
291.826	11637
291.884	8010
291.941	4350
291.999	5369
292.056	5745
292.114	6468
292.171	4892
292.228	4934
292.286	6703
292.343	11032
292.401	14163
292.458	9068
292.515	6267
292.573	7995
292.630	7578
292.687	8956
292.745	7672
292.802	11486
292.859	28612
292.917	42729
292.974	24713
293.031	9676
293.089	7465
293.146	5643
293.203	5124
293.260	4426
293.318	7656
293.375	13028
293.432	8008
293.489	6145
293.546	6534
293.604	10724
293.661	29354
293.718	85777
293.775	40774
293.832	17072
293.889	12003
293.947	11495
294.004	9230
294.061	9378
294.118	18559
294.175	42111
294.232	58418
294.289	22726
294.346	11853
294.403	12798
294.460	10863
294.517	9249
294.574	8618
294.631	8354
294.688	11397
294.745	24299
294.802	96155
294.859	103066
294.916	36158
294.973	18657
295.030	14657
295.087	11592
295.144	9989
295.201	9369
295.258	8833
295.315	11473
295.372	32937
295.429	70567
295.486	29739
295.542	16877
295.599	43147
295.656	73512
295.713	46290
295.770	59108
295.827	24305
295.883	12439
295.940	10571
295.997	15129
296.054	16210
296.111	9271
296.167	7596
296.224	6642
296.281	6912
296.338	6770
296.394	7321
296.451	9460
296.508	25628
296.564	49150
296.621	32521
296.678	72678
296.734	112205
296.791	38626
296.848	19401
296.904	17837
296.961	34534
297.018	67387
297.074	55556
297.131	22195
297.187	15526
297.244	20366
297.301	72178
297.357	140328
297.414	48326
297.470	18070
297.527	13744
297.583	9764
297.640	9798
297.696	8274
297.753	7063
297.809	6859
297.866	5356
297.922	6832
297.979	6292
298.035	8063
298.092	11962
298.148	37790
298.204	36835
298.261	17554
298.317	31632
298.374	95805
298.430	55254
298.486	24584
298.543	19326
298.599	17174
298.656	18535
298.712	32152
298.768	115589
298.824	94784
298.881	28617
298.937	15576
298.993	11616
299.050	12531
299.106	11703
299.162	10295
299.218	11558
299.275	8861
299.331	10687
299.387	18836
299.443	77417
299.500	77708
299.556	26335
299.612	12664
299.668	12067
299.724	11112
299.780	11258
299.837	9628
299.893	15556
299.949	53630
300.005	61418
300.061	52797
300.117	106984
300.173	51755
300.229	20003
300.285	20902
300.341	23620
300.397	12867
300.453	8372
300.510	9056
300.566	9495
300.622	9062
300.678	18449
300.734	39631
300.790	50248
300.845	74265
300.901	37758
300.957	46287
301.013	38499
301.069	14705
301.125	11049
301.181	11882
301.237	8915
301.293	6789
301.349	7941
301.405	6747
301.461	7329
301.516	9170
301.572	9808
301.628	15180
301.684	14401
301.740	24214
301.796	38935
301.851	26016
301.907	40428
301.963	41452
302.019	71395
302.074	224332
302.130	218640
302.186	92767
302.242	38577
302.297	24029
302.353	21823
302.409	38593
302.464	34739
302.520	27304
302.576	69926
302.631	80588
302.687	40423
302.743	17577
302.798	11892
302.854	9411
302.910	9276
302.965	12074
303.021	21248
303.076	18643
303.132	22211
303.187	26143
303.243	14280
303.299	8624
303.354	7449
303.410	6718
303.465	6936
303.521	7391
303.576	8033
303.632	10254
303.687	19339
303.743	71399
303.798	59044
303.853	22065
303.909	12124
303.964	10239
304.020	13065
304.075	19450
304.130	16962
304.186	29494
304.241	30744
304.297	24957
304.352	13928
304.358	13517
304.407	10188
304.449	9059
304.463	8685
304.518	10086
304.539	10028
304.573	9973
304.629	10971
304.630	11094
304.684	17478
304.720	39664
304.739	50552
304.794	82079
304.811	68568
304.850	36680
304.902	17464
304.905	16254
304.960	12621
304.992	12770
305.015	12763
305.071	12004
305.083	11214
305.126	8495
305.173	7026
305.181	6791
305.236	5714
305.264	6269
305.292	6842
305.347	8270
305.354	8389
305.402	9350
305.445	11398
305.457	11899
305.512	14984
305.535	14527
305.567	14220
305.622	14015
305.626	14643
305.678	29072
305.716	61382
305.733	72565
305.788	79717
305.807	67689
305.843	49133
305.897	69974
305.898	70151
305.953	70016
305.988	45312
306.008	32529
306.063	17967
306.078	16279
306.118	12562
306.168	9463
306.173	9207
306.228	7919
306.259	7967
306.283	8066
306.338	8267
306.349	8514
306.393	9741
306.440	12442
306.448	12973
306.503	13140
306.530	14235
306.558	17520
306.613	39399
306.620	41759
306.668	53936
306.711	61157
306.723	61173
306.778	45308
306.801	33741
306.833	21310
306.888	12406
306.892	12087
306.943	9434
306.982	9090
306.997	9128
307.052	8853
307.072	9274
307.107	11444
307.162	17017
307.163	17133
307.217	28376
307.253	34246
307.272	35049
307.327	36360
307.343	31893
307.381	25173
307.434	22755
307.436	23019
307.491	42640
307.524	62607
307.546	68429
307.600	55834
307.614	48367
307.655	29335
307.704	19141
307.710	19154
307.765	25976
307.795	34796
307.819	40015
307.874	64894
307.885	63575
307.929	50305
307.975	36583
307.984	36865
308.038	51109
308.065	62737
308.093	112040
308.148	239046
308.156	270295
308.202	393819
308.246	455335
308.257	445729
308.312	232028
308.336	154543
308.366	108322
308.421	64657
308.426	61291
308.475	40068
308.517	29748
308.530	27650
308.585	24231
308.607	23137
308.639	24796
308.694	30643
308.697	31274
308.748	53434
308.787	81298
308.803	82376
308.857	59011
308.877	47663
308.912	38480
308.967	36191
308.967	36245
309.021	46455
309.058	56575
309.076	74199
309.130	135791
309.148	161500
309.185	313007
309.238	587242
309.239	587992
309.293	593160
309.328	498199
309.348	425867
309.402	193379
309.418	139642
309.457	93237
309.508	56395
309.511	54977
309.566	42878
309.598	38308
309.620	37791
309.674	40125
309.688	41491
309.729	39726
309.778	33209
309.783	32665
309.837	27478
309.868	25258
309.892	31315
309.946	48753
309.959	54647
310.001	66726
310.049	74696
310.055	72325
310.109	42649
310.139	25990
310.163	20777
310.218	13931
310.229	13025
310.272	12004
310.319	11252
310.326	11074
310.381	10761
310.409	10396
310.435	10303
310.489	10143
310.499	10157
310.543	11211
310.589	12703
310.598	12517
310.652	11453
310.679	10437
310.706	9211
310.760	6746
310.769	6454
310.814	5834
310.859	5200
310.868	5268
310.923	5775
310.948	6134
310.977	6710
311.031	7852
311.038	8035
311.085	7690
311.128	6887
311.139	6805
311.193	6746
311.218	6658
311.247	6181
311.301	5227
311.308	5129
311.356	5689
311.398	6252
311.410	6124
311.464	5480
311.488	5198
311.518	5377
311.572	5585
311.578	5634
311.626	7687
311.668	9527
311.680	9819
311.734	10926
311.758	11476
311.788	10931
311.842	9793
311.847	9678
311.896	13683
311.937	17289
311.950	16567
312.004	13281
312.027	11777
312.058	10135
312.112	7321
312.117	7048
312.165	6558
312.207	6163
312.297	10249
312.386	7300
312.476	7839
312.566	12062
312.656	6266
312.745	5911
312.835	7028
312.925	7734
313.015	8852
313.104	8011
313.194	5589
313.284	5140
313.374	6846
313.463	6331
313.553	5981
313.643	4234
313.732	4504
313.822	4615
313.912	5672
314.001	6776
314.091	8990
314.180	10931
314.270	9627
314.360	11493
314.449	8108
314.539	4909
314.628	4962
314.718	8624
314.808	8690
314.897	5594
314.987	4627
315.076	7561
315.166	10207
315.255	9978
315.345	10425
315.434	10138
315.524	10031
315.613	9502
315.703	10867
315.792	16952
315.881	37222
315.971	15308
316.060	25511
316.150	39823
316.239	37095
316.328	9981
316.418	6257
316.507	5682
316.597	8315
316.686	8640
316.775	27513
316.865	37668
316.954	6621
317.043	4553
317.133	4989
317.222	4391
317.311	5326
317.400	4473
317.490	8869
317.579	7329
317.668	6091
317.757	10227
317.847	25928
317.936	66519
318.025	27883
318.114	16285
318.203	10877
318.293	15940
318.382	25028
318.471	21825
318.560	45772
318.649	81715
318.738	14215
318.828	10639
318.917	12157
319.006	23592
319.095	54553
319.184	111898
319.273	41401
319.362	18298
319.451	8360
319.540	9181
319.629	20258
319.718	25186
319.807	15659
319.896	50200
319.985	134292
320.074	31407
320.163	16566
320.252	25505
320.341	18241
320.430	12692
320.519	15052
320.608	8495
320.697	7510
320.786	7711
320.875	9336
320.964	13473
321.053	19456
321.142	27747
321.230	25009
321.319	27163
321.408	49160
321.497	19366
321.586	23652
321.675	41216
321.764	28596
321.852	20200
321.941	29444
322.030	17440
322.119	27674
322.207	62225
322.296	50396
322.385	24416
322.474	25393
322.562	62428
322.651	27170
322.740	26803
322.829	45547
322.917	53261
323.006	20687
323.095	18325
323.183	20362
323.272	27633
323.361	80443
323.449	174353
323.538	58041
323.626	138234
323.715	53450
323.804	42514
323.892	115856
323.981	40616
324.069	21490
324.158	78437
324.246	39676
324.335	14350
324.424	16622
324.512	8550
324.601	9300
324.689	14908
324.778	29455
324.866	37161
324.954	8940
325.043	11116
325.131	30925
325.220	51300
325.308	47540
325.397	36527
325.485	13812
325.574	6629
325.662	5563
325.750	6425
325.839	5188
325.927	6100
326.015	9972
326.104	29709
326.192	23760
326.280	7094
326.369	6687
326.457	8470
326.545	14644
326.634	6000
326.722	4367
326.810	5513
326.898	4900
326.987	6723
327.075	17884
327.163	21364
327.251	9034
327.340	7944
327.428	7786
327.516	4601
327.604	7166
327.692	8337
327.781	15169
327.869	20177
327.957	9919
328.045	7691
328.133	7566
328.221	10372
328.309	6344
328.397	5844
328.485	7236
328.574	10885
328.662	35395
328.750	25721
328.838	10750
328.926	5348
329.014	5011
329.102	10460
329.190	25231
329.278	11652
329.366	4786
329.454	5819
329.542	5700
329.630	5591
329.718	6590
329.806	8663
329.893	11754
329.981	14320
330.069	32461
330.157	145891
330.245	340855
330.333	145470
330.421	25138
330.509	20001
330.597	42767
330.684	23409
330.772	13483
330.860	19949
330.948	22204
331.036	9184
331.123	3787
331.211	6005
331.299	8334
331.387	24374
331.475	30578
331.562	9449
331.650	6041
331.738	10003
331.825	10503
331.913	5540
332.001	4990
332.089	12941
332.176	27441
332.264	69217
332.352	30891
332.439	9824
332.527	6487
332.614	8613
332.702	9998
332.790	8866
332.877	35551
332.965	43483
333.052	8584
333.140	13601
333.228	18594
333.315	6301
333.403	11937
333.490	37547
333.578	17885
333.665	14251
333.753	9270
333.840	7179
333.928	14353
334.015	39120
334.103	73527
334.190	156551
334.278	27410
334.365	12919
334.452	7476
334.540	6498
334.627	13320
334.715	18483
334.802	61874
334.889	270395
334.977	157874
335.064	16456
335.151	9157
335.239	10175
335.326	17790
335.413	91349
335.501	75154
335.588	10434
335.675	6945
335.762	12406
335.850	17576
335.937	14836
336.024	73196
336.111	212912
336.199	50748
336.286	8518
336.373	6463
336.460	4372
336.547	5715
336.635	7977
336.722	6606
336.809	7671
336.896	13335
336.983	49870
337.070	112810
337.157	154933
337.245	159508
337.332	69450
337.419	10443
337.506	7394
337.593	9928
337.680	47998
337.767	84928
337.854	24705
337.941	34332
338.028	41022
338.115	11938
338.202	17932
338.289	58609
338.376	130864
338.463	32247
338.550	68588
338.637	48494
338.724	34864
338.811	33634
338.898	7208
338.984	6623
339.071	6650
339.158	9456
339.245	19990
339.332	14036
339.419	32612
339.506	18640
339.593	2747
339.679	4180
339.766	3635
339.853	7872
339.940	12612
340.027	5361
340.113	5610
340.200	8477
340.287	5776
340.374	7961
340.460	10953
340.547	4644
340.634	13283
340.720	40730
340.807	16428
340.894	4921
340.980	5274
341.067	3676
341.154	5261
341.240	8992
341.327	15436
341.414	5284
341.500	5487
341.587	4798
341.674	5193
341.760	13203
341.847	12648
341.933	4464
342.020	2156
342.106	3163
342.193	6259
342.279	9121
342.366	7520
342.452	11450
342.539	6650
342.625	19639
342.712	38142
342.798	14514
342.885	5726
342.971	3430
343.058	2688
343.144	2970
343.230	3374
343.317	3687
343.403	3581
343.490	3036
343.576	3533
343.662	4152
343.749	5870
343.835	8969
343.921	21491
344.008	145883
344.094	234309
344.180	38903
344.267	17715
344.353	64733
344.439	53629
344.525	18377
344.612	8186
344.698	7570
344.784	4021
344.870	3322
344.957	3550
345.043	6812
345.129	5778
345.215	11507
345.301	5585
345.387	4110
345.474	3014
345.560	4685
345.646	7340
345.732	5128
345.818	5263
345.904	4421
345.990	6832
346.076	10696
346.162	15400
346.249	5882
346.335	3740
346.421	7468
346.507	32279
346.593	77333
346.679	14720
346.765	5408
346.851	4298
346.937	3447
347.023	4550
347.108	5701
347.194	4505
347.280	4280
347.366	6897
347.452	31654
347.538	107134
347.624	66860
347.710	45974
347.796	7857
347.882	5426
347.967	6227
348.053	7739
348.139	4952
348.225	3092
348.311	3672
348.397	4697
348.482	5479
348.568	6040
348.654	3127
348.740	3725
348.825	4025
348.911	12536
348.997	61655
349.083	89104
349.168	12606
349.254	5468
349.340	4009
349.425	3638
349.511	6551
349.597	7030
349.682	16769
349.768	46770
349.854	18493
349.939	5140
350.025	4056
350.110	2957
350.196	2389
350.282	2259
350.367	5029
350.453	16088
350.538	10316
350.624	7296
350.709	5721
350.795	4247
350.880	4108
350.966	7279
351.051	12674
351.137	8057
351.222	4559
351.308	17900
351.393	35025
351.479	8549
351.564	3839
351.649	4455
351.735	3555
351.820	2423
351.906	4246
351.991	9656
352.076	29905
352.162	31587
352.247	6756
352.332	5729
352.418	9371
352.503	15647
352.588	56313
352.673	33881
352.759	9284
352.844	4884
352.929	6991
353.014	6781
353.100	4954
353.185	7502
353.270	14054
353.355	12052
353.441	5999
353.526	9468
353.611	14540
353.696	12690
353.781	8311
353.866	3581
353.952	5590
354.037	13301
354.122	27300
354.207	23008
354.292	8052
354.377	4987
354.462	4314
354.547	6820
354.632	5659
354.717	7751
354.802	6442
354.887	4535
354.972	2470
355.057	2657
355.142	2913
355.227	5200
355.312	9081
355.397	22136
355.482	42768
355.567	18721
355.652	16291
355.737	19649
355.822	63038
355.907	37578
355.991	7461
356.076	4378
356.161	4653
356.246	4255
356.331	6532
356.416	23294
356.501	133134
356.585	101437
356.670	12418
356.755	10186
356.840	16619
356.924	104579
357.009	285574
357.094	77902
357.179	16986
357.263	11557
357.348	12408
357.433	11990
357.517	8843
357.602	7777
357.687	5981
357.771	13889
357.856	37954
357.941	25402
358.025	96375
358.110	315662
358.195	108368
358.279	14715
358.364	13125
358.448	45077
358.533	99666
358.617	67652
358.702	67790
358.787	22099
358.871	13506
358.956	9917
359.040	3377
359.125	3203
359.209	5258
359.294	19438
359.378	26500
359.462	11653
359.547	9235
359.631	6870
359.716	3131
359.800	5459
359.885	9476
359.969	4436
360.053	5264
360.138	4800
360.222	8261
360.306	14309
360.391	11277
360.475	24307
360.559	41503
360.644	39595
360.728	27890
360.812	82161
360.896	171032
360.981	58255
361.065	24273
361.149	8183
361.233	7573
361.318	6219
361.402	7415
361.486	6060
361.570	4944
361.654	8598
361.739	28134
361.823	135331
361.907	160737
361.991	22500
362.075	15647
362.159	27019
362.243	16861
362.327	12278
362.411	13306
362.495	10276
362.580	5473
362.664	4950
362.748	3685
362.832	5273
362.916	7908
363.000	28651
363.084	129746
363.168	184140
363.252	34256
363.336	13417
363.420	28191
363.503	114301
363.587	94232
363.671	13895
363.755	10509
363.839	14122
363.923	6342
364.007	16122
364.091	20877
364.175	53435
364.258	154319
364.342	59797
364.426	27795
364.510	16178
364.594	18423
364.677	42640
364.761	163232
364.845	90160
364.929	24541
365.013	17544
365.096	17371
365.180	22361
365.264	63495
365.347	161977
365.431	52423
365.515	11926
365.598	5508
365.682	6890
365.766	15677
365.849	15519
365.933	8721
366.017	12685
366.100	7811
366.184	4314
366.267	5648
366.351	3511
366.435	2838
366.518	2729
366.602	3214
366.685	3259
366.769	5077
366.852	13910
366.936	17567
367.019	9140
367.103	11693
367.186	18036
367.270	4752
367.353	1985
367.436	4203
367.520	2733
367.603	6037
367.687	8617
367.770	14973
367.853	11114
367.937	43284
368.020	54411
368.104	11707
368.187	13016
368.270	16184
368.353	17141
368.437	49531
368.520	91837
368.603	36214
368.687	49498
368.770	68784
368.853	15957
368.936	20089
369.020	16663
369.103	6076
369.186	3970
369.269	5159
369.352	12271
369.436	15472
369.519	9362
369.602	2842
369.685	6483
369.768	5947
369.851	4956
369.934	4249
370.018	6872
370.101	13163
370.184	11828
370.267	9231
370.350	13527
370.433	26881
370.516	77565
370.599	75001
370.682	22491
370.765	37909
370.848	57325
370.931	97119
371.014	32741
371.097	6080
371.180	5237
371.263	3916
371.346	2017
371.429	3981
371.511	4775
371.594	9511
371.677	17240
371.760	18894
371.843	21809
371.926	131335
372.009	232401
372.091	58973
372.174	51424
372.257	100537
372.340	33316
372.423	30320
372.505	30128
372.588	13140
372.671	36968
372.754	94584
372.836	43366
372.919	56065
373.002	77462
373.085	18765
373.167	17405
373.250	46348
373.332	99283
373.415	185090
373.498	319883
373.580	101831
373.663	169910
373.746	184863
373.828	33427
373.911	15742
373.993	28745
374.076	97510
374.159	70721
374.241	33516
374.324	78155
374.406	51734
374.489	114806
374.571	241964
374.654	77536
374.736	57603
374.819	166140
374.901	243999
374.983	212616
375.066	31354
375.148	21518
375.231	90909
375.313	122783
375.395	35136
375.478	8714
375.560	6732
375.643	13656
375.725	67330
375.807	222286
375.890	167975
375.972	68975
376.054	50899
376.136	71869
376.219	26707
376.301	71550
376.383	155277
376.465	49560
376.548	30057
376.630	52946
376.712	123433
376.794	46201
376.877	6392
376.959	3563
377.041	7241
377.123	18915
377.205	16080
377.287	3351
377.369	4187
377.452	3502
377.534	4180
377.616	4184
377.698	2723
377.780	3145
377.862	4021
377.944	4518
378.026	2812
378.108	3191
378.190	2350
378.272	3701
378.354	1837
378.436	4153
378.518	12013
378.600	32756
378.682	25788
378.764	53094
378.846	34184
378.928	11413
379.010	13441
379.091	7352
379.173	4402
379.255	3658
379.337	6967
379.419	32797
379.501	71877
379.583	25517
379.664	8493
379.746	20921
379.828	51641
379.910	68278
379.991	52114
380.073	9907
380.155	7022
380.237	4597
380.318	3762
380.400	5143
380.482	13289
380.564	16721
380.645	14506
380.727	12333
380.809	7963
380.890	6160
380.972	2903
381.053	4901
381.135	6773
381.217	21167
381.298	48897
381.380	23298
381.461	35774
381.543	145666
381.624	139788
381.706	22997
381.787	12565
381.869	17736
381.951	89786
382.032	256515
382.113	123863
382.195	20563
382.276	15558
382.358	44287
382.439	114233
382.521	152936
382.602	209698
382.684	90480
382.765	148584
382.846	114322
382.928	92193
383.009	47450
383.090	53908
383.172	169817
383.253	200075
383.334	107797
383.416	165406
383.497	69089
383.578	25905
383.659	51318
383.741	180429
383.822	341492
383.903	153341
383.984	107871
384.066	184029
384.147	96824
384.228	18744
384.309	13342
384.390	9081
384.471	7597
384.553	9682
384.634	13850
384.715	13295
384.796	6710
384.877	13750
384.958	50610
385.039	48843
385.120	15451
385.201	9365
385.282	13224
385.363	12972
385.444	11020
385.525	29970
385.606	92575
385.687	67449
385.768	17628
385.849	28761
385.930	130465
386.011	186761
386.092	40263
386.173	10557
386.254	9991
386.335	9120
386.416	9799
386.496	35084
386.577	46782
386.658	19470
386.739	12657
386.820	13231
386.901	9835
386.981	8547
387.062	6937
387.143	16725
387.224	50671
387.304	40220
387.385	15653
387.466	10821
387.547	13550
387.627	7938
387.708	27342
387.789	101889
387.869	105762
387.950	26126
388.031	6364
388.111	9235
388.192	26340
388.273	33187
388.353	16068
388.434	9397
388.514	31913
388.595	122521
388.676	119553
388.756	47192
388.837	43076
388.917	23590
388.998	4686
389.078	6135
389.159	5896
389.239	4530
389.320	9484
389.400	8987
389.480	26741
389.561	52343
389.641	24450
389.722	9510
389.802	14219
389.883	31125
389.963	72582
390.043	45913
390.124	15011
390.204	23769
390.284	57680
390.365	45701
390.445	125190
390.525	340533
390.605	247367
390.686	43083
390.766	12878
390.846	7741
390.927	4800
391.007	5214
391.087	7597
391.167	7501
391.247	7235
391.328	17565
391.408	20069
391.488	11381
391.568	4034
391.648	6929
391.728	9310
391.808	9342
391.888	11750
391.969	31411
392.049	43167
392.129	20680
392.209	29859
392.289	60425
392.369	35278
392.449	32971
392.529	16723
392.609	13896
392.689	23671
392.769	64342
392.849	46388
392.929	45519
393.009	91651
393.089	56056
393.169	48656
393.248	237128
393.328	871631
393.408	754532
393.488	131661
393.568	31900
393.648	17641
393.728	12151
393.807	9637
393.887	10828
393.967	10712
394.047	13762
394.127	19308
394.206	43264
394.286	208280
394.366	714672
394.446	631250
394.525	127683
394.605	33212
394.685	29856
394.764	61079
394.844	88300
394.924	49189
395.003	14597
395.083	11343
395.163	9988
395.242	9877
395.322	10093
395.402	7439
395.481	16132
395.561	49465
395.640	91681
395.720	72831
395.799	119431
395.879	81518
395.958	68008
396.038	301216
396.117	946542
396.197	864830
396.276	222831
396.356	68186
396.435	46064
396.515	28144
396.594	26710
396.673	53827
396.753	275224
396.832	745623
396.912	431555
396.991	77078
397.070	21878
397.150	12573
397.229	9727
397.308	8568
397.388	11378
397.467	7637
397.546	6128
397.625	4189
397.705	8505
397.784	7353
397.863	4426
397.942	3602
398.022	9181
398.101	46566
398.180	94794
398.259	38017
398.338	10356
398.417	6761
398.497	4566
398.576	5753
398.655	2762
398.734	4650
398.813	7663
398.892	48454
398.971	105961
399.050	39562
399.129	4111
399.208	3218
399.287	4120
399.366	3015
399.445	2904
399.524	3939
399.603	3395
399.682	10691
399.761	45146
399.840	122514
399.919	72592
399.998	8252
400.077	2526
400.156	2175
400.235	5977
400.313	3733
400.392	8167
400.471	28240
400.550	35634
400.629	9800
400.708	5611
400.786	8281
400.865	22473
400.944	18729
401.023	8274
401.102	1588
401.180	2732
401.259	3705
401.338	4844
401.416	6577
401.495	4487
401.574	5585
401.652	3543
401.731	6368
401.810	3454
401.888	2865
401.967	1559
402.046	3603
402.124	6726
402.203	6211
402.281	5173
402.360	11425
402.438	27615
402.517	15077
402.596	6179
402.674	5428
402.753	3503
402.831	3779
402.910	5245
402.988	15957
403.066	35206
403.145	19067
403.223	14462
403.302	26859
403.380	19012
403.459	16735
403.537	7167
403.615	3866
403.694	475
403.772	2473
403.850	2105
403.929	1634
404.007	2194
404.085	6133
404.164	4084
404.242	3044
404.320	10920
404.398	30343
404.477	63002
404.555	179520
404.633	127625
404.711	25590
404.789	10089
404.868	3742
404.946	1799
405.024	1605
405.102	2525
405.180	1973
405.258	622
405.336	2962
405.415	3944
405.493	8278
405.571	5007
405.649	1867
405.727	2159
405.805	6354
405.883	3656
405.961	6886
406.039	6871
406.117	3061
406.195	9394
406.273	48016
406.351	129594
406.429	64682
406.507	11135
406.585	3609
406.663	3797
406.740	5220
406.818	4385
406.896	3538
406.974	3905
407.052	16303
407.130	80365
407.208	89818
407.285	15801
407.363	3289
407.441	2919
407.519	3443
407.596	5323
407.674	16503
407.752	44995
407.830	38291
407.907	12614
407.985	3501
408.063	2585
408.141	2664
408.218	7223
408.296	3981
408.373	3135
408.451	3941
408.529	3356
408.606	1259
408.684	1805
408.762	1648
408.839	947
408.917	1199
408.994	1586
409.072	874
409.149	1283
409.227	2656
409.304	2590
409.382	1652
409.459	1078
409.537	3352
409.614	2723
409.692	2280
409.769	2460
409.846	3218
409.924	5142
410.001	2868
410.079	2477
410.156	4260
410.233	4755
410.311	4670
410.388	2630
410.465	2712
410.543	1936
410.620	2086
410.697	2664
410.775	2985
410.852	874
410.929	4104
411.006	5082
411.083	2499
411.161	7298
411.238	8420
411.315	4391
411.392	2040
411.469	4116
411.547	3689
411.624	1328
411.701	2276
411.778	3957
411.855	8038
411.932	3411
412.009	2065
412.086	2086
412.163	4219
412.240	4758
412.317	6206
412.394	4098
412.471	2191
412.548	998
412.625	1672
412.702	4701
412.779	7863
412.856	4970
412.933	2098
413.010	2914
413.087	7270
413.164	25706
413.241	28412
413.318	6554
413.395	5144
413.471	5736
413.548	3756
413.625	3465
413.702	4060
413.779	2586
413.855	1178
413.932	775
414.009	234
414.086	1039
414.162	2235
414.239	6694
414.316	29382
414.393	48520
414.469	14587
414.546	2240
414.623	1309
414.699	2343
414.776	1884
414.853	1724
414.929	3106
415.006	2742
415.082	4680
415.159	2688
415.236	1984
415.312	2739
415.389	5152
415.465	6684
415.542	3021
415.618	2211
415.695	4634
415.771	2887
415.848	3028
415.924	2832
416.000	2121
416.077	2103
416.153	59
416.230	828
416.306	1861
416.383	2094
416.459	1964
416.535	809
416.612	1551
416.688	1268
416.764	1070
416.841	508
416.917	1058
416.993	2529
417.069	3680
417.146	6506
417.222	7876
417.298	3521
417.374	1310
417.451	2896
417.527	3243
417.603	3238
417.679	2636
417.755	1753
417.831	537
417.908	1171
417.984	690
418.060	1445
418.136	7620
418.212	6912
418.288	2463
418.364	2206
418.440	2117
418.516	5283
418.592	8504
418.668	13013
418.744	14504
418.820	9544
418.896	2375
418.972	1331
419.048	2078
419.124	7362
419.200	3916
419.276	1814
419.352	236
419.428	1222
419.504	2023
419.579	2787
419.655	2123
419.731	3088
419.807	11869
419.883	18114
419.959	10062
420.034	4500
420.110	11337
420.186	31562
420.262	20280
420.337	4192
420.413	2621
420.489	1192
420.565	1686
420.640	1573
420.716	1932
420.792	459
420.867	2237
420.943	1044
421.019	4272
421.094	2326
421.170	929
421.245	595
421.321	1999
421.397	1737
421.472	9230
421.548	18611
421.623	10486
421.699	4295
421.774	3147
421.850	2308
421.925	5454
422.001	4147
422.076	2469
422.152	3346
422.227	6318
422.302	6490
422.378	8408
422.453	15957
422.529	51092
422.604	228240
422.679	419779
422.755	181345
422.830	35289
422.905	11897
422.981	6019
423.056	4172
423.131	3449
423.207	3324
423.282	3551
423.357	9173
423.432	5190
423.508	7238
423.583	14187
423.658	9294
423.733	3703
423.808	5016
423.883	4905
423.959	3233
424.034	2016
424.109	1555
424.184	268
424.259	390
424.334	396
424.409	1137
424.484	1093
424.559	1852
424.634	1344
424.709	4171
424.784	4678
424.859	3397
424.934	7121
425.009	23608
425.084	33212
425.159	10279
425.234	2326
425.309	1706
425.384	8737
425.459	11171
425.534	4457
425.609	2964
425.683	1810
425.758	1474
425.833	1721
425.908	4170
425.983	16595
426.058	35347
426.132	13689
426.207	3834
426.282	8467
426.357	4892
426.431	1904
426.506	2029
426.581	2624
426.655	1424
426.730	1835
426.805	1330
426.879	2108
426.954	2982
427.029	9914
427.103	49491
427.178	98321
427.253	36907
427.327	4705
427.402	9347
427.476	17599
427.551	6826
427.625	3949
427.700	2786
427.774	2069
427.849	3215
427.923	1422
427.998	1601
428.072	2580
428.147	7620
428.221	22730
428.296	41858
428.370	16070
428.444	5536
428.519	11130
428.593	20659
428.667	16176
428.742	20329
428.816	18205
428.890	42563
428.965	46366
429.039	24934
429.113	19940
429.188	6409
429.262	2344
429.336	6973
429.410	16413
429.485	12850
429.559	17624
429.633	10574
429.707	4375
429.781	16340
429.855	55523
429.930	63426
430.004	66306
430.078	98394
430.152	67562
430.226	73881
430.300	59392
430.374	9083
430.448	9288
430.522	46417
430.596	95113
430.670	46949
430.744	86835
430.818	107907
430.892	20258
430.966	3263
431.040	2194
431.114	390
431.188	881
431.262	1519
431.336	2843
431.410	12834
431.484	23903
431.557	11139
431.631	1526
431.705	1999
431.779	10488
431.853	35427
431.927	19436
432.000	3115
432.074	2009
432.148	3735
432.222	2416
432.295	1619
432.369	2258
432.443	8796
432.516	53219
432.590	100810
432.664	30323
432.737	3774
432.811	462
432.885	747
432.958	1095
433.032	-21
433.106	-176
433.179	-104
433.253	280
433.326	414
433.400	689
433.473	1049
433.547	-235
433.620	629
433.694	2968
433.767	4505
433.841	1279
433.914	976
433.988	-187
434.061	312
434.134	-12
434.208	-120
434.281	-415
434.355	335
434.428	1150
434.501	614
434.575	951
434.648	1341
434.721	-505
434.795	-63
434.868	-27
434.941	-232
435.014	177
435.088	-183
435.161	1975
435.234	2612
435.307	3171
435.381	1658
435.454	764
435.527	940
435.600	586
435.673	467
435.746	150
435.819	-73
435.892	803
435.966	165
436.039	1668
436.112	775
436.185	248
436.258	-531
436.331	-193
436.404	272
436.477	-910
436.550	-631
436.623	646
436.696	664
436.769	1353
436.842	839
436.915	1602
436.987	2925
437.060	916
437.133	89
437.206	492
437.279	1065
437.352	92
437.425	-29
437.498	1190
437.570	3161
437.643	2967
437.716	436
437.789	939
437.861	3295
437.934	7412
438.007	3148
438.080	391
438.152	1816
438.225	10874
438.298	79692
438.370	155240
438.443	48093
438.516	7930
438.588	1760
438.661	1079
438.734	953
438.806	2313
438.879	2199
438.951	2485
439.024	3521
439.096	1333
439.169	889
439.241	-114
439.314	1348
439.386	3970
439.459	7412
439.531	8140
439.604	1625
439.676	976
439.749	530
439.821	506
439.893	995
439.966	1582
440.038	1613
440.110	1418
440.183	226
440.255	-128
440.327	4351
440.400	31001
440.472	87928
440.544	44610
440.617	4086
440.689	3262
440.761	4990
440.833	6421
440.905	3543
440.978	353
441.050	186
441.122	890
441.194	-175
441.266	550
441.338	630
441.411	4681
441.483	24997
441.555	27996
441.627	5815
441.699	6061
441.771	4046
441.843	805
441.915	117
441.987	261
442.059	784
442.131	2503
442.203	3331
442.275	3716
442.347	2674
442.419	3143
442.491	13055
442.563	24881
442.635	15131
442.706	21731
442.778	11778
442.850	926
442.922	940
442.994	1858
443.066	2925
443.137	1952
443.209	856
443.281	3362
443.353	6998
443.425	23178
443.496	52880
443.568	39247
443.640	11841
443.711	2686
443.783	1002
443.855	70
443.926	587
443.998	2002
444.070	2803
444.141	1557
444.213	2922
444.285	4514
444.356	5905
444.428	4769
444.499	953
444.571	150
444.642	573
444.714	1222
444.785	2398
444.857	8259
444.928	15838
445.000	6578
445.071	12000
445.143	8557
445.214	4303
445.285	11018
445.357	27699
445.428	55107
445.500	96395
445.571	51642
445.642	20493
445.714	21314
445.785	21164
445.856	4327
445.928	3732
445.999	2705
446.070	1913
446.141	2205
446.213	2394
446.284	1579
446.355	2960
446.426	1352
446.497	2606
446.569	5320
446.640	5849
446.711	3583
446.782	2403
446.853	6370
446.924	2976
446.995	1760
447.066	1871
447.138	5661
447.209	2386
447.280	159
447.351	342
447.422	1106
447.493	1136
447.564	1647
447.635	2406
447.706	263
447.777	719
447.847	-32
447.918	325
447.989	1958
448.060	5223
448.131	11268
448.202	6463
448.273	3487
448.344	1993
448.414	1101
448.485	649
448.556	769
448.627	-363
448.698	595
448.768	232
448.839	1998
448.910	5879
448.981	3538
449.051	1447
449.122	413
449.193	538
449.263	743
449.334	376
449.405	3006
449.475	5134
449.546	4211
449.616	6827
449.687	4273
449.758	1431
449.828	1098
449.899	859
449.969	196
450.040	1534
450.110	4758
450.181	3520
450.251	1178
450.322	1561
450.392	1615
450.463	1224
450.533	1574
450.604	1067
450.674	76
450.744	712
450.815	762
450.885	465
450.955	654
451.026	133
451.096	1373
451.166	2113
451.237	9191
451.307	15254
451.377	3789
451.447	216
451.518	691
451.588	-116
451.658	417
451.728	4754
451.799	21086
451.869	13543
451.939	2203
452.009	542
452.079	289
452.149	1204
452.219	6676
452.289	21298
452.360	8795
452.430	1269
452.500	1574
452.570	1507
452.640	3458
452.710	13281
452.780	14314
452.850	8775
452.920	7462
452.990	1795
453.060	2391
453.129	3471
453.199	5047
453.269	39455
453.339	53015
453.409	66630
453.479	89105
453.549	112994
453.619	100034
453.688	24691
453.758	4392
453.828	1449
453.898	1065
453.968	1109
454.037	738
454.087	807
454.107	816
454.168	193
454.177	81
454.247	462
454.249	494
454.316	792
454.330	1247
454.386	2682
454.411	6285
454.456	12085
454.492	11570
454.525	11176
454.574	4610
454.595	1774
454.655	1073
454.665	997
454.734	2349
454.736	2541
454.804	7027
454.817	9927
454.873	20960
454.898	20443
454.943	19173
454.979	12696
455.013	7064
455.060	3946
455.082	2822
455.141	5570
455.152	6064
455.221	18649
455.222	18891
455.291	26084
455.303	26583
455.360	27183
455.384	33451
455.430	40957
455.465	30329
455.499	21604
455.546	19220
455.569	17861
455.627	8411
455.638	6817
455.707	1321
455.708	1339
455.777	950
455.789	1060
455.846	1350
455.869	1324
455.916	1286
455.950	1166
455.985	1037
456.031	1276
456.054	1343
456.112	1237
456.124	1266
456.193	919
456.193	893
456.262	2110
456.274	2479
456.332	4239
456.355	4651
456.401	4518
456.436	2761
456.470	1276
456.516	579
456.540	322
456.597	549
456.609	577
456.678	799
456.678	784
456.747	-315
456.759	-260
456.817	306
456.840	296
456.886	191
456.920	554
456.955	1128
457.001	1322
457.024	1572
457.082	3267
457.093	3567
457.162	6724
457.163	6764
457.232	6696
457.243	5978
457.301	2381
457.324	1725
457.370	1247
457.405	1403
457.439	1605
457.485	1176
457.508	960
457.566	1529
457.577	1656
457.646	1645
457.647	1662
457.715	1666
457.727	1781
457.784	2459
457.808	2912
457.853	3575
457.889	4245
457.922	4457
457.969	3580
457.991	3563
458.050	4428
458.060	4522
458.129	5817
458.130	5877
458.198	5920
458.211	5298
458.267	3016
458.292	2605
458.336	2479
458.372	2411
458.405	2852
458.453	3588
458.474	3970
458.533	6773
458.543	7033
458.611	10056
458.614	10056
458.680	5873
458.694	4917
458.749	3200
458.775	2735
458.818	2089
458.855	2211
458.887	2430
458.936	2119
458.955	1950
459.016	1997
459.024	2034
459.093	2521
459.097	2548
459.162	2700
459.177	2690
459.230	2913
459.257	3293
459.299	3443
459.338	3466
459.368	3582
459.418	3809
459.437	3607
459.499	2331
459.505	2282
459.574	2797
459.579	2789
459.643	2095
459.659	2031
459.711	2665
459.740	2900
459.780	2900
459.820	2897
459.849	2926
459.900	3723
459.917	3837
459.981	3285
459.986	3235
460.054	2591
460.061	2599
460.123	3122
460.141	3108
460.191	3666
460.222	4411
460.260	4616
460.302	4714
460.328	4468
460.382	3619
460.397	3553
460.462	3230
460.465	3355
460.534	6495
460.543	6980
460.602	15645
460.623	19117
460.671	28134
460.703	37040
460.739	32643
460.783	20596
460.808	16774
460.864	5481
460.876	4473
460.944	3280
460.945	3265
461.013	3741
461.024	3841
461.081	4141
461.104	4247
461.150	3919
461.184	3570
461.218	3366
461.264	2947
461.286	3093
461.345	3541
461.355	3481
461.423	3254
461.425	3244
461.491	4269
461.505	4615
461.559	10894
461.585	13655
461.628	19378
461.665	26151
461.696	27858
461.745	31837
461.764	28253
461.825	7027
461.832	6418
461.901	5051
461.905	5094
461.969	4294
461.985	3993
462.037	3955
462.065	3984
462.105	5540
462.145	7132
462.173	9457
462.225	13988
462.241	15237
462.305	22323
462.310	21734
462.378	10108
462.385	8496
462.446	5046
462.465	4699
462.514	4699
462.545	4788
462.582	4773
462.625	4782
462.650	4666
462.705	4101
462.718	4462
462.785	6772
462.786	6798
462.854	7930
462.865	8242
462.922	10150
462.945	10849
462.990	7915
463.025	4722
463.058	4099
463.104	3847
463.126	3818
463.184	4125
463.194	4229
463.262	4670
463.264	4693
463.330	5629
463.344	5750
463.398	6338
463.424	6621
463.466	5970
463.504	5682
463.533	6178
463.583	6628
463.601	6814
463.663	7476
463.669	7719
463.737	10412
463.743	10702
463.805	17271
463.823	19043
463.873	26857
463.903	32298
463.940	32306
463.982	32105
464.008	25626
464.062	9203
464.076	8393
464.142	5349
464.144	5341
464.211	5910
464.221	5955
464.279	5830
464.301	5885
464.347	6508
464.381	6938
464.414	7863
464.461	9269
464.482	9566
464.540	10460
464.550	10188
464.617	7451
464.620	7356
464.685	8977
464.699	9330
464.753	10824
464.779	11664
464.820	12217
464.859	12509
464.888	12202
464.938	11642
464.956	11811
465.018	12444
465.023	12281
465.091	9750
465.098	9492
465.158	9987
465.177	10095
465.226	9938
465.257	9899
465.293	10278
465.336	10552
465.361	11684
465.416	14282
465.428	15561
465.495	22431
465.496	22527
465.563	31715
465.575	33377
465.631	38141
465.654	40051
465.698	25314
465.734	12219
465.765	11667
465.813	11366
465.833	11388
465.893	11630
465.900	11623
465.968	11429
465.972	11403
466.035	12553
466.052	12792
466.102	12831
466.131	12852
466.170	13135
466.210	13354
466.237	14013
466.290	15325
466.304	15477
466.369	15949
466.372	16010
466.439	16940
466.449	17055
466.506	18981
466.528	19688
466.573	27223
466.607	32741
466.641	41729
466.687	54226
466.708	57443
466.766	66353
466.775	61978
466.842	27576
466.845	25903
466.909	22306
466.925	21482
466.977	20947
467.004	20644
467.044	21072
467.083	21414
467.111	22077
467.163	23235
467.178	23737
467.242	25588
467.245	25496
467.312	22606
467.321	22182
467.379	21310
467.400	20928
467.446	21702
467.480	22186
467.559	19328
467.638	17855
467.717	17525
467.796	19074
467.875	20110
467.955	17939
468.034	31278
468.113	55492
468.192	74464
468.271	18013
468.350	13176
468.429	13842
468.508	13006
468.588	12612
468.667	13720
468.746	14058
468.825	13418
468.904	12625
468.983	16821
469.062	23968
469.141	27132
469.220	11944
469.299	12904
469.378	13554
469.456	16951
469.535	14917
469.614	13841
469.693	15613
469.772	19856
469.851	25987
469.930	16113
470.009	12584
470.088	12836
470.166	14811
470.245	18605
470.324	19503
470.403	15370
470.482	13443
470.560	12810
470.639	13556
470.718	16005
470.797	13393
470.875	16803
470.954	20144
471.033	21824
471.111	9009
471.190	10085
471.269	10070
471.347	10363
471.426	11013
471.505	12695
471.583	12707
471.662	11924
471.740	11259
471.819	10755
471.898	10707
471.976	11003
472.055	11198
472.133	12977
472.212	16957
472.290	16271
472.369	10795
472.447	9998
472.526	9496
472.604	11257
472.683	10542
472.761	11459
472.839	11443
472.918	10863
472.996	11581
473.075	13154
473.153	11513
473.231	10523
473.310	12449
473.388	11635
473.466	11339
473.545	13694
473.623	17544
473.701	15062
473.780	10708
473.858	11046
473.936	12097
474.014	10607
474.093	13393
474.171	20155
474.249	26018
474.327	15936
474.405	9373
474.484	10263
474.562	9925
474.640	10901
474.718	12717
474.796	13729
474.874	12013
474.952	11110
475.030	10862
475.108	13858
475.187	16041
475.265	14983
475.343	16324
475.421	16193
475.499	11385
475.577	11476
475.655	16518
475.733	32981
475.811	56902
475.889	46542
475.966	25856
476.044	10585
476.122	11277
476.200	13117
476.278	9690
476.356	9360
476.434	9849
476.512	11650
476.590	13259
476.667	11959
476.745	8306
476.823	10271
476.901	9822
476.979	11123
477.056	9761
477.134	10030
477.212	9853
477.290	9860
477.367	8062
477.445	9274
477.523	9025
477.601	8664
477.678	9738
477.756	12203
477.834	12646
477.911	9517
477.989	9190
478.066	8211
478.144	9739
478.222	10880
478.299	13342
478.377	10542
478.454	7277
478.532	8206
478.609	8628
478.687	10451
478.764	7035
478.842	9506
478.919	10251
478.997	10199
479.074	8401
479.152	10807
479.229	15396
479.307	8126
479.384	7049
479.461	8734
479.539	8129
479.616	11349
479.694	8416
479.771	9799
479.848	11241
479.926	14758
480.003	16140
480.080	8919
480.157	6946
480.235	6858
480.312	8039
480.389	11566
480.467	18682
480.544	21716
480.621	8703
480.698	8788
480.775	9900
480.853	10392
480.930	8370
481.007	8473
481.084	10587
481.161	11038
481.238	10984
481.315	7348
481.392	7331
481.470	7666
481.547	8899
481.624	7778
481.701	7798
481.778	8468
481.855	10923
481.932	18598
482.009	27319
482.086	15910
482.163	8075
482.240	11081
482.317	14614
482.393	11838
482.470	8861
482.547	8411
482.624	7913
482.701	8953
482.778	8784
482.855	6380
482.932	6804
483.009	7371
483.085	7776
483.162	9812
483.239	8736
483.316	7647
483.393	6627
483.469	7643
483.546	10490
483.623	11178
483.699	8008
483.776	8057
483.853	9984
483.930	20478
484.006	48293
484.083	76923
484.160	37647
484.236	50819
484.313	35832
484.389	27794
484.466	26302
484.543	24473
484.619	23956
484.696	25945
484.772	27573
484.849	29394
484.925	23366
485.002	22893
485.078	24808
485.155	23449
485.231	22658
485.308	22199
485.384	23500
485.461	31987
485.537	50925
485.614	57448
485.690	22773
485.766	21335
485.843	24720
485.919	32466
485.995	30992
486.072	20001
486.148	20626
486.224	19773
486.301	22013
486.377	24575
486.453	23873
486.530	24646
486.606	33030
486.682	35938
486.758	44021
486.835	48791
486.911	41290
486.987	65885
487.063	63904
487.139	72483
487.215	48123
487.292	25772
487.368	22071
487.444	23688
487.520	27307
487.596	23139
487.672	27966
487.748	45549
487.824	54689
487.900	28205
487.976	23389
488.052	23305
488.128	26627
488.204	22437
488.280	21522
488.356	30917
488.432	62844
488.508	85889
488.584	26137
488.660	18910
488.736	20346
488.812	21253
488.888	27221
488.964	38794
489.039	80209
489.115	106495
489.191	55502
489.267	21646
489.343	19531
489.418	16914
489.494	16175
489.570	15435
489.646	17981
489.722	17648
489.797	18599
489.873	35734
489.949	67822
490.024	50902
490.100	16638
490.176	17515
490.251	22493
490.327	25708
490.403	15534
490.478	15228
490.554	13184
490.629	14414
490.705	13643
490.781	15978
490.856	16445
490.932	18759
491.007	18403
491.083	17378
491.158	16504
491.234	27116
491.309	52252
491.385	48529
491.460	15441
491.536	18131
491.611	14851
491.686	18475
491.762	25723
491.837	50765
491.913	83394
491.988	115736
492.063	124416
492.139	36587
492.214	23937
492.289	13246
492.365	14290
492.440	16568
492.515	15192
492.590	15614
492.666	12722
492.741	21109
492.816	29636
492.891	15611
492.967	12647
493.042	12357
493.117	13366
493.192	16849
493.267	40411
493.342	114536
493.418	126631
493.493	18044
493.568	11866
493.643	12485
493.718	16670
493.793	24399
493.868	26486
493.943	14080
494.018	12044
494.093	10983
494.168	11109
494.243	11014
494.318	9483
494.393	10785
494.468	10119
494.543	10213
494.618	12299
494.693	11281
494.768	11256
494.842	11808
494.917	10429
494.992	12334
495.067	10295
495.142	10353
495.217	11607
495.292	11836
495.366	12799
495.441	15891
495.516	19750
495.591	36442
495.665	120670
495.740	229673
495.815	70690
495.890	16794
495.964	13567
496.039	16668
496.114	13160
496.188	15896
496.263	15647
496.338	13770
496.412	18470
496.487	20543
496.561	21405
496.636	21070
496.710	17584
496.785	21332
496.860	22612
496.934	19937
497.009	20617
497.083	20166
497.158	21431
497.232	27043
497.307	32514
497.381	30999
497.455	37779
497.530	46280
497.604	36229
497.679	43240
497.753	62669
497.827	77689
497.902	75162
497.976	86304
498.050	203195
498.125	561176
498.199	488962
498.273	106384
498.348	91750
498.422	78569
498.496	68333
498.570	60089
498.645	49202
498.719	45270
498.793	46331
498.867	59682
498.941	86067
499.016	256042
499.090	533953
499.164	152266
499.238	27993
499.312	24051
499.386	27982
499.460	26726
499.534	23409
499.609	27177
499.683	35799
499.757	39538
499.831	116043
499.905	364613
499.979	288005
500.053	45589
500.127	44828
500.201	30831
500.275	20452
500.349	19843
500.422	20755
500.496	35140
500.570	79794
500.644	209553
500.718	335316
500.792	59323
500.866	20996
500.940	24976
501.013	20189
501.087	20107
501.161	32207
501.235	45639
501.309	125552
501.382	311053
501.456	231889
501.530	56216
501.603	90132
501.677	31712
501.751	14518
501.825	21760
501.898	47218
501.972	114391
502.046	61561
502.119	20218
502.193	58352
502.266	122954
502.340	54053
502.413	60889
502.487	106516
502.561	55880
502.634	18987
502.708	14887
502.781	11772
502.855	11796
502.928	9094
503.002	10092
503.075	10273
503.149	11812
503.222	11866
503.295	12175
503.369	14317
503.442	27664
503.516	101173
503.589	222119
503.662	127916
503.736	43800
503.809	98936
503.882	79515
503.956	113504
504.029	89205
504.102	33653
504.175	31719
504.249	14565
504.322	15907
504.395	14471
504.468	11725
504.542	11038
504.615	8052
504.688	7842
504.761	6988
504.834	11421
504.907	14796
504.980	20284
505.053	10384
505.127	12301
505.200	18266
505.273	17997
505.346	11133
505.419	7334
505.492	8913
505.565	7517
505.638	9763
505.711	7463
505.784	7023
505.857	6859
505.930	9574
506.003	6709
506.076	10832
506.149	12740
506.221	13583
506.294	17612
506.367	55496
506.440	155784
506.513	69862
506.586	16935
506.659	9851
506.731	8450
506.804	12536
506.877	15774
506.950	11354
507.022	8455
507.095	12038
507.168	14803
507.241	9259
507.313	6485
507.386	9632
507.459	13625
507.531	7679
507.604	6929
507.677	7747
507.749	4985
507.822	11894
507.894	21869
507.967	22354
508.040	11908
508.112	11950
508.185	10432
508.257	10735
508.330	15827
508.402	9989
508.475	10054
508.547	12100
508.620	12714
508.692	20252
508.765	11728
508.837	8702
508.909	9324
508.982	8971
509.054	11047
509.127	8998
509.199	8242
509.271	7612
509.344	7149
509.416	7927
509.488	8627
509.560	8875
509.633	9689
509.705	10985
509.777	10875
509.849	15601
509.922	9252
509.994	7547
510.066	9726
510.138	9891
510.210	20886
510.283	16992
510.355	14771
510.427	13292
510.499	11019
510.571	11189
510.643	11592
510.715	19148
510.787	14736
510.859	13143
510.931	13940
511.003	17443
511.076	14994
511.148	10144
511.219	10881
511.291	21844
511.363	22371
511.435	10280
511.507	9586
511.579	10392
511.651	10884
511.723	9213
511.795	9206
511.867	10126
511.939	15645
512.010	31444
512.082	22584
512.154	10478
512.226	10931
512.298	18501
512.369	22198
512.441	18253
512.513	18113
512.585	13081
512.656	15200
512.728	14526
512.800	12651
512.871	13814
512.943	12656
513.015	9079
513.086	12289
513.158	12239
513.230	14303
513.301	21971
513.373	20531
513.444	12444
513.516	10655
513.588	11206
513.659	12387
513.731	15697
513.802	13828
513.874	33811
513.945	45411
514.016	13856
514.088	10811
514.159	11963
514.231	17168
514.302	20005
514.374	15811
514.445	17254
514.516	35545
514.588	23998
514.659	18120
514.730	31175
514.802	26741
514.873	27406
514.944	27381
515.016	20571
515.087	19141
515.158	26953
515.229	34552
515.301	34042
515.372	43679
515.443	26562
515.514	17605
515.585	12946
515.656	12971
515.728	11566
515.799	10663
515.870	12820
515.941	11729
516.012	12022
516.083	17155
516.154	19183
516.225	22895
516.296	20188
516.367	18088
516.438	17386
516.509	21597
516.580	33396
516.651	111832
516.722	293052
516.793	101112
516.864	31107
516.935	28341
517.006	30502
517.077	44704
517.148	113807
517.219	377298
517.289	421741
517.360	174242
517.431	55101
517.502	17936
517.573	17789
517.643	17854
517.714	19750
517.785	20204
517.856	20473
517.926	22864
517.997	25245
518.068	27276
518.138	38536
518.209	68143
518.280	305213
518.350	785637
518.421	204141
518.492	30052
518.562	22432
518.633	22334
518.703	18214
518.774	25597
518.845	39795
518.915	34234
518.986	20777
519.056	23866
519.127	44549
519.197	79620
519.268	176992
519.338	93986
519.408	24725
519.479	25377
519.549	18691
519.620	14714
519.690	10344
519.760	11091
519.831	12271
519.901	11616
519.971	10972
520.042	12438
520.112	14089
520.182	16654
520.253	16908
520.323	11898
520.393	18315
520.463	24095
520.534	20130
520.604	38474
520.674	18321
520.744	20540
520.814	43296
520.885	35168
520.955	71247
521.025	208180
521.095	63255
521.165	14124
521.235	12637
521.305	10513
521.375	10615
521.445	12017
521.515	14017
521.585	17782
521.655	12789
521.725	14093
521.795	13092
521.865	9516
521.935	18663
522.005	13252
522.075	8778
522.145	10918
522.215	13794
522.285	19467
522.355	29820
522.424	57300
522.494	41569
522.564	20501
522.634	47907
522.704	101252
522.774	29321
522.843	11817
522.913	11669
522.983	13827
523.053	10054
523.122	11708
523.192	19718
523.262	65979
523.331	45534
523.401	10496
523.471	8702
523.540	8729
523.610	6844
523.680	7172
523.749	7438
523.819	11766
523.888	11072
523.958	6837
524.027	8072
524.097	8986
524.166	8137
524.236	9874
524.305	10412
524.375	7295
524.444	6287
524.514	9777
524.583	9247
524.653	11512
524.722	14997
524.791	7694
524.861	9082
524.930	6499
524.999	8321
525.069	12486
525.138	11506
525.207	13333
525.277	9171
525.346	7991
525.415	8466
525.484	8646
525.554	11852
525.623	10663
525.692	8992
525.761	8065
525.830	8218
525.900	8865
525.969	13331
526.038	16456
526.107	23666
526.176	56852
526.245	44362
526.314	28370
526.383	39528
526.452	43245
526.522	79667
526.591	86819
526.660	50913
526.729	21199
526.797	27389
526.867	81326
526.935	293253
527.004	243908
527.073	93373
527.142	14218
527.211	10546
527.280	13066
527.349	11659
527.418	5520
527.487	8374
527.555	6401
527.624	6335
527.693	4536
527.762	7800
527.831	4969
527.899	7394
527.968	6180
528.037	6839
528.106	10880
528.174	18342
528.243	15699
528.312	26990
528.380	26092
528.449	8646
528.518	7292
528.586	4189
528.655	6448
528.723	6014
528.792	6320
528.861	6059
528.929	5037
528.998	6782
529.066	4627
529.135	4911
529.203	4527
529.272	4417
529.340	5963
529.409	7546
529.477	6119
529.545	8516
529.614	11555
529.682	11410
529.751	13171
529.819	14584
529.887	7963
529.956	5569
530.024	6915
530.092	5209
530.161	8491
530.229	12952
530.297	5504
530.365	6119
530.434	3814
530.502	3930
530.570	5509
530.638	3912
530.707	7050
530.775	7158
530.843	5537
530.911	5413
530.979	4615
531.047	4667
531.115	5822
531.183	4889
531.252	5536
531.320	6267
531.388	4728
531.456	5636
531.524	2292
531.592	7104
531.660	8073
531.728	4257
531.796	5312
531.864	6532
531.932	6035
532.000	5884
532.067	5931
532.135	7424
532.203	8441
532.271	9175
532.339	20656
532.407	48445
532.475	21412
532.542	10958
532.610	11142
532.678	20852
532.746	103986
532.814	172853
532.881	31896
532.949	9336
533.017	7432
533.084	7820
533.152	6680
533.220	6713
533.287	7371
533.355	6017
533.423	6205
533.490	5324
533.558	5600
533.625	7513
533.693	8092
533.761	7012
533.828	8475
533.896	7806
533.963	18324
534.031	19660
534.098	24556
534.166	9830
534.233	5801
534.300	8163
534.368	7307
534.435	5592
534.503	7394
534.570	7888
534.637	6141
534.705	6511
534.772	6740
534.840	9711
534.907	32943
534.974	30899
535.041	9002
535.109	10456
535.176	6309
535.243	5972
535.310	7093
535.378	5614
535.445	5487
535.512	4887
535.579	6061
535.646	5470
535.714	7222
535.781	9353
535.848	7856
535.915	8875
535.982	8120
536.049	7109
536.116	8500
536.183	7537
536.250	7417
536.317	8674
536.384	10311
536.451	17239
536.518	14882
536.585	9561
536.652	15947
536.719	22042
536.786	12790
536.853	11335
536.920	20624
536.987	29872
537.053	30116
537.120	108083
537.187	59494
537.254	8634
537.321	7385
537.388	7779
537.454	5516
537.521	5773
537.588	5806
537.654	9409
537.721	8765
537.788	9178
537.855	6569
537.921	8306
537.988	7327
538.055	8068
538.121	6871
538.188	10012
538.254	17642
538.321	31710
538.388	15617
538.454	8616
538.521	6904
538.587	6409
538.654	6063
538.720	6854
538.787	6243
538.853	7809
538.920	10821
538.986	10938
539.053	8254
539.119	9695
539.185	9129
539.252	12448
539.318	15887
539.385	11933
539.451	8964
539.517	10371
539.583	13678
539.650	36245
539.716	64579
539.782	15635
539.849	7894
539.915	9236
539.981	8923
540.047	11784
540.114	9996
540.180	10784
540.246	9337
540.312	15922
540.378	33294
540.444	26763
540.510	37074
540.576	74870
540.643	17852
540.709	7404
540.775	8227
540.841	7726
540.907	15323
540.973	22448
541.039	18972
541.105	16595
541.171	8733
541.237	7971
541.303	9412
541.369	12607
541.435	16591
541.500	27964
541.566	12813
541.632	8347
541.698	7124
541.764	7522
541.830	7721
541.896	7056
541.961	8479
542.027	7382
542.093	7826
542.159	9212
542.224	10388
542.290	18336
542.356	30128
542.421	27591
542.487	12923
542.553	9120
542.618	11266
542.684	8323
542.750	8572
542.815	12062
542.881	24263
542.947	75644
543.012	35805
543.078	8784
543.143	7769
543.209	9443
543.274	7317
543.340	11802
543.405	31728
543.471	33887
543.536	8953
543.602	8873
543.667	7599
543.732	9328
543.798	6877
543.863	8871
543.928	7388
543.994	6872
544.059	8176
544.124	7618
544.190	7915
544.255	8426
544.320	8413
544.386	7846
544.451	13788
544.516	15173
544.581	16658
544.646	52948
544.712	55908
544.777	13275
544.842	10978
544.907	12862
544.972	10578
545.037	10193
545.102	10953
545.168	10259
545.233	10409
545.298	12116
545.363	14203
545.428	16859
545.493	34006
545.558	54604
545.623	18214
545.688	9540
545.753	10376
545.818	9615
545.883	10745
545.947	10392
546.012	11955
546.077	11736
546.142	10800
546.207	10849
546.272	16167
546.337	15042
546.401	12622
546.466	10827
546.531	10258
546.596	12221
546.661	11291
546.725	10225
546.790	9909
546.855	10100
546.919	8113
546.984	10875
547.049	10468
547.113	14324
547.178	10197
547.243	14805
547.307	15256
547.372	17476
547.436	18019
547.501	12241
547.565	13477
547.630	17518
547.695	16998
547.759	20726
547.823	15172
547.888	11992
547.952	10749
548.017	13067
548.081	17341
548.146	24751
548.210	18227
548.274	12019
548.339	11659
548.403	11568
548.468	10037
548.532	9633
548.596	12219
548.660	11763
548.725	13391
548.789	17395
548.853	16907
548.917	13633
548.982	22282
549.046	20453
549.110	11600
549.174	10955
549.238	11577
549.303	11156
549.367	12552
549.431	11905
549.495	11892
549.559	11126
549.623	12029
549.687	15124
549.751	19393
549.815	14759
549.879	13945
549.943	12420
550.007	14052
550.071	14414
550.135	18109
550.199	14358
550.263	14337
550.327	17838
550.391	23332
550.455	14290
550.519	13836
550.582	15819
550.646	21791
550.710	19494
550.774	14036
550.838	15298
550.901	16009
550.965	16790
551.029	17041
551.093	20086
551.156	29480
551.220	61072
551.284	52378
551.347	30777
551.411	73726
551.475	63459
551.538	17936
551.602	14258
551.666	13178
551.729	12169
551.793	14207
551.856	14055
551.920	13017
551.983	13547
552.047	12586
552.110	12732
552.174	13250
552.237	13137
552.301	11772
552.364	13456
552.428	12960
552.491	12935
552.554	13217
552.618	13709
552.681	14397
552.745	15785
552.808	23605
552.871	25813
552.934	17722
552.998	14848
553.061	15652
553.124	14081
553.187	13338
553.251	14697
553.314	14535
553.377	16258
553.440	25202
553.503	71965
553.567	75622
553.630	16511
553.693	13853
553.756	13166
553.819	11950
553.882	12027
553.945	12522
554.008	11693
554.071	11337
554.134	12098
554.197	9503
554.260	11932
554.323	12838
554.386	13077
554.449	11802
554.512	11929
554.575	11231
554.638	12865
554.701	11423
554.764	12012
554.827	11448
554.889	10022
554.952	10209
555.015	8931
555.078	9613
555.141	11250
555.203	8988
555.266	10948
555.329	10877
555.391	10201
555.454	12017
555.517	12012
555.580	10939
555.642	10397
555.705	9849
555.768	10744
555.830	11099
555.893	10085
555.955	10361
556.018	10147
556.080	9731
556.143	10121
556.206	9562
556.268	11309
556.330	11740
556.393	12031
556.455	12526
556.518	21719
556.580	17562
556.643	9441
556.705	9770
556.767	8105
556.830	11160
556.892	13245
556.955	19671
557.017	12718
557.079	10274
557.142	9675
557.204	14381
557.266	29932
557.328	17920
557.391	9218
557.453	9631
557.515	11104
557.577	12996
557.639	12182
557.701	9326
557.764	8555
557.826	9186
557.888	10261
557.950	9688
558.012	10587
558.074	12124
558.136	25565
558.198	44762
558.260	19063
558.322	11565
558.384	12080
558.446	13664
558.508	15250
558.570	20668
558.632	38134
558.694	45850
558.756	40249
558.818	127202
558.880	242256
558.942	60617
559.003	48369
559.065	22269
559.127	14007
559.189	13371
559.251	14001
559.312	21290
559.374	55061
559.436	149306
559.498	55977
559.559	13466
559.621	13587
559.683	16263
559.744	29124
559.806	81724
559.868	88679
559.929	19565
559.991	15860
560.052	22577
560.114	46865
560.176	27857
560.237	32942
560.299	41851
560.360	14081
560.422	10914
560.483	11678
560.545	9415
560.606	10000
560.667	9108
560.729	8970
560.790	9054
560.852	10519
560.913	9312
560.974	9391
561.036	8985
561.097	9162
561.158	9954
561.220	11178
561.281	9734
561.342	10186
561.403	13301
561.465	18586
561.526	46202
561.587	45153
561.648	11683
561.709	10288
561.771	9485
561.832	10617
561.893	9809
561.954	8930
562.015	9687
562.076	9729
562.137	9693
562.198	8963
562.259	10193
562.320	10389
562.381	11197
562.442	17312
562.503	11406
562.564	10001
562.625	9473
562.686	9954
562.747	10536
562.808	9730
562.869	10445
562.930	13056
562.991	12036
563.051	11494
563.112	10195
563.173	10286
563.234	9628
563.294	10857
563.355	9933
563.416	10146
563.477	10418
563.537	10712
563.598	11311
563.659	10826
563.720	10997
563.780	11517
563.841	12060
563.901	10572
563.962	10016
564.023	11100
564.083	10826
564.144	11737
564.204	11328
564.265	11868
564.325	16799
564.386	33671
564.446	24296
564.507	12096
564.567	11295
564.628	11122
564.688	10798
564.749	11600
564.809	15356
564.869	16697
564.930	11140
564.990	10888
565.050	10544
565.111	10850
565.171	11039
565.231	11999
565.292	11674
565.352	10362
565.412	11927
565.472	12845
565.532	13465
565.593	12502
565.653	11853
565.713	12771
565.773	13977
565.833	17523
565.893	19961
565.953	13682
566.013	13637
566.074	15687
566.134	22315
566.194	33517
566.254	30859
566.314	20930
566.374	17396
566.434	17534
566.494	18444
566.554	20263
566.614	19933
566.673	21331
566.733	23371
566.793	24769
566.853	24530
566.913	25423
566.973	27107
567.033	27230
567.092	25768
567.152	26760
567.212	27609
567.272	29137
567.331	32503
567.391	32634
567.451	36518
567.511	43912
567.570	39665
567.630	31267
567.690	28904
567.749	31341
567.809	33803
567.868	38025
567.928	43690
567.988	53809
568.047	63879
568.107	85536
568.166	124618
568.226	203426
568.285	258635
568.345	219264
568.404	176288
568.464	149379
568.523	136458
568.582	136233
568.642	155764
568.701	204119
568.761	314038
568.820	458389
568.879	422640
568.939	321289
568.998	236609
569.057	179248
569.116	139435
569.176	109345
569.235	89640
569.294	75352
569.353	64355
569.413	54476
569.472	48766
569.531	42367
569.590	37076
569.649	34656
569.708	30573
569.767	29780
569.827	28723
569.886	25265
569.945	22354
570.004	23105
570.063	21884
570.122	22815
570.181	21308
570.240	22061
570.299	20229
570.358	18370
570.417	15465
570.475	15262
570.534	16207
570.593	15647
570.652	14963
570.711	15062
570.770	15767
570.829	19242
570.887	16757
570.946	15868
571.005	12359
571.064	12806
571.122	13308
571.181	14914
571.240	12271
571.299	11848
571.357	12834
571.416	13807
571.475	15738
571.533	14613
571.592	12025
571.650	11726
571.709	9499
571.768	9999
571.826	9696
571.885	10094
571.943	9918
572.002	10923
572.060	10367
572.119	9155
572.177	8754
572.236	8629
572.294	8620
572.352	9165
572.411	8791
572.469	8129
572.528	8270
572.586	9756
572.644	10479
572.703	11098
572.761	8797
572.819	9483
572.877	7749
572.936	7736
572.994	8299
573.052	9032
573.110	9009
573.169	9797
573.227	7784
573.285	8197
573.343	7690
573.401	8397
573.459	8502
573.517	7782
573.576	7770
573.634	8345
573.692	8861
573.750	8125
573.808	8238
573.866	10091
573.924	12567
573.982	11304
574.040	8620
574.098	8092
574.155	8012
574.213	8235
574.271	6401
574.329	7271
574.387	6800
574.445	7252
574.503	7951
574.560	6738
574.618	6804
574.676	6819
574.734	6170
574.792	7232
574.849	6484
574.907	7893
574.965	6438
575.022	7225
575.080	6668
575.138	7294
575.195	7505
575.253	8178
575.311	8428
575.368	7701
575.426	6541
575.483	7583
575.541	7356
575.598	7307
575.656	8164
575.713	7449
575.771	7337
575.828	7448
575.886	7215
575.943	8258
576.001	8089
576.058	8068
576.115	8876
576.173	11155
576.230	12147
576.287	11283
576.345	9864
576.402	8322
576.459	8471
576.517	8976
576.574	10443
576.631	10420
576.688	9142
576.746	7413
576.803	7716
576.860	7622
576.917	8284
576.974	8015
577.031	8267
577.089	8444
577.146	8027
577.203	9085
577.260	9740
577.317	10479
577.374	11593
577.431	10610
577.488	9504
577.545	8015
577.602	9134
577.659	8793
577.716	8179
577.773	7718
577.830	7510
577.886	8265
577.943	7863
578.000	7782
578.057	9173
578.114	9072
578.171	9694
578.227	10343
578.284	9114
578.341	9666
578.398	9551
578.454	9216
578.511	11047
578.568	11924
578.625	9283
578.681	7544
578.738	7956
578.794	8060
578.851	7685
578.908	8855
578.964	7821
579.021	7836
579.077	7802
579.134	8550
579.190	6986
579.247	7486
579.303	8195
579.360	7883
579.416	7605
579.473	8278
579.529	7219
579.586	7644
579.642	7961
579.698	8914
579.755	8664
579.811	9865
579.867	8844
579.924	7893
579.980	8919
580.036	9185
580.093	10696
580.149	11467
580.205	12508
580.261	10763
580.317	10604
580.374	10213
580.430	11583
580.486	11568
580.542	9680
580.598	9771
580.619	9766
580.654	9766
580.692	9095
580.710	8783
580.765	8825
580.767	8834
580.823	8846
580.838	8772
580.879	8610
580.911	8764
580.935	8898
580.984	8188
580.991	8098
581.047	9052
581.057	8942
581.103	8510
581.130	8892
581.159	9305
581.203	9788
581.215	9927
581.270	9243
581.276	9177
581.326	8559
581.349	8475
581.382	8410
581.422	9366
581.438	9768
581.494	9173
581.494	9166
581.550	8899
581.567	9082
581.606	9518
581.640	9271
581.661	9100
581.713	8643
581.717	8620
581.773	9392
581.786	9374
581.829	9282
581.859	8787
581.885	8459
581.932	8981
581.940	9035
581.996	8388
582.004	8475
582.052	9053
582.077	8985
582.107	8977
582.150	9084
582.163	9115
582.219	9429
582.223	9478
582.274	10170
582.296	10121
582.330	9954
582.368	10301
582.386	10538
582.441	9932
582.441	9932
582.497	9914
582.514	9746
582.552	9678
582.587	9855
582.608	9834
582.659	9923
582.663	9940
582.719	10050
582.732	9961
582.774	9785
582.805	9929
582.830	9961
582.877	9962
582.885	9999
582.941	10279
582.950	10347
582.996	10503
583.023	10751
583.052	11126
583.095	11817
583.107	11984
583.162	12864
583.168	12868
583.218	12881
583.240	12740
583.273	12492
583.313	11479
583.328	11160
583.384	11668
583.385	11644
583.439	10576
583.458	10707
583.494	11125
583.531	11010
583.549	10932
583.603	11531
583.605	11548
583.660	11385
583.676	11358
583.715	11382
583.748	11909
583.770	12268
583.820	12246
583.825	12223
583.881	11462
583.893	11361
583.936	11263
583.965	11327
583.991	11328
584.038	12568
584.046	12788
584.101	12634
584.110	12619
584.156	12273
584.183	12248
584.211	12436
584.255	12614
584.266	12612
584.321	11801
584.328	11890
584.376	12628
584.400	13066
584.431	13694
584.472	13255
584.486	13023
584.541	13163
584.545	13153
584.596	13150
584.617	13177
584.651	13700
584.689	14634
584.706	14729
584.761	14773
584.762	14771
584.816	14460
584.834	14701
584.871	15386
584.906	15555
584.926	15620
584.978	15352
584.980	15345
585.035	16388
585.051	16603
585.090	17082
585.123	17005
585.145	16927
585.195	17324
585.200	17410
585.254	18618
585.267	19130
585.309	20543
585.340	21857
585.364	22827
585.412	21485
585.419	21230
585.473	21694
585.484	21705
585.528	22339
585.556	24005
585.583	26507
585.628	31982
585.637	33786
585.692	53259
585.700	55619
585.747	63729
585.772	55511
585.801	40651
585.845	27061
585.856	25303
585.910	23728
585.917	23535
585.965	23311
585.989	23363
586.019	23591
586.061	24189
586.074	24268
586.128	24791
586.133	24807
586.183	25656
586.205	26073
586.237	26515
586.277	26945
586.292	27031
586.346	27027
586.349	27052
586.401	27924
586.421	28360
586.455	29206
586.493	31321
586.509	32803
586.564	38487
586.565	38742
586.618	50167
586.637	48922
586.672	42184
586.709	36761
586.727	34931
586.781	34491
586.781	34497
586.835	34952
586.853	35417
586.889	36399
586.925	37225
586.944	37832
586.996	40109
586.998	40169
587.052	41645
587.068	41977
587.106	43094
587.140	44337
587.161	44985
587.212	47140
587.215	47283
587.269	49650
587.284	50423
587.323	52938
587.356	55143
587.377	56292
587.427	58597
587.431	58809
587.485	61838
587.499	62848
587.539	66467
587.571	69012
587.593	70908
587.643	76127
587.648	76701
587.702	82363
587.715	84120
587.755	90016
587.786	94091
587.810	97529
587.858	105081
587.864	106074
587.917	117353
587.930	119908
587.971	130649
588.001	139344
588.025	146422
588.073	160501
588.079	162674
588.133	183597
588.145	188504
588.187	208141
588.217	222742
588.241	237515
588.288	268533
588.295	273330
588.348	316238
588.360	325970
588.402	369574
588.431	401562
588.456	433150
588.503	501480
588.510	513796
588.564	619883
588.575	644480
588.617	762822
588.646	855776
588.671	968428
588.718	1206486
588.725	1257779
588.778	1689086
588.789	1780566
588.832	2219322
588.861	2493175
588.886	2607663
588.932	2636008
588.939	2610851
588.993	2463373
589.004	2464327
589.047	2586853
589.075	2541916
589.100	2286412
589.147	1766846
589.154	1713643
589.207	1342439
589.218	1274384
589.261	1167249
589.290	1115330
589.314	1151113
589.361	1250659
589.368	1291582
589.421	1672895
589.433	1759948
589.475	2192623
589.504	2445362
589.528	2488992
589.576	2472308
589.582	2453825
589.635	2361775
589.647	2303781
589.689	1759476
589.718	1374886
589.742	1160847
589.790	771492
589.795	748945
589.849	559046
589.861	517897
589.902	436806
589.932	379329
589.955	348843
590.004	288645
590.009	284434
590.062	241396
590.075	231359
590.115	210214
590.146	194356
590.168	186072
590.218	167985
590.222	166677
590.275	149980
590.289	145552
590.328	135393
590.360	127509
590.381	123591
590.431	114196
590.435	113732
590.488	105052
590.503	102793
590.541	97967
590.574	93592
590.594	91000
590.645	84374
590.647	84213
590.700	78826
590.716	77114
590.753	73918
590.787	71237
590.806	70198
590.859	67093
590.859	67084
590.912	63693
590.930	62570
590.965	60998
591.001	59385
591.018	58572
591.071	56176
591.072	56107
591.124	53689
591.143	52786
591.177	51662
591.214	50362
591.230	50082
591.283	49475
591.285	49389
591.336	47281
591.356	46463
591.389	45831
591.427	44949
591.442	44559
591.495	42969
591.498	42809
591.547	41124
591.569	40356
591.600	39815
591.640	38915
591.653	38926
591.706	39036
591.711	38993
591.759	38439
591.782	38135
591.811	37667
591.853	36839
591.864	36516
591.917	34695
591.924	34402
591.969	33949
591.995	33675
592.022	33252
592.066	32405
592.075	32590
592.127	33604
592.137	33789
592.180	34487
592.208	34732
592.233	33445
592.279	30941
592.285	30830
592.338	29704
592.350	29416
592.390	28647
592.421	28019
592.443	28127
592.491	28308
592.495	28302
592.548	27834
592.562	27684
592.600	27186
592.633	26710
592.653	26564
592.704	25993
592.705	26122
592.775	25137
592.846	25001
592.916	25771
592.987	25175
593.058	23771
593.128	23257
593.199	22786
593.270	22580
593.341	22428
593.411	21683
593.482	21665
593.553	21977
593.623	22372
593.694	20398
593.764	20569
593.835	20282
593.906	19750
593.976	20367
594.047	19009
594.117	21590
594.188	20682
594.258	18003
594.329	18779
594.399	18367
594.470	17660
594.540	17237
594.611	16894
594.681	16993
594.751	17397
594.822	19988
594.892	20465
594.963	18438
595.033	17717
595.103	17444
595.174	18983
595.244	21920
595.314	24224
595.384	16763
595.455	16744
595.525	15827
595.595	15387
595.665	16893
595.736	16319
595.806	15467
595.876	14673
595.946	15486
596.016	14235
596.087	14849
596.157	15009
596.227	14838
596.297	15768
596.367	15457
596.437	16894
596.507	19844
596.577	22895
596.647	16052
596.717	15963
596.787	14176
596.857	14550
596.927	14677
596.997	14452
597.067	14254
597.137	15400
597.207	15842
597.277	14232
597.347	13337
597.417	14470
597.487	15468
597.557	14810
597.626	14823
597.696	15813
597.766	16922
597.836	21433
597.906	15907
597.975	13812
598.045	14271
598.115	13796
598.185	14013
598.254	14441
598.324	15090
598.394	15728
598.464	14795
598.533	14742
598.603	14485
598.672	14147
598.742	14299
598.812	13774
598.881	14412
598.951	14002
599.020	12937
599.090	14111
599.159	14114
599.229	13267
599.299	12743
599.368	13352
599.437	13691
599.507	13086
599.576	13751
599.646	13463
599.715	13784
599.785	12046
599.854	13291
599.924	13961
599.993	13447
600.062	12660
600.132	13236
600.201	13356
600.270	15018
600.340	13577
600.409	13574
600.478	13229
600.547	13068
600.617	13251
600.686	11915
600.755	12206
600.824	13023
600.894	11522
600.963	11751
601.032	11707
601.101	11756
601.170	11490
601.239	11577
601.308	12023
601.378	12183
601.447	11105
601.516	10670
601.585	12015
601.654	12414
601.723	11881
601.792	11627
601.861	12019
601.930	13539
601.999	13271
602.068	11670
602.137	11473
602.206	12107
602.275	12040
602.343	14053
602.412	13969
602.481	11842
602.550	10748
602.619	12015
602.688	12311
602.756	12173
602.825	10967
602.894	12466
602.963	11204
603.032	10970
603.100	10652
603.169	11054
603.238	11329
603.307	11193
603.375	12043
603.444	11991
603.513	11174
603.581	11292
603.650	11192
603.719	11047
603.787	11190
603.856	11355
603.924	11582
603.993	12087
604.061	11525
604.130	10893
604.198	11713
604.267	11454
604.335	11796
604.404	11636
604.472	11561
604.541	12620
604.609	11562
604.678	12071
604.746	11891
604.815	11526
604.883	11741
604.951	12885
605.020	11919
605.088	12392
605.156	11757
605.225	11804
605.293	11798
605.361	11788
605.429	12169
605.498	12420
605.566	12338
605.634	13126
605.702	12698
605.771	12826
605.839	13111
605.907	12346
605.975	12697
606.043	12875
606.111	13508
606.180	13099
606.248	12553
606.316	13471
606.384	11820
606.452	15367
606.520	15129
606.588	12820
606.656	11488
606.724	11814
606.792	10922
606.860	10298
606.928	9669
606.996	10721
607.064	9570
607.132	10300
607.200	10862
607.267	9879
607.335	9839
607.403	10301
607.471	10701
607.539	10833
607.607	9938
607.674	9851
607.742	10126
607.810	10092
607.878	9779
607.946	10007
608.013	9672
608.081	10923
608.149	10239
608.216	9798
608.284	10858
608.352	10173
608.419	9769
608.487	14732
608.555	10888
608.622	11284
608.690	10339
608.757	11144
608.825	11711
608.893	11524
608.960	12394
609.028	13161
609.095	14999
609.163	11351
609.230	10481
609.298	11069
609.365	9584
609.432	10330
609.500	10262
609.567	10745
609.635	11760
609.702	11859
609.769	12475
609.837	12233
609.904	9609
609.971	10237
610.039	13657
610.106	17240
610.173	28245
610.241	63295
610.308	44701
610.375	21198
610.442	11070
610.509	10243
610.577	10425
610.644	10406
610.711	9360
610.778	10661
610.845	10881
610.912	11132
610.980	11631
611.047	15074
611.114	11790
611.181	10570
611.248	9088
611.315	11944
611.382	10520
611.449	10937
611.516	12538
611.583	11520
611.650	11950
611.717	12291
611.784	11881
611.851	13266
611.918	15695
611.984	18291
612.051	29233
612.118	55593
612.185	135791
612.252	81357
612.319	19343
612.386	15197
612.452	12572
612.519	14794
612.586	16362
612.653	14216
612.719	12378
612.786	12053
612.853	10268
612.919	10782
612.986	11754
613.053	10855
613.120	9857
613.186	9356
613.253	11879
613.319	11249
613.386	10414
613.453	10597
613.519	11833
613.586	13685
613.652	18450
613.719	15017
613.785	13528
613.852	10827
613.918	11035
613.985	13584
614.051	18615
614.118	35289
614.184	32104
614.250	12162
614.317	11530
614.383	11595
614.449	10657
614.516	11082
614.582	11831
614.648	10517
614.715	10632
614.781	10547
614.847	11608
614.914	11835
614.980	11732
615.046	12440
615.112	12673
615.179	14835
615.245	19425
615.311	29926
615.377	60598
615.443	68729
615.509	32612
615.575	20573
615.642	17572
615.708	19478
615.774	20761
615.840	26722
615.906	37673
615.972	68209
616.038	143340
616.104	179921
616.170	221962
616.236	161707
616.302	39869
616.368	25136
616.434	18883
616.500	17785
616.565	17704
616.631	19954
616.697	17057
616.763	18432
616.829	22475
616.895	38167
616.961	35368
617.026	18716
617.092	13159
617.158	13391
617.224	11220
617.289	10869
617.355	10037
617.421	10059
617.487	11334
617.552	10459
617.618	9443
617.684	9570
617.749	11876
617.815	9681
617.880	8814
617.946	9919
618.012	10080
618.077	9734
618.143	9682
618.208	10063
618.274	9743
618.339	9783
618.405	7604
618.470	9418
618.536	9018
618.601	10236
618.667	8688
618.732	10245
618.798	8970
618.863	10220
618.928	8871
618.994	9893
619.059	11254
619.124	13283
619.190	10415
619.255	9061
619.320	9676
619.386	9190
619.451	7465
619.516	8837
619.581	8863
619.647	9004
619.712	8407
619.777	8386
619.842	9107
619.907	8706
619.972	8519
620.038	8587
620.103	8316
620.168	7848
620.233	8652
620.298	7937
620.363	8202
620.428	8778
620.493	8508
620.558	8109
620.623	8588
620.688	8444
620.753	7901
620.818	9116
620.883	8526
620.948	9034
621.013	8973
621.078	8780
621.143	7642
621.207	10542
621.272	9021
621.337	10012
621.402	10753
621.467	13085
621.532	12140
621.596	11048
621.661	9715
621.726	9338
621.791	9460
621.855	11357
621.920	10415
621.985	10788
622.049	12218
622.114	11029
622.179	11664
622.243	10037
622.308	9512
622.373	11878
622.437	11047
622.502	10133
622.566	9770
622.631	8814
622.695	10755
622.760	9861
622.824	10735
622.889	10361
622.953	9900
623.018	16228
623.082	14500
623.147	10621
623.211	10198
623.276	9449
623.340	9581
623.404	9135
623.469	9129
623.533	9199
623.597	9154
623.662	9200
623.726	9157
623.790	10155
623.854	8910
623.919	9966
623.983	8590
624.047	9228
624.111	8448
624.176	9036
624.240	9231
624.304	11325
624.368	9403
624.432	9510
624.496	10033
624.560	10824
624.625	11160
624.689	10836
624.753	9154
624.817	9544
624.881	8970
624.945	8983
625.009	8883
625.073	10302
625.137	8590
625.201	11346
625.265	10634
625.329	9564
625.393	9777
625.456	10547
625.520	8990
625.584	11599
625.648	13085
625.712	19016
625.776	37245
625.839	42300
625.903	17768
625.967	10610
626.031	16494
626.095	23952
626.158	10120
626.222	6647
626.286	8114
626.349	7074
626.413	6223
626.477	8789
626.540	6949
626.604	6410
626.668	7674
626.731	6169
626.795	7103
626.858	7240
626.922	6842
626.986	8021
627.049	5326
627.113	7927
627.176	6584
627.240	6664
627.303	6550
627.366	6686
627.430	7162
627.493	5927
627.557	5152
627.620	7840
627.684	6054
627.747	7595
627.810	5150
627.874	6806
627.937	5523
628.000	7790
628.064	6225
628.127	4665
628.190	6897
628.253	6655
628.317	5623
628.380	6129
628.443	5584
628.506	6142
628.569	6069
628.632	4907
628.696	5851
628.759	5409
628.822	5098
628.885	5282
628.948	6142
629.011	6093
629.074	5229
629.137	5114
629.200	4310
629.263	6489
629.326	4056
629.389	5145
629.452	5867
629.515	5717
629.578	4499
629.641	6715
629.704	5008
629.767	5787
629.830	5707
629.892	5134
629.955	4194
630.018	6926
630.081	5575
630.144	8089
630.207	4499
630.269	7232
630.332	5141
630.395	5266
630.458	5421
630.520	3831
630.583	6041
630.646	5153
630.708	5068
630.771	3216
630.834	5564
630.896	5258
630.959	4636
631.021	4471
631.084	5007
631.146	5683
631.209	6278
631.272	4585
631.334	4899
631.397	4370
631.459	4617
631.522	4934
631.584	4135
631.646	5274
631.709	5100
631.771	6336
631.834	5001
631.896	5505
631.958	3243
632.021	5351
632.083	3185
632.145	4772
632.208	4065
632.270	5271
632.332	4008
632.395	3946
632.457	5089
632.519	4370
632.581	4555
632.643	3803
632.706	4670
632.768	2767
632.830	4514
632.892	3940
632.954	3841
633.016	4442
633.078	4150
633.141	3962
633.203	4353
633.265	4506
633.327	4533
633.389	3551
633.451	5850
633.513	5484
633.575	5430
633.637	5125
633.698	4172
633.760	5588
633.822	4788
633.884	4161
633.946	4073
634.008	3363
634.070	4796
634.132	5461
634.193	3743
634.255	5111
634.317	4912
634.379	5485
634.441	3850
634.502	4204
634.564	5377
634.626	7345
634.687	9839
634.749	6039
634.811	4280
634.873	3704
634.934	4529
634.996	4688
635.057	2572
635.119	3477
635.181	4129
635.242	5414
635.304	2747
635.365	5772
635.427	3867
635.488	4017
635.550	3118
635.611	4532
635.673	1199
635.734	5035
635.796	3891
635.857	5721
635.918	3472
635.980	5570
636.041	3557
636.102	4699
636.164	4209
636.225	6588
636.286	2756
636.348	4871
636.409	3788
636.470	3481
636.531	3419
636.593	5195
636.654	4850
636.715	3976
636.776	2975
636.838	3771
636.899	4852
636.960	3472
637.021	3618
637.082	5030
637.143	4901
637.204	2865
637.265	2801
637.326	3682
637.387	3684
637.448	2288
637.509	4367
637.570	2810
637.631	4067
637.692	2667
637.753	2524
637.814	3970
637.875	2680
637.936	4530
637.997	2553
638.058	2752
638.119	3888
638.179	3296
638.240	2284
638.301	3032
638.362	2381
638.423	2957
638.483	4515
638.544	1842
638.605	3029
638.666	2438
638.726	3507
638.787	3522
638.848	2875
638.908	3349
638.969	3823
639.030	3129
639.090	2332
639.151	2126
639.211	3433
639.272	5253
639.332	6595
639.393	3803
639.453	2394
639.514	3342
639.574	3020
639.635	2807
639.695	3621
639.756	1650
639.816	4165
639.877	3138
639.937	6330
639.997	9062
640.058	2581
640.118	1924
640.178	3751
640.239	3011
640.299	2561
640.359	2359
640.420	3225
640.480	3246
640.540	2326
640.600	2634
640.661	3525
640.721	2153
640.781	4349
640.841	2232
640.901	3725
640.961	4024
641.021	3857
641.082	2633
641.142	4982
641.202	5106
641.262	1254
641.322	3180
641.382	1287
641.442	3355
641.502	2807
641.562	3857
641.622	1655
641.682	2575
641.742	2806
641.802	3116
641.861	3863
641.921	3484
641.981	4301
642.041	3486
642.101	4127
642.161	2476
642.221	2348
642.280	3426
642.340	2373
642.400	1959
642.460	3942
642.519	2718
642.579	2127
642.639	3357
642.698	411
642.758	4562
642.818	2733
642.877	1999
642.937	1600
642.997	3203
643.056	4761
643.116	2214
643.175	4366
643.235	2061
643.294	3121
643.354	3114
643.414	3645
643.473	4266
643.532	4164
643.592	5442
643.651	9423
643.711	17018
643.770	28902
643.830	62586
643.889	133114
643.948	33686
644.008	6237
644.067	3296
644.126	2974
644.186	3421
644.245	4082
644.304	1855
644.363	3944
644.423	1277
644.482	1381
644.541	3483
644.600	101
644.659	4067
644.719	2622
644.778	4432
644.837	6302
644.896	10920
644.955	21537
645.014	8949
645.073	3464
645.132	2506
645.191	3414
645.250	2843
645.309	3661
645.368	2449
645.427	3168
645.486	2667
645.545	5824
645.604	3020
645.663	3207
645.722	2590
645.781	3822
645.840	3966
645.898	3324
645.957	6377
646.016	6837
646.075	12338
646.134	22025
646.192	57343
646.251	88183
646.310	14002
646.369	3992
646.427	3950
646.486	2419
646.545	2942
646.603	3071
646.662	2960
646.721	1957
646.779	1723
646.838	2035
646.896	2583
646.955	3664
647.014	4689
647.072	5258
647.131	14974
647.189	7470
647.248	2324
647.306	2727
647.365	2795
647.423	536
647.481	2841
647.540	1601
647.598	2222
647.657	2263
647.715	3742
647.773	923
647.832	2665
647.890	1143
647.948	2252
648.007	2529
648.065	2179
648.123	1997
648.181	3195
648.240	3275
648.298	2567
648.356	2651
648.414	3149
648.472	3035
648.531	3637
648.589	2875
648.647	3208
648.705	3014
648.763	1513
648.821	2218
648.879	1985
648.937	3208
648.995	2918
649.053	2877
649.111	5337
649.169	6287
649.227	9318
649.285	16804
649.343	44381
649.401	24453
649.459	11159
649.516	8626
649.574	4839
649.632	13038
649.690	15107
649.748	6358
649.806	4515
649.863	8518
649.921	11312
649.979	6603
650.037	2787
650.094	1048
650.152	2422
650.210	1241
650.268	2519
650.325	1794
650.383	2046
650.440	1269
650.498	2378
650.556	1507
650.613	837
650.671	1715
650.728	1212
650.786	1761
650.843	2397
650.901	-211
650.958	2138
651.016	809
651.073	1600
651.131	819
651.188	931
651.246	1222
651.303	612
651.360	1942
651.418	2020
651.475	1674
651.532	760
651.590	1816
651.647	990
651.704	1688
651.762	1897
651.819	2073
651.876	631
651.933	1065
651.990	2320
652.048	-210
652.105	961
652.162	1937
652.219	648
652.276	2020
652.333	2320
652.390	931
652.448	2245
652.505	1470
652.562	1142
652.619	1723
652.676	2961
652.733	3160
652.790	999
652.847	-38
652.904	1327
652.961	1074
653.017	788
653.074	1581
653.131	1700
653.188	784
653.245	1368
653.302	1069
653.359	1093
653.415	1943
653.472	463
653.529	1447
653.586	436
653.642	-59
653.699	1512
653.756	1412
653.813	1002
653.869	1572
653.926	864
653.983	34
654.039	1223
654.096	1447
654.152	1846
654.209	1081
654.266	1967
654.322	238
654.379	1697
654.435	2174
654.492	1566
654.548	2015
654.605	3824
654.661	2531
654.717	1939
654.774	2076
654.830	1933
654.887	1808
654.943	1898
655.000	1896
655.056	1924
655.112	1506
655.168	1451
655.225	1850
655.281	2298
655.337	2515
655.394	3795
655.450	3098
655.506	3271
655.562	3584
655.618	5121
655.675	1787
655.731	2317
655.787	2166
655.843	3693
655.899	2861
655.955	4043
656.011	4288
656.067	4076
656.123	5817
656.179	6013
656.235	7374
656.291	5327
656.347	6102
656.403	4688
656.459	3338
656.515	4141
656.571	2930
656.627	3324
656.683	2714
656.739	3185
656.795	1551
656.850	2126
656.906	2290
656.962	2566
657.018	1427
657.074	689
657.129	1370
657.185	2554
657.241	2265
657.297	1902
657.352	1016
657.408	1314
657.464	2420
657.519	737
657.575	617
657.630	1911
657.686	1591
657.742	976
657.797	482
657.853	765
657.908	1631
657.964	196
658.019	1757
658.075	1363
658.130	1909
658.186	-274
658.241	1767
658.297	578
658.352	724
658.407	1048
658.463	426
658.518	1659
658.573	1070
658.629	1456
658.684	942
658.739	1964
658.795	207
658.850	1026
658.905	58
658.960	1150
659.016	7
659.071	923
659.126	569
659.181	1151
659.236	3360
659.291	2951
659.346	861
659.401	784
659.457	1966
659.512	1648
659.567	2006
659.622	730
659.677	282
659.732	344
659.787	784
659.842	429
659.897	1371
659.952	1431
660.007	773
660.061	1495
660.116	74
660.171	260
660.226	1205
660.281	1490
660.336	697
660.391	809
660.445	125
660.500	1313
660.555	860
660.610	445
660.664	1535
660.719	536
660.774	1782
660.828	1105
660.883	638
660.938	929
660.992	-348
661.047	636
661.101	667
661.156	1294
661.211	558
661.265	1211
661.320	809
661.374	634
661.429	972
661.483	1943
661.538	445
661.592	969
661.647	393
661.701	795
661.755	721
661.810	1231
661.864	16
661.919	705
661.973	871
662.027	781
662.081	228
662.136	1490
662.190	1201
662.244	2149
662.299	1074
662.353	1577
662.407	362
662.461	873
662.515	1181
662.569	535
662.624	1385
662.678	963
662.732	249
662.786	272
662.840	794
662.894	1285
662.948	924
663.002	409
663.056	893
663.110	559
663.164	950
663.218	1242
663.272	967
663.326	1586
663.380	946
663.434	782
663.488	-88
663.542	1441
663.595	1063
663.649	700
663.703	1176
663.757	822
663.811	278
663.864	1073
663.918	690
663.972	1240
664.026	675
664.079	361
664.133	646
664.187	764
664.240	748
664.294	1106
664.348	841
664.401	884
664.455	986
664.508	929
664.562	1170
664.615	1682
664.669	506
664.722	1240
664.776	743
664.829	1033
664.883	829
664.936	588
664.990	794
665.043	2006
665.097	1298
665.150	1445
665.203	326
665.257	992
665.310	722
665.363	930
665.417	1507
665.470	1683
665.523	987
665.576	991
665.630	852
665.683	1359
665.736	906
665.789	811
665.842	931
665.895	1203
665.949	1309
666.002	888
666.055	1163
666.108	1350
666.161	1011
666.214	1490
666.267	1308
666.320	1086
666.373	1244
666.426	851
666.479	477
666.532	1311
666.585	1197
666.638	2208
666.691	821
666.744	1885
666.796	1169
666.849	1107
666.902	979
666.955	1336
667.008	286
667.060	1012
667.113	-130
667.166	702
667.219	1274
667.271	926
667.324	647
667.377	634
667.430	816
667.482	532
667.535	638
667.587	962
667.640	951
667.693	1162
667.745	1982
667.798	2926
667.850	824
667.903	1317
667.955	593
668.008	917
668.060	1284
668.113	1276
668.165	1153
668.218	1222
668.270	2358
668.322	1511
668.375	204
668.427	1277
668.479	435
668.532	459
668.584	934
668.636	844
668.689	942
668.741	1011
668.793	1351
668.845	765
668.898	1190
668.950	1520
669.002	686
669.054	584
669.106	949
669.158	1362
669.211	781
669.263	1312
669.315	1712
669.367	1755
669.419	1332
669.471	2501
669.523	2044
669.575	2902
669.627	2042
669.679	1704
669.731	1997
669.783	1530
669.835	2249
669.886	1630
669.938	1553
669.990	1144
670.042	1237
670.094	1866
670.146	1117
670.197	1845
670.249	2425
670.301	3019
670.353	3969
670.404	6140
670.456	8198
670.508	13913
670.560	20932
670.611	34108
670.663	56813
670.715	139843
670.766	232307
670.818	74631
670.869	11503
670.921	5063
670.972	4459
671.024	3028
671.075	2411
671.127	2476
671.178	1829
671.230	1622
671.281	1949
671.333	885
671.384	1193
671.436	1853
671.487	3120
671.538	2248
671.590	2371
671.641	3153
671.692	4230
671.744	7177
671.795	5490
671.846	2300
671.897	1923
671.949	1657
672.000	1078
672.051	385
672.102	1534
672.153	1396
672.204	1180
672.256	1154
672.307	839
672.358	1230
672.409	1373
672.460	1327
672.511	625
672.562	929
672.613	395
672.664	1416
672.715	1406
672.766	1604
672.817	940
672.868	1281
672.919	989
672.970	505
673.021	1090
673.071	866
673.122	1548
673.173	1099
673.224	1009
673.275	575
673.326	955
673.376	1597
673.427	243
673.478	773
673.528	1413
673.579	1193
673.630	1111
673.680	1921
673.731	-78
673.782	580
673.832	1423
673.883	1894
673.934	144
673.984	1230
674.035	967
674.085	1114
674.136	957
674.186	918
674.237	1257
674.287	2008
674.338	1125
674.388	696
674.438	690
674.489	1181
674.539	736
674.589	1569
674.640	1562
674.690	975
674.740	1066
674.791	755
674.841	621
674.891	1004
674.942	890
674.992	1075
675.042	-206
675.092	952
675.142	177
675.193	717
675.243	1015
675.293	916
675.343	577
675.393	680
675.443	699
675.493	826
675.543	428
675.593	561
675.643	1160
675.693	-210
675.743	949
675.793	642
675.843	509
675.893	748
675.943	670
675.993	1123
676.043	905
676.093	867
676.142	388
676.192	417
676.242	318
676.292	-14
676.341	551
676.391	428
676.441	288
676.491	134
676.540	231
676.590	896
676.640	502
676.689	141
676.739	542
676.789	-59
676.838	104
676.888	319
676.937	977
676.987	734
677.037	-256
677.086	-91
677.136	-197
677.185	420
677.235	767
677.284	1143
677.333	883
677.383	1031
677.432	-208
677.482	1175
677.531	308
677.580	418
677.630	207
677.679	233
677.728	490
677.778	-273
677.827	100
677.876	-40
677.925	-845
677.975	-74
678.024	262
678.073	469
678.122	503
678.171	187
678.220	739
678.269	1217
678.319	810
678.368	473
678.417	79
678.466	955
678.515	933
678.564	791
678.613	395
678.662	181
678.711	698
678.760	222
678.809	618
678.857	39
678.906	85
678.955	555
679.004	858
679.053	853
679.102	816
679.151	101
679.199	597
679.248	44
679.297	28
679.346	121
679.394	335
679.443	-95
679.492	-184
679.540	74
679.589	226
679.638	475
679.686	220
679.735	1089
679.784	-73
679.832	860
679.881	35
679.929	472
679.978	137
680.026	342
680.075	291
680.123	-131
680.172	469
680.220	686
680.268	88
680.317	271
680.365	51
680.414	393
680.462	119
680.510	664
680.559	-567
680.607	114
680.655	39
680.703	478
680.752	206
680.800	464
680.848	330
680.896	267
680.945	196
680.993	6
681.041	125
681.089	404
681.137	5
681.185	425
681.233	-229
681.258	-234
681.281	-246
681.329	-60
681.377	287
681.380	282
681.425	44
681.473	-154
681.502	240
681.521	490
681.569	478
681.617	426
681.624	405
681.665	222
681.713	651
681.745	106
681.761	-169
681.809	557
681.857	127
681.867	77
681.904	-134
681.952	546
681.989	538
682.000	533
682.048	438
682.096	143
682.111	263
682.143	479
682.191	306
682.233	1149
682.239	1267
682.286	46
682.334	61
682.354	243
682.382	465
682.430	203
682.476	198
682.477	193
682.525	1102
682.572	-79
682.598	0
682.620	63
682.667	605
682.715	1320
682.720	1254
682.763	512
682.810	1000
682.841	539
682.857	296
682.905	-203
682.952	954
682.963	1004
683.000	1099
683.047	-240
683.085	1305
683.095	1738
683.142	1378
683.190	1159
683.206	1058
683.237	846
683.284	1284
683.328	1218
683.332	1204
683.379	916
683.426	165
683.449	272
683.473	387
683.521	544
683.568	1134
683.571	1118
683.615	792
683.662	1594
683.693	721
683.709	270
683.757	343
683.804	950
683.814	907
683.851	651
683.898	1516
683.936	1170
683.945	1073
683.992	543
684.039	1354
684.057	1136
684.086	841
684.133	1097
684.179	799
684.180	782
684.227	1517
684.274	1222
684.300	1425
684.321	1578
684.368	581
684.415	1185
684.422	1092
684.462	488
684.509	567
684.543	1102
684.556	1306
684.603	1413
684.649	820
684.665	1164
684.696	1839
684.743	958
684.786	1527
684.790	1571
684.837	1226
684.883	1277
684.908	1239
684.930	1167
684.977	1121
685.023	1536
685.029	1449
685.070	862
685.117	1418
685.150	1413
685.164	1377
685.210	1666
685.257	1828
685.272	1736
685.303	1534
685.350	1656
685.393	1131
685.396	1095
685.443	1590
685.490	1908
685.514	2076
685.536	2123
685.583	1241
685.629	2076
685.636	2001
685.675	1655
685.722	1877
685.757	1411
685.768	1254
685.815	1619
685.861	1470
685.878	1543
685.908	1608
685.954	1216
686.000	2079
686.000	2093
686.047	1448
686.093	2326
686.121	2165
686.139	2046
686.185	1868
686.232	1962
686.242	1999
686.278	1983
686.324	1605
686.363	1565
686.370	1563
686.416	909
686.463	1790
686.484	1676
686.509	1577
686.555	1580
686.601	2128
686.606	2068
686.647	1520
686.693	1462
686.727	1207
686.739	1166
686.785	1790
686.831	2744
686.848	2534
686.877	1888
686.923	1507
686.969	1284
686.969	1284
687.015	1951
687.061	1568
687.090	2203
687.107	2501
687.153	1975
687.199	2646
687.211	2277
687.245	1339
687.291	1921
687.332	1988
687.336	1989
687.382	1654
687.428	1551
687.453	1861
687.474	2127
687.520	2106
687.565	2177
687.574	2114
687.611	1977
687.657	2274
687.695	2541
687.702	2582
687.748	2631
687.794	3433
687.816	3329
687.839	2991
687.885	1950
687.931	1422
687.937	1459
687.976	2088
688.022	1723
688.058	1972
688.067	2022
688.113	1998
688.158	2155
688.179	2398
688.204	2713
688.249	2336
688.295	2713
688.300	2755
688.340	2862
688.386	2760
688.421	2344
688.431	2242
688.477	2468
688.522	1873
688.542	2030
688.567	2280
688.613	2107
688.658	2193
688.663	2152
688.703	2046
688.749	2302
688.784	2323
688.794	2252
688.839	2337
688.884	1958
688.905	2074
688.930	2295
688.975	2231
689.020	2963
689.026	2851
689.065	2140
689.110	2505
689.146	1913
689.155	1785
689.201	2682
689.246	2834
689.267	2819
689.291	2713
689.336	2619
689.381	2059
689.388	2074
689.426	2226
689.471	2768
689.509	2462
689.516	2406
689.561	2691
689.606	2192
689.630	2109
689.651	2117
689.696	2403
689.741	2453
689.750	2471
689.785	2571
689.830	2892
689.871	2906
689.875	2883
689.920	2620
689.965	2629
689.992	2519
690.010	2583
690.054	2679
690.099	2542
690.112	2581
690.144	2549
690.189	2369
690.233	2548
690.233	2553
690.278	2440
690.323	2113
690.354	2123
690.367	2227
690.412	2591
690.457	2875
690.474	3048
690.501	3167
690.546	2856
690.590	3113
690.595	3128
690.635	3408
690.680	3191
690.716	3358
690.724	3410
690.769	3526
690.813	4451
690.836	4137
690.857	4235
690.902	5529
690.946	5987
690.957	6369
690.991	8587
691.035	10992
691.077	13741
691.080	13776
691.124	12932
691.168	11821
691.198	11234
691.213	10423
691.257	8552
691.301	6285
691.318	5390
691.346	4959
691.390	4382
691.434	3578
691.439	3546
691.478	3867
691.522	3854
691.559	3930
691.567	3935
691.611	3599
691.655	3545
691.680	3467
691.699	3479
691.743	3762
691.787	3658
691.800	3693
691.831	3823
691.875	3699
691.919	3546
691.921	3540
691.964	3367
692.008	3329
692.041	3149
692.052	3234
692.096	3576
692.139	4011
692.162	4178
692.183	4034
692.227	3499
692.271	3297
692.282	3204
692.315	3249
692.359	3484
692.402	3442
692.403	3451
692.447	3690
692.490	3885
692.523	3972
692.534	3937
692.578	3945
692.622	3625
692.643	3533
692.666	3518
692.709	3677
692.753	3314
692.763	3310
692.797	3407
692.840	3658
692.884	3833
692.884	3844
692.928	4005
692.971	4253
693.004	4283
693.015	4227
693.059	4099
693.102	4132
693.124	4043
693.146	4026
693.189	3840
693.233	3969
693.245	4008
693.276	4262
693.320	4271
693.363	4315
693.365	4310
693.407	4672
693.450	5299
693.485	5422
693.493	5552
693.537	6539
693.580	7506
693.605	7923
693.624	8547
693.667	9742
693.710	11441
693.725	11949
693.753	15803
693.797	22008
693.840	28673
693.845	29346
693.883	27667
693.926	24982
693.966	23079
693.970	22661
694.013	17889
694.056	12961
694.086	9572
694.099	9222
694.142	7941
694.185	7203
694.206	6675
694.229	6472
694.272	6140
694.315	5689
694.326	5562
694.358	5529
694.401	5498
694.444	5476
694.446	5468
694.487	5563
694.530	5274
694.566	5169
694.573	5108
694.616	4315
694.659	4293
694.686	4020
694.702	4153
694.745	4380
694.787	4641
694.806	4726
694.830	4665
694.873	4651
694.916	4702
694.926	4651
694.959	4447
695.002	4470
695.044	4025
695.046	4008
695.087	4175
695.130	4439
695.166	4275
695.172	4253
695.215	4242
695.258	4401
695.286	4296
695.301	4285
695.343	4501
695.386	4689
695.406	4622
695.428	4423
695.471	4316
695.514	4042
695.526	3989
695.556	4117
695.599	4143
695.641	4339
695.646	4323
695.684	4210
695.726	4235
695.766	4217
695.769	4225
695.811	4140
695.854	4022
695.886	3915
695.896	3933
695.938	4089
695.981	4237
696.005	4192
696.023	4290
696.065	4505
696.108	4929
696.125	5083
696.150	5029
696.192	4824
696.235	4698
696.245	4612
696.277	4378
696.319	4085
696.361	3885
696.365	3849
696.404	4271
696.446	4740
696.485	5265
696.488	5280
696.530	5194
696.572	4990
696.604	4900
696.614	4840
696.656	4398
696.698	4159
696.724	3893
696.740	3892
696.783	3926
696.825	4117
696.844	4046
696.867	4114
696.909	4388
696.951	4682
696.964	4736
696.992	4670
697.034	4708
697.076	4499
697.083	4485
697.118	4780
697.160	5030
697.202	5249
697.203	5239
697.244	4847
697.286	4572
697.323	4109
697.327	4123
697.369	4308
697.411	4354
697.442	4435
697.453	4506
697.494	4672
697.536	4923
697.562	5073
697.578	5104
697.620	5003
697.661	5052
697.682	5025
697.703	5075
697.744	5181
697.786	5288
697.801	5289
697.828	5499
697.869	5812
697.911	6140
697.921	6212
697.952	5814
697.994	5182
698.035	4653
698.040	4566
698.077	4765
698.118	5022
698.160	5255
698.160	5241
698.201	5022
698.243	4791
698.279	4619
698.284	4643
698.325	4683
698.367	4776
698.399	4789
698.408	4787
698.449	4740
698.491	4693
698.518	4644
698.532	4768
698.573	5110
698.614	5430
698.638	5604
698.656	5527
698.697	5327
698.738	5085
698.757	4963
698.779	5016
698.820	5094
698.862	5166
698.877	5181
698.903	5523
698.944	6036
698.985	6552
698.996	6679
699.026	6544
699.067	6326
699.116	6051
699.235	4790
699.354	5304
699.474	5578
699.593	5461
699.713	6034
699.832	5125
699.951	5711
700.070	6817
700.190	5039
700.309	6026
700.428	6571
700.547	6051
700.667	5723
700.786	6537
700.905	6274
701.024	5556
701.143	6013
701.262	4995
701.381	4928
701.500	4980
701.619	6242
701.738	4518
701.857	5734
701.976	3997
702.095	4229
702.214	4991
702.333	5986
702.452	5705
702.571	5500
702.690	5003
702.809	3830
702.928	4925
703.047	4752
703.165	5308
703.284	4537
703.403	5224
703.522	5045
703.640	5329
703.759	5542
703.878	6197
703.997	4606
704.115	5261
704.234	4087
704.353	4324
704.471	4026
704.590	4395
704.708	4579
704.827	4929
704.946	4133
705.064	4928
705.183	4831
705.301	4389
705.420	6015
705.538	5771
705.656	4673
705.775	5506
705.893	8826
706.012	10480
706.130	5031
706.249	4648
706.367	5274
706.485	5236
706.604	5605
706.722	6203
706.840	5592
706.958	7108
707.077	4725
707.195	4674
707.313	5095
707.431	4877
707.549	4518
707.668	4675
707.786	4456
707.904	4804
708.022	3667
708.140	4324
708.258	4920
708.376	4859
708.494	4419
708.612	4649
708.730	6033
708.848	5892
708.966	4902
709.084	6079
709.202	5223
709.320	5215
709.438	5514
709.556	5565
709.674	5402
709.791	5322
709.909	4663
710.027	4520
710.145	5826
710.263	5726
710.380	5435
710.498	5086
710.616	5688
710.733	5002
710.851	4428
710.969	6172
711.086	5239
711.204	5509
711.322	5248
711.439	4805
711.557	5295
711.674	5618
711.792	5535
711.909	5703
712.027	5497
712.144	4978
712.262	5141
712.379	5696
712.497	6468
712.614	6348
712.732	5734
712.849	6319
712.966	6927
713.084	7368
713.201	6028
713.318	5789
713.436	6172
713.553	5466
713.670	5795
713.787	6375
713.905	5624
714.022	6302
714.139	5354
714.256	6238
714.373	6384
714.490	8044
714.608	13633
714.725	43725
714.842	33618
714.959	6781
715.076	5116
715.193	5599
715.310	5198
715.427	6147
715.544	5017
715.661	6516
715.778	5133
715.895	5560
716.011	5146
716.128	5832
716.245	4844
716.362	6691
716.479	5138
716.596	4957
716.713	5573
716.829	5804
716.946	5466
717.063	4514
717.180	4609
717.296	5209
717.413	5688
717.530	4702
717.646	4703
717.763	5335
717.880	4769
717.996	4057
718.113	3708
718.229	4886
718.346	3764
718.462	4547
718.579	5588
718.695	8581
718.812	6078
718.928	5969
719.045	4002
719.161	4613
719.277	3934
719.394	3996
719.510	4319
719.626	4535
719.743	4793
719.859	4539
719.975	5870
720.092	13989
720.208	20720
720.324	6155
720.440	4705
720.557	4784
720.673	7009
720.789	8871
720.905	14857
721.021	6003
721.137	4970
721.253	4411
721.369	4701
721.486	4333
721.602	6085
721.718	4347
721.834	3899
721.950	4006
722.066	3978
722.181	4021
722.297	4235
722.413	4136
722.529	4761
722.645	4758
722.761	4057
722.877	3317
722.993	3610
723.108	4248
723.224	3474
723.340	3720
723.456	4617
723.571	4154
723.687	3811
723.803	3602
723.918	2382
724.034	3777
724.150	3552
724.265	3256
724.381	7072
724.497	7097
724.612	3555
724.728	3380
724.843	3475
724.959	4226
725.074	7402
725.190	7869
725.305	3879
725.421	3508
725.536	3484
725.651	3503
725.767	3363
725.882	3334
725.997	2867
726.113	3248
726.228	2501
726.343	3231
726.459	3364
726.574	3850
726.689	3618
726.804	4136
726.920	3577
727.035	3103
727.150	3127
727.265	3190
727.380	3738
727.495	3513
727.610	3242
727.725	3178
727.841	3039
727.956	6530
728.071	4687
728.186	3490
728.301	3427
728.416	3460
728.531	3610
728.645	3737
728.760	4733
728.875	4862
728.990	4432
729.105	3855
729.220	4019
729.335	3634
729.449	3717
729.564	3389
729.679	2227
729.794	2951
729.908	3413
730.023	3234
730.138	2902
730.253	2084
730.367	2544
730.482	2806
730.596	2145
730.711	3077
730.826	2881
730.940	2955
731.055	2872
731.169	1976
731.284	2365
731.398	2706
731.513	2841
731.627	3266
731.742	2787
731.856	2852
731.970	2330
732.085	2364
732.199	2879
732.313	3708
732.428	5824
732.542	12315
732.656	6921
732.771	3323
732.885	2284
732.999	2770
733.113	2371
733.227	2617
733.342	2629
733.456	2786
733.570	1749
733.684	2903
733.798	1966
733.912	1784
734.026	2521
734.140	2935
734.254	3113
734.368	4719
734.482	4542
734.596	2605
734.710	2635
734.824	3056
734.938	2032
735.052	2176
735.166	3053
735.280	3453
735.393	2555
735.507	2861
735.621	2146
735.735	4531
735.849	2261
735.962	2419
736.076	2114
736.190	3150
736.303	3278
736.417	4517
736.531	2370
736.644	2451
736.758	2431
736.872	2632
736.985	1987
737.099	2472
737.212	1860
737.326	2386
737.439	2033
737.553	1823
737.666	2561
737.780	1787
737.893	1779
738.007	2258
738.120	2117
738.233	2688
738.347	2510
738.460	2931
738.573	1587
738.687	2349
738.800	2891
738.913	3071
739.026	2166
739.140	1941
739.253	2082
739.366	2612
739.479	1556
739.592	2843
739.705	2504
739.818	2667
739.932	2451
740.045	1911
740.158	1757
740.271	2424
740.384	2214
740.497	3481
740.610	3736
740.723	3311
740.836	3102
740.949	3174
741.062	4003
741.174	3247
741.287	2106
741.400	2856
741.513	3843
741.626	4964
741.739	2849
741.851	2542
741.964	2057
742.077	2621
742.189	4864
742.302	10165
742.415	6636
742.527	2961
742.640	2542
742.753	2225
742.865	2339
742.978	2226
743.090	2414
743.203	2113
743.316	2109
743.428	2158
743.541	1466
743.653	2677
743.766	1382
743.878	2721
743.990	3748
744.103	8980
744.215	12339
744.327	4659
744.440	2827
744.552	2974
744.664	1976
744.777	1248
744.889	1361
745.001	2005
745.113	1857
745.226	1905
745.338	1788
745.450	2044
745.562	2091
745.674	1838
745.786	961
745.898	1606
746.010	1471
746.122	1396
746.234	1980
746.347	2073
746.459	2059
746.570	3010
746.682	8538
746.794	20161
746.906	6455
747.018	2033
747.130	1771
747.242	1857
747.354	1103
747.466	2145
747.577	993
747.689	1216
747.801	1961
747.913	1331
748.024	1496
748.136	1400
748.248	1275
748.359	1319
748.471	1753
748.583	1705
748.694	2018
748.806	1392
748.918	2217
749.029	2338
749.141	1843
749.252	1480
749.364	1577
749.475	3293
749.587	1788
749.698	1718
749.809	1722
749.921	1836
750.032	1546
750.144	1349
750.255	1040
750.366	910
750.478	1392
750.589	1795
750.700	858
750.811	1557
750.923	2685
751.034	3850
751.145	3163
751.256	991
751.367	2280
751.479	1898
751.590	1927
751.701	2011
751.812	1457
751.923	1894
752.034	1370
752.145	1505
752.256	827
752.367	1396
752.478	1712
752.589	1865
752.700	786
752.811	1132
752.922	687
753.032	1665
753.143	1586
753.254	1019
753.365	1540
753.476	528
753.586	714
753.697	1476
753.808	1466
753.919	1533
754.029	666
754.140	1773
754.251	1601
754.361	917
754.472	1319
754.582	1838
754.693	1521
754.804	1520
754.914	1047
755.025	1282
755.135	580
755.246	1912
755.356	730
755.466	2141
755.577	1266
755.687	2262
755.798	1009
755.908	1642
756.018	1637
756.129	2092
756.239	1174
756.349	1587
756.460	962
756.570	1813
756.680	1220
756.790	1275
756.900	1076
757.011	1471
757.121	1670
757.231	1433
757.341	867
757.451	1069
757.561	834
757.671	749
757.781	712
757.891	1947
758.001	792
758.111	1840
758.221	1644
758.331	1432
758.441	881
758.551	1891
758.661	1616
758.771	1844
758.880	808
758.990	917
759.100	1177
759.210	691
759.320	1479
759.429	1321
759.539	1441
759.649	1281
759.758	1896
759.868	1695
759.978	461
760.087	1826
760.197	1511
760.307	2241
760.416	1351
760.526	646
760.635	2155
760.745	1690
760.854	673
760.964	2037
761.073	1946
761.182	2087
761.292	1719
761.401	2609
761.511	1699
761.620	1943
761.729	2276
761.839	2196
761.948	2184
762.057	1508
762.166	1771
762.276	1358
762.385	2230
762.494	1294
762.603	2418
762.712	2496
762.822	1393
762.931	1921
763.040	1860
763.149	2461
763.258	1971
763.367	3712
763.476	2936
763.585	3110
763.694	2378
763.803	2939
763.912	4010
764.021	3976
764.130	3183
764.238	4351
764.347	3741
764.456	3062
764.565	4297
764.674	5544
764.783	4890
764.891	4505
765.000	6324
765.109	7360
765.217	7681
765.326	9745
765.435	10238
765.543	13996
765.652	15830
765.761	22716
765.869	32017
765.978	52611
766.086	89698
766.195	177029
766.303	401138
766.412	793744
766.520	662290
766.629	271753
766.737	113103
766.846	64743
766.954	41804
767.062	30033
767.171	21736
767.279	16760
767.387	13598
767.496	12484
767.604	9930
767.712	9465
767.820	7870
767.928	7661
768.037	7055
768.145	6732
768.253	7613
768.361	6465
768.469	6384
768.577	6714
768.685	6547
768.793	7322
768.901	6869
769.009	9849
769.117	10227
769.225	14285
769.333	21097
769.441	34712
769.549	66937
769.657	150936
769.765	414005
769.873	646866
769.981	290840
770.088	88709
770.196	41720
770.304	26259
770.412	19192
770.519	13866
770.627	11326
770.735	8310
770.842	7624
770.950	7099
771.058	5410
771.165	5282
771.273	4311
771.380	5082
771.488	4339
771.595	3258
771.703	3636
771.810	3591
771.918	2720
772.025	3203
772.133	2547
772.240	2411
772.348	3226
772.455	2754
772.562	2122
772.670	2465
772.777	2179
772.884	1784
772.991	1759
773.099	2746
773.206	1270
773.313	2691
773.420	1432
773.528	928
773.635	1546
773.742	2204
773.849	2501
773.956	2057
774.063	1434
774.170	1948
774.277	1522
774.384	1643
774.491	1876
774.598	2417
774.705	1505
774.812	2755
774.919	1301
775.026	2041
775.133	1259
775.239	1632
775.346	1532
775.453	1531
775.560	572
775.667	1666
775.773	1692
775.880	1814
775.987	1391
776.093	1806
776.200	889
776.307	1097
776.413	2126
776.520	965
776.627	2107
776.733	2707
776.840	2026
776.946	6669
777.053	15654
777.159	38823
777.266	19414
777.372	31824
777.478	24376
777.585	10457
777.691	2433
777.798	1516
777.904	2400
778.010	2232
778.117	2621
778.223	1024
778.329	409
778.435	1908
778.542	1393
778.648	1538
778.754	474
778.860	1326
778.966	248
779.072	695
779.178	655
779.284	2202
779.391	323
779.497	261
779.603	2467
779.708	1110
779.815	6433
779.920	19787
780.026	32093
780.132	4096
780.238	593
780.344	1641
780.450	1895
780.556	588
780.661	61
780.767	1017
780.873	681
780.979	1567
781.085	878
781.190	759
781.296	148
781.402	201
781.507	159
781.613	898
781.719	902
781.824	934
781.930	947
782.035	1451
782.141	342
782.246	580
782.352	635
782.457	1281
782.563	594
782.668	276
782.773	361
782.879	669
782.984	134
783.090	1804
783.195	1419
783.300	764
783.405	1127
783.511	310
783.616	829
783.721	1761
783.826	1094
783.932	1504
784.037	1003
784.142	621
784.247	247
784.352	581
784.457	730
784.562	747
784.667	1026
784.772	531
784.877	360
784.982	757
785.087	1584
785.192	1077
785.297	246
785.402	543
785.507	376
785.611	1234
785.716	-361
785.821	637
785.926	-339
786.031	176
786.135	76
786.240	769
786.345	-344
786.450	757
786.554	-281
786.659	78
786.763	-453
786.868	518
786.973	1073
787.077	257
787.182	-145
787.286	725
787.391	629
787.495	275
787.600	211
787.704	-65
787.809	403
787.913	574
788.017	298
788.122	1517
788.226	13
788.330	-191
788.435	-33
788.539	176
788.643	-678
788.747	125
788.852	988
788.956	240
789.060	838
789.164	639
789.268	3
789.372	824
789.476	977
789.580	370
789.684	-374
789.788	270
789.892	112
789.996	612
790.100	982
790.204	91
790.308	1005
790.412	-276
790.516	-51
790.620	319
790.724	346
790.828	-517
790.931	-49
791.035	1796
791.139	1158
791.242	-516
791.346	1197
791.450	445
791.554	389
791.657	-286
791.761	1944
791.864	1377
791.968	580
792.072	1095
792.175	376
792.279	944
792.382	936
792.486	413
792.589	445
792.693	1224
792.796	-596
792.899	1592
793.003	1124
793.106	-834
793.209	648
793.313	1750
793.416	-669
793.519	1741
793.623	1367
793.726	1649
793.829	475
793.932	1095
794.035	-221
794.138	1742
794.242	1680
794.345	391
794.448	2031
794.551	2848
794.654	10443
794.757	17803
794.860	3103
794.963	1562
795.066	323
795.169	1689
795.272	176
795.375	1048
795.477	-570
795.580	542
795.683	-11
795.786	1069
795.889	-523
795.991	848
796.094	1354
796.197	-322
796.300	1320
796.402	-23
796.505	-695
796.608	162
796.710	201
796.813	740
796.915	-570
797.018	472
797.120	1179
797.223	-697
797.326	1004
797.428	464
797.530	-402
797.633	-81
797.735	1173
797.838	-100
797.940	1511
798.042	-687
798.145	-529
798.247	581
798.349	-1327
798.452	771
798.554	-598
798.656	-21
798.758	1097
798.860	138
798.962	-774
799.065	-257
799.167	-1118
799.269	883
799.371	197
799.473	719
799.575	8
799.677	-17
799.779	2037
799.881	-751
799.983	497
800.085	-144
800.187	8
800.289	-136
800.390	19
800.492	920
800.594	538
800.696	408
800.798	-219
800.899	160
801.001	22
801.103	700
801.205	-759
801.306	256
801.408	-682
801.509	-93
801.611	404
801.713	243
801.814	-221
801.916	-54
802.017	560
802.119	-457
802.220	184
802.322	-1151
802.423	1945
802.525	-715
802.626	19
802.727	258
802.829	-346
802.930	-1131
803.031	1239
803.133	282
803.234	-408
803.335	419
803.436	-597
803.538	-52
803.639	-1184
803.740	480
803.841	-1178
803.942	-19
804.043	818
804.144	-1060
804.245	-325
804.346	-492
804.447	-148
804.548	351
804.649	446
804.750	-269
804.851	-670
804.952	211
805.053	-325
805.154	-894
805.255	723
805.355	102
805.456	-685
805.557	276
805.658	-1005
805.758	820
805.859	271
805.960	251
806.061	-1552
806.161	-549
806.262	-210
806.362	320
806.463	-40
806.564	748
806.664	-432
806.765	702
806.865	454
806.966	109
807.066	-957
807.166	1203
807.267	-376
807.367	-672
807.468	-22
807.568	-1123
807.668	1213
807.769	605
807.869	277
807.969	-21
808.069	149
808.170	174
808.270	-206
808.370	50
808.470	7
808.570	-948
808.670	77
808.770	-254
808.870	-652
808.970	-452
809.070	-356
809.170	-359
809.271	41
809.370	125
809.470	941
809.570	173
809.670	-643
809.770	151
809.870	819
809.970	-559
810.070	-516
810.169	526
810.269	-1094
810.369	747
810.469	-439
810.568	-749
810.668	307
810.768	-754
810.867	135
810.967	-297
811.066	-332
811.166	-805
811.265	876
811.365	-105
811.464	-545
811.564	465
811.663	-326
811.763	-1304
811.862	-148
811.962	240
812.061	136
812.160	-854
812.260	-59
812.359	-85
812.458	-733
812.557	719
812.657	89
812.756	477
812.855	-644
812.954	-369
813.053	668
813.153	-76
813.252	-1144
813.351	928
813.450	-39
813.549	-37
813.648	714
813.747	93
813.846	385
813.945	-329
814.044	-375
814.143	-280
814.242	1396
814.341	-400
814.439	69
814.538	-27
814.637	-207
814.736	570
814.835	370
814.933	154
815.032	801
815.131	372
815.229	623
815.328	946
815.427	-1355
815.525	1512
815.624	727
815.722	279
815.821	1580
815.919	662
816.018	336
816.116	1729
816.215	558
816.313	1163
816.412	1469
816.510	875
816.609	2521
816.707	2547
816.805	875
816.904	1881
817.002	2391
817.100	3703
817.198	3991
817.296	3170
817.395	5359
817.493	6803
817.591	7437
817.689	12197
817.787	16361
817.885	27948
817.983	52472
818.081	111277
818.179	257239
818.277	554593
818.375	429590
818.473	142267
818.571	59992
818.669	40781
818.767	36172
818.865	34168
818.963	40020
819.061	60116
819.158	100904
819.256	207734
819.354	452932
819.452	793307
819.549	500262
819.647	180740
819.745	81513
819.842	48240
819.940	33442
820.038	23945
820.135	17473
820.233	14970
820.330	10907
820.428	8333
820.525	8365
820.623	7188
820.720	4805
820.818	4985
820.915	4999
821.012	6350
821.110	3855
821.207	4538
821.304	3638
821.402	5324
821.499	8050
821.596	14053
821.693	7004
821.791	3262
821.888	2424
821.985	3970
822.082	3016
822.179	4650
822.276	6223
822.373	3190
822.470	934
822.567	1618
822.664	-225
822.761	1637
822.858	588
822.955	1148
823.052	685
823.149	665
823.246	-132
823.343	461
823.440	876
823.536	223
823.633	726
823.730	811
823.827	478
823.923	300
824.020	1913
824.117	1938
824.213	3428
824.310	2052
824.407	805
824.503	328
824.600	24
824.696	-283
824.793	267
824.889	-145
824.986	-104
825.082	-79
825.179	360
825.275	-333
825.371	-824
825.468	408
825.564	-917
825.660	589
825.757	71
825.853	837
825.949	-461
826.045	400
826.142	-556
826.238	-402
826.334	-470
826.430	-739
826.526	-727
826.622	-738
826.718	-1332
826.814	-416
826.910	-45
827.006	-629
827.102	-1343
827.198	236
827.294	-115
827.390	571
827.486	417
827.582	-568
827.678	-1414
827.774	765
827.869	-1301
827.965	618
828.061	-1372
828.157	-411
828.252	-153
828.348	-889
828.444	246
828.539	-2033
828.635	-313
828.731	10
828.826	-1887
828.922	-543
829.017	-687
829.113	317
829.208	-1161
829.304	-1451
829.399	222
829.495	-702
829.590	25
829.685	-1781
829.781	-87
829.876	-872
829.971	-397
830.066	-308
830.162	-837
830.257	-972
830.352	-1135
830.447	657
830.543	-203
830.638	-2380
830.733	456
830.828	-698
830.923	-1058
831.018	-550
831.113	-469
831.208	-880
831.303	-478
831.398	30
831.493	-759
831.588	687
831.683	-852
831.778	-171
831.873	-259
831.967	-343
832.062	-1410
832.157	-1021
832.252	-823
832.346	-303
832.441	-421
832.536	310
832.631	1819
832.725	831
832.820	-853
832.914	-603
833.009	-628
833.104	-470
833.198	1
833.293	-456
833.387	380
833.482	-787
833.576	-1169
833.670	471
833.765	-626
833.859	-1582
833.954	60
834.048	-103
834.142	-909
834.237	-1082
834.331	-192
834.425	77
834.519	-1556
834.613	-447
834.708	-1154
834.802	-540
834.896	-1565
834.990	-420
835.084	-283
835.178	-117
835.272	-966
835.366	-84
835.460	-274
835.554	-6
835.648	-701
835.742	-749
835.836	361
835.930	-1221
836.024	-613
836.117	385
836.211	-1895
836.305	356
836.399	-395
836.493	-994
836.586	448
836.680	-1201
836.774	-1031
836.867	-98
836.961	-998
837.055	-1104
837.148	-1149
837.242	-582
837.335	-1022
837.429	-1067
837.522	-903
837.616	-408
837.709	761
837.803	-765
837.896	-271
837.989	-362
838.083	8
838.176	446
838.269	-838
838.363	-485
838.456	-976
838.549	-245
838.642	-502
838.735	936
838.829	139
838.922	-1216
839.015	-851
839.108	-1225
839.201	-1183
839.294	-546
839.387	-730
839.480	-1370
839.573	199
839.666	34
839.759	-946
839.852	-1354
839.945	-777
840.038	-789
840.131	-543
840.223	-763
840.316	-574
840.409	-299
840.502	-2160
840.594	923
840.687	-1113
840.780	-422
840.873	-1374
840.965	-1182
841.058	-655
841.150	184
841.243	-475
841.336	-51
841.428	-919
841.521	-821
841.613	-1045
841.706	-726
841.798	-292
841.890	-649
841.983	-771
842.075	113
842.167	-361
842.260	-524
842.352	-623
842.444	-406
842.537	617
842.629	1713
842.721	-260
842.813	-168
842.905	-1791
842.997	187
843.090	-599
843.182	570
843.274	-641
843.366	3224
843.458	4571
843.550	2496
843.642	-1558
843.734	-207
843.826	261
843.918	20
844.009	-767
844.101	-1373
844.193	-152
844.285	175
844.377	1608
844.469	4279
844.560	7435
844.652	6618
844.744	1840
844.835	29
844.927	126
845.019	-617
845.110	-1011
845.202	-217
845.293	-62
845.385	-991
845.476	-725
845.568	157
845.659	-306
845.751	-360
845.842	-1043
845.934	-1696
846.025	-1476
846.116	86
846.208	-1406
846.299	-1060
846.390	-445
846.482	27
846.573	-606
846.664	-722
846.755	-815
846.846	282
846.937	-2176
847.029	-669
847.120	-1018
847.211	-1141
847.302	-629
847.393	-1060
847.484	-806
847.575	-873
847.666	-1297
847.757	-345
847.847	-874
847.938	286
848.029	-1032
848.120	-1349
848.211	-1472
848.302	-1010
848.392	-1529
848.483	-393
848.574	-1386
848.664	-1011
848.755	12
848.846	476
848.936	-1932
849.027	-726
849.118	-326
849.208	-605
849.299	-870
849.389	-384
849.480	529
849.570	346
849.661	2207
849.751	3439
849.841	39
849.932	-703
850.022	-1193
850.112	-549
850.203	-1498
850.293	-544
850.383	-1276
850.474	-1677
850.564	-736
850.654	-862
850.744	-1079
850.834	-1542
850.924	-1215
851.014	-570
851.104	-1680
851.194	-1319
851.284	-338
851.374	860
851.464	-688
851.554	-386
851.644	-479
851.734	288
851.824	-1633
851.914	488
852.004	-292
852.094	-510
852.183	-409
852.273	-519
852.363	-157
852.452	-1047
852.542	-1724
852.632	-1116
852.721	-822
852.811	-666
852.901	-679
852.990	-1013
853.080	-1118
853.169	-1064
853.259	-1114
853.348	-1218
853.438	-1327
853.527	-740
853.617	-725
853.706	570
853.795	1087
853.885	6769
853.974	10838
854.063	22807
854.152	28851
854.242	6379
854.331	-159
854.420	-1336
854.509	-749
854.598	-595
854.687	-1135
854.777	-88
854.866	-1441
854.955	247
855.044	-1216
855.133	-713
855.222	-607
855.311	-634
855.400	-67
855.488	-46
855.577	-1611
855.666	-171
855.755	-981
855.844	-368
855.933	-874
856.021	-82
856.110	-822
856.199	-865
856.288	-1388
856.376	-979
856.465	-992
856.554	218
856.642	-651
856.731	-151
856.819	-944
856.908	-1366
856.996	-750
857.085	-930
857.173	-974
857.262	-1588
857.350	-902
857.438	-1017
857.527	-669
857.615	-714
857.703	-607
857.792	-813
857.880	-1921
857.968	-863
858.056	-998
858.145	-1251
858.233	-954
858.321	-925
858.409	-513
858.497	-1592
858.585	-1236
858.673	-811
858.761	-1216
858.849	-993
858.937	-959
859.025	-950
859.113	-604
859.201	-1162
859.289	214
859.377	-367
859.465	-79
859.552	-384
859.640	-732
859.728	-248
859.816	-1191
859.903	-492
859.991	-1355
860.079	-696
860.166	-1553
860.254	-1101
860.342	-1154
860.429	-872
860.517	-1173
860.604	-970
860.692	226
860.779	-909
860.867	-956
860.954	-1090
861.042	-1019
861.129	-843
861.216	-688
861.304	-1471
861.391	-1293
861.478	-1274
861.565	-1139
861.653	-65
861.740	-1285
861.827	-1094
861.914	-965
862.001	-325
862.089	-1059
862.176	-1400
862.263	-842
862.350	-453
862.437	-42
862.524	-222
862.611	-920
862.698	522
862.785	1748
862.871	2560
862.958	-826
863.045	-939
863.132	-982
863.219	-878
863.306	-1952
863.392	-988
863.479	-1174
863.566	-1492
863.652	-1073
863.739	-1637
863.826	-1206
863.912	-502
863.999	-1583
864.086	-671
864.172	-723
864.259	-1358
864.345	-1344
864.432	-584
864.518	-547
864.604	-480
864.691	-1522
864.777	-410
864.863	-768
864.950	-163
865.036	-1958
865.122	-580
865.209	-997
865.295	-980
865.381	-300
865.467	230
865.553	667
865.639	399
865.726	224
865.812	1491
865.898	5236
865.984	6759
866.070	14327
866.156	11939
866.242	1067
866.328	559
866.414	-327
866.499	-332
866.585	-1254
866.671	-337
866.757	-192
866.843	-691
866.928	-1886
867.014	-952
867.100	242
867.186	-620
867.271	-126
867.357	-257
867.442	-423
867.528	-189
867.614	300
867.699	2002
867.785	3027
867.870	7291
867.956	8610
868.041	3753
868.127	2986
868.212	5092
868.297	4002
868.383	1179
868.468	1725
868.553	2288
868.639	54
868.724	1061
868.809	669
868.894	-824
868.979	-1037
869.065	-376
869.150	-818
869.235	-1109
869.320	-1115
869.405	-1357
869.490	-1551
869.575	-991
869.660	-1412
869.745	-437
869.830	-1518
869.915	-226
870.000	-531
870.085	54
870.169	251
870.254	957
870.339	-417
870.424	-1180
870.509	-747
870.593	-1218
870.678	-1179
870.763	-698
870.847	944
870.932	-737
871.016	-58
871.101	418
871.186	-329
871.270	-661
871.355	-1768
871.439	-94
871.523	-1351
871.608	-542
871.692	-373
871.777	1482
871.861	-234
871.945	-1058
872.030	-973
872.114	-1118
872.198	-975
872.282	-1425
872.367	-1208
872.451	-1091
872.535	-1083
872.619	-625
872.703	-1400
872.787	-688
872.871	-80
872.955	-694
873.039	-1110
873.123	-1131
873.207	-888
873.291	-1111
873.375	-926
873.459	-994
873.543	-1553
873.627	-1255
873.711	-798
873.794	-433
873.878	-317
873.962	-326
874.045	-1715
874.129	242
874.137	121
874.213	-1088
874.245	-1004
874.296	-864
874.352	-1214
874.380	-1391
874.460	-1133
874.464	-1123
874.547	-428
874.568	-365
874.631	-186
874.676	-552
874.714	-856
874.784	-890
874.798	-898
874.881	201
874.892	40
874.965	-1021
874.999	-488
875.048	201
875.107	-188
875.131	-331
875.215	-388
875.215	-388
875.298	-848
875.323	-981
875.381	-1234
875.430	-809
875.465	-550
875.538	-858
875.548	-890
875.631	-1149
875.646	-1140
875.714	-1201
875.753	-1097
875.798	-919
875.861	-612
875.881	-529
875.964	-161
875.968	-195
876.047	-748
876.076	-564
876.130	-219
876.183	-340
876.213	-417
876.291	-605
876.296	-620
876.379	-1064
876.398	-1088
876.462	-1097
876.506	-875
876.545	-713
876.613	-321
876.628	-236
876.711	-19
876.721	-21
876.794	37
876.828	-63
876.877	-291
876.935	-647
876.960	-700
877.043	15
877.043	14
877.125	-388
877.150	-223
877.208	307
877.258	19
877.291	-135
877.365	500
877.374	566
877.456	514
877.472	403
877.539	-198
877.579	-487
877.622	-677
877.687	-389
877.704	-315
877.787	-235
877.794	-228
877.869	-190
877.901	-84
877.952	98
878.008	127
878.034	145
878.115	-611
878.117	-625
878.199	116
878.222	33
878.282	-302
878.329	-321
878.364	-178
878.437	-575
878.447	-637
878.529	-494
878.544	-419
878.611	-191
878.651	-206
878.694	-144
878.758	-46
878.776	-15
878.858	-441
878.865	-398
878.941	79
878.972	32
879.023	-117
879.078	-329
879.105	-339
879.185	-69
879.187	-65
879.269	154
879.292	62
879.351	-153
879.399	-362
879.433	-480
879.506	149
879.516	202
879.598	-298
879.613	-511
879.680	-979
879.720	-464
879.762	-18
879.827	-331
879.844	-474
879.926	-103
879.933	-151
880.007	-291
880.040	-245
880.089	-239
880.147	-106
880.171	-34
880.253	438
880.254	435
880.335	575
880.360	810
880.417	1518
880.467	2140
880.499	2855
880.574	4543
880.580	4455
880.662	1466
880.680	941
880.744	112
880.787	-295
880.825	-606
880.893	-294
880.907	-153
880.989	-202
881.000	-158
881.070	82
881.106	-80
881.152	-254
881.213	23
881.233	22
881.315	-326
881.319	-336
881.396	-54
881.426	-25
881.478	22
881.532	17
881.559	-75
881.639	-692
881.641	-700
881.722	-235
881.745	-277
881.803	-47
881.852	282
881.885	342
881.958	504
881.966	516
882.047	42
882.064	-29
882.129	-190
882.171	119
882.210	614
882.277	876
882.291	795
882.372	112
882.383	50
882.454	-62
882.489	-278
882.535	-456
882.596	-296
882.616	-223
882.697	-108
882.702	-95
882.778	38
882.808	70
882.859	246
882.914	174
882.940	-41
883.020	-593
883.021	-587
883.102	-14
883.127	217
883.183	171
883.233	-190
883.264	-243
883.339	171
883.345	213
883.426	-289
883.445	-133
883.507	374
883.551	312
883.587	59
883.657	-222
883.668	-198
883.749	-104
883.763	-43
883.830	107
883.869	70
883.910	254
883.975	388
883.991	352
884.072	203
884.081	208
884.152	245
884.187	148
884.233	114
884.292	358
884.314	468
884.394	410
884.398	412
884.475	96
884.504	-73
884.555	104
884.610	333
884.636	250
884.716	-195
884.716	-190
884.797	33
884.821	-51
884.877	-273
884.927	-330
884.958	-320
885.033	-413
885.038	-390
885.118	90
885.139	133
885.199	12
885.244	235
885.279	383
885.350	162
885.359	196
885.439	764
885.456	818
885.520	190
885.561	-224
885.600	-28
885.667	476
885.680	376
885.760	-242
885.773	-369
885.840	24
885.878	292
885.920	298
885.984	95
886.000	94
886.080	304
886.089	315
886.160	-9
886.195	-153
886.240	242
886.300	656
886.320	550
886.400	48
886.406	28
886.480	190
886.511	162
886.560	310
886.616	523
886.640	620
886.720	932
886.722	930
886.800	812
886.827	802
886.879	751
886.932	456
886.959	502
887.038	1108
887.039	1116
887.119	735
887.143	728
887.198	1194
887.248	1357
887.278	1010
887.354	165
887.358	202
887.437	730
887.459	960
887.517	1411
887.564	1620
887.596	1297
887.669	598
887.676	629
887.755	875
887.774	959
887.835	435
887.880	13
887.914	323
887.985	813
887.994	787
888.073	604
888.090	572
888.153	819
888.195	884
888.232	727
888.300	550
888.311	544
888.391	332
888.405	309
888.470	538
888.510	614
888.549	530
888.615	480
888.628	446
888.708	190
888.720	140
888.787	723
888.825	1022
888.866	943
888.930	893
888.945	978
889.024	1358
889.035	1401
889.103	923
889.140	669
889.182	891
889.245	1219
889.261	1207
889.340	1079
889.349	1063
889.419	1150
889.454	1170
889.498	1085
889.559	973
889.577	1037
889.656	1289
889.664	1309
889.735	978
889.768	814
889.814	1119
889.873	1516
889.978	1509
890.083	466
890.187	1025
890.292	346
890.397	42
890.501	1539
890.606	1364
890.710	1422
890.815	980
890.919	103
891.024	123
891.128	789
891.233	1021
891.337	1048
891.442	280
891.546	891
891.650	395
891.755	1319
891.859	1584
891.963	1079
892.068	414
892.172	705
892.276	651
892.380	1872
892.484	1494
892.589	357
892.693	891
892.797	770
892.901	443
893.005	586
893.109	1128
893.213	1445
893.317	798
893.421	381
893.525	455
893.629	881
893.733	834
893.837	750
893.941	630
894.045	829
894.148	588
894.252	768
894.356	1024
894.460	879
894.564	287
894.667	668
894.771	716
894.875	394
894.978	68
895.082	210
895.186	721
895.289	887
895.393	533
895.496	1396
895.600	-63
895.703	1155
895.807	579
895.910	435
896.014	610
896.117	677
896.221	934
896.324	223
896.427	955
896.531	398
896.634	372
896.737	611
896.840	-432
896.944	668
897.047	1056
897.150	667
897.253	27
897.356	700
897.460	98
897.563	821
897.666	1064
897.769	603
897.872	1085
897.975	424
898.078	892
898.181	830
898.284	120
898.387	724
898.490	914
898.593	1011
898.695	-383
898.798	906
898.901	718
899.004	1204
899.107	861
899.209	694
899.312	738
899.415	1013
899.518	678
899.620	466
899.723	782
899.826	1358
899.928	1945
900.031	401
900.133	609
900.236	44
900.338	306
900.441	217
900.543	189
900.646	292
900.748	711
900.851	1033
900.953	116
901.055	534
901.158	1204
901.260	1055
901.362	300
901.465	138
901.567	131
901.669	720
901.771	527
901.873	424
901.976	490
902.078	536
902.180	370
902.282	561
902.384	386
902.486	517
902.588	688
902.690	1676
902.792	1082
902.894	1784
902.996	155
903.098	1396
903.200	559
903.302	1237
903.404	804
903.505	235
903.607	-143
903.709	382
903.811	-151
903.913	1148
904.014	690
904.116	-219
904.218	435
904.319	1081
904.421	2467
904.523	3759
904.624	1287
904.726	625
904.827	1694
904.929	2872
905.030	1022
905.132	142
905.233	606
905.335	548
905.436	136
905.537	178
905.639	1455
905.740	1102
905.841	1411
905.943	1596
906.044	2275
906.145	1527
906.247	529
906.348	570
906.449	346
906.550	431
906.651	1077
906.752	152
906.854	-261
906.955	996
907.056	-62
907.157	519
907.258	614
907.359	420
907.460	487
907.561	44
907.662	-547
907.762	-522
907.863	202
907.964	860
908.065	442
908.166	781
908.267	-582
908.367	240
908.468	858
908.569	461
908.670	-64
908.770	1376
908.871	1106
908.971	1364
909.072	603
909.173	851
909.273	555
909.374	888
909.474	-203
909.575	-58
909.675	547
909.776	384
909.876	-254
909.977	339
910.077	393
910.177	-461
910.278	433
910.378	557
910.478	-471
910.579	554
910.679	350
910.779	943
910.879	481
910.980	830
911.080	-384
911.180	404
911.280	16
911.380	477
911.480	-82
911.580	101
911.680	-403
911.780	15
911.880	168
911.980	623
912.080	-1001
912.180	1042
912.280	270
912.380	725
912.480	-67
912.580	748
912.679	121
912.779	841
912.879	396
912.979	112
913.078	340
913.178	-142
913.278	422
913.377	525
913.477	281
913.577	-605
913.676	397
913.776	349
913.875	481
913.975	965
914.074	678
914.174	364
914.273	-243
914.373	1344
914.472	298
914.572	524
914.671	-672
914.770	506
914.870	-365
914.969	318
915.068	797
915.167	1127
915.267	160
915.366	-50
915.465	187
915.564	619
915.663	-34
915.763	627
915.862	237
915.961	854
916.060	207
916.159	126
916.258	-422
916.357	345
916.456	21
916.555	554
916.654	321
916.752	649
916.851	187
916.950	1354
917.049	630
917.148	412
917.247	516
917.345	922
917.444	679
917.543	677
917.642	371
917.740	567
917.839	389
917.937	978
918.036	539
918.135	718
918.233	-115
918.332	987
918.430	-321
918.529	148
918.627	1006
918.726	90
918.824	-165
918.923	804
919.021	-620
919.119	603
919.218	506
919.316	249
919.414	-213
919.512	984
919.611	586
919.709	901
919.807	382
919.905	268
920.003	521
920.102	361
920.200	381
920.298	1321
920.396	148
920.494	762
920.592	582
920.690	721
920.788	-238
920.886	769
920.984	226
921.082	294
921.180	545
921.277	302
921.375	705
921.473	1005
921.571	133
921.669	838
921.766	38
921.864	1462
921.962	555
922.060	738
922.157	-109
922.255	575
922.352	470
922.450	1288
922.548	336
922.645	1405
922.743	606
922.840	207
922.938	-125
923.035	1263
923.133	462
923.230	708
923.327	527
923.425	756
923.522	754
923.619	1040
923.717	46
923.814	703
923.911	498
924.008	1019
924.106	294
924.203	1560
924.300	1086
924.397	594
924.494	307
924.591	1079
924.688	668
924.786	1333
924.883	267
924.979	693
925.077	563
925.173	1449
925.270	496
925.367	1253
925.464	1451
925.561	802
925.658	1351
925.755	705
925.852	1961
925.948	2545
926.045	3745
926.142	3775
926.239	5132
926.335	4730
926.432	4114
926.529	6356
926.625	5248
926.722	4131
926.818	3285
926.915	2384
927.011	1177
927.108	1193
927.204	911
927.301	1576
927.397	454
927.494	1750
927.590	179
927.687	930
927.783	1545
927.879	708
927.976	1252
928.072	674
928.168	733
928.264	562
928.361	1266
928.457	909
928.553	732
928.649	876
928.745	-301
928.841	1357
928.937	278
929.033	864
929.129	803
929.225	542
929.321	-492
929.417	1043
929.513	670
929.609	645
929.705	318
929.801	450
929.897	126
929.993	1007
930.089	1209
930.184	1047
930.280	-360
930.376	1338
930.471	647
930.567	608
930.663	609
930.758	1074
930.854	631
930.950	415
931.045	421
931.141	573
931.236	921
931.332	992
931.427	767
931.523	696
931.618	451
931.714	167
931.809	260
931.905	626
932.000	498
932.095	587
932.191	326
932.286	137
932.381	-122
932.476	721
932.572	373
932.667	778
932.762	726
932.857	977
932.952	654
933.047	450
933.142	1000
933.237	1168
933.332	-111
933.427	-29
933.522	111
933.617	1111
933.712	752
933.807	1286
933.902	25
933.997	665
934.092	596
934.187	1027
934.282	479
934.376	283
934.471	1026
934.566	327
934.661	1119
934.755	1856
934.850	54
934.945	412
935.039	155
935.134	1108
935.228	634
935.323	772
935.417	314
935.512	891
935.606	402
935.701	606
935.795	86
935.890	239
935.984	369
936.079	693
936.173	573
936.267	752
936.362	233
936.456	755
936.550	372
936.644	814
936.738	519
936.833	1054
936.927	1026
937.021	995
937.115	58
937.209	164
937.303	1555
937.397	437
937.491	-37
937.585	463
937.679	843
937.773	390
937.867	326
937.961	773
938.055	-106
938.149	713
938.243	431
938.337	663
938.430	1807
938.524	3274
938.618	6335
938.712	5771
938.805	2571
938.899	1106
938.993	2461
939.086	4072
939.180	8483
939.274	10466
939.367	3599
939.461	1509
939.554	874
939.648	1306
939.741	151
939.835	257
939.928	112
940.022	230
940.115	73
940.208	331
940.302	419
940.395	1073
940.488	-657
940.582	1063
940.675	23
940.768	360
940.861	-390
940.954	1293
941.048	245
941.141	1205
941.234	1596
941.327	4851
941.420	5932
941.513	2022
941.606	595
941.699	1221
941.792	-487
941.885	-35
941.978	653
942.071	131
942.164	-409
942.257	-47
942.349	612
942.442	824
942.535	87
942.628	710
942.721	669
942.813	-15
942.906	1062
942.999	310
943.091	638
943.184	-367
943.277	90
943.369	584
943.462	122
943.554	36
943.647	-409
943.739	1193
943.832	-138
943.924	-134
944.017	-225
944.109	-958
944.201	373
944.294	516
944.386	196
944.478	311
944.571	355
944.663	966
944.755	80
944.847	648
944.940	803
945.032	333
945.124	120
945.216	1355
945.308	291
945.400	502
945.492	214
945.584	474
945.676	142
945.768	215
945.860	977
945.952	661
946.044	1265
946.136	968
946.228	454
946.320	599
946.412	-55
946.503	306
946.595	614
946.687	328
946.779	-230
946.870	513
946.962	-298
947.054	73
947.145	901
947.237	440
947.329	-161
947.420	96
947.512	976
947.603	297
947.695	285
947.786	295
947.878	-606
947.969	1167
948.061	-381
948.152	-171
948.243	146
948.335	644
948.426	0
948.517	850
948.609	64
948.700	391
948.791	-85
948.882	499
948.973	-501
949.065	485
949.156	-247
949.247	-246
949.338	-55
949.429	-373
949.520	57
949.611	-608
949.702	-362
949.793	-145
949.884	312
949.975	94
950.066	343
950.157	-665
950.247	-230
950.338	383
950.429	44
950.520	1324
950.611	-453
950.701	589
950.792	-1064
950.883	1315
950.973	123
951.064	1306
951.155	91
951.245	919
951.336	-187
951.427	-204
951.517	804
951.608	851
951.698	-666
951.788	288
951.879	-23
951.969	486
952.060	499
952.150	-289
952.240	191
952.331	-1460
952.421	160
952.511	-788
952.602	-123
952.692	-947
952.782	-293
952.872	-368
952.962	-633
953.052	-600
953.143	-825
953.233	678
953.323	-356
953.413	-517
953.503	-712
953.593	-94
953.683	-663
953.773	-292
953.863	55
953.953	-570
954.042	-256
954.132	178
954.222	674
954.312	-759
954.402	-356
954.492	521
954.581	626
954.671	421
954.761	-1460
954.850	227
954.940	-459
955.030	1097
955.119	-372
955.209	1
955.298	-715
955.388	126
955.477	-17
955.567	-372
955.656	-69
955.746	156
955.835	-742
955.925	-729
956.014	605
956.103	-289
956.193	-239
956.282	433
956.371	115
956.461	-485
956.550	-592
956.639	447
956.728	-656
956.817	-783
956.906	31
956.995	297
957.085	-256
957.174	96
957.263	-321
957.352	166
957.441	-631
957.530	267
957.619	-304
957.708	-357
957.796	-825
957.885	494
957.974	36
958.063	275
958.152	-1253
958.241	-236
958.329	-375
958.418	400
958.507	-1230
958.596	1214
958.684	-640
958.773	165
958.861	-1021
958.950	879
959.039	-216
959.127	-125
959.216	645
959.304	-274
959.393	270
959.481	598
959.570	-533
959.658	100
959.746	-175
959.835	1466
959.923	1572
960.011	520
960.100	-310
960.188	198
960.276	-955
960.365	75
960.453	-221
960.541	-469
960.629	-343
960.717	307
960.805	-318
960.893	529
960.981	-1206
961.069	36
961.158	-347
961.245	710
961.333	180
961.421	-543
961.509	-46
961.597	364
961.685	-384
961.773	173
961.861	-833
961.949	1023
962.036	-543
962.124	1312
962.212	-1172
962.299	481
962.387	-1120
962.475	-460
962.562	-1237
962.650	568
962.738	-912
962.825	-340
962.913	-790
963.000	258
963.088	-313
963.175	506
963.263	-385
963.350	-304
963.438	1
963.525	-208
963.612	2692
963.700	6259
963.787	9700
963.874	3229
963.962	895
964.049	483
964.136	-804
964.223	-214
964.310	-237
964.398	614
964.485	141
964.572	258
964.659	1043
964.746	463
964.833	-325
964.920	-132
965.007	-740
965.094	-608
965.181	-108
965.268	281
965.355	-950
965.441	-581
965.528	-467
965.615	98
965.702	-207
965.789	79
965.875	93
965.962	-109
966.049	-880
966.136	-133
966.222	-875
966.309	112
966.395	-598
966.482	173
966.569	-922
966.655	150
966.742	-848
966.828	415
966.915	-1464
967.001	-175
967.087	-547
967.174	-75
967.260	175
967.347	1637
967.433	4537
967.519	6560
967.605	943
967.692	-20
967.778	-1116
967.864	74
967.950	-856
968.036	-1082
968.123	93
968.209	-26
968.295	-292
968.381	706
968.467	105
968.553	-964
968.639	372
968.725	-955
968.811	831
968.897	323
968.983	-1105
969.069	-479
969.154	-777
969.240	464
969.326	-791
969.412	-1091
969.497	-1379
969.583	-629
969.669	35
969.755	263
969.840	-341
969.926	-62
970.012	-564
970.097	770
970.183	-683
970.268	-129
970.354	866
970.439	1918
970.525	4179
970.610	-38
970.696	536
970.781	313
970.866	-1423
970.952	-266
971.037	-805
971.122	-1017
971.208	-425
971.293	-18
971.378	-1438
971.463	-132
971.549	279
971.634	-256
971.719	-221
971.804	105
971.889	418
971.974	-349
972.059	-502
972.144	-157
972.229	-51
972.314	-615
972.399	325
972.484	-138
972.569	495
972.654	18
972.739	2234
972.824	906
972.908	-821
972.993	-222
973.078	-318
973.163	69
973.247	-748
973.332	-949
973.417	700
973.501	-910
973.586	-550
973.671	-860
973.755	-1495
973.840	304
973.924	236
974.009	-201
974.093	-123
974.178	901
974.262	1403
974.346	589
974.431	-245
974.515	-167
974.600	-499
974.684	165
974.768	-1262
974.852	410
974.937	-1383
975.021	268
975.105	-991
975.189	419
975.273	-232
975.358	-86
975.442	-894
975.526	-20
975.610	-1804
975.694	-1052
975.778	-187
975.862	178
975.946	-2550
976.030	37
976.114	-1535
976.198	14
976.281	-465
976.365	794
976.449	-861
976.533	-520
976.617	-358
976.700	-211
976.784	-545
976.868	-270
976.951	476
977.035	-486
977.119	-3
977.202	-417
977.286	-394
977.369	-654
977.453	-237
977.536	-916
977.620	-1732
977.703	-398
977.787	-535
977.870	704
977.953	878
978.037	-1194
978.120	615
978.203	995
978.287	1116
978.370	-23
978.453	-771
978.536	-282
978.620	452
978.703	1198
978.786	-1488
978.869	-437
978.952	-1648
979.035	535
979.118	-171
979.201	-1031
979.284	-401
979.367	-1568
979.450	563
979.533	-885
979.616	-384
979.699	-960
979.782	-569
979.865	-327
979.948	-732
980.030	-583
980.113	-1141
980.196	-614
980.279	-331
980.361	-252
980.444	-1314
980.526	-57
980.609	-269
980.692	-1119
980.774	-793
980.857	-1199
980.939	49
981.022	-1169
981.104	-1261
981.187	-801
981.269	-419
981.352	-30
981.434	-1891
981.516	-1393
981.599	-295
981.681	101
981.763	-465
981.846	120
981.928	-1195
982.010	-522
982.092	-1183
982.174	467
982.256	-667
982.339	-964
982.421	-304
982.503	-263
982.585	-1207
982.667	-258
982.749	-543
982.831	-420
982.913	-1613
982.995	-216
983.077	-1383
983.158	875
983.240	-1325
983.322	-848
983.404	-318
983.486	-896
983.568	-13
983.649	-651
983.731	-687
983.813	-655
983.894	-566
983.976	-1306
984.058	-494
984.139	203
984.221	-2232
984.302	340
984.384	-1124
984.465	-544
984.547	-461
984.628	-1499
984.710	-606
984.791	-509
984.872	-1150
984.954	-632
985.035	-882
985.116	-1263
985.198	-1508
985.279	521
985.360	-1172
985.441	-957
985.522	-866
985.604	-420
985.685	-3026
985.766	-177
985.847	554
985.928	-1263
986.009	-297
986.090	-284
986.171	240
986.252	-1288
986.333	-436
986.414	-761
986.495	-131
986.576	-784
986.656	-544
986.737	-498
986.818	-1344
986.899	-1185
986.980	-1503
987.060	743
987.141	-1188
987.222	-467
987.302	-1284
987.383	220
987.464	-806
987.544	-739
987.625	-577
987.705	-23
987.786	-905
987.866	-888
987.947	-1928
988.027	-471
988.108	-1323
988.188	-1149
988.268	-632
988.349	-98
988.429	-770
988.509	-295
988.589	-1761
988.670	-1903
988.750	24
988.830	-797
988.910	-210
988.990	-958
989.070	-1042
989.151	-248
989.231	-1266
989.311	-1137
989.391	-1342
989.471	-815
989.551	-687
989.631	-885
989.711	-788
989.791	-1194
989.870	-1352
989.950	751
990.030	-1098
990.110	-513
990.190	-1392
990.269	-1229
990.349	-614
990.429	79
990.509	-1076
990.588	-1354
990.668	-1116
990.747	-1034
990.827	-1206
990.907	-296
990.986	-941
991.066	653
991.145	-1073
991.225	-625
991.304	-1021
991.383	-223
991.463	-946
991.542	-319
991.622	-616
991.701	-843
991.780	-433
991.859	-215
991.939	-964
992.018	-1019
992.097	-678
992.176	-301
992.256	-414
992.335	-1348
992.414	-976
992.493	-1132
992.572	-1353
992.651	62
992.730	-630
992.809	-1155
992.888	-984
992.967	-1022
993.046	-1275
993.125	-1602
993.203	-1214
993.282	-410
993.361	-1108
993.440	-791
993.519	-1683
993.597	3
993.676	-1736
993.755	-550
993.834	-150
993.912	-1867
993.991	-294
994.069	-1100
994.148	-1164
994.226	-896
994.305	-518
994.384	-610
994.462	147
994.540	-1680
994.619	-1093
994.697	-1122
994.776	-1073
994.854	18
994.932	-2061
995.011	-159
995.089	-1567
995.167	183
995.245	-1014
995.324	-1747
995.402	-892
995.480	-1019
995.558	-828
995.636	-1455
995.714	-975
995.792	396
995.870	-1748
995.948	-518
996.026	-345
996.104	-1904
996.182	-324
996.260	-708
996.338	-698
996.416	-1717
996.494	-1418
996.572	-439
996.649	-558
996.727	-1746
996.805	-858
996.883	-922
996.960	-1228
997.038	-72
997.116	-948
997.193	-1621
997.271	-290
997.348	-1895
997.426	-1839
997.504	-2112
997.581	-578
997.658	-1179
997.736	-1668
997.813	-1092
997.891	-773
997.968	-1139
998.046	-1345
998.123	95
998.200	-819
998.277	-1533
998.355	-1288
998.432	-1774
998.509	-898
998.586	-286
998.663	-687
998.741	-1146
998.818	-1397
998.895	-603
998.972	-1409
999.049	-1179
999.126	-991
999.203	-622
999.280	-832
999.357	-798
999.434	-1493
999.511	-1314
999.587	-645
999.664	-1505
999.741	-428
999.818	-156
999.895	-445
999.971	-714
1000.048	-1394
1000.125	-633
1000.202	-1150
1000.278	-868
1000.355	-982
1000.431	-626
1000.508	-1642
1000.584	-692
1000.661	-1044
1000.738	-1318
1000.814	-999
1000.890	251
1000.967	-1348
1001.043	-575
1001.120	-1880
1001.196	-334
1001.272	-1900
1001.349	-250
1001.425	-475
1001.501	-967
1001.577	-987
1001.654	-240
1001.730	-1589
1001.806	-1462
1001.882	-1455
1001.958	-812
1002.034	-1066
1002.110	-418
1002.186	-1031
1002.262	-1154
1002.338	-1587
1002.414	-584
1002.490	-516
1002.566	-1615
1002.642	-1775
1002.718	-326
1002.794	-752
1002.870	-1144
1002.945	-996
1003.021	-8
1003.097	-1010
1003.173	-757
1003.248	-2032
1003.324	-819
1003.400	-1051
1003.475	-1295
1003.551	-1060
1003.626	-1909
1003.702	-1301
1003.777	-589
1003.853	-1192
1003.928	-376
1004.004	-220
1004.079	-803
1004.155	-1127
1004.230	-1504
1004.305	-968
1004.381	-1522
1004.456	-1184
1004.531	-679
1004.607	-767
1004.682	-1302
1004.757	-1665
1004.832	-1075
1004.907	-1635
1004.982	-913
1005.057	-687
1005.133	-1011
1005.208	-1408
1005.283	-1152
1005.358	-579
1005.433	-1481
1005.508	-1418
1005.583	-1413
1005.657	-2034
1005.732	-475
1005.807	-1238
1005.882	-670
1005.957	-1698
1006.032	-1039
1006.106	-1767
1006.181	-959
1006.256	-1162
1006.331	-1326
1006.405	-1571
1006.480	-654
1006.554	-1388
1006.629	-370
1006.704	-2025
1006.778	-1090
1006.853	-396
1006.927	-1369
1007.002	-2035
1007.076	-929
1007.150	-1183
1007.225	-30
1007.299	-1582
1007.373	-957
1007.448	-1224
1007.522	-702
1007.596	-1192
1007.671	-1479
1007.745	-616
1007.819	-1661
1007.893	-1488
1007.967	-1383
1008.041	-1817
1008.115	-440
1008.190	-1003
1008.264	-595
1008.338	-2332
1008.412	-1126
1008.486	-1433
1008.560	-1112
1008.633	-1694
1008.707	-821
1008.781	-815
1008.855	-913
1008.929	-1436
1009.003	-1418
1009.076	-1269
1009.150	-1036
1009.224	-1464
1009.298	21
1009.371	-1827
1009.445	-831
1009.519	-1084
1009.592	-1865
1009.666	-1019
1009.739	-880
1009.813	-2713
1009.886	-464
1009.960	-2435
1010.033	-383
1010.107	-1143
1010.180	-1278
1010.253	-227
1010.327	-1668
1010.400	-838
1010.473	-821
1010.547	116
1010.620	-821
1010.693	-523
1010.766	-938
1010.840	-391
1010.913	-692
1010.986	-2046
1011.059	-183
1011.132	-416
1011.205	1140
1011.278	-281
1011.351	-556
1011.424	-287
1011.497	-743
1011.570	-652
1011.643	-574
1011.716	-1806
1011.789	-977
1011.862	-837
1011.934	-1061
1012.007	-2337
1012.080	-524
1012.153	-1151
1012.225	253
1012.298	-2145
1012.371	-792
1012.443	-1419
1012.516	-1099
1012.588	-1359
1012.661	-416
1012.733	-2549
1012.806	-180
1012.879	-1933
1012.951	-1138
1013.023	-1866
1013.096	-1028
1013.168	-1835
1013.241	-489
1013.313	-1834
1013.385	-891
1013.458	-1370
1013.530	-655
1013.602	-1433
1013.674	-629
1013.746	-1309
1013.819	-1634
1013.891	-824
1013.963	-1897
1014.035	-1223
1014.107	-1184
1014.179	-440
1014.251	-1123
1014.323	-815
1014.395	-1167
1014.467	-1344
1014.539	-447
1014.611	-2175
1014.683	-679
1014.754	-1966
1014.826	-1093
1014.898	-1041
1014.970	-1546
1015.042	-456
1015.113	-853
1015.185	-1571
1015.257	-2161
1015.328	-801
1015.400	-2047
1015.471	-1630
1015.543	-1882
1015.615	-1544
1015.686	-948
1015.757	-1592
1015.829	-984
1015.901	-676
1015.972	-891
1016.043	-1968
1016.115	-872
1016.186	-779
1016.257	-1721
1016.328	-1306
1016.400	-614
1016.471	-2463
1016.542	-1838
1016.613	-1232
1016.685	-874
1016.756	-1824
1016.827	-849
1016.898	-1429
1016.969	58
1017.040	-510
1017.111	-1697
1017.182	-1566
1017.253	-1010
1017.324	-2025
1017.395	-1730
1017.466	-1007
1017.537	-1301
1017.608	-1039
1017.678	-1074
1017.749	-1745
1017.820	-1575
1017.891	-1563
1017.961	-1291
1018.032	-1717
1018.103	-836
1018.173	-869
1018.244	-1831
1018.315	-889
1018.385	-1033
1018.456	-2018
1018.526	-1128
1018.597	-1684
1018.667	-1566
1018.738	-1141
1018.808	-918
1018.878	-1323
1018.949	-976
1019.019	-1476
1019.089	-1014
1019.160	-1758
1019.230	-1501
1019.300	-1633
1019.371	-1042
1019.441	-1700
1019.511	-1070
1019.581	-1569
1019.651	-1145
1019.721	-1203
1019.791	-1194
1019.861	-1380
1019.931	-754
1020.001	-1584
1020.071	-419
1020.141	-1642
1020.211	-1546
1020.281	-1936
1020.351	-2068
1020.421	-910
1020.491	-391
1020.560	-1567
1020.630	-425
1020.700	-1627
1020.770	-1249
1020.839	-2060
1020.909	-840
1020.979	-1674
1021.048	-1799
1021.118	-1706
1021.187	-921
1021.257	-2192
1021.326	-1065
1021.396	-1814
1021.465	-415
1021.535	-1307
1021.604	-2071
1021.674	-1809
1021.743	-1270
1021.812	-1632
1021.882	-1154
1021.951	-1701
1022.020	-1069
1022.089	-2012
1022.159	-1335
1022.228	-1553
1022.297	-1512
1022.366	-1040
1022.435	-1375
1022.504	-1374
1022.573	-1031
1022.642	-1425
1022.711	-1145
1022.781	-1130
1022.849	-803
1022.918	-1626
1022.987	-1061
1023.056	-2003
1023.125	-1301
1023.194	-1153
1023.263	-1343
1023.331	-1126
1023.400	-2177
1023.469	-1818
1023.538	-967
1023.606	-2345
1023.675	-1324
1023.744	-1485
1023.812	-1720
1023.881	-1616
1023.949	-934
1024.018	-2257
1024.086	-1869
1024.155	-1817
1024.223	-1751
1024.292	-1320
1024.360	-1506
1024.429	-1452
1024.497	-1489
1024.565	-1247
1024.634	-1519
1024.702	-1377
1024.770	-1530
1024.838	-1634
1024.907	-962
1024.975	-1422
1025.043	-805
1025.111	-2005
1025.179	-1502
1025.247	-1147
1025.315	-889
1025.383	-1923
1025.451	-2533
1025.519	-2498
1025.587	-1797
1025.655	-1824
1025.723	-1012
1025.791	-1512
1025.859	-941
1025.927	-1980
1025.995	-1653
1026.062	-1864
1026.130	-1263
1026.198	-1529
1026.266	-1163
1026.333	-1832
1026.401	-865
1026.469	-1319
1026.536	-1627
1026.604	-1448
1026.671	-1258
1026.739	-1759
1026.806	-1904
1026.874	-1786
1026.941	-1798
1027.009	-1270
1027.076	-1790
1027.144	-1240
1027.211	-1758
1027.278	-1460
1027.345	-1167
1027.413	-1883
1027.480	-1529
1027.547	-1864
1027.614	-1603
1027.682	-541
1027.749	-1063
1027.816	-1356
1027.883	-1234
1027.950	-2167
1028.017	-2231
1028.084	-1150
1028.151	-2235
1028.218	-2305
1028.285	-1128
1028.352	-1525
1028.419	-1729
1028.486	-2421
1028.553	-1836
1028.619	-1497
1028.686	-1048
1028.753	-2367
1028.820	-1939
1028.886	-1428
1028.953	-1391
1029.020	-2084
1029.086	-1202
1029.153	-2105
1029.220	-863
1029.286	-2184
1029.353	-2039
1029.419	-1867
1029.486	-1457
1029.552	-1697
1029.619	-1374
1029.685	-2379
1029.751	-2150
1029.818	-329
1029.884	-1894
1029.951	-1070
1030.017	-1677
1030.083	-1983
1030.149	-1747
1030.216	-2266
1030.282	-954
1030.348	-1845
1030.414	-1466
1030.480	-1626
1030.546	-986
1030.612	-2023
1030.678	-1325
1030.744	-1475
1030.810	-1926
1030.876	-1025
1030.942	-1907
1031.008	-1353
1031.074	-1775
1031.140	-2069
1031.206	-1343
1031.272	-1830
1031.337	-1173
1031.403	-1383
1031.469	-1710
1031.534	-1546
1031.600	-1135
1031.666	-2060
1031.731	-2431
1031.797	-1627
1031.863	-1062
1031.928	-2085
1031.994	-1237
1032.059	-1446
1032.125	-1535
1032.190	-2412
1032.256	-2039
1032.321	-2407
1032.386	-1314
1032.452	-1134
1032.517	-1348
1032.582	-1843
1032.647	-1850
1032.713	-2222
1032.778	-2048
1032.843	-1957
1032.908	-2090
1032.974	-1452
1033.039	-1770
1033.104	-1571
1033.169	-2605
1033.234	-1589
1033.299	-662
1033.364	-1603
1033.429	-1362
1033.494	-1629
1033.559	-1788
1033.624	-1794
1033.688	-1549
1033.753	-2455
1033.818	-1844
1033.883	-1390
1033.948	-1339
1034.013	-1136
1034.077	-1174
1034.142	-1581
1034.207	-1295
1034.271	-1368
1034.336	-544
1034.400	-1907
1034.465	-733
1034.530	-1476
1034.594	-733
1034.658	-2306
1034.723	-1543
1034.787	-1819
1034.852	-1427
1034.916	-1564
1034.981	-1583
1035.045	-2379
1035.109	-1694
1035.173	-2242
1035.238	-2006
1035.302	-1606
1035.366	-2050
1035.430	-2841
1035.495	-2218
1035.559	-2269
1035.623	-1991
1035.687	-1305
1035.751	-1707
1035.815	-2147
1035.879	-2287
1035.943	-2689
1036.007	-2006
1036.071	-1868
1036.135	-1631
1036.198	-2157
1036.262	-1981
1036.326	-1432
1036.390	-1728
1036.454	-2241
1036.517	-998
1036.581	-1696
1036.645	-1667
1036.709	-1371
1036.772	-1712
1036.836	-2594
1036.900	-1680
1036.963	-2078
1037.026	-1476
1037.090	-1906
1037.154	-1270
1037.217	-1819
1037.280	-1732
1037.344	-1565
1037.407	-2383
1037.471	-1776
1037.534	-2154
1037.597	-2306
1037.661	-1731
1037.724	-1914
1037.787	-2119
1037.850	-2305
1037.913	-938
1037.977	-1151
1038.040	-1594
1038.103	-1848
1038.166	-1996
1038.229	-2130
1038.292	-2045
1038.355	-1763
1038.418	-2618
1038.481	-1519
1038.544	-1356
1038.607	-2002
1038.670	-1262
1038.732	-2108
1038.795	-2104
1038.858	-2283
1038.921	-1249
1038.984	-1056
1039.046	-1723
1039.109	-1721
1039.172	-1115
1039.234	-2013
1039.297	-1562
1039.360	-2299
1039.422	-1985
1039.485	-1649
1039.547	-1873
1039.610	-2099
1039.672	-1645
1039.734	-1810
1039.797	-2066
1039.859	-1535
1039.922	-2373
1039.984	-2321
1040.046	-1311
1040.109	-1565
1040.171	-1232
1040.233	-1314
1040.295	-2077
1040.358	-2209
1040.420	-1954
1040.482	-2543
1040.544	-1245
1040.606	-2117
1040.668	-1389
1040.730	-2365
1040.792	-1804
1040.854	-2920
1040.916	-1394
1040.978	-2117
1041.040	-1720
1041.102	-1982
1041.164	-1405
1041.225	-1303
1041.287	-2095
1041.349	-1922
1041.411	-658
1041.472	-1875
1041.534	-1363
1041.596	-1690
1041.657	-1212
1041.719	-1662
1041.781	-1506
1041.842	-2021
1041.904	-992
1041.965	-2314
1042.027	-2018
1042.088	-2319
1042.150	-1277
1042.211	-1752
1042.272	-435
1042.334	-2414
1042.395	-1808
1042.456	-2007
1042.518	-2192
1042.579	-2482
1042.640	-2215
1042.701	-1342
1042.763	-1459
1042.824	-1877
1042.885	-2285
1042.946	-1317
1043.007	-2049
1043.068	-2242
1043.129	-1746
1043.190	-3082
1043.251	-760
1043.312	-2767
1043.373	-1579
1043.434	-2308
1043.495	-2933
1043.556	-2107
1043.616	-1780
1043.677	-2252
1043.738	-1388
1043.799	-2207
1043.859	-1782
1043.920	-2011
1043.981	-1504
1044.041	-1715
1044.102	-1363
1044.162	-1741
1044.223	-1967
1044.284	-1359
1044.344	-1634
1044.405	-1104
1044.465	-1485
1044.525	-2134
1044.586	-1344
1044.646	-1852
1044.707	-1369
1044.767	-1615
1044.827	-768
1044.887	-1073
1044.948	-1208
1045.008	-1294
1045.068	-1989
1045.128	-1734
1045.188	-1438
1045.249	-1316
1045.309	-1111
1045.369	-2432
1045.429	-1084
1045.489	-1510
1045.549	-1190
1045.609	-1839
1045.669	-2409
1045.729	-2044
1045.789	-1898
1045.848	-1687
1045.908	-1990
1045.968	-1128
1046.028	-959
1046.088	-1630
1046.147	-1398
1046.207	-685
1046.267	-905
1046.326	-659
1046.386	-1360
1046.446	-937
1046.505	-474
1046.565	-662
1046.624	-635
1046.684	-1055
1046.743	-348
1046.803	-968
1046.862	214
1046.922	0
