'Start Wavelength	183.907
'End Wavelength	1046.922
'Gate Delay	5.000
'Gate Width (ms)	1.050
'Laser Output Level	0.000
'X Position	0.000
'Y Position	0.000
'Z Position	0.000
'Grid Point Number	1.000
'Shot Number	100.000
183.907	-489.000
183.977	258.000
184.047	-360
184.116	939
184.186	-134
184.256	48
184.325	-318
184.395	-136
184.465	1066
184.534	1
184.604	135
184.674	56
184.743	-351
184.813	27
184.883	-64
184.952	191
185.022	-355
185.092	816
185.161	651
185.231	295
185.301	-265
185.370	509
185.440	-490
185.509	-38
185.579	88
185.649	210
185.718	-719
185.788	312
185.857	-174
185.927	20
185.996	-91
186.066	-15
186.136	-448
186.205	808
186.275	187
186.344	8
186.414	-51
186.483	-46
186.553	501
186.622	1454
186.692	515
186.761	110
186.831	328
186.900	242
186.970	30
187.039	795
187.109	1208
187.178	546
187.248	494
187.317	582
187.387	-201
187.456	383
187.526	892
187.595	1185
187.664	-109
187.734	825
187.803	419
187.873	1228
187.942	674
188.012	765
188.081	-244
188.150	531
188.220	472
188.289	935
188.358	655
188.428	227
188.497	-515
188.567	189
188.636	-431
188.705	894
188.775	-292
188.844	42
188.913	52
188.983	35
189.052	399
189.121	198
189.191	-407
189.260	1251
189.329	519
189.399	751
189.468	-124
189.537	722
189.606	123
189.676	273
189.745	774
189.814	861
189.883	-91
189.953	1455
190.022	183
190.091	3942
190.161	5055
190.230	2255
190.299	256
190.368	481
190.437	81
190.507	-5
190.576	-140
190.645	642
190.714	105
190.783	328
190.853	690
190.922	1400
190.991	2
191.060	233
191.129	-83
191.198	1113
191.268	-681
191.337	1090
191.406	789
191.475	-17
191.544	-81
191.613	-119
191.682	905
191.752	760
191.821	-313
191.890	232
191.959	-225
192.028	439
192.097	-140
192.166	1079
192.235	-213
192.304	1270
192.373	465
192.442	59
192.511	-41
192.580	355
192.650	80
192.719	893
192.788	951
192.857	1375
192.926	-97
192.995	768
193.064	1050
193.133	2778
193.202	2275
193.271	2191
193.340	2057
193.409	1807
193.478	2406
193.547	3066
193.615	5237
193.684	4328
193.753	2219
193.822	2160
193.891	833
193.960	822
194.029	904
194.098	958
194.167	22
194.236	698
194.305	651
194.374	121
194.443	523
194.512	-27
194.580	742
194.649	1135
194.718	634
194.787	657
194.856	-682
194.925	456
194.994	-586
195.062	567
195.131	25
195.200	1132
195.269	1222
195.338	519
195.407	386
195.475	569
195.544	1081
195.613	831
195.682	541
195.751	1186
195.819	506
195.888	417
195.957	1412
196.026	746
196.094	910
196.163	1196
196.232	910
196.301	883
196.369	630
196.438	1208
196.507	760
196.576	921
196.644	924
196.713	816
196.782	320
196.850	1516
196.919	651
196.988	377
197.056	319
197.125	1013
197.194	887
197.262	1623
197.331	24
197.400	686
197.468	1081
197.537	662
197.606	886
197.674	3226
197.743	5641
197.812	2289
197.880	5717
197.949	4416
198.017	4866
198.086	4193
198.155	2031
198.223	2840
198.292	6540
198.360	2648
198.429	1530
198.497	1925
198.566	3686
198.635	6842
198.703	2873
198.772	2510
198.840	7204
198.909	8323
198.977	2233
199.046	2510
199.114	1807
199.183	1747
199.251	1832
199.320	601
199.388	1108
199.457	951
199.525	986
199.594	862
199.662	1534
199.731	646
199.799	926
199.867	1675
199.936	1119
200.004	993
200.073	827
200.141	1274
200.210	1051
200.278	788
200.346	743
200.415	1656
200.483	1826
200.552	1884
200.620	803
200.688	1802
200.757	473
200.825	990
200.893	930
200.962	1699
201.030	102
201.098	1072
201.167	1400
201.235	1788
201.303	1107
201.372	1249
201.440	1668
201.508	1245
201.577	611
201.645	1525
201.713	1327
201.781	931
201.850	688
201.918	605
201.986	1239
202.055	1483
202.123	1212
202.191	834
202.259	864
202.327	1397
202.396	871
202.464	1482
202.532	1301
202.600	2742
202.669	2016
202.737	834
202.805	1616
202.873	1667
202.941	545
203.009	998
203.078	1085
203.146	1605
203.214	1433
203.282	1030
203.350	1886
203.418	1626
203.487	1909
203.555	1311
203.623	1308
203.691	1997
203.759	766
203.827	765
203.895	1320
203.963	1398
204.031	1219
204.099	1533
204.168	1457
204.236	1405
204.304	665
204.372	2199
204.440	2014
204.508	2326
204.576	1549
204.644	1988
204.712	1118
204.780	1099
204.848	2310
204.916	1291
204.984	968
205.052	1439
205.120	1043
205.188	1776
205.256	1164
205.324	1961
205.392	1466
205.460	2750
205.528	2435
205.596	2739
205.664	1820
205.732	2530
205.799	7059
205.867	13728
205.935	3658
206.003	3229
206.071	2433
206.139	2288
206.207	2469
206.275	2364
206.343	971
206.411	2085
206.478	1304
206.546	2199
206.614	1543
206.682	1538
206.750	2102
206.818	2966
206.885	2371
206.953	568
207.021	2391
207.089	3159
207.157	1629
207.225	2529
207.292	1375
207.360	2332
207.428	1839
207.496	2306
207.563	1332
207.631	2674
207.699	1511
207.767	1751
207.834	1730
207.902	1888
207.970	2081
208.038	1896
208.105	2007
208.173	3078
208.241	3210
208.309	3475
208.376	2618
208.444	5208
208.512	3318
208.579	1758
208.647	2506
208.715	3502
208.782	1867
208.850	2605
208.918	1537
208.985	2157
209.053	2093
209.120	2203
209.188	1780
209.256	2165
209.323	1199
209.391	2311
209.459	2907
209.526	2460
209.594	1588
209.661	2391
209.729	2233
209.796	2382
209.864	3035
209.932	2088
209.999	3916
210.067	2566
210.134	2691
210.202	2846
210.269	2660
210.337	2173
210.404	2302
210.472	3076
210.539	2383
210.607	2572
210.674	1894
210.742	2638
210.809	1925
210.877	2219
210.944	2897
211.012	1995
211.079	3776
211.146	2768
211.214	3502
211.281	3444
211.349	2829
211.416	3253
211.484	2975
211.551	2859
211.618	3232
211.686	3372
211.753	2477
211.821	3148
211.888	2243
211.955	3254
212.023	2253
212.090	3658
212.157	3397
212.225	4499
212.292	7760
212.359	15591
212.427	40082
212.494	19754
212.561	6898
212.629	5189
212.696	4900
212.763	4026
212.831	3350
212.898	3519
212.965	3302
213.032	2996
213.100	2850
213.167	3147
213.234	3439
213.301	3970
213.369	2510
213.436	3101
213.503	2852
213.570	3781
213.638	2466
213.705	2618
213.772	2959
213.839	3078
213.906	3756
213.973	3708
214.041	2810
214.108	3013
214.175	3033
214.242	3770
214.309	2532
214.376	4241
214.444	3413
214.511	3698
214.578	3100
214.645	4041
214.712	4170
214.779	4494
214.846	3496
214.913	3982
214.980	4069
215.048	4659
215.115	3980
215.182	3792
215.249	2759
215.316	2458
215.383	3615
215.450	4109
215.517	2463
215.584	2879
215.651	1608
215.718	3704
215.785	2580
215.852	2660
215.919	2482
215.986	3236
216.053	2258
216.120	2110
216.187	3269
216.254	3740
216.321	2428
216.388	3760
216.455	3366
216.522	3299
216.589	3467
216.656	6269
216.722	6013
216.789	5562
216.856	5796
216.923	5004
216.990	5052
217.057	4990
217.124	4854
217.191	5367
217.258	6714
217.324	7536
217.391	8095
217.458	7204
217.525	5237
217.592	4812
217.659	3650
217.725	4656
217.792	5159
217.859	5965
217.926	2761
217.993	2849
218.059	2434
218.126	3465
218.193	1939
218.260	2639
218.327	1790
218.393	3025
218.460	2287
218.527	1626
218.594	2205
218.660	4029
218.727	4645
218.794	2116
218.860	3065
218.927	2708
218.994	2362
219.061	1983
219.127	2393
219.194	4491
219.261	2886
219.327	2547
219.394	2360
219.461	1774
219.527	2202
219.594	3680
219.661	2767
219.727	2305
219.794	2768
219.860	2236
219.927	2879
219.994	3660
220.060	4483
220.127	5714
220.193	4712
220.260	5355
220.326	7711
220.393	12089
220.460	14693
220.526	9864
220.593	6992
220.659	8285
220.726	7760
220.792	19728
220.859	17504
220.925	19396
220.992	23910
221.058	26002
221.125	27120
221.191	22271
221.258	8627
221.324	6863
221.391	4529
221.457	4390
221.524	5082
221.590	6567
221.657	22389
221.723	18258
221.789	15070
221.856	14133
221.922	6543
221.989	5213
222.055	4134
222.121	3162
222.188	4851
222.254	3542
222.321	2478
222.387	2522
222.453	2049
222.520	2118
222.586	1145
222.652	2211
222.719	1404
222.785	2323
222.851	991
222.918	2111
222.984	2012
223.050	1918
223.116	792
223.183	2770
223.249	1448
223.315	1802
223.382	1992
223.448	1913
223.514	1412
223.580	1513
223.647	1029
223.713	2008
223.779	1843
223.845	2127
223.911	1948
223.978	966
224.044	1614
224.110	2110
224.176	1219
224.242	2084
224.309	773
224.375	2659
224.441	1712
224.507	1615
224.573	962
224.639	2638
224.705	545
224.772	1624
224.838	1263
224.904	2701
224.970	1923
225.036	1973
225.102	701
225.168	1786
225.234	2021
225.300	2156
225.366	2335
225.432	1853
225.499	1612
225.565	2216
225.631	2218
225.697	2536
225.763	3048
225.829	4174
225.895	4461
225.961	6046
226.027	4894
226.093	4262
226.159	6269
226.225	12212
226.291	26754
226.357	40200
226.423	21306
226.489	11180
226.554	7877
226.620	8213
226.686	8077
226.752	13213
226.818	25716
226.884	52416
226.950	47037
227.016	21015
227.082	11826
227.148	8272
227.214	5159
227.279	4994
227.345	3752
227.411	4248
227.477	3617
227.543	6539
227.609	5648
227.674	3882
227.740	3295
227.806	4175
227.872	3131
227.938	3494
228.003	2970
228.069	2813
228.135	2708
228.201	3708
228.267	2104
228.332	2417
228.398	1909
228.464	3389
228.530	659
228.595	2199
228.661	1213
228.727	2488
228.792	2477
228.858	2339
228.924	468
228.990	4807
229.055	1397
229.121	3555
229.187	1043
229.252	2049
229.318	1460
229.384	2333
229.449	1748
229.515	-62
229.581	279
229.646	2020
229.712	1780
229.777	3327
229.843	3482
229.909	3553
229.974	3055
230.040	3770
230.105	3357
230.171	2745
230.236	5495
230.302	7850
230.368	5073
230.433	3564
230.499	4057
230.564	3755
230.630	1933
230.695	2920
230.761	2220
230.826	1376
230.892	3096
230.957	2324
231.023	1831
231.088	3004
231.154	1983
231.219	2906
231.284	2681
231.350	3767
231.415	1307
231.481	3034
231.546	2209
231.612	2426
231.677	1032
231.742	1257
231.808	2333
231.873	1789
231.939	550
232.004	3954
232.069	3252
232.135	2359
232.200	1586
232.265	2385
232.331	1069
232.396	1938
232.461	1660
232.527	1240
232.592	158
232.657	2445
232.723	2404
232.788	2600
232.853	1460
232.918	2169
232.984	1181
233.049	1889
233.114	1279
233.179	1890
233.245	4136
233.310	4275
233.375	190
233.440	1237
233.506	866
233.571	1665
233.636	1271
233.701	2321
233.766	2509
233.832	4256
233.897	1190
233.962	403
234.027	2605
234.092	2263
234.157	1153
234.222	2062
234.288	2262
234.353	8183
234.418	6952
234.483	5579
234.548	3853
234.613	2631
234.678	3452
234.743	3142
234.808	9091
234.873	5915
234.938	3588
235.004	3225
235.069	2555
235.134	2607
235.199	2903
235.264	2257
235.329	1524
235.394	2842
235.459	2550
235.524	2617
235.589	2437
235.654	2463
235.719	1494
235.784	3456
235.849	3119
235.913	4269
235.978	4479
236.043	5473
236.108	2978
236.173	3179
236.238	4573
236.303	3291
236.368	3069
236.433	5446
236.498	6621
236.563	8807
236.627	19771
236.692	68556
236.757	61206
236.822	23577
236.887	12404
236.952	11939
237.017	8572
237.081	11133
237.146	12170
237.211	30835
237.276	69811
237.341	113169
237.405	54504
237.470	21788
237.535	13364
237.600	9632
237.664	6931
237.729	5877
237.794	7729
237.859	17583
237.923	9659
237.988	5500
238.053	5848
238.118	5351
238.182	13456
238.247	15258
238.312	4821
238.376	5355
238.441	1866
238.506	4421
238.570	1944
238.635	4101
238.700	2309
238.764	1779
238.829	5484
238.893	6353
238.958	3502
239.023	3908
239.087	2174
239.152	2935
239.216	1682
239.281	3200
239.346	2405
239.410	2551
239.475	2882
239.539	12440
239.604	10225
239.668	4684
239.733	3149
239.797	3207
239.862	9025
239.926	10270
239.991	4530
240.055	2787
240.120	1913
240.184	2453
240.249	1002
240.313	2280
240.378	1778
240.442	5894
240.507	11016
240.571	3621
240.635	2999
240.700	6050
240.764	2065
240.829	2115
240.893	153
240.957	2925
241.022	5615
241.086	8858
241.151	2720
241.215	1584
241.279	2958
241.344	4133
241.408	4010
241.472	2970
241.537	4336
241.601	3881
241.665	1838
241.730	2383
241.794	3678
241.858	2632
241.922	2105
241.987	3645
242.051	1930
242.115	1904
242.179	3343
242.244	3290
242.308	3110
242.372	3512
242.436	3131
242.501	3107
242.565	2458
242.629	2511
242.693	3115
242.757	1885
242.822	1799
242.886	3836
242.950	3756
243.014	2359
243.078	3139
243.142	3139
243.206	3094
243.271	4512
243.335	4141
243.399	10615
243.463	40669
243.527	114461
243.591	35721
243.655	11924
243.719	6597
243.783	7159
243.847	10262
243.911	14571
243.975	6985
244.040	4532
244.104	3811
244.168	3521
244.232	3013
244.296	6341
244.360	11524
244.424	3826
244.488	2796
244.552	3303
244.615	1788
244.679	2623
244.743	1819
244.807	2467
244.871	2344
244.935	2368
244.999	579
245.063	2137
245.127	3563
245.191	7838
245.255	8225
245.319	3074
245.383	187
245.446	3828
245.510	1147
245.574	1910
245.638	1882
245.702	1546
245.766	4546
245.829	3027
245.893	1146
245.957	1951
246.021	3399
246.085	2235
246.149	2219
246.212	7235
246.276	12616
246.340	4891
246.404	3769
246.467	3787
246.531	3512
246.595	4387
246.659	3275
246.722	1469
246.786	2608
246.850	2547
246.913	3384
246.977	1959
247.041	2683
247.104	2509
247.168	2723
247.232	6519
247.295	18599
247.359	8565
247.423	2877
247.486	5129
247.550	3539
247.614	2696
247.677	3084
247.741	3090
247.804	1393
247.868	3959
247.932	5382
247.995	18888
248.059	5365
248.122	2697
248.186	4764
248.249	7002
248.313	29768
248.376	30403
248.440	18219
248.503	6125
248.567	6179
248.630	5214
248.694	7147
248.757	11656
248.821	35697
248.884	17964
248.948	14871
249.011	24243
249.075	40466
249.138	34785
249.202	11724
249.265	7057
249.328	9173
249.392	5773
249.455	6543
249.519	5239
249.582	5499
249.645	7323
249.709	6580
249.772	5665
249.835	6204
249.899	6217
249.962	6389
250.025	5175
250.089	12541
250.152	17513
250.215	7340
250.279	6911
250.342	7588
250.405	7668
250.468	6273
250.532	10388
250.595	20776
250.658	96161
250.721	172439
250.785	51507
250.848	23123
250.911	14218
250.974	12941
251.038	14954
251.101	25792
251.164	14474
251.227	12606
251.290	15007
251.354	28913
251.417	138613
251.480	145755
251.543	95052
251.606	259126
251.669	205380
251.732	69242
251.795	51120
251.859	57241
251.922	162166
251.985	93861
252.048	29414
252.111	19000
252.174	15731
252.237	21673
252.300	51111
252.363	70477
252.426	195413
252.489	75875
252.552	28019
252.615	18067
252.678	18713
252.741	40846
252.804	79105
252.867	205175
252.930	95093
252.993	33786
253.056	20713
253.119	14091
253.182	13152
253.245	28186
253.308	18998
253.371	9310
253.434	7641
253.497	7885
253.559	14894
253.622	9636
253.685	7889
253.748	6171
253.811	4384
253.874	7455
253.937	5656
254.000	5195
254.062	9516
254.125	16378
254.188	9488
254.251	7025
254.314	4035
254.376	5648
254.439	6158
254.502	5411
254.565	8392
254.628	17508
254.690	6773
254.753	3023
254.816	4191
254.878	3842
254.941	10470
255.004	10922
255.067	3690
255.129	2496
255.192	2386
255.255	913
255.317	2351
255.380	1912
255.443	1039
255.505	1077
255.568	1227
255.631	1554
255.693	1861
255.756	761
255.819	2607
255.881	977
255.944	2100
256.006	1307
256.069	2112
256.132	938
256.194	2839
256.257	6304
256.319	5493
256.382	4378
256.444	4752
256.507	3315
256.569	4160
256.632	4134
256.694	8301
256.757	32471
256.819	109598
256.882	46101
256.944	16451
257.007	9540
257.069	8204
257.132	4661
257.194	6003
257.257	4505
257.319	4949
257.381	7673
257.444	25073
257.506	122857
257.569	133540
257.631	37667
257.693	17815
257.756	11608
257.818	8276
257.880	5231
257.943	5532
258.005	3001
258.067	3782
258.130	2820
258.192	3766
258.254	3901
258.317	3322
258.379	3135
258.441	6183
258.503	7291
258.566	8999
258.628	12944
258.690	4632
258.753	3307
258.815	5408
258.877	3053
258.939	3885
259.001	3267
259.064	3310
259.126	3303
259.188	3951
259.250	3249
259.312	3886
259.375	3810
259.437	3843
259.499	2515
259.561	2489
259.623	2444
259.685	2094
259.747	3306
259.809	8906
259.872	18348
259.934	31034
259.996	23424
260.058	6337
260.120	3619
260.182	3078
260.244	2176
260.306	2726
260.368	2762
260.430	1391
260.492	1605
260.554	3934
260.616	2580
260.678	9563
260.740	16450
260.802	3752
260.864	3182
260.926	2009
260.988	2128
261.050	3165
261.112	2810
261.174	14114
261.236	13969
261.298	3932
261.359	6135
261.421	10165
261.483	1840
261.545	3428
261.607	822
261.669	2805
261.731	3419
261.793	9019
261.854	2496
261.916	2662
261.978	1778
262.040	1474
262.102	1957
262.164	3524
262.225	2470
262.287	2659
262.349	3691
262.411	2765
262.472	2698
262.534	3558
262.596	8415
262.658	3118
262.719	1100
262.781	3630
262.843	7427
262.904	4107
262.966	3386
263.028	8433
263.090	41132
263.151	129797
263.213	35596
263.275	11083
263.336	6166
263.398	5244
263.459	2306
263.521	2638
263.583	3351
263.644	3286
263.706	1742
263.767	1291
263.829	650
263.891	1113
263.952	1163
264.014	522
264.075	611
264.137	701
264.198	1266
264.260	943
264.321	263
264.383	1524
264.444	2550
264.506	857
264.567	1508
264.629	1901
264.690	452
264.752	1782
264.813	1162
264.875	900
264.936	2708
264.998	1100
265.059	1345
265.120	3648
265.182	7707
265.243	49433
265.305	55151
265.366	12462
265.427	5271
265.489	4350
265.550	1591
265.611	2188
265.673	1935
265.734	1690
265.795	1516
265.857	2016
265.918	3215
265.979	13641
266.040	86796
266.102	78848
266.163	17456
266.224	8288
266.286	5463
266.347	3198
266.408	2696
266.469	2726
266.530	1468
266.592	768
266.653	2092
266.714	2949
266.775	219
266.836	1223
266.898	764
266.959	1631
267.020	1016
267.081	2397
267.142	941
267.203	845
267.264	304
267.326	2079
267.387	935
267.448	375
267.509	1998
267.570	1094
267.631	466
267.692	230
267.753	1183
267.814	121
267.875	1573
267.936	4476
267.997	3231
268.058	3311
268.119	1958
268.180	1673
268.241	862
268.302	1432
268.363	498
268.424	611
268.485	1197
268.546	319
268.607	494
268.668	890
268.729	-87
268.790	807
268.851	870
268.912	2075
268.972	2428
269.033	1120
269.094	436
269.155	1447
269.216	976
269.277	623
269.338	-43
269.398	1002
269.459	209
269.520	2168
269.581	2406
269.642	1356
269.702	516
269.763	1337
269.824	1526
269.885	1293
269.945	1076
270.006	1281
270.067	-33
270.128	1241
270.188	513
270.249	706
270.310	608
270.370	1170
270.431	782
270.492	415
270.553	555
270.613	1695
270.674	4211
270.734	1400
270.795	853
270.856	1029
270.916	27
270.977	693
271.038	745
271.098	1707
271.159	1801
271.219	2653
271.280	464
271.340	755
271.401	207
271.462	3267
271.522	1901
271.583	489
271.643	1148
271.704	1041
271.764	431
271.825	3917
271.885	22662
271.946	40103
272.006	8709
272.066	15103
272.127	30549
272.187	8140
272.248	3812
272.308	3308
272.369	16395
272.429	8686
272.489	3429
272.550	2960
272.610	2990
272.671	1652
272.731	2643
272.791	4031
272.852	477
272.912	1882
272.972	558
273.033	1452
273.093	1499
273.153	2081
273.214	1184
273.274	1060
273.334	5987
273.394	17101
273.455	4635
273.515	4651
273.575	9572
273.635	5445
273.696	7104
273.756	22156
273.816	6662
273.876	3101
273.936	7669
273.997	15117
274.057	2222
274.117	2083
274.177	2628
274.237	21477
274.297	20732
274.358	10751
274.418	11854
274.478	8127
274.538	1877
274.598	2695
274.658	11291
274.718	13667
274.778	4430
274.838	2722
274.898	4878
274.958	21556
275.018	23020
275.078	14294
275.138	3684
275.198	2325
275.258	1270
275.318	2429
275.378	2656
275.438	2912
275.498	1710
275.558	9481
275.618	20310
275.678	10579
275.738	4318
275.798	3631
275.858	473
275.918	1329
275.978	1145
276.038	1336
276.098	156
276.157	2815
276.217	6010
276.277	2190
276.337	445
276.397	1182
276.457	-345
276.517	971
276.576	77
276.636	-419
276.696	820
276.756	4056
276.815	2580
276.875	755
276.935	1193
276.995	1629
277.055	872
277.114	603
277.174	1227
277.234	5267
277.293	1339
277.353	547
277.413	402
277.472	270
277.532	395
277.592	1202
277.651	1773
277.711	5054
277.771	890
277.830	7560
277.890	5200
277.950	4524
278.009	17148
278.069	5899
278.128	3444
278.188	5089
278.248	1584
278.307	6107
278.367	4260
278.426	1496
278.486	-107
278.545	1129
278.605	759
278.664	1898
278.724	1100
278.783	6883
278.843	20823
278.902	5086
278.962	1844
279.021	2557
279.081	2911
279.140	3455
279.199	2175
279.259	4336
279.318	3913
279.378	5825
279.437	7861
279.496	23633
279.556	113142
279.615	95963
279.675	19852
279.734	9564
279.793	10855
279.853	13881
279.912	4528
279.971	2887
280.031	2178
280.090	4750
280.149	7314
280.208	11192
280.268	70510
280.327	81562
280.386	13534
280.445	8261
280.505	6185
280.564	3917
280.623	1805
280.682	3696
280.742	5142
280.801	2194
280.860	782
280.919	1176
280.978	1010
281.037	1076
281.097	-139
281.156	1297
281.215	197
281.274	1848
281.333	8788
281.392	6666
281.451	898
281.510	1434
281.569	715
281.628	1202
281.688	1377
281.747	1619
281.806	692
281.865	659
281.924	-659
281.983	763
282.042	-354
282.101	695
282.160	759
282.219	632
282.278	-31
282.337	3002
282.396	1284
282.454	595
282.513	308
282.572	3913
282.631	2424
282.690	989
282.749	-173
282.808	128
282.867	0
282.926	702
282.985	-1266
283.043	-240
283.102	207
283.161	-270
283.220	1801
283.279	7259
283.338	1098
283.396	48
283.455	-155
283.514	1032
283.573	995
283.631	443
283.690	537
283.749	402
283.808	1567
283.866	2405
283.925	152
283.984	493
284.043	-301
284.101	1182
284.160	178
284.219	1413
284.277	809
284.336	1908
284.395	6862
284.453	5432
284.512	994
284.570	2186
284.629	1701
284.688	1183
284.746	489
284.805	1444
284.863	1434
284.922	1554
284.981	2208
285.039	4159
285.098	9835
285.156	31094
285.215	143899
285.273	146066
285.332	46653
285.390	19784
285.449	11582
285.507	7374
285.566	5230
285.624	4628
285.683	2396
285.741	2221
285.799	1785
285.858	1720
285.916	874
285.975	1289
286.033	312
286.091	537
286.150	-366
286.208	1215
286.267	421
286.325	1409
286.383	1052
286.442	802
286.500	797
286.558	815
286.616	592
286.675	1091
286.733	341
286.791	863
286.850	1541
286.908	1060
286.966	1855
287.024	837
287.083	492
287.141	1660
287.199	1556
287.257	1814
287.315	1375
287.374	2127
287.432	3788
287.490	2827
287.548	1693
287.606	2347
287.664	1820
287.723	3187
287.781	2879
287.839	4407
287.897	5097
287.955	9690
288.013	18951
288.071	50817
288.129	184631
288.187	492319
288.245	237915
288.303	72704
288.361	41129
288.419	27809
288.477	19214
288.535	12806
288.593	9530
288.651	5855
288.709	3415
288.767	3370
288.825	2409
288.883	2361
288.941	1746
288.999	1382
289.057	1265
289.115	1061
289.173	641
289.231	1225
289.289	993
289.346	1172
289.404	1602
289.462	1528
289.520	887
289.578	635
289.636	649
289.694	528
289.751	331
289.809	735
289.867	1142
289.925	1517
289.983	594
290.040	542
290.098	623
290.156	1156
290.214	399
290.271	1357
290.329	691
290.387	281
290.444	-564
290.502	-240
290.560	15
290.617	107
290.675	-2
290.733	123
290.790	138
290.848	1209
290.906	-678
290.963	-101
291.021	605
291.078	412
291.136	-523
291.194	1950
291.251	3058
291.309	1240
291.366	-95
291.424	-28
291.481	-252
291.539	-476
291.596	-182
291.654	-550
291.711	-362
291.769	-623
291.826	709
291.884	509
291.941	-959
291.999	324
292.056	-1014
292.114	495
292.171	-918
292.228	467
292.286	-17
292.343	1396
292.401	571
292.458	451
292.515	-517
292.573	511
292.630	198
292.687	878
292.745	333
292.802	693
292.859	775
292.917	5408
292.974	2669
293.031	915
293.089	-896
293.146	-73
293.203	259
293.260	63
293.318	-160
293.375	196
293.432	-655
293.489	121
293.546	343
293.604	1452
293.661	6043
293.718	21010
293.775	6926
293.832	2590
293.889	966
293.947	827
294.004	-413
294.061	1101
294.118	126
294.175	3297
294.232	339
294.289	90
294.346	189
294.403	1820
294.460	341
294.517	25
294.574	-244
294.631	623
294.688	751
294.745	4457
294.802	18482
294.859	11209
294.916	3423
294.973	1199
295.030	541
295.087	971
295.144	389
295.201	395
295.258	-214
295.315	1525
295.372	5320
295.429	15308
295.486	5197
295.542	1702
295.599	719
295.656	2521
295.713	4078
295.770	9986
295.827	2321
295.883	610
295.940	217
295.997	1689
296.054	732
296.111	96
296.167	805
296.224	11
296.281	-535
296.338	244
296.394	-91
296.451	628
296.508	3656
296.564	7920
296.621	6396
296.678	21580
296.734	33895
296.791	8866
296.848	3370
296.904	3310
296.961	5303
297.018	12839
297.074	10205
297.131	4046
297.187	2216
297.244	4934
297.301	18241
297.357	38233
297.414	10941
297.470	3973
297.527	1944
297.583	1569
297.640	1497
297.696	597
297.753	523
297.809	557
297.866	-477
297.922	604
297.979	-374
298.035	776
298.092	879
298.148	5643
298.204	5142
298.261	3263
298.317	7296
298.374	26619
298.430	14854
298.486	4211
298.543	3000
298.599	3185
298.656	3412
298.712	8936
298.768	38486
298.824	35260
298.881	9125
298.937	4079
298.993	2449
299.050	2244
299.106	2255
299.162	1407
299.218	1282
299.275	1379
299.331	1396
299.387	5777
299.443	23271
299.500	24988
299.556	8300
299.612	3763
299.668	2244
299.724	4739
299.780	4828
299.837	1763
299.893	2148
299.949	10644
300.005	13140
300.061	12824
300.117	29956
300.173	14457
300.229	4528
300.285	3845
300.341	3353
300.397	1562
300.453	315
300.510	1268
300.566	834
300.622	2375
300.678	8889
300.734	15854
300.790	11668
300.845	18312
300.901	9375
300.957	10569
301.013	6902
301.069	3041
301.125	984
301.181	1556
301.237	1282
301.293	1146
301.349	137
301.405	445
301.461	245
301.516	9
301.572	-3
301.628	1282
301.684	-169
301.740	2045
301.796	4127
301.851	3332
301.907	5586
301.963	9228
302.019	22224
302.074	74065
302.130	74084
302.186	28469
302.242	9413
302.297	6050
302.353	4960
302.409	8470
302.464	6062
302.520	5410
302.576	13468
302.631	17535
302.687	6626
302.743	3054
302.798	1921
302.854	1697
302.910	1945
302.965	1312
303.021	2378
303.076	3877
303.132	2184
303.187	3563
303.243	1289
303.299	1643
303.354	693
303.410	1523
303.465	199
303.521	1022
303.576	730
303.632	2849
303.687	4607
303.743	18346
303.798	15273
303.853	4785
303.909	2555
303.964	1930
304.020	1983
304.075	2505
304.130	1812
304.186	3985
304.241	3738
304.297	3586
304.352	1153
304.358	1106
304.407	719
304.449	1175
304.463	1335
304.518	252
304.539	456
304.573	766
304.629	1893
304.630	1927
304.684	3761
304.720	10250
304.739	13440
304.794	24468
304.811	20421
304.850	10658
304.902	3970
304.905	3557
304.960	3169
304.992	4178
305.015	4806
305.071	4233
305.083	3724
305.126	1977
305.173	1290
305.181	1184
305.236	563
305.264	954
305.292	1372
305.347	1728
305.354	1745
305.402	2105
305.445	3176
305.457	3365
305.512	4570
305.535	3810
305.567	2898
305.622	3797
305.626	3943
305.678	8269
305.716	18065
305.733	21199
305.788	19467
305.807	16392
305.843	12370
305.897	20569
305.898	20648
305.953	21733
305.988	13722
306.008	9358
306.063	4247
306.078	3582
306.118	2493
306.168	2305
306.173	2291
306.228	1642
306.259	1607
306.283	1787
306.338	2329
306.349	2517
306.393	3459
306.440	4807
306.448	4865
306.503	3838
306.530	2901
306.558	2873
306.613	6831
306.620	7089
306.668	8334
306.711	11097
306.723	11364
306.778	8695
306.801	6823
306.833	4972
306.888	2898
306.892	2839
306.943	2704
306.982	2538
306.997	2417
307.052	2251
307.072	2330
307.107	2713
307.162	2947
307.163	2938
307.217	2439
307.253	2724
307.272	2743
307.327	3225
307.343	2972
307.381	2852
307.434	3599
307.436	3684
307.491	5603
307.524	7087
307.546	7595
307.600	10001
307.614	9421
307.655	7139
307.704	6114
307.710	6163
307.765	6714
307.795	7671
307.819	8525
307.874	9477
307.885	9969
307.929	14083
307.975	18985
307.984	21189
308.038	39054
308.065	51681
308.093	98532
308.148	209887
308.156	232872
308.202	347209
308.246	427277
308.257	411342
308.312	212666
308.336	133345
308.366	92008
308.421	47272
308.426	43840
308.475	31202
308.517	23425
308.530	22070
308.585	18554
308.607	16979
308.639	15392
308.694	13773
308.697	13715
308.748	13748
308.787	14211
308.803	14439
308.857	14878
308.877	15343
308.912	17703
308.967	21750
308.967	21797
309.021	34361
309.058	44850
309.076	60292
309.130	113884
309.148	135027
309.185	275396
309.238	509539
309.239	511169
309.293	541328
309.328	497475
309.348	425600
309.402	197101
309.418	140065
309.457	94540
309.508	51139
309.511	50016
309.566	36766
309.598	29752
309.620	27245
309.674	21884
309.688	20694
309.729	17713
309.778	14350
309.783	14110
309.837	11746
309.868	10795
309.892	11616
309.946	14329
309.959	15161
310.001	16982
310.049	18374
310.055	17834
310.109	11478
310.139	8011
310.163	6692
310.218	4612
310.229	4203
310.272	4730
310.319	5676
310.326	5512
310.381	4028
310.409	3294
310.435	3141
310.489	2905
310.499	2880
310.543	3174
310.589	3165
310.598	3088
310.652	3071
310.679	2847
310.706	2578
310.760	2163
310.769	2118
310.814	2389
310.859	2492
310.868	2433
310.923	2130
310.948	2005
310.977	2391
311.031	3063
311.038	3155
311.085	2356
311.128	1501
311.139	1678
311.193	2750
311.218	3162
311.247	2845
311.301	2253
311.308	2164
311.356	2428
311.398	2780
311.410	2746
311.464	2435
311.488	2296
311.518	2367
311.572	2487
311.578	2494
311.626	2643
311.668	2720
311.680	2770
311.734	3008
311.758	3055
311.788	2764
311.842	2311
311.847	2250
311.896	2853
311.937	3414
311.950	3375
312.004	3118
312.027	3012
312.058	3014
312.112	2982
312.117	2969
312.165	2925
312.207	2868
312.297	2300
312.386	2396
312.476	2818
312.566	3851
312.656	2968
312.745	2479
312.835	2564
312.925	2596
313.015	2925
313.104	2290
313.194	2939
313.284	2113
313.374	3177
313.463	2630
313.553	3074
313.643	2489
313.732	3303
313.822	2656
313.912	3298
314.001	3014
314.091	3292
314.180	3111
314.270	4114
314.360	3132
314.449	3354
314.539	2192
314.628	3374
314.718	2994
314.808	2833
314.897	2789
314.987	3988
315.076	3279
315.166	4119
315.255	2843
315.345	3703
315.434	3276
315.524	3939
315.613	3431
315.703	7173
315.792	14447
315.881	59945
315.971	19686
316.060	6704
316.150	4106
316.239	3448
316.328	2177
316.418	2427
316.507	2601
316.597	4100
316.686	3517
316.775	3369
316.865	3610
316.954	2638
317.043	3385
317.133	3014
317.222	2864
317.311	2596
317.400	2138
317.490	4626
317.579	4721
317.668	5637
317.757	9551
317.847	29316
317.936	108142
318.025	31079
318.114	18194
318.203	8196
318.293	3350
318.382	3479
318.471	3390
318.560	3321
318.649	3329
318.738	2664
318.828	2609
318.917	2415
319.006	2421
319.095	3564
319.184	3921
319.273	5521
319.362	4081
319.451	2654
319.540	1588
319.629	4929
319.718	5458
319.807	2629
319.896	3102
319.985	6144
320.074	4043
320.163	2288
320.252	2182
320.341	2597
320.430	1829
320.519	3809
320.608	1721
320.697	2232
320.786	2431
320.875	3232
320.964	3696
321.053	4929
321.142	6479
321.230	6426
321.319	5010
321.408	9881
321.497	4346
321.586	5546
321.675	3725
321.764	4951
321.852	3130
321.941	6014
322.030	4569
322.119	5912
322.207	9237
322.296	4566
322.385	4456
322.474	6623
322.562	12871
322.651	6525
322.740	5041
322.829	5819
322.917	3725
323.006	3932
323.095	3122
323.183	2610
323.272	2674
323.361	4290
323.449	6015
323.538	3282
323.626	4681
323.715	2883
323.804	1909
323.892	5287
323.981	4527
324.069	2522
324.158	3506
324.246	2937
324.335	2767
324.424	4456
324.512	2222
324.601	3043
324.689	3683
324.778	5608
324.866	2881
324.954	2269
325.043	1136
325.131	1777
325.220	3377
325.308	2438
325.397	3126
325.485	1610
325.574	1168
325.662	2172
325.750	1572
325.839	2444
325.927	1373
326.015	2497
326.104	1838
326.192	2130
326.280	1786
326.369	2484
326.457	1952
326.545	4130
326.634	1726
326.722	1888
326.810	1427
326.898	1844
326.987	2779
327.075	2830
327.163	3131
327.251	2550
327.340	2764
327.428	3689
327.516	2515
327.604	1906
327.692	2143
327.781	1954
327.869	1910
327.957	873
328.045	2389
328.133	2547
328.221	2096
328.309	2656
328.397	1467
328.485	2296
328.574	3453
328.662	7998
328.750	3760
328.838	2422
328.926	2336
329.014	2399
329.102	2258
329.190	3399
329.278	2337
329.366	2712
329.454	2116
329.542	2966
329.630	2193
329.718	3303
329.806	4375
329.893	5688
329.981	9362
330.069	26003
330.157	103146
330.245	288853
330.333	144573
330.421	21616
330.509	8264
330.597	10799
330.684	5789
330.772	4051
330.860	2455
330.948	3087
331.036	2615
331.123	1925
331.211	1433
331.299	1872
331.387	1436
331.475	3145
331.562	1290
331.650	1411
331.738	1202
331.825	1651
331.913	1732
332.001	1218
332.089	1383
332.176	2255
332.264	1859
332.352	2540
332.439	2052
332.527	1528
332.614	1200
332.702	1893
332.790	1447
332.877	2102
332.965	2665
333.052	1530
333.140	1169
333.228	2179
333.315	1024
333.403	1546
333.490	2133
333.578	2033
333.665	2442
333.753	2565
333.840	1132
333.928	2356
334.015	1643
334.103	3587
334.190	5280
334.278	4259
334.365	3694
334.452	4123
334.540	2641
334.627	3011
334.715	3188
334.802	4804
334.889	9727
334.977	11855
335.064	6188
335.151	4554
335.239	2529
335.326	2383
335.413	3529
335.501	4769
335.588	2183
335.675	2854
335.762	2804
335.850	4354
335.937	5493
336.024	9787
336.111	14949
336.199	12730
336.286	4912
336.373	4281
336.460	2133
336.547	2275
336.635	1796
336.722	2299
336.809	1765
336.896	1325
336.983	2863
337.070	4439
337.157	3113
337.245	3677
337.332	2130
337.419	2034
337.506	1171
337.593	1685
337.680	1842
337.767	2799
337.854	1086
337.941	2231
338.028	2142
338.115	2219
338.202	1894
338.289	2254
338.376	2646
338.463	2371
338.550	1218
338.637	2070
338.724	1807
338.811	1637
338.898	1483
338.984	1260
339.071	1011
339.158	1908
339.245	2436
339.332	2923
339.419	1517
339.506	1889
339.593	181
339.679	1926
339.766	474
339.853	1091
339.940	2466
340.027	2217
340.113	1086
340.200	1402
340.287	916
340.374	1143
340.460	2927
340.547	710
340.634	2047
340.720	9419
340.807	3408
340.894	1625
340.980	887
341.067	695
341.154	1719
341.240	2490
341.327	3040
341.414	2057
341.500	447
341.587	2105
341.674	1320
341.760	2696
341.847	2857
341.933	1159
342.020	426
342.106	1732
342.193	1748
342.279	2591
342.366	1644
342.452	3196
342.539	1463
342.625	3866
342.712	7817
342.798	3122
342.885	2015
342.971	997
343.058	695
343.144	1647
343.230	330
343.317	1652
343.403	236
343.490	1207
343.576	382
343.662	1853
343.749	1203
343.835	3203
343.921	7659
344.008	50983
344.094	94634
344.180	16007
344.267	4027
344.353	14006
344.439	10587
344.525	4320
344.612	3332
344.698	3111
344.784	1404
344.870	1404
344.957	778
345.043	2156
345.129	370
345.215	2423
345.301	682
345.387	525
345.474	657
345.560	251
345.646	369
345.732	1645
345.818	1257
345.904	1026
345.990	466
346.076	582
346.162	307
346.249	2054
346.335	401
346.421	2887
346.507	8013
346.593	22492
346.679	3887
346.765	1532
346.851	1092
346.937	1268
347.023	1833
347.108	747
347.194	-165
347.280	1479
347.366	1119
347.452	9869
347.538	33935
347.624	18566
347.710	9551
347.796	1505
347.882	806
347.967	1609
348.053	114
348.139	972
348.225	816
348.311	304
348.397	608
348.482	1065
348.568	1471
348.654	1255
348.740	2955
348.825	2411
348.911	4740
348.997	15065
349.083	27108
349.168	3202
349.254	587
349.340	1166
349.425	717
349.511	973
349.597	1317
349.682	3430
349.768	11555
349.854	4316
349.939	196
350.025	834
350.110	714
350.196	468
350.282	225
350.367	1239
350.453	-418
350.538	519
350.624	521
350.709	1628
350.795	-554
350.880	202
350.966	1482
351.051	1218
351.137	457
351.222	1020
351.308	2750
351.393	8054
351.479	1116
351.564	411
351.649	903
351.735	327
351.820	623
351.906	1023
351.991	159
352.076	5612
352.162	7456
352.247	1281
352.332	845
352.418	1258
352.503	1905
352.588	12330
352.673	7370
352.759	2153
352.844	339
352.929	1626
353.014	524
353.100	868
353.185	1121
353.270	2143
353.355	2679
353.441	853
353.526	370
353.611	2315
353.696	1913
353.781	1776
353.866	-209
353.952	1803
354.037	1034
354.122	5196
354.207	4200
354.292	1586
354.377	325
354.462	513
354.547	557
354.632	1602
354.717	1126
354.802	756
354.887	-250
354.972	1257
355.057	450
355.142	91
355.227	1092
355.312	2338
355.397	3564
355.482	7636
355.567	3313
355.652	2886
355.737	3677
355.822	14462
355.907	9627
355.991	2591
356.076	76
356.161	712
356.246	1158
356.331	1131
356.416	4422
356.501	39335
356.585	33820
356.670	2451
356.755	2947
356.840	5329
356.924	29893
357.009	104515
357.094	29592
357.179	4482
357.263	2172
357.348	2748
357.433	2066
357.517	2418
357.602	696
357.687	1371
357.771	1736
357.856	2638
357.941	5139
358.025	32895
358.110	142932
358.195	53817
358.279	4385
358.364	2281
358.448	8352
358.533	22077
358.617	15121
358.702	15769
358.787	5573
358.871	2066
358.956	1934
359.040	1403
359.125	262
359.209	958
359.294	775
359.378	2150
359.462	1609
359.547	1117
359.631	703
359.716	8
359.800	529
359.885	1319
359.969	295
360.053	1264
360.138	447
360.222	931
360.306	2300
360.391	2310
360.475	1669
360.559	5831
360.644	7627
360.728	6009
360.812	21910
360.896	56160
360.981	13087
361.065	3836
361.149	2541
361.233	1580
361.318	510
361.402	1206
361.486	1684
361.570	1049
361.654	1971
361.739	6698
361.823	39356
361.907	58937
361.991	7163
362.075	3906
362.159	4803
362.243	7057
362.327	9169
362.411	15651
362.495	5728
362.580	2390
362.664	2948
362.748	3363
362.832	4195
362.916	8780
363.000	30002
363.084	69063
363.168	75401
363.252	14841
363.336	4183
363.420	3301
363.503	3506
363.587	3954
363.671	2132
363.755	1658
363.839	3420
363.923	1952
364.007	4249
364.091	5608
364.175	4996
364.258	15362
364.342	30552
364.426	60775
364.510	28658
364.594	10671
364.677	12312
364.761	51898
364.845	31384
364.929	6158
365.013	3960
365.096	4283
365.180	2615
365.264	2722
365.347	4586
365.431	2243
365.515	670
365.598	930
365.682	1473
365.766	-34
365.849	982
365.933	722
366.017	2253
366.100	-193
366.184	203
366.267	1803
366.351	719
366.435	255
366.518	214
366.602	870
366.685	304
366.769	680
366.852	1351
366.936	3031
367.019	1978
367.103	498
367.186	666
367.270	1340
367.353	145
367.436	2030
367.520	755
367.603	1494
367.687	1613
367.770	3441
367.853	2926
367.937	10847
368.020	15008
368.104	3296
368.187	2845
368.270	3532
368.353	1940
368.437	2309
368.520	2600
368.603	3994
368.687	8826
368.770	17083
368.853	3723
368.936	2963
369.020	1562
369.103	1142
369.186	134
369.269	244
369.352	2172
369.436	2021
369.519	946
369.602	-730
369.685	2299
369.768	786
369.851	922
369.934	106
370.018	1289
370.101	1144
370.184	2801
370.267	1586
370.350	2945
370.433	5022
370.516	23244
370.599	36915
370.682	11238
370.765	9157
370.848	13518
370.931	23423
371.014	7668
371.097	276
371.180	1465
371.263	1867
371.346	-569
371.429	1620
371.511	-209
371.594	2314
371.677	3027
371.760	3033
371.843	6188
371.926	54658
372.009	119040
372.091	26651
372.174	10960
372.257	28783
372.340	8407
372.423	3220
372.505	2457
372.588	2239
372.671	7736
372.754	23997
372.836	9746
372.919	2702
373.002	2739
373.085	1689
373.167	4024
373.250	11387
373.332	27575
373.415	67309
373.498	146826
373.580	46812
373.663	89005
373.746	108531
373.828	16582
373.911	5165
373.993	2523
374.076	3573
374.159	3407
374.241	6540
374.324	18383
374.406	13152
374.489	36169
374.571	91150
374.654	27738
374.736	16118
374.819	52919
374.901	90341
374.983	92809
375.066	13674
375.148	3171
375.231	3201
375.313	4114
375.395	2507
375.478	1333
375.560	2335
375.643	3015
375.725	17220
375.807	70137
375.890	40019
375.972	4939
376.054	3821
376.136	2487
376.219	2577
376.301	17906
376.383	48675
376.465	15675
376.548	6491
376.630	10796
376.712	35769
376.794	14084
376.877	2479
376.959	1113
377.041	1460
377.123	937
377.205	1210
377.287	377
377.369	1509
377.452	987
377.534	405
377.616	1631
377.698	1330
377.780	426
377.862	1302
377.944	2003
378.026	126
378.108	950
378.190	1008
378.272	1139
378.354	355
378.436	724
378.518	456
378.600	1604
378.682	4147
378.764	11949
378.846	8766
378.928	1265
379.010	1721
379.091	1952
379.173	1452
379.255	56
379.337	1992
379.419	6001
379.501	18009
379.583	5742
379.664	2299
379.746	3568
379.828	12272
379.910	14509
379.991	13535
380.073	2106
380.155	2653
380.237	1385
380.318	1217
380.400	534
380.482	2917
380.564	2438
380.645	2414
380.727	1351
380.809	2492
380.890	1113
380.972	-389
381.053	934
381.135	1724
381.217	3950
381.298	11801
381.380	4971
381.461	6826
381.543	39018
381.624	42842
381.706	6279
381.787	2293
381.869	5221
381.951	27974
382.032	105535
382.113	54197
382.195	5592
382.276	4866
382.358	9588
382.439	32964
382.521	47975
382.602	80160
382.684	25958
382.765	37298
382.846	26241
382.928	18435
383.009	9062
383.090	9167
383.172	29606
383.253	39122
383.334	22098
383.416	47583
383.497	20998
383.578	5287
383.659	7592
383.741	30965
383.822	68143
383.903	30348
383.984	23157
384.066	47783
384.147	24582
384.228	5224
384.309	3394
384.390	2426
384.471	1557
384.553	1837
384.634	2786
384.715	3079
384.796	841
384.877	2782
384.958	11492
385.039	10976
385.120	3244
385.201	4005
385.282	1343
385.363	2773
385.444	1548
385.525	6379
385.606	27211
385.687	22494
385.768	4089
385.849	6630
385.930	50393
386.011	86459
386.092	17794
386.173	3240
386.254	2160
386.335	2881
386.416	2611
386.496	7544
386.577	10103
386.658	3614
386.739	1306
386.820	2295
386.901	1125
386.981	2061
387.062	1904
387.143	4101
387.224	11566
387.304	11112
387.385	4561
387.466	1432
387.547	2857
387.627	1329
387.708	6016
387.789	26078
387.869	30873
387.950	9025
388.031	2478
388.111	281
388.192	2656
388.273	3622
388.353	3047
388.434	2763
388.514	8237
388.595	39932
388.676	39656
388.756	12749
388.837	10934
388.917	6438
388.998	64
389.078	2942
389.159	2321
389.239	1102
389.320	3828
389.400	658
389.480	5823
389.561	12955
389.641	6943
389.722	3829
389.802	2769
389.883	7744
389.963	18974
390.043	9438
390.124	1507
390.204	5937
390.284	14182
390.365	10563
390.445	34682
390.525	187988
390.605	166849
390.686	24750
390.766	6508
390.846	4084
390.927	2378
391.007	2428
391.087	3637
391.167	2141
391.247	1320
391.328	3367
391.408	3392
391.488	2644
391.568	1017
391.648	3579
391.728	4450
391.808	5095
391.888	4570
391.969	9165
392.049	11941
392.129	7078
392.209	8874
392.289	20768
392.369	10593
392.449	6824
392.529	6797
392.609	8573
392.689	11531
392.769	25054
392.849	20836
392.929	19821
393.009	36747
393.089	40476
393.169	68266
393.248	255560
393.328	981131
393.408	984973
393.488	244883
393.568	64126
393.648	32244
393.728	20949
393.807	16069
393.887	16594
393.967	14938
394.047	18105
394.127	23754
394.206	47882
394.286	184404
394.366	758288
394.446	781498
394.525	196395
394.605	49322
394.685	25422
394.764	18990
394.844	15690
394.924	14614
395.003	10983
395.083	9986
395.163	10801
395.242	10254
395.322	10283
395.402	9298
395.481	12526
395.561	11660
395.640	20940
395.720	28426
395.799	27076
395.879	36167
395.958	74014
396.038	282188
396.117	981438
396.197	1027129
396.276	309865
396.356	88353
396.435	45810
396.515	34216
396.594	35802
396.673	64951
396.753	280995
396.832	870919
396.912	553179
396.991	99646
397.070	30877
397.150	17360
397.229	14432
397.308	16202
397.388	24116
397.467	13965
397.546	7524
397.625	4036
397.705	7442
397.784	5377
397.863	3827
397.942	3318
398.022	2437
398.101	3282
398.180	4217
398.259	2470
398.338	2999
398.417	1876
398.497	1317
398.576	2424
398.655	776
398.734	2092
398.813	1952
398.892	1500
398.971	3502
399.050	1814
399.129	780
399.208	1408
399.287	1950
399.366	957
399.445	1213
399.524	1168
399.603	735
399.682	1675
399.761	2536
399.840	3502
399.919	2805
399.998	-286
400.077	789
400.156	74
400.235	3337
400.313	464
400.392	754
400.471	6236
400.550	8642
400.629	1501
400.708	2148
400.786	5
400.865	706
400.944	-5
401.023	2152
401.102	-198
401.180	913
401.259	-3
401.338	814
401.416	1163
401.495	722
401.574	578
401.652	1136
401.731	2429
401.810	-507
401.888	170
401.967	263
402.046	622
402.124	1346
402.203	-436
402.281	1502
402.360	586
402.438	1248
402.517	-34
402.596	747
402.674	-268
402.753	469
402.831	625
402.910	1288
402.988	830
403.066	4624
403.145	2783
403.223	3717
403.302	4099
403.380	3461
403.459	1786
403.537	1157
403.615	-7
403.694	-922
403.772	1098
403.850	1428
403.929	492
404.007	36
404.085	1791
404.164	738
404.242	549
404.320	6199
404.398	20791
404.477	24215
404.555	54443
404.633	43218
404.711	15062
404.789	7607
404.868	1168
404.946	25
405.024	932
405.102	308
405.180	6
405.258	-422
405.336	-323
405.415	-186
405.493	964
405.571	1479
405.649	-483
405.727	-486
405.805	966
405.883	1158
405.961	542
406.039	512
406.117	-706
406.195	2482
406.273	8821
406.351	35009
406.429	16936
406.507	1116
406.585	-333
406.663	1013
406.740	388
406.818	228
406.896	214
406.974	1468
407.052	2088
407.130	19468
407.208	23909
407.285	4830
407.363	866
407.441	1604
407.519	1748
407.596	4507
407.674	29339
407.752	133140
407.830	93217
407.907	10914
407.985	508
408.063	1491
408.141	325
408.218	1441
408.296	-555
408.373	881
408.451	1093
408.529	1069
408.606	322
408.684	746
408.762	509
408.839	444
408.917	464
408.994	882
409.072	-485
409.149	645
409.227	1989
409.304	1839
409.382	2600
409.459	3214
409.537	4777
409.614	3883
409.692	2873
409.769	3194
409.846	4314
409.924	6419
410.001	1845
410.079	3124
410.156	2557
410.233	3308
410.311	3642
410.388	2095
410.465	539
410.543	158
410.620	923
410.697	597
410.775	940
410.852	-885
410.929	982
411.006	1428
411.083	-184
411.161	557
411.238	307
411.315	317
411.392	1052
411.469	1083
411.547	790
411.624	-1060
411.701	-50
411.778	1810
411.855	1469
411.932	669
412.009	127
412.086	632
412.163	86
412.240	-116
412.317	619
412.394	856
412.471	457
412.548	376
412.625	20
412.702	298
412.779	268
412.856	727
412.933	-592
413.010	1037
413.087	2504
413.164	4376
413.241	6288
413.318	1042
413.395	490
413.471	990
413.548	270
413.625	1319
413.702	-1116
413.779	615
413.855	-496
413.932	-447
414.009	-66
414.086	598
414.162	870
414.239	1311
414.316	4433
414.393	12019
414.469	1943
414.546	751
414.623	-339
414.699	53
414.776	-1040
414.853	8
414.929	-2
415.006	-398
415.082	-39
415.159	234
415.236	117
415.312	917
415.389	963
415.465	775
415.542	224
415.618	-853
415.695	328
415.771	-42
415.848	-390
415.924	7
416.000	-552
416.077	1643
416.153	-887
416.230	-598
416.306	-457
416.383	-232
416.459	-62
416.535	-549
416.612	-42
416.688	324
416.764	20
416.841	-164
416.917	288
416.993	348
417.069	796
417.146	962
417.222	2372
417.298	758
417.374	-286
417.451	410
417.527	-56
417.603	633
417.679	-55
417.755	213
417.831	-483
417.908	866
417.984	-889
418.060	-537
418.136	893
418.212	1416
418.288	-529
418.364	556
418.440	-70
418.516	932
418.592	-427
418.668	1798
418.744	1803
418.820	2108
418.896	475
418.972	-444
419.048	-233
419.124	2146
419.200	-899
419.276	189
419.352	-66
419.428	821
419.504	-771
419.579	731
419.655	-37
419.731	4
419.807	1616
419.883	3535
419.959	1663
420.034	1077
420.110	1817
420.186	6459
420.262	3958
420.337	1096
420.413	876
420.489	793
420.565	1100
420.640	387
420.716	358
420.792	-153
420.867	1230
420.943	666
421.019	725
421.094	1032
421.170	615
421.245	385
421.321	1843
421.397	3393
421.472	22780
421.548	73464
421.623	38338
421.699	5789
421.774	2055
421.850	2218
421.925	3428
422.001	3711
422.076	4448
422.152	4259
422.227	6707
422.302	10249
422.378	15132
422.453	30555
422.529	85062
422.604	322002
422.679	590429
422.755	323280
422.830	86816
422.905	30686
422.981	16054
423.056	10382
423.131	7066
423.207	4971
423.282	3008
423.357	5833
423.432	3328
423.508	3930
423.583	3600
423.658	3472
423.733	1391
423.808	1867
423.883	2013
423.959	1887
424.034	1724
424.109	2622
424.184	256
424.259	878
424.334	289
424.409	-204
424.484	303
424.559	705
424.634	19
424.709	990
424.784	1417
424.859	1151
424.934	1047
425.009	4733
425.084	6450
425.159	1808
425.234	366
425.309	190
425.384	438
425.459	-387
425.534	1120
425.609	-388
425.683	-720
425.758	751
425.833	-576
425.908	664
425.983	1632
426.058	6830
426.132	1464
426.207	56
426.282	1046
426.357	105
426.431	-329
426.506	50
426.581	-112
426.655	624
426.730	118
426.805	-115
426.879	248
426.954	-108
427.029	1057
427.103	10065
427.178	24771
427.253	9226
427.327	604
427.402	637
427.476	-597
427.551	-306
427.625	-412
427.700	158
427.774	-339
427.849	650
427.923	-1147
427.998	699
428.072	238
428.147	2966
428.221	22212
428.296	83807
428.370	41913
428.444	3785
428.519	1083
428.593	332
428.667	557
428.742	1283
428.816	5516
428.890	41551
428.965	70208
429.039	14264
429.113	2088
429.188	212
429.262	210
429.336	1307
429.410	2682
429.485	1698
429.559	374
429.633	894
429.707	763
429.781	5069
429.855	36918
429.930	56781
430.004	12452
430.078	6185
430.152	25023
430.226	136713
430.300	133153
430.374	17990
430.448	3625
430.522	2598
430.596	2528
430.670	12372
430.744	69054
430.818	80828
430.892	11971
430.966	1541
431.040	941
431.114	346
431.188	-628
431.262	444
431.336	32
431.410	675
431.484	-125
431.557	1744
431.631	214
431.705	2723
431.779	16031
431.853	78327
431.927	48973
432.000	5503
432.074	1045
432.148	227
432.222	-587
432.295	815
432.369	69
432.443	1072
432.516	11130
432.590	25457
432.664	6408
432.737	427
432.811	-816
432.885	41
432.958	119
433.032	-65
433.106	-826
433.179	-228
433.253	-428
433.326	-122
433.400	702
433.473	117
433.547	-845
433.620	2
433.694	-433
433.767	268
433.841	-1099
433.914	-350
433.988	-423
434.061	63
434.134	-808
434.208	-92
434.281	-105
434.355	249
434.428	-1252
434.501	-349
434.575	-1347
434.648	-563
434.721	-1074
434.795	-563
434.868	-576
434.941	-344
435.014	-1071
435.088	-127
435.161	-114
435.234	176
435.307	-9
435.381	1079
435.454	-316
435.527	1819
435.600	1804
435.673	2140
435.746	959
435.819	857
435.892	-35
435.966	489
436.039	-213
436.112	94
436.185	-181
436.258	327
436.331	-1430
436.404	-450
436.477	-1084
436.550	-608
436.623	-629
436.696	-557
436.769	-317
436.842	1
436.915	133
436.987	-9
437.060	-1025
437.133	-106
437.206	-572
437.279	124
437.352	-427
437.425	-107
437.498	134
437.570	430
437.643	315
437.716	-551
437.789	-373
437.861	-866
437.934	-435
438.007	-777
438.080	-760
438.152	404
438.225	2638
438.298	19629
438.370	47182
438.443	13592
438.516	969
438.588	44
438.661	-1131
438.734	265
438.806	-138
438.879	345
438.951	-16
439.024	309
439.096	-907
439.169	261
439.241	-319
439.314	-499
439.386	-558
439.459	333
439.531	-211
439.604	-366
439.676	95
439.749	-67
439.821	-624
439.893	-627
439.966	-475
440.038	-12
440.110	-479
440.183	126
440.255	-160
440.327	1316
440.400	4583
440.472	20050
440.544	9378
440.617	597
440.689	495
440.761	3
440.833	595
440.905	350
440.978	-446
441.050	-18
441.122	-331
441.194	-510
441.266	-525
441.338	-530
441.411	275
441.483	5392
441.555	5645
441.627	924
441.699	19
441.771	-291
441.843	-601
441.915	-11
441.987	178
442.059	-288
442.131	-359
442.203	1106
442.275	586
442.347	2325
442.419	5411
442.491	29893
442.563	68530
442.635	22471
442.706	3442
442.778	2144
442.850	-48
442.922	873
442.994	916
443.066	729
443.137	1206
443.209	1283
443.281	2314
443.353	8152
443.425	38810
443.496	143874
443.568	121170
443.640	36023
443.711	5385
443.783	2078
443.855	1143
443.926	470
443.998	162
444.070	1027
444.141	-46
444.213	136
444.285	394
444.356	-80
444.428	-808
444.499	291
444.571	489
444.642	495
444.714	-118
444.785	455
444.857	-502
444.928	800
445.000	560
445.071	658
445.143	885
445.214	2569
445.285	5370
445.357	18266
445.428	99863
445.500	225047
445.571	109479
445.642	50616
445.714	11379
445.785	3778
445.856	874
445.928	1026
445.999	73
446.070	735
446.141	-52
446.213	447
446.284	-142
446.355	264
446.426	-248
446.497	-426
446.569	-674
446.640	138
446.711	440
446.782	-847
446.853	-467
446.924	-141
446.995	-271
447.066	347
447.138	-818
447.209	-455
447.280	-789
447.351	27
447.422	-1041
447.493	-995
447.564	-342
447.635	-169
447.706	-341
447.777	-596
447.847	-150
447.918	-980
447.989	-604
448.060	170
448.131	-481
448.202	26
448.273	-393
448.344	-529
448.414	-1038
448.485	-237
448.556	-697
448.627	76
448.698	-78
448.768	-230
448.839	-657
448.910	263
448.981	-671
449.051	264
449.122	-368
449.193	-298
449.263	-429
449.334	260
449.405	410
449.475	1213
449.546	119
449.616	728
449.687	382
449.758	60
449.828	-516
449.899	222
449.969	-17
450.040	242
450.110	-325
450.181	584
450.251	-558
450.322	-9
450.392	-236
450.463	301
450.533	-744
450.604	441
450.674	-608
450.744	187
450.815	-708
450.885	70
450.955	-711
451.026	62
451.096	-1124
451.166	-482
451.237	-454
451.307	265
451.377	-591
451.447	-842
451.518	-514
451.588	270
451.658	-510
451.728	-47
451.799	307
451.869	-42
451.939	-627
452.009	-169
452.079	-688
452.149	-481
452.219	-242
452.289	-9
452.360	-42
452.430	-802
452.500	-1133
452.570	562
452.640	2551
452.710	3175
452.780	3747
452.850	3511
452.920	1322
452.990	494
453.060	88
453.129	227
453.199	-269
453.269	349
453.339	569
453.409	796
453.479	769
453.549	1072
453.619	-137
453.688	-502
453.758	248
453.828	255
453.898	-226
453.968	-714
454.037	-473
454.087	232
454.107	519
454.168	-182
454.177	-291
454.247	-28
454.249	-65
454.316	-1269
454.330	-1150
454.386	-720
454.411	-795
454.456	-985
454.492	-160
454.525	583
454.574	171
454.595	-29
454.655	-240
454.665	-278
454.734	-182
454.736	-164
454.804	195
454.817	96
454.873	-373
454.898	-179
454.943	175
454.979	-152
455.013	-471
455.060	250
455.082	568
455.141	46
455.152	15
455.221	1531
455.222	1568
455.291	4240
455.303	6539
455.360	15496
455.384	24471
455.430	39200
455.465	27425
455.499	16625
455.546	5909
455.569	1149
455.627	467
455.638	324
455.707	-732
455.708	-722
455.777	77
455.789	11
455.846	-503
455.869	-492
455.916	-419
455.950	-252
455.985	-207
456.031	-179
456.054	-111
456.112	-370
456.124	-430
456.193	-93
456.193	-98
456.262	-192
456.274	8
456.332	732
456.355	208
456.401	-589
456.436	-236
456.470	-120
456.516	-733
456.540	-981
456.597	-807
456.609	-774
456.678	419
456.678	416
456.747	-512
456.759	-530
456.817	-564
456.840	-330
456.886	92
456.920	-12
456.955	-13
457.001	-141
457.024	-293
457.082	-681
457.093	-737
457.162	-48
457.163	-42
457.232	-632
457.243	-584
457.301	-365
457.324	-384
457.370	-448
457.405	134
457.439	755
457.485	141
457.508	-166
457.566	11
457.577	55
457.646	561
457.647	571
457.715	1297
457.727	1447
457.784	2854
457.808	4471
457.853	6803
457.889	7931
457.922	8046
457.969	4821
457.991	4238
458.050	4724
458.060	4812
458.129	10019
458.130	10149
458.198	12680
458.211	11463
458.267	5238
458.292	3328
458.336	1751
458.372	1664
458.405	2323
458.453	3796
458.474	4726
458.533	8793
458.543	9310
458.611	18819
458.614	18886
458.680	12421
458.694	9887
458.749	3701
458.775	2584
458.818	1258
458.855	562
458.887	21
458.936	231
458.955	285
459.016	33
459.024	35
459.093	437
459.097	433
459.162	301
459.177	398
459.230	740
459.257	646
459.299	345
459.338	401
459.368	502
459.418	401
459.437	350
459.499	247
459.505	254
459.574	593
459.579	594
459.643	170
459.659	129
459.711	402
459.740	800
459.780	1108
459.820	588
459.849	43
459.900	26
459.917	235
459.981	449
459.986	452
460.054	999
460.061	979
460.123	431
460.141	448
460.191	595
460.222	562
460.260	816
460.302	1269
460.328	1328
460.382	1342
460.397	1374
460.462	1713
460.465	1879
460.534	5583
460.543	6141
460.602	25275
460.623	32937
460.671	49377
460.703	70125
460.739	74515
460.783	63928
460.808	53084
460.864	9340
460.876	4963
460.944	1558
460.945	1517
461.013	1234
461.024	1094
461.081	484
461.104	574
461.150	942
461.184	755
461.218	560
461.264	695
461.286	715
461.345	419
461.355	408
461.423	788
461.425	782
461.491	67
461.505	142
461.559	921
461.585	973
461.628	607
461.665	426
461.696	339
461.745	177
461.764	214
461.825	311
461.832	349
461.901	774
461.905	815
461.969	655
461.985	463
462.037	527
462.065	837
462.105	741
462.145	482
462.173	612
462.225	819
462.241	727
462.305	314
462.310	325
462.378	792
462.385	787
462.446	405
462.465	469
462.514	798
462.545	756
462.582	640
462.625	850
462.650	1037
462.705	1080
462.718	995
462.785	754
462.786	759
462.854	1032
462.865	1037
462.922	1044
462.945	1053
462.990	992
463.025	1113
463.058	1166
463.104	934
463.126	762
463.184	370
463.194	385
463.262	670
463.264	675
463.330	1159
463.344	1295
463.398	1407
463.424	1442
463.466	1073
463.504	705
463.533	876
463.583	1042
463.601	996
463.663	732
463.669	702
463.737	751
463.743	731
463.805	1116
463.823	1290
463.873	1525
463.903	1597
463.940	1344
463.982	1036
464.008	1193
464.062	1452
464.076	1335
464.142	853
464.144	859
464.211	957
464.221	987
464.279	804
464.301	672
464.347	930
464.381	1104
464.414	1082
464.461	1203
464.482	1133
464.540	771
464.550	834
464.617	1387
464.620	1401
464.685	1956
464.699	2097
464.753	3781
464.779	4607
464.820	5262
464.859	5906
464.888	5447
464.938	4579
464.956	4583
465.018	4156
465.023	4125
465.091	3998
465.098	3961
465.158	4210
465.177	4344
465.226	3891
465.257	3523
465.293	3731
465.336	3971
465.361	4073
465.416	4261
465.428	4286
465.495	4493
465.496	4504
465.563	4661
465.575	4723
465.631	4789
465.654	4772
465.698	4162
465.734	3625
465.765	3892
465.813	4236
465.833	4331
465.893	4752
465.900	4833
465.968	5331
465.972	5353
466.035	4761
466.052	4635
466.102	4718
466.131	4708
466.170	5194
466.210	5671
466.237	5794
466.290	6109
466.304	6151
466.369	6180
466.372	6221
466.439	7162
466.449	7282
466.506	7305
466.528	7314
466.573	7634
466.607	7835
466.641	8242
466.687	8824
466.708	9194
466.766	10078
466.775	10024
466.842	9573
466.845	9533
466.909	9492
466.925	9474
466.977	9279
467.004	9144
467.044	9006
467.083	8854
467.111	9684
467.163	11172
467.178	11424
467.242	12414
467.245	12343
467.312	10462
467.321	10197
467.379	8825
467.400	8304
467.446	8396
467.480	8439
467.559	8695
467.638	6974
467.717	6324
467.796	7394
467.875	7082
467.955	6505
468.034	6910
468.113	6761
468.192	7593
468.271	6638
468.350	6170
468.429	6754
468.508	7883
468.588	6065
468.667	4755
468.746	5419
468.825	4253
468.904	5290
468.983	5513
469.062	4634
469.141	5723
469.220	4748
469.299	5634
469.378	5765
469.456	8042
469.535	8842
469.614	5763
469.693	5376
469.772	5613
469.851	5626
469.930	5107
470.009	5961
470.088	4860
470.166	5730
470.245	5926
470.324	6288
470.403	5802
470.482	4555
470.560	4951
470.639	4792
470.718	6111
470.797	4826
470.875	4982
470.954	4718
471.033	5409
471.111	3891
471.190	4007
471.269	3887
471.347	3345
471.426	4379
471.505	4860
471.583	5948
471.662	6206
471.740	6009
471.819	5523
471.898	4704
471.976	5286
472.055	4823
472.133	5059
472.212	6410
472.290	4868
472.369	4347
472.447	4857
472.526	4020
472.604	4697
472.683	5198
472.761	4694
472.839	4398
472.918	4672
472.996	4425
473.075	4493
473.153	3977
473.231	3316
473.310	3804
473.388	3930
473.466	3902
473.545	5692
473.623	6251
473.701	5462
473.780	4127
473.858	3430
473.936	5591
474.014	4456
474.093	4147
474.171	5138
474.249	5075
474.327	3871
474.405	3526
474.484	3919
474.562	4148
474.640	3429
474.718	4180
474.796	5232
474.874	5524
474.952	5406
475.030	4872
475.108	5514
475.187	6997
475.265	6709
475.343	5338
475.421	5595
475.499	4118
475.577	4302
475.655	4784
475.733	4618
475.811	3954
475.889	3270
475.966	4236
476.044	3071
476.122	3179
476.200	3621
476.278	3414
476.356	2980
476.434	3578
476.512	2751
476.590	2874
476.667	3471
476.745	2857
476.823	3495
476.901	2578
476.979	2620
477.056	2851
477.134	3633
477.212	3288
477.290	3773
477.367	2480
477.445	3209
477.523	2303
477.601	2313
477.678	2061
477.756	2940
477.834	2530
477.911	2350
477.989	3482
478.066	2170
478.144	2558
478.222	2938
478.299	2347
478.377	3554
478.454	3651
478.532	2434
478.609	2966
478.687	2864
478.764	1697
478.842	2802
478.919	2537
478.997	2595
479.074	2094
479.152	1828
479.229	3229
479.307	1986
479.384	1631
479.461	1806
479.539	1784
479.616	2512
479.694	1791
479.771	2389
479.848	1727
479.926	683
480.003	2478
480.080	1899
480.157	1640
480.235	1594
480.312	1631
480.389	2464
480.467	1860
480.544	1595
480.621	1984
480.698	1861
480.775	2321
480.853	1744
480.930	1855
481.007	1653
481.084	3496
481.161	6902
481.238	4911
481.315	1048
481.392	1264
481.470	1130
481.547	1166
481.624	1765
481.701	1100
481.778	1625
481.855	812
481.932	1221
482.009	1537
482.086	1145
482.163	1507
482.240	2609
482.317	2377
482.393	2338
482.470	1221
482.547	1787
482.624	1541
482.701	1345
482.778	1391
482.855	1052
482.932	1357
483.009	1293
483.085	2239
483.162	3348
483.239	4167
483.316	1246
483.393	1893
483.469	1318
483.546	1802
483.623	1490
483.699	1423
483.776	1232
483.853	1963
483.930	1817
484.006	1705
484.083	4932
484.160	15797
484.236	32057
484.313	26168
484.389	16765
484.466	16185
484.543	14178
484.619	13049
484.696	15103
484.772	13418
484.849	13660
484.925	12721
485.002	11872
485.078	13140
485.155	11622
485.231	12035
485.308	11560
485.384	11520
485.461	12229
485.537	11188
485.614	12069
485.690	11332
485.766	11094
485.843	10605
485.919	11445
485.995	12755
486.072	10101
486.148	9605
486.224	10447
486.301	10541
486.377	10393
486.453	8681
486.530	11324
486.606	17803
486.682	20409
486.758	15483
486.835	14546
486.911	13138
486.987	14517
487.063	15835
487.139	19465
487.215	17323
487.292	15516
487.368	13540
487.444	12421
487.520	13301
487.596	16120
487.672	21640
487.748	40679
487.824	62229
487.900	30295
487.976	13457
488.052	11221
488.128	12001
488.204	9502
488.280	10161
488.356	10309
488.432	9984
488.508	10172
488.584	9048
488.660	8001
488.736	9016
488.812	9452
488.888	11135
488.964	11902
489.039	14674
489.115	20289
489.191	15872
489.267	10021
489.343	9184
489.418	8111
489.494	8532
489.570	7046
489.646	9371
489.722	8259
489.797	7577
489.873	8526
489.949	8549
490.024	7997
490.100	6995
490.176	8202
490.251	7912
490.327	8894
490.403	6217
490.478	7659
490.554	5775
490.629	6789
490.705	6287
490.781	6969
490.856	6459
490.932	7028
491.007	7096
491.083	7350
491.158	6314
491.234	6111
491.309	6419
491.385	6142
491.460	6704
491.536	6196
491.611	6019
491.686	6087
491.762	6798
491.837	8048
491.913	12994
491.988	14858
492.063	20184
492.139	7512
492.214	5368
492.289	5501
492.365	4539
492.440	5829
492.515	4105
492.590	5402
492.666	4262
492.741	4080
492.816	4061
492.891	3184
492.967	6414
493.042	4607
493.117	5382
493.192	6900
493.267	13750
493.342	52488
493.418	82689
493.493	15316
493.568	4468
493.643	3487
493.718	4603
493.793	3597
493.868	5023
493.943	4218
494.018	4916
494.093	3002
494.168	4159
494.243	2822
494.318	3108
494.393	2800
494.468	3678
494.543	3785
494.618	3967
494.693	3451
494.768	2031
494.842	3591
494.917	3350
494.992	3737
495.067	2890
495.142	3289
495.217	2749
495.292	3679
495.366	3718
495.441	3650
495.516	4095
495.591	4418
495.665	11862
495.740	28318
495.815	15732
495.890	3165
495.964	2069
496.039	5232
496.114	4235
496.188	8284
496.263	8778
496.338	3334
496.412	3357
496.487	4167
496.561	4464
496.636	4451
496.710	5276
496.785	5394
496.860	6113
496.934	5290
497.009	5718
497.083	4742
497.158	7373
497.232	6689
497.307	7649
497.381	9692
497.455	9755
497.530	11052
497.604	12324
497.679	12505
497.753	17307
497.827	23368
497.902	27109
497.976	27416
498.050	25528
498.125	28324
498.199	33751
498.273	36387
498.348	37300
498.422	31389
498.496	27387
498.570	22105
498.645	17225
498.719	14494
498.793	13326
498.867	12092
498.941	10624
499.016	9616
499.090	12173
499.164	10780
499.238	7677
499.312	4491
499.386	6610
499.460	6221
499.534	4631
499.609	4316
499.683	4253
499.757	3818
499.831	3878
499.905	5522
499.979	5473
500.053	3245
500.127	4249
500.201	3902
500.275	3263
500.349	2864
500.422	2278
500.496	3550
500.570	5905
500.644	6997
500.718	5040
500.792	3597
500.866	2974
500.940	2697
501.013	2981
501.087	1681
501.161	3395
501.235	2445
501.309	4167
501.382	4278
501.456	5379
501.530	2432
501.603	1124
501.677	2012
501.751	310
501.825	3586
501.898	1557
501.972	2062
502.046	2329
502.119	728
502.193	2272
502.266	2850
502.340	2197
502.413	2045
502.487	1764
502.561	786
502.634	1489
502.708	2558
502.781	781
502.855	2151
502.928	1713
503.002	858
503.075	445
503.149	814
503.222	1981
503.295	1330
503.369	1505
503.442	885
503.516	1514
503.589	2673
503.662	1456
503.736	882
503.809	3003
503.882	2352
503.956	4374
504.029	6934
504.102	17237
504.175	30654
504.249	11669
504.322	5175
504.395	2370
504.468	1427
504.542	-10
504.615	854
504.688	1533
504.761	-310
504.834	1888
504.907	990
504.980	2550
505.053	591
505.127	-323
505.200	3003
505.273	440
505.346	517
505.419	511
505.492	1355
505.565	753
505.638	1064
505.711	428
505.784	-453
505.857	304
505.930	977
506.003	-1161
506.076	1571
506.149	-198
506.221	-1771
506.294	2069
506.367	-743
506.440	1571
506.513	2072
506.586	279
506.659	-376
506.731	1190
506.804	590
506.877	630
506.950	751
507.022	1119
507.095	-816
507.168	553
507.241	1594
507.313	574
507.386	-367
507.459	1755
507.531	740
507.604	-477
507.677	1606
507.749	-636
507.822	2773
507.894	6161
507.967	12038
508.040	6721
508.112	6016
508.185	4227
508.257	2506
508.330	5955
508.402	2256
508.475	2537
508.547	3702
508.620	3466
508.692	3495
508.765	2305
508.837	1996
508.909	3163
508.982	2425
509.054	4284
509.127	2611
509.199	2615
509.271	1666
509.344	2451
509.416	1907
509.488	1874
509.560	2815
509.633	2301
509.705	2882
509.777	3162
509.849	2882
509.922	1790
509.994	3208
510.066	4068
510.138	3124
510.210	12625
510.283	11727
510.355	8372
510.427	6827
510.499	6299
510.571	5723
510.643	4613
510.715	7395
510.787	4085
510.859	6423
510.931	4205
511.003	5625
511.076	5683
511.148	5151
511.219	4283
511.291	5227
511.363	5008
511.435	4684
511.507	2963
511.579	4267
511.651	4799
511.723	4169
511.795	4136
511.867	3430
511.939	3947
512.010	3069
512.082	4281
512.154	2790
512.226	4353
512.298	8215
512.369	12573
512.441	9899
512.513	7963
512.585	5063
512.656	6623
512.728	4951
512.800	4923
512.871	5203
512.943	5296
513.015	4096
513.086	5095
513.158	5686
513.230	3920
513.301	5463
513.373	6642
513.444	4958
513.516	3835
513.588	4872
513.659	5182
513.731	4650
513.802	3763
513.874	6901
513.945	8262
514.016	4613
514.088	4353
514.159	4297
514.231	6085
514.302	9287
514.374	8849
514.445	6205
514.516	7840
514.588	5860
514.659	5113
514.730	6415
514.802	8263
514.873	10445
514.944	15231
515.016	9481
515.087	7345
515.158	7153
515.229	8755
515.301	12796
515.372	22650
515.443	14400
515.514	9137
515.585	6189
515.656	6149
515.728	6480
515.799	3995
515.870	4223
515.941	5159
516.012	4713
516.083	8334
516.154	6714
516.225	7269
516.296	7032
516.367	5042
516.438	4763
516.509	4743
516.580	5475
516.651	11809
516.722	30421
516.793	20915
516.864	5238
516.935	6854
517.006	5362
517.077	6780
517.148	11244
517.219	29704
517.289	50348
517.360	11121
517.431	5513
517.502	2764
517.573	3591
517.643	4240
517.714	4178
517.785	6691
517.856	4573
517.926	7407
517.997	5349
518.068	5988
518.138	8108
518.209	7131
518.280	20915
518.350	81365
518.421	41332
518.492	7952
518.562	6286
518.633	7145
518.703	5675
518.774	15557
518.845	35359
518.915	41200
518.986	14404
519.056	7657
519.127	9275
519.197	9304
519.268	7829
519.338	5535
519.408	4324
519.479	4724
519.549	3145
519.620	4856
519.690	2884
519.760	3277
519.831	2960
519.901	2478
519.971	2984
520.042	2680
520.112	608
520.182	3528
520.253	3670
520.323	2326
520.393	1897
520.463	4286
520.534	-212
520.604	4927
520.674	3376
520.744	1183
520.814	1549
520.885	4183
520.955	2373
521.025	2670
521.095	2037
521.165	2897
521.235	1831
521.305	1597
521.375	2215
521.445	3511
521.515	2512
521.585	3415
521.655	911
521.725	3315
521.795	3927
521.865	337
521.935	4502
522.005	1225
522.075	1831
522.145	3057
522.215	1497
522.285	2372
522.355	833
522.424	2322
522.494	1579
522.564	3180
522.634	4205
522.704	13791
522.774	6192
522.843	2995
522.913	2107
522.983	2503
523.053	850
523.122	2343
523.192	1869
523.262	5670
523.331	7135
523.401	3029
523.471	1470
523.540	1677
523.610	333
523.680	1374
523.749	1855
523.819	2500
523.888	2007
523.958	874
524.027	392
524.097	1384
524.166	688
524.236	645
524.305	1929
524.375	693
524.444	-705
524.514	2822
524.583	780
524.653	299
524.722	1209
524.791	-323
524.861	2641
524.930	-891
524.999	469
525.069	2253
525.138	837
525.207	-217
525.277	2559
525.346	1612
525.415	1854
525.484	1224
525.554	147
525.623	2284
525.692	4247
525.761	3642
525.830	3536
525.900	3104
525.969	6863
526.038	12092
526.107	22290
526.176	83329
526.245	82676
526.314	23346
526.383	38003
526.452	62805
526.522	95533
526.591	121745
526.660	21685
526.729	11087
526.797	12005
526.867	16218
526.935	64570
527.004	206388
527.073	173718
527.142	16677
527.211	4324
527.280	4226
527.349	1977
527.418	438
527.487	2350
527.555	-207
527.624	303
527.693	-1877
527.762	1251
527.831	-1111
527.899	1099
527.968	46
528.037	-388
528.106	673
528.174	1269
528.243	1083
528.312	1499
528.380	964
528.449	-1018
528.518	1620
528.586	-1147
528.655	248
528.723	235
528.792	-577
528.861	-1287
528.929	-2123
528.998	971
529.066	-455
529.135	-342
529.203	-422
529.272	-1931
529.340	749
529.409	1479
529.477	-908
529.545	-1094
529.614	1955
529.682	-2424
529.751	-448
529.819	2759
529.887	24
529.956	-960
530.024	16
530.092	-614
530.161	351
530.229	108
530.297	-3
530.365	840
530.434	45
530.502	-959
530.570	279
530.638	-2088
530.707	482
530.775	531
530.843	-728
530.911	-968
530.979	582
531.047	-986
531.115	297
531.183	-517
531.252	557
531.320	-409
531.388	-529
531.456	153
531.524	-1982
531.592	963
531.660	1754
531.728	-1451
531.796	-384
531.864	-162
531.932	-646
532.000	-565
532.067	-416
532.135	844
532.203	632
532.271	-473
532.339	741
532.407	4885
532.475	3420
532.542	1027
532.610	1204
532.678	-262
532.746	8150
532.814	24787
532.881	6563
532.949	1025
533.017	592
533.084	-419
533.152	-898
533.220	-148
533.287	-1220
533.355	477
533.423	640
533.490	-266
533.558	-171
533.625	115
533.693	778
533.761	1080
533.828	898
533.896	-548
533.963	1422
534.031	3077
534.098	2782
534.166	479
534.233	676
534.300	1232
534.368	1376
534.435	-94
534.503	1286
534.570	1553
534.637	1084
534.705	2257
534.772	2408
534.840	4836
534.907	33773
534.974	59759
535.041	8407
535.109	1560
535.176	-161
535.243	1746
535.310	772
535.378	-639
535.445	581
535.512	478
535.579	459
535.646	-724
535.714	762
535.781	2919
535.848	2568
535.915	3415
535.982	1311
536.049	616
536.116	2395
536.183	902
536.250	-84
536.317	877
536.384	1747
536.451	1334
536.518	1290
536.585	-42
536.652	2225
536.719	2980
536.786	1223
536.853	757
536.920	2580
536.987	2973
537.053	1283
537.120	10538
537.187	12577
537.254	877
537.321	495
537.388	1700
537.454	267
537.521	483
537.588	1239
537.654	2110
537.721	3531
537.788	2725
537.855	1966
537.921	1495
537.988	818
538.055	2252
538.121	1222
538.188	1961
538.254	1750
538.321	3617
538.388	2181
538.454	867
538.521	1267
538.587	717
538.654	763
538.720	911
538.787	1106
538.853	1122
538.920	1349
538.986	739
539.053	1218
539.119	686
539.185	1315
539.252	2145
539.318	2689
539.385	2601
539.451	2274
539.517	4055
539.583	3300
539.650	2002
539.716	9395
539.782	3604
539.849	1193
539.915	2108
539.981	465
540.047	2163
540.114	1251
540.180	1665
540.246	558
540.312	1820
540.378	3741
540.444	5714
540.510	4315
540.576	9976
540.643	3739
540.709	-262
540.775	1122
540.841	939
540.907	2328
540.973	4015
541.039	4460
541.105	3247
541.171	2609
541.237	807
541.303	2602
541.369	4260
541.435	2516
541.500	4075
541.566	1546
541.632	1503
541.698	834
541.764	2140
541.830	847
541.896	629
541.961	1808
542.027	574
542.093	1700
542.159	1926
542.224	917
542.290	4139
542.356	4487
542.421	5150
542.487	3928
542.553	1986
542.618	2849
542.684	1426
542.750	2104
542.815	1536
542.881	1420
542.947	7030
543.012	7917
543.078	1820
543.143	1476
543.209	2933
543.274	687
543.340	2418
543.405	3677
543.471	6510
543.536	2854
543.602	2437
543.667	640
543.732	3188
543.798	1184
543.863	2334
543.928	1014
543.994	1358
544.059	2034
544.124	2143
544.190	1845
544.255	2194
544.320	2813
544.386	1189
544.451	2966
544.516	3019
544.581	1673
544.646	5703
544.712	11152
544.777	3903
544.842	1791
544.907	1440
544.972	1645
545.037	2333
545.102	3313
545.168	1695
545.233	2514
545.298	2885
545.363	1875
545.428	2717
545.493	6069
545.558	6398
545.623	5280
545.688	1209
545.753	2633
545.818	2261
545.883	2917
545.947	2429
546.012	2549
546.077	2340
546.142	4292
546.207	2963
546.272	3417
546.337	3559
546.401	3853
546.466	4663
546.531	2368
546.596	3711
546.661	4026
546.725	3779
546.790	2473
546.855	3448
546.919	2371
546.984	5006
547.049	3520
547.113	4423
547.178	4754
547.243	6908
547.307	7189
547.372	8313
547.436	7113
547.501	8264
547.565	8582
547.630	8309
547.695	8574
547.759	7696
547.823	7545
547.888	8393
547.952	8910
548.017	8957
548.081	13224
548.146	11510
548.210	9191
548.274	9115
548.339	9205
548.403	8754
548.468	7191
548.532	6557
548.596	8799
548.660	8715
548.725	9529
548.789	8468
548.853	9678
548.917	9036
548.982	8586
549.046	7993
549.110	6713
549.174	6929
549.238	7881
549.303	7890
549.367	10271
549.431	8907
549.495	8720
549.559	7911
549.623	9589
549.687	10376
549.751	11592
549.815	11454
549.879	13745
549.943	11481
550.007	12824
550.071	12537
550.135	11707
550.199	10050
550.263	10878
550.327	11478
550.391	11541
550.455	12996
550.519	12068
550.582	12524
550.646	14581
550.710	15924
550.774	14601
550.838	14851
550.901	14911
550.965	16839
551.029	17075
551.093	19569
551.156	21654
551.220	25790
551.284	31602
551.347	23298
551.411	16835
551.475	15903
551.538	16275
551.602	14573
551.666	13240
551.729	11742
551.793	12680
551.856	12241
551.920	12059
551.983	12280
552.047	11472
552.110	11713
552.174	13478
552.237	12437
552.301	11576
552.364	11341
552.428	10633
552.491	10517
552.554	11652
552.618	11224
552.681	11168
552.745	9567
552.808	11642
552.871	13368
552.934	12368
552.998	11563
553.061	10430
553.124	10994
553.187	11202
553.251	11608
553.314	12878
553.377	12849
553.440	17416
553.503	41701
553.567	84077
553.630	23674
553.693	12796
553.756	12224
553.819	10661
553.882	10004
553.945	10460
554.008	10788
554.071	10952
554.134	10440
554.197	8681
554.260	10367
554.323	10494
554.386	10606
554.449	9661
554.512	10849
554.575	9138
554.638	10623
554.701	9705
554.764	9248
554.827	9153
554.889	8712
554.952	6939
555.015	7635
555.078	8114
555.141	7824
555.203	8096
555.266	8269
555.329	7067
555.391	8108
555.454	7685
555.517	7197
555.580	7252
555.642	6374
555.705	6477
555.768	6950
555.830	7423
555.893	5806
555.955	5941
556.018	6153
556.080	5565
556.143	5459
556.206	6399
556.268	6018
556.330	6092
556.393	6143
556.455	5625
556.518	5354
556.580	4866
556.643	5196
556.705	4790
556.767	2787
556.830	4815
556.892	4453
556.955	5951
557.017	5286
557.079	3881
557.142	4537
557.204	3804
557.266	6838
557.328	5330
557.391	4123
557.453	3204
557.515	4257
557.577	4321
557.639	4622
557.701	3870
557.764	3513
557.826	4858
557.888	5841
557.950	5456
558.012	6500
558.074	8771
558.136	21194
558.198	72126
558.260	32042
558.322	8529
558.384	9090
558.446	9669
558.508	13417
558.570	16505
558.632	20826
558.694	27950
558.756	42086
558.818	133861
558.880	433642
558.942	165613
559.003	79331
559.065	48576
559.127	14847
559.189	14449
559.251	15922
559.312	22184
559.374	56283
559.436	235539
559.498	153101
559.559	19561
559.621	14328
559.683	14406
559.744	23593
559.806	86304
559.868	179107
559.929	37544
559.991	12706
560.052	17922
560.114	63318
560.176	50096
560.237	31699
560.299	68048
560.360	16377
560.422	3991
560.483	2871
560.545	2117
560.606	1409
560.667	1110
560.729	1993
560.790	1602
560.852	2020
560.913	1327
560.974	1696
561.036	408
561.097	1947
561.158	2007
561.220	1782
561.281	1316
561.342	1525
561.403	2108
561.465	1289
561.526	4337
561.587	7360
561.648	2261
561.709	1366
561.771	1519
561.832	1080
561.893	1443
561.954	1025
562.015	956
562.076	1111
562.137	1246
562.198	1121
562.259	1001
562.320	-279
562.381	1519
562.442	2199
562.503	1340
562.564	1225
562.625	1834
562.686	1319
562.747	1073
562.808	926
562.869	1207
562.930	1447
562.991	697
563.051	868
563.112	762
563.173	320
563.234	1078
563.294	695
563.355	419
563.416	1051
563.477	1266
563.537	258
563.598	1415
563.659	864
563.720	1033
563.780	797
563.841	1574
563.901	1047
563.962	862
564.023	1280
564.083	1011
564.144	965
564.204	1493
564.265	1129
564.325	398
564.386	1698
564.446	1408
564.507	1748
564.567	1137
564.628	1024
564.688	988
564.749	616
564.809	1420
564.869	1154
564.930	797
564.990	2163
565.050	734
565.111	1611
565.171	2065
565.231	1673
565.292	2204
565.352	1457
565.412	1997
565.472	1204
565.532	2676
565.593	1495
565.653	2348
565.713	2632
565.773	2614
565.833	2021
565.893	3972
565.953	2513
566.013	3315
566.074	3778
566.134	4345
566.194	3463
566.254	4350
566.314	5008
566.374	4161
566.434	5385
566.494	5297
566.554	5270
566.614	7158
566.673	7061
566.733	8369
566.793	8947
566.853	8982
566.913	9189
566.973	10965
567.033	9381
567.092	8016
567.152	8950
567.212	10337
567.272	10860
567.331	10817
567.391	12247
567.451	14033
567.511	13927
567.570	15109
567.630	12210
567.690	11577
567.749	12272
567.809	14424
567.868	17116
567.928	18888
567.988	23135
568.047	30120
568.107	39256
568.166	57254
568.226	96149
568.285	146647
568.345	131482
568.404	102564
568.464	83398
568.523	74163
568.582	72153
568.642	80008
568.701	100027
568.761	149836
568.820	246633
568.879	259363
568.939	191104
568.998	136747
569.057	99848
569.116	76925
569.176	60428
569.235	47473
569.294	38536
569.353	31873
569.413	26483
569.472	23712
569.531	19068
569.590	16582
569.649	15623
569.708	13810
569.767	13260
569.827	10534
569.886	9354
569.945	8435
570.004	8129
570.063	7740
570.122	6228
570.181	6745
570.240	5705
570.299	5063
570.358	5116
570.417	4414
570.475	4664
570.534	5270
570.593	3908
570.652	4708
570.711	2985
570.770	3747
570.829	4192
570.887	5002
570.946	3454
571.005	2577
571.064	3103
571.122	2822
571.181	1533
571.240	3042
571.299	2496
571.357	2311
571.416	2196
571.475	1899
571.533	1988
571.592	2330
571.650	2002
571.709	1034
571.768	2514
571.826	1811
571.885	2061
571.943	1595
572.002	1398
572.060	314
572.119	1817
572.177	1916
572.236	1834
572.294	678
572.352	2714
572.411	1067
572.469	2013
572.528	1104
572.586	1363
572.644	1851
572.703	2007
572.761	1226
572.819	168
572.877	893
572.936	948
572.994	1727
573.052	1083
573.110	212
573.169	2334
573.227	1140
573.285	1834
573.343	888
573.401	1539
573.459	2075
573.517	543
573.576	1112
573.634	1053
573.692	536
573.750	1894
573.808	831
573.866	363
573.924	1747
573.982	262
574.040	990
574.098	564
574.155	695
574.213	1923
574.271	1240
574.329	1233
574.387	871
574.445	814
574.503	256
574.560	581
574.618	261
574.676	756
574.734	826
574.792	900
574.849	1840
574.907	795
574.965	1322
575.022	-95
575.080	-225
575.138	832
575.195	638
575.253	44
575.311	442
575.368	1024
575.426	586
575.483	1902
575.541	507
575.598	491
575.656	671
575.713	1401
575.771	1622
575.828	689
575.886	540
575.943	1587
576.001	-4
576.058	118
576.115	201
576.173	504
576.230	345
576.287	280
576.345	1401
576.402	1209
576.459	642
576.517	484
576.574	1259
576.631	1827
576.688	547
576.746	1097
576.803	704
576.860	368
576.917	1694
576.974	1211
577.031	1152
577.089	631
577.146	864
577.203	894
577.260	1522
577.317	1177
577.374	697
577.431	319
577.488	818
577.545	22
577.602	2046
577.659	897
577.716	787
577.773	1822
577.830	1219
577.886	1016
577.943	-494
578.000	971
578.057	1222
578.114	1534
578.171	1180
578.227	2756
578.284	1827
578.341	1602
578.398	2128
578.454	2225
578.511	582
578.568	872
578.625	1256
578.681	1550
578.738	1288
578.794	1298
578.851	1612
578.908	1072
578.964	402
579.021	1303
579.077	281
579.134	1194
579.190	1633
579.247	1057
579.303	1537
579.360	1143
579.416	1244
579.473	243
579.529	1098
579.586	725
579.642	1635
579.698	1453
579.755	957
579.811	1289
579.867	2780
579.924	1597
579.980	1959
580.036	2431
580.093	2543
580.149	2397
580.205	4403
580.261	2584
580.317	2274
580.374	2359
580.430	1873
580.486	3005
580.542	1944
580.598	2257
580.619	2225
580.654	2168
580.692	1785
580.710	1596
580.765	884
580.767	857
580.823	2021
580.838	1990
580.879	1907
580.911	1726
580.935	1596
580.984	1728
580.991	1742
581.047	2324
581.057	2387
581.103	2680
581.130	2346
581.159	2004
581.203	2363
581.215	2447
581.270	2470
581.276	2444
581.326	2240
581.349	2166
581.382	2045
581.422	1997
581.438	1960
581.494	1458
581.494	1461
581.550	1505
581.567	1776
581.606	2364
581.640	2125
581.661	1967
581.713	3027
581.717	3112
581.773	2164
581.786	2070
581.829	1694
581.859	1761
581.885	1890
581.932	2327
581.940	2388
581.996	2190
582.004	2135
582.052	1863
582.077	2482
582.107	3180
582.150	2666
582.163	2509
582.219	3134
582.223	3130
582.274	3087
582.296	2810
582.330	2357
582.368	2127
582.386	2067
582.441	2368
582.441	2366
582.497	3215
582.514	3259
582.552	3605
582.587	4103
582.608	4309
582.659	3038
582.663	2931
582.719	3119
582.732	3309
582.774	4089
582.805	3460
582.830	2918
582.877	3160
582.885	3189
582.941	3549
582.950	3572
582.996	3642
583.023	3604
583.052	3713
583.095	3668
583.107	3630
583.162	4389
583.168	4460
583.218	4925
583.240	4661
583.273	4331
583.313	4453
583.328	4542
583.384	4170
583.385	4170
583.439	3673
583.458	3650
583.494	3874
583.531	4239
583.549	4489
583.603	4559
583.605	4550
583.660	4335
583.676	4480
583.715	4962
583.748	4851
583.770	4793
583.820	4413
583.825	4368
583.881	4631
583.893	4692
583.936	4902
583.965	5111
583.991	5343
584.038	5571
584.046	5622
584.101	5214
584.110	5260
584.156	5364
584.183	5531
584.211	5808
584.255	6077
584.266	6125
584.321	5618
584.328	5660
584.376	6255
584.400	6685
584.431	6993
584.472	6598
584.486	6578
584.541	6735
584.545	6756
584.596	6872
584.617	6861
584.651	7159
584.689	7807
584.706	7945
584.761	8097
584.762	8085
584.816	7649
584.834	7961
584.871	8379
584.906	8379
584.926	8519
584.978	9143
584.980	9168
585.035	9986
585.051	9867
585.090	9674
585.123	10492
585.145	11135
585.195	11410
585.200	11485
585.254	13342
585.267	13859
585.309	15837
585.340	17379
585.364	18091
585.412	17460
585.419	17447
585.473	18746
585.484	19013
585.528	21484
585.556	24111
585.583	30906
585.628	46349
585.637	53006
585.692	105411
585.700	115272
585.747	151206
585.772	139691
585.801	95350
585.845	37919
585.856	31834
585.910	20414
585.917	19275
585.965	17695
585.989	17459
586.019	17458
586.061	16937
586.074	16934
586.128	17074
586.133	17085
586.183	17111
586.205	16985
586.237	17087
586.277	17476
586.292	17633
586.346	17867
586.349	17872
586.401	18854
586.421	19242
586.455	20031
586.493	20615
586.509	20828
586.564	21664
586.565	21648
586.618	22661
586.637	23133
586.672	24073
586.709	24672
586.727	25159
586.781	26902
586.781	26945
586.835	26591
586.853	26458
586.889	27087
586.925	27827
586.944	28353
586.996	30068
586.998	30153
587.052	30462
587.068	30743
587.106	32062
587.140	33057
587.161	33749
587.212	35504
587.215	35674
587.269	38101
587.284	38713
587.323	40511
587.356	41851
587.377	43121
587.427	46043
587.431	46367
587.485	49606
587.499	50447
587.539	52973
587.571	55014
587.593	56766
587.643	60536
587.648	61149
587.702	66647
587.715	67967
587.755	72181
587.786	75662
587.810	79176
587.858	85412
587.864	86544
587.917	97034
587.930	99346
587.971	107875
588.001	114142
588.025	120588
588.073	133562
588.079	135908
588.133	155170
588.145	159412
588.187	177734
588.217	190767
588.241	204698
588.288	232075
588.295	236954
588.348	278048
588.360	286370
588.402	327888
588.431	357678
588.456	389336
588.503	451273
588.510	463657
588.564	561802
588.575	582975
588.617	703805
588.646	789947
588.671	905797
588.718	1135877
588.725	1194124
588.778	1658569
588.789	1755908
588.832	2235780
588.861	2561148
588.886	2624685
588.932	2636159
588.939	2612131
588.993	2269028
589.004	2235213
589.047	2584390
589.075	2738746
589.100	2487240
589.147	1928435
589.154	1867886
589.207	1407490
589.218	1316576
589.261	1198107
589.290	1128412
589.314	1164339
589.361	1246352
589.368	1292980
589.421	1686703
589.433	1773829
589.475	2222371
589.504	2530096
589.528	2537486
589.576	2409786
589.582	2413232
589.635	2455064
589.647	2439412
589.689	1920650
589.718	1527824
589.742	1284716
589.790	825690
589.795	801665
589.849	581432
589.861	531510
589.902	442758
589.932	378016
589.955	349289
590.004	290394
590.009	286944
590.062	243584
590.075	232822
590.115	211159
590.146	193630
590.168	184488
590.218	163550
590.222	162596
590.275	145539
590.289	140762
590.328	132569
590.360	125640
590.381	122177
590.431	112931
590.435	112679
590.488	103472
590.503	100666
590.541	95515
590.574	90858
590.594	88801
590.645	82474
590.647	82489
590.700	77053
590.716	75214
590.753	73082
590.787	70811
590.806	69692
590.859	65810
590.859	65941
590.912	62227
590.930	60917
590.965	59874
591.001	58338
591.018	57600
591.071	55027
591.072	54835
591.124	52904
591.143	52013
591.177	51029
591.214	49641
591.230	49208
591.283	47296
591.285	47066
591.336	45244
591.356	44389
591.389	44029
591.427	43303
591.442	43165
591.495	41986
591.498	41767
591.547	40081
591.569	39164
591.600	38860
591.640	37976
591.653	37732
591.706	36403
591.711	36130
591.759	35891
591.782	35634
591.811	35418
591.853	34676
591.864	34617
591.917	33843
591.924	33613
591.969	33268
591.995	32888
592.022	32449
592.066	31439
592.075	31488
592.127	31156
592.137	30984
592.180	30524
592.208	30066
592.233	30138
592.279	29996
592.285	30058
592.338	29704
592.350	29522
592.390	28689
592.421	27902
592.443	28285
592.491	28781
592.495	28823
592.548	27977
592.562	27641
592.600	27496
592.633	27207
592.653	27043
592.704	26231
592.705	26388
592.775	26675
592.846	25850
592.916	25301
592.987	24990
593.058	24290
593.128	24046
593.199	24647
593.270	23278
593.341	22968
593.411	23354
593.482	22759
593.553	23427
593.623	22875
593.694	22012
593.764	22670
593.835	23139
593.906	21213
593.976	21577
594.047	21534
594.117	22094
594.188	21287
594.258	21502
594.329	20627
594.399	20759
594.470	21815
594.540	21753
594.611	20864
594.681	21213
594.751	21329
594.822	24394
594.892	24392
594.963	22979
595.033	21221
595.103	22497
595.174	22023
595.244	22905
595.314	21915
595.384	20870
595.455	21201
595.525	22845
595.595	22797
595.665	22857
595.736	22480
595.806	22210
595.876	22531
595.946	22686
596.016	23305
596.087	23024
596.157	22093
596.227	22994
596.297	23560
596.367	24950
596.437	25433
596.507	26754
596.577	25197
596.647	25831
596.717	27128
596.787	27106
596.857	26156
596.927	26989
596.997	27474
597.067	27624
597.137	28655
597.207	28576
597.277	27333
597.347	26403
597.417	25476
597.487	25668
597.557	26129
597.626	26917
597.696	26023
597.766	26649
597.836	24946
597.906	24283
597.975	24273
598.045	23450
598.115	24749
598.185	25926
598.254	28182
598.324	30457
598.394	30777
598.464	29249
598.533	29512
598.603	27952
598.672	26548
598.742	27792
598.812	27903
598.881	28102
598.951	28078
599.020	28743
599.090	29664
599.159	29209
599.229	28135
599.299	28324
599.368	27963
599.437	28042
599.507	26310
599.576	26008
599.646	25802
599.715	26607
599.785	24410
599.854	23544
599.924	22127
599.993	23457
600.062	23979
600.132	24417
600.201	25219
600.270	28880
600.340	29791
600.409	30142
600.478	29314
600.547	30372
600.617	26998
600.686	22569
600.755	20498
600.824	19462
600.894	19366
600.963	19169
601.032	18720
601.101	18093
601.170	17128
601.239	16523
601.308	17080
601.378	17436
601.447	17094
601.516	16989
601.585	17733
601.654	17536
601.723	17562
601.792	18183
601.861	18348
601.930	20509
601.999	20246
602.068	18225
602.137	18804
602.206	19699
602.275	19782
602.343	19902
602.412	19619
602.481	19789
602.550	19724
602.619	21513
602.688	19689
602.756	20181
602.825	20555
602.894	20870
602.963	21991
603.032	21753
603.100	21875
603.169	22448
603.238	20707
603.307	22386
603.375	22456
603.444	22351
603.513	22093
603.581	23747
603.650	24473
603.719	22703
603.787	23469
603.856	24776
603.924	24448
603.993	25761
604.061	27218
604.130	28218
604.198	27976
604.267	28523
604.335	29646
604.404	29911
604.472	29094
604.541	30838
604.609	30723
604.678	30615
604.746	30102
604.815	31403
604.883	31774
604.951	31650
605.020	31783
605.088	33213
605.156	33850
605.225	34632
605.293	34196
605.361	34623
605.429	34173
605.498	35774
605.566	35424
605.634	37756
605.702	39635
605.771	39769
605.839	40780
605.907	39521
605.975	38139
606.043	37958
606.111	37568
606.180	38633
606.248	37986
606.316	38976
606.384	36621
606.452	37722
606.520	38088
606.588	38843
606.656	39384
606.724	38617
606.792	37251
606.860	32663
606.928	29409
606.996	29090
607.064	28185
607.132	28677
607.200	31273
607.267	31717
607.335	32048
607.403	32706
607.471	32472
607.539	30020
607.607	31131
607.674	27244
607.742	27534
607.810	28022
607.878	27758
607.946	27498
608.013	28810
608.081	29918
608.149	29718
608.216	30513
608.284	32506
608.352	32135
608.419	29964
608.487	31901
608.555	29500
608.622	32060
608.690	32807
608.757	36998
608.825	38555
608.893	36605
608.960	34849
609.028	32742
609.095	32587
609.163	33138
609.230	29478
609.298	26293
609.365	27952
609.432	29664
609.500	33726
609.567	38174
609.635	43892
609.702	46735
609.769	43740
609.837	34461
609.904	30769
609.971	32081
610.039	37537
610.106	56234
610.173	115668
610.241	289786
610.308	157259
610.375	45086
610.442	33499
610.509	31407
610.577	31158
610.644	31039
610.711	31672
610.778	33316
610.845	33360
610.912	38344
610.980	39711
611.047	41930
611.114	39222
611.181	34825
611.248	34674
611.315	38079
611.382	39126
611.449	40345
611.516	41678
611.583	40261
611.650	40385
611.717	42289
611.784	42999
611.851	47666
611.918	52311
611.984	68916
612.051	111626
612.118	263206
612.185	702091
612.252	430996
612.319	83701
612.386	59054
612.452	51763
612.519	48030
612.586	45838
612.653	47718
612.719	48528
612.786	46895
612.853	41957
612.919	40265
612.986	43011
613.053	39477
613.120	35470
613.186	34737
613.253	37368
613.319	34959
613.386	35530
613.453	36479
613.519	36662
613.586	36723
613.652	38405
613.719	36596
613.785	38771
613.852	37619
613.918	37903
613.985	41503
614.051	49368
614.118	71891
614.184	67208
614.250	40075
614.317	39049
614.383	36253
614.449	38426
614.516	37732
614.582	38389
614.648	36846
614.715	37019
614.781	36223
614.847	36261
614.914	35827
614.980	34945
615.046	37165
615.112	39058
615.179	40606
615.245	45980
615.311	60250
615.377	98885
615.443	111182
615.509	62919
615.575	49436
615.642	46361
615.708	47061
615.774	50136
615.840	60057
615.906	80951
615.972	133819
616.038	273210
616.104	470684
616.170	949931
616.236	792746
616.302	148339
616.368	90304
616.434	61278
616.500	54442
616.565	59035
616.631	76629
616.697	59859
616.763	62432
616.829	97465
616.895	184046
616.961	177173
617.026	70835
617.092	43215
617.158	40676
617.224	38308
617.289	35122
617.355	32584
617.421	32659
617.487	32399
617.552	29509
617.618	28822
617.684	28600
617.749	31727
617.815	28721
617.880	26762
617.946	26733
618.012	26543
618.077	28479
618.143	27215
618.208	27273
618.274	29516
618.339	29779
618.405	23287
618.470	25026
618.536	24513
618.601	23445
618.667	21493
618.732	20207
618.798	19670
618.863	19717
618.928	19699
618.994	21549
619.059	21295
619.124	21469
619.190	20732
619.255	18643
619.320	18476
619.386	20054
619.451	19606
619.516	18079
619.581	19134
619.647	19782
619.712	20209
619.777	19086
619.842	19042
619.907	19032
619.972	19180
620.038	19680
620.103	19609
620.168	18566
620.233	19397
620.298	18692
620.363	19010
620.428	19717
620.493	20128
620.558	20156
620.623	21265
620.688	21218
620.753	20839
620.818	21322
620.883	20541
620.948	20739
621.013	20586
621.078	20338
621.143	19316
621.207	22520
621.272	20042
621.337	20281
621.402	19262
621.467	19226
621.532	19189
621.596	20164
621.661	18565
621.726	18327
621.791	18682
621.855	19238
621.920	19088
621.985	18760
622.049	18570
622.114	19308
622.179	19917
622.243	19255
622.308	20243
622.373	23862
622.437	21158
622.502	19103
622.566	18613
622.631	18654
622.695	20890
622.760	19995
622.824	19802
622.889	20406
622.953	19842
623.018	23588
623.082	21971
623.147	20794
623.211	21060
623.276	20625
623.340	18891
623.404	18872
623.469	18508
623.533	19466
623.597	17839
623.662	19275
623.726	17263
623.790	16341
623.854	14591
623.919	17126
623.983	16381
624.047	16520
624.111	16667
624.176	17150
624.240	16488
624.304	18422
624.368	17007
624.432	17510
624.496	18659
624.560	20114
624.625	19926
624.689	19414
624.753	18597
624.817	19496
624.881	17805
624.945	17167
625.009	15973
625.073	16633
625.137	15881
625.201	17872
625.265	18582
625.329	16873
625.393	17492
625.456	17307
625.520	17943
625.584	18267
625.648	17636
625.712	18985
625.776	17981
625.839	18528
625.903	14345
625.967	13029
626.031	15588
626.095	18495
626.158	17359
626.222	11714
626.286	13217
626.349	11472
626.413	10023
626.477	12240
626.540	10796
626.604	9807
626.668	10991
626.731	10480
626.795	10356
626.858	11009
626.922	9450
626.986	10967
627.049	8523
627.113	12214
627.176	10534
627.240	10816
627.303	9554
627.366	9666
627.430	10358
627.493	10490
627.557	9294
627.620	11810
627.684	10340
627.747	11797
627.810	8643
627.874	9173
627.937	6836
628.000	10778
628.064	8887
628.127	6736
628.190	8263
628.253	8452
628.317	6938
628.380	7001
628.443	6476
628.506	6590
628.569	6787
628.632	5725
628.696	7242
628.759	6302
628.822	5110
628.885	6282
628.948	6132
629.011	6124
629.074	5272
629.137	5461
629.200	4179
629.263	6791
629.326	4351
629.389	5303
629.452	5938
629.515	6000
629.578	5043
629.641	6213
629.704	5040
629.767	4840
629.830	4884
629.892	5358
629.955	5140
630.018	6709
630.081	3982
630.144	6251
630.207	3419
630.269	6900
630.332	4382
630.395	5144
630.458	4382
630.520	3907
630.583	5057
630.646	5059
630.708	4750
630.771	3952
630.834	6499
630.896	5439
630.959	5190
631.021	4685
631.084	4654
631.146	5003
631.209	5305
631.272	4864
631.334	5012
631.397	5229
631.459	5432
631.522	6037
631.584	6480
631.646	7862
631.709	7539
631.771	7289
631.834	7022
631.896	7171
631.958	4725
632.021	6795
632.083	4981
632.145	5297
632.208	4574
632.270	5905
632.332	4366
632.395	4648
632.457	5205
632.519	3973
632.581	5398
632.643	4088
632.706	4945
632.768	4104
632.830	4890
632.892	4497
632.954	4581
633.016	5066
633.078	3838
633.141	5211
633.203	4354
633.265	4978
633.327	5628
633.389	4441
633.451	5740
633.513	4780
633.575	5193
633.637	5450
633.698	5059
633.760	5458
633.822	5918
633.884	6853
633.946	6470
634.008	6681
634.070	7182
634.132	8802
634.193	8694
634.255	9060
634.317	8423
634.379	10026
634.441	8391
634.502	7582
634.564	8450
634.626	9686
634.687	10655
634.749	7177
634.811	5430
634.873	4636
634.934	5052
634.996	6328
635.057	3949
635.119	4225
635.181	5098
635.242	6144
635.304	3886
635.365	7209
635.427	4337
635.488	4732
635.550	4097
635.611	5722
635.673	3769
635.734	6256
635.796	5839
635.857	8483
635.918	6294
635.980	9219
636.041	8413
636.102	10091
636.164	10214
636.225	10973
636.286	6917
636.348	7376
636.409	5997
636.470	5213
636.531	5924
636.593	4475
636.654	4875
636.715	4895
636.776	3757
636.838	4378
636.899	5666
636.960	4493
637.021	5399
637.082	6371
637.143	5353
637.204	3384
637.265	2680
637.326	4104
637.387	4294
637.448	2981
637.509	4417
637.570	3190
637.631	4748
637.692	3094
637.753	2882
637.814	3846
637.875	3370
637.936	4286
637.997	2940
638.058	3925
638.119	3404
638.179	3495
638.240	2389
638.301	3892
638.362	2361
638.423	3217
638.483	4284
638.544	2231
638.605	3125
638.666	2961
638.726	3134
638.787	4467
638.848	2895
638.908	3426
638.969	3399
639.030	3349
639.090	1820
639.151	2092
639.211	3682
639.272	3342
639.332	3632
639.393	3617
639.453	2804
639.514	3953
639.574	3098
639.635	2234
639.695	3250
639.756	1968
639.816	2834
639.877	3116
639.937	4022
639.997	4997
640.058	2035
640.118	2356
640.178	3498
640.239	2390
640.299	2538
640.359	2868
640.420	2732
640.480	4299
640.540	4309
640.600	5218
640.661	4682
640.721	4619
640.781	9366
640.841	9915
640.901	4243
640.961	4148
641.021	2995
641.082	2744
641.142	3806
641.202	4108
641.262	902
641.322	3533
641.382	1559
641.442	3014
641.502	2207
641.562	3021
641.622	1530
641.682	3302
641.742	3356
641.802	2905
641.861	3295
641.921	2570
641.981	3609
642.041	3752
642.101	2040
642.161	979
642.221	1724
642.280	2490
642.340	1966
642.400	1977
642.460	3464
642.519	2921
642.579	2026
642.639	3861
642.698	-53
642.758	4908
642.818	3116
642.877	2438
642.937	2698
642.997	3055
643.056	3361
643.116	1769
643.175	3993
643.235	3678
643.294	3512
643.354	4751
643.414	4618
643.473	6968
643.532	9494
643.592	15014
643.651	28231
643.711	55221
643.770	114164
643.830	284421
643.889	628457
643.948	138911
644.008	19290
644.067	9802
644.126	6857
644.186	6589
644.245	4828
644.304	2665
644.363	5299
644.423	3137
644.482	3324
644.541	4133
644.600	2419
644.659	6508
644.719	7060
644.778	12506
644.837	22005
644.896	49254
644.955	120289
645.014	37625
645.073	7652
645.132	4638
645.191	4672
645.250	3585
645.309	5491
645.368	4641
645.427	7350
645.486	11097
645.545	21272
645.604	5798
645.663	4116
645.722	3755
645.781	5345
645.840	6290
645.898	9068
645.957	15572
646.016	23323
646.075	47749
646.134	100955
646.192	277450
646.251	422319
646.310	55482
646.369	11700
646.427	9713
646.486	6121
646.545	4961
646.603	4693
646.662	4195
646.721	3845
646.779	2556
646.838	2687
646.896	5442
646.955	7463
647.014	12737
647.072	24763
647.131	74624
647.189	33895
647.248	3721
647.306	3899
647.365	2941
647.423	1361
647.481	3157
647.540	1194
647.598	2167
647.657	1514
647.715	2870
647.773	1189
647.832	2739
647.890	1086
647.948	1714
648.007	1770
648.065	455
648.123	1534
648.181	2803
648.240	2929
648.298	1862
648.356	1487
648.414	2627
648.472	1650
648.531	2158
648.589	1563
648.647	956
648.705	1452
648.763	1748
648.821	2393
648.879	1848
648.937	2247
648.995	4194
649.053	6342
649.111	10461
649.169	18264
649.227	35223
649.285	75037
649.343	227633
649.401	104494
649.459	13673
649.516	9800
649.574	7096
649.632	17658
649.690	21412
649.748	9132
649.806	10647
649.863	21974
649.921	50046
649.979	33238
650.037	4249
650.094	1341
650.152	2494
650.210	1937
650.268	4263
650.325	3362
650.383	6340
650.440	1474
650.498	1169
650.556	1552
650.613	1005
650.671	1415
650.728	1368
650.786	495
650.843	2136
650.901	541
650.958	828
651.016	852
651.073	447
651.131	172
651.188	-180
651.246	697
651.303	763
651.360	1347
651.418	748
651.475	1278
651.532	318
651.590	402
651.647	245
651.704	433
651.762	423
651.819	1172
651.876	727
651.933	-502
651.990	1560
652.048	-70
652.105	475
652.162	1067
652.219	327
652.276	706
652.333	1120
652.390	-490
652.448	800
652.505	-194
652.562	701
652.619	1235
652.676	2803
652.733	3479
652.790	1305
652.847	-222
652.904	1021
652.961	-547
653.017	-557
653.074	625
653.131	1598
653.188	-157
653.245	16
653.302	837
653.359	-73
653.415	117
653.472	739
653.529	111
653.586	-177
653.642	-191
653.699	1036
653.756	-452
653.813	-721
653.869	677
653.926	-781
653.983	-226
654.039	348
654.096	451
654.152	1480
654.209	-994
654.266	237
654.322	40
654.379	253
654.435	1034
654.492	-675
654.548	29
654.605	138
654.661	2375
654.717	1140
654.774	978
654.830	852
654.887	734
654.943	721
655.000	1913
655.056	1468
655.112	903
655.168	-615
655.225	165
655.281	1519
655.337	212
655.394	-146
655.450	880
655.506	442
655.562	132
655.618	1887
655.675	553
655.731	703
655.787	832
655.843	2164
655.899	1106
655.955	2493
656.011	1532
656.067	1555
656.123	2370
656.179	3451
656.235	3743
656.291	2410
656.347	3396
656.403	2684
656.459	1245
656.515	1814
656.571	2133
656.627	1283
656.683	1539
656.739	1442
656.795	906
656.850	759
656.906	189
656.962	1119
657.018	301
657.074	1197
657.129	1251
657.185	837
657.241	4466
657.297	2435
657.352	391
657.408	667
657.464	910
657.519	726
657.575	-487
657.630	-259
657.686	329
657.742	-372
657.797	-469
657.853	-86
657.908	933
657.964	-175
658.019	351
658.075	188
658.130	245
658.186	-373
658.241	532
658.297	-632
658.352	-544
658.407	964
658.463	-731
658.518	706
658.573	-28
658.629	-277
658.684	-209
658.739	-13
658.795	-706
658.850	379
658.905	-357
658.960	-573
659.016	-172
659.071	37
659.126	-145
659.181	48
659.236	719
659.291	1307
659.346	124
659.401	56
659.457	380
659.512	1579
659.567	1287
659.622	158
659.677	275
659.732	-880
659.787	280
659.842	1034
659.897	211
659.952	723
660.007	-79
660.061	584
660.116	-476
660.171	-835
660.226	-431
660.281	714
660.336	-796
660.391	304
660.445	-1054
660.500	458
660.555	-46
660.610	97
660.664	177
660.719	-471
660.774	249
660.828	518
660.883	-218
660.938	303
660.992	-1352
661.047	-211
661.101	-245
661.156	35
661.211	-673
661.265	-507
661.320	-197
661.374	-30
661.429	-55
661.483	500
661.538	-577
661.592	191
661.647	338
661.701	1930
661.755	338
661.810	17
661.864	-1141
661.919	-33
661.973	-546
662.027	-425
662.081	-691
662.136	236
662.190	-860
662.244	251
662.299	-208
662.353	-149
662.407	-812
662.461	-762
662.515	-608
662.569	201
662.624	272
662.678	-653
662.732	-159
662.786	-424
662.840	-882
662.894	51
662.948	-267
663.002	181
663.056	-845
663.110	-501
663.164	-267
663.218	-142
663.272	120
663.326	60
663.380	329
663.434	554
663.488	-644
663.542	-579
663.595	-177
663.649	-674
663.703	-133
663.757	-357
663.811	-878
663.864	-345
663.918	-516
663.972	-796
664.026	-601
664.079	-1354
664.133	-505
664.187	333
664.240	126
664.294	10
664.348	452
664.401	-359
664.455	-313
664.508	-65
664.562	-79
664.615	38
664.669	-822
664.722	22
664.776	-545
664.829	62
664.883	-388
664.936	-364
664.990	-196
665.043	22
665.097	-171
665.150	668
665.203	-1006
665.257	-760
665.310	33
665.363	-740
665.417	-764
665.470	-739
665.523	103
665.576	-285
665.630	-107
665.683	-239
665.736	-92
665.789	-223
665.842	-1259
665.895	827
665.949	-581
666.002	6
666.055	-74
666.108	107
666.161	-232
666.214	862
666.267	-383
666.320	-486
666.373	-280
666.426	39
666.479	-527
666.532	-494
666.585	-1010
666.638	-310
666.691	-599
666.744	-365
666.796	-436
666.849	-68
666.902	-815
666.955	-860
667.008	-460
667.060	-171
667.113	-678
667.166	-205
667.219	349
667.271	-338
667.324	-654
667.377	-380
667.430	-528
667.482	574
667.535	48
667.587	694
667.640	-575
667.693	86
667.745	-513
667.798	439
667.850	-391
667.903	333
667.955	-710
668.008	-837
668.060	-906
668.113	-1082
668.165	-1276
668.218	-238
668.270	82
668.322	-461
668.375	-874
668.427	262
668.479	-471
668.532	-811
668.584	-1026
668.636	-412
668.689	56
668.741	-744
668.793	-823
668.845	156
668.898	-403
668.950	-302
669.002	-161
669.054	-246
669.106	-1221
669.158	290
669.211	-649
669.263	144
669.315	247
669.367	1236
669.419	660
669.471	1781
669.523	2402
669.575	4912
669.627	2582
669.679	931
669.731	380
669.783	1285
669.835	2477
669.886	1030
669.938	761
669.990	242
670.042	-957
670.094	881
670.146	-745
670.197	343
670.249	401
670.301	-439
670.353	-129
670.404	1223
670.456	1575
670.508	2053
670.560	4834
670.611	8364
670.663	14900
670.715	39842
670.766	65597
670.818	17497
670.869	1482
670.921	851
670.972	668
671.024	-102
671.075	-224
671.127	525
671.178	-613
671.230	158
671.281	539
671.333	-614
671.384	-18
671.436	806
671.487	1596
671.538	2450
671.590	3206
671.641	7044
671.692	14389
671.744	28281
671.795	19305
671.846	5866
671.897	1751
671.949	675
672.000	-424
672.051	668
672.102	939
672.153	206
672.204	-157
672.256	47
672.307	-315
672.358	-234
672.409	-638
672.460	-439
672.511	-672
672.562	-577
672.613	-1048
672.664	-496
672.715	-566
672.766	-646
672.817	-359
672.868	141
672.919	-719
672.970	-559
673.021	-1196
673.071	-1042
673.122	-868
673.173	-1049
673.224	-352
673.275	-892
673.326	-367
673.376	-632
673.427	-7
673.478	-1157
673.528	-239
673.579	-108
673.630	-1028
673.680	21
673.731	-1661
673.782	-224
673.832	-677
673.883	-1118
673.934	-1597
673.984	-631
674.035	-1083
674.085	-410
674.136	-899
674.186	-989
674.237	-1285
674.287	-1191
674.338	-844
674.388	-574
674.438	-830
674.489	304
674.539	-363
674.589	-1056
674.640	-763
674.690	-427
674.740	-1485
674.791	-536
674.841	-797
674.891	-802
674.942	-1134
674.992	-1583
675.042	-1223
675.092	-1198
675.142	-719
675.193	-899
675.243	-1518
675.293	-524
675.343	-1237
675.393	-1662
675.443	-699
675.493	-395
675.543	-1027
675.593	-964
675.643	-549
675.693	2
675.743	-701
675.793	-784
675.843	-1157
675.893	-473
675.943	-550
675.993	-1445
676.043	-632
676.093	-512
676.142	-1417
676.192	-962
676.242	-1416
676.292	-1464
676.341	-1424
676.391	-1395
676.441	-1404
676.491	-726
676.540	-1731
676.590	-808
676.640	-717
676.689	-1001
676.739	-1638
676.789	-655
676.838	-981
676.888	-1367
676.937	-891
676.987	-492
677.037	-1530
677.086	-1414
677.136	-1037
677.185	-962
677.235	-1594
677.284	-1014
677.333	-1104
677.383	-1687
677.432	-2032
677.482	-551
677.531	-840
677.580	-1580
677.630	-1110
677.679	-1120
677.728	-1523
677.778	-708
677.827	-1442
677.876	-1236
677.925	-1496
677.975	-745
678.024	-1172
678.073	-1237
678.122	-1121
678.171	-883
678.220	-649
678.269	-920
678.319	-720
678.368	-757
678.417	-1202
678.466	-327
678.515	-548
678.564	-1217
678.613	-1547
678.662	-1542
678.711	-1783
678.760	-694
678.809	-1245
678.857	-1488
678.906	-1290
678.955	-1551
679.004	-950
679.053	-351
679.102	-1776
679.151	-565
679.199	-2046
679.248	-1151
679.297	-1136
679.346	-1533
679.394	-1511
679.443	-850
679.492	-1156
679.540	-869
679.589	-2031
679.638	-811
679.686	-998
679.735	-1078
679.784	-1170
679.832	-1831
679.881	-1677
679.929	-1319
679.978	-1850
680.026	-1160
680.075	-1152
680.123	-1459
680.172	-2267
680.220	-943
680.268	-1381
680.317	-1697
680.365	-2121
680.414	-1187
680.462	-1362
680.510	-608
680.559	-1237
680.607	-1422
680.655	-1401
680.703	-817
680.752	-885
680.800	-829
680.848	-729
680.896	-1307
680.945	-1687
680.993	-1577
681.041	-1613
681.089	-725
681.137	-1373
681.185	-949
681.233	-1137
681.258	-977
681.281	-832
681.329	-1253
681.377	-1690
681.380	-1688
681.425	-1771
681.473	-1284
681.502	-1275
681.521	-1286
681.569	-859
681.617	-884
681.624	-1019
681.665	-1907
681.713	-996
681.745	-537
681.761	-331
681.809	-1472
681.857	-661
681.867	-936
681.904	-1900
681.952	-1060
681.989	-1301
682.000	-1382
682.048	-999
682.096	-2051
682.111	-1625
682.143	-738
682.191	-1903
682.233	-1328
682.239	-1251
682.286	-1018
682.334	-911
682.354	-935
682.382	-964
682.430	-742
682.476	-1093
682.477	-1105
682.525	-718
682.572	-1345
682.598	-1522
682.620	-1692
682.667	-1254
682.715	-618
682.720	-680
682.763	-1335
682.810	-813
682.841	-1388
682.857	-1673
682.905	-1225
682.952	-603
682.963	-697
683.000	-1133
683.047	-743
683.085	300
683.095	596
683.142	-665
683.190	-376
683.206	-654
683.237	-1225
683.284	-307
683.328	-1051
683.332	-1109
683.379	-754
683.426	-1154
683.449	-1140
683.473	-1133
683.521	-589
683.568	-1136
683.571	-1139
683.615	-1304
683.662	295
683.693	-676
683.709	-1229
683.757	-360
683.804	-398
683.814	-610
683.851	-1337
683.898	-504
683.936	-1113
683.945	-1246
683.992	-510
684.039	-734
684.057	-739
684.086	-818
684.133	-326
684.179	-964
684.180	-990
684.227	-706
684.274	-564
684.300	-569
684.321	-562
684.368	-840
684.415	-670
684.422	-715
684.462	-1033
684.509	-872
684.543	-718
684.556	-648
684.603	-452
684.649	-1193
684.665	-947
684.696	-473
684.743	-934
684.786	-307
684.790	-254
684.837	-938
684.883	-888
684.908	-541
684.930	-260
684.977	-21
685.023	-678
685.029	-669
685.070	-647
685.117	-283
685.150	-812
685.164	-995
685.210	-169
685.257	-184
685.272	44
685.303	469
685.350	-575
685.393	-1141
685.396	-1184
685.443	-703
685.490	-233
685.514	172
685.536	506
685.583	-211
685.629	63
685.636	-37
685.675	-701
685.722	147
685.757	-624
685.768	-853
685.815	-243
685.861	-363
685.878	-241
685.908	-52
685.954	-267
686.000	-189
686.000	-190
686.047	-691
686.093	-124
686.121	-201
686.139	-175
686.185	-234
686.232	-56
686.242	12
686.278	140
686.324	-253
686.363	-462
686.370	-493
686.416	27
686.463	380
686.484	-71
686.509	-569
686.555	-274
686.601	-496
686.606	-479
686.647	-419
686.693	-343
686.727	-266
686.739	-192
686.785	307
686.831	334
686.848	269
686.877	56
686.923	59
686.969	-18
686.969	-19
687.015	-68
687.061	66
687.090	73
687.107	70
687.153	-473
687.199	-27
687.211	13
687.245	182
687.291	23
687.332	59
687.336	57
687.382	711
687.428	37
687.453	92
687.474	157
687.520	342
687.565	500
687.574	582
687.611	965
687.657	982
687.695	811
687.702	827
687.748	2701
687.794	2376
687.816	2490
687.839	2134
687.885	1166
687.931	875
687.937	754
687.976	515
688.022	715
688.058	815
688.067	808
688.113	320
688.158	128
688.179	115
688.204	246
688.249	444
688.295	487
688.300	491
688.340	444
688.386	493
688.421	449
688.431	437
688.477	682
688.522	983
688.542	973
688.567	977
688.613	357
688.658	591
688.663	582
688.703	551
688.749	503
688.784	719
688.794	751
688.839	807
688.884	435
688.905	382
688.930	378
688.975	704
689.020	248
689.026	281
689.065	436
689.110	137
689.146	456
689.155	576
689.201	932
689.246	868
689.267	955
689.291	1013
689.336	618
689.381	738
689.388	744
689.426	718
689.471	657
689.509	448
689.516	423
689.561	598
689.606	396
689.630	547
689.651	734
689.696	795
689.741	1107
689.750	1059
689.785	652
689.830	921
689.871	148
689.875	100
689.920	655
689.965	910
689.992	995
690.010	989
690.054	156
690.099	408
690.112	491
690.144	814
690.189	979
690.233	273
690.233	273
690.278	618
690.323	819
690.354	774
690.367	714
690.412	647
690.457	789
690.474	741
690.501	700
690.546	837
690.590	985
690.595	959
690.635	1017
690.680	1382
690.716	1572
690.724	1575
690.769	1651
690.813	1634
690.836	1619
690.857	1825
690.902	2193
690.946	2792
690.957	2950
690.991	4121
691.035	5532
691.077	7295
691.080	7306
691.124	6172
691.168	5335
691.198	4864
691.213	4519
691.257	3260
691.301	2197
691.318	2010
691.346	2141
691.390	1592
691.434	1483
691.439	1427
691.478	1352
691.522	1658
691.559	1129
691.567	1024
691.611	1669
691.655	1352
691.680	1254
691.699	1107
691.743	1039
691.787	997
691.800	859
691.831	807
691.875	1355
691.919	1346
691.921	1343
691.964	1130
692.008	1272
692.041	990
692.052	938
692.096	965
692.139	1144
692.162	1187
692.183	1331
692.227	1084
692.271	1604
692.282	1673
692.315	1798
692.359	1341
692.402	1854
692.403	1865
692.447	1774
692.490	1848
692.523	1923
692.534	1924
692.578	1592
692.622	1495
692.643	1468
692.666	1439
692.709	1284
692.753	1327
692.763	1262
692.797	1242
692.840	1520
692.884	1619
692.884	1625
692.928	1330
692.971	1627
693.004	1580
693.015	1532
693.059	1540
693.102	1577
693.124	1515
693.146	1597
693.189	1855
693.233	1616
693.245	1752
693.276	2018
693.320	2003
693.363	2141
693.365	2131
693.407	2053
693.450	1853
693.485	1954
693.493	2098
693.537	2594
693.580	3278
693.605	3664
693.624	4146
693.667	4981
693.710	6220
693.725	6682
693.753	8798
693.797	11956
693.840	15403
693.845	15709
693.883	14236
693.926	12053
693.966	10373
693.970	10165
694.013	8053
694.056	5994
694.086	4304
694.099	3982
694.142	3317
694.185	2537
694.206	2236
694.229	2424
694.272	2598
694.315	2869
694.326	2861
694.358	2638
694.401	2732
694.444	2549
694.446	2544
694.487	2801
694.530	2547
694.566	2774
694.573	2774
694.616	2160
694.659	2146
694.686	1865
694.702	1859
694.745	2143
694.787	2191
694.806	2194
694.830	2080
694.873	2075
694.916	2035
694.926	1943
694.959	1800
695.002	1914
695.044	1864
695.046	1865
695.087	2169
695.130	2022
695.166	2255
695.172	2296
695.215	2425
695.258	2303
695.286	2278
695.301	2216
695.343	2186
695.386	1915
695.406	1859
695.428	2029
695.471	2220
695.514	2530
695.526	2576
695.556	2417
695.599	2362
695.641	2251
695.646	2210
695.684	2180
695.726	2175
695.766	2331
695.769	2329
695.811	1893
695.854	1733
695.886	1472
695.896	1607
695.938	2163
695.981	2721
696.005	3151
696.023	3073
696.065	2517
696.108	2168
696.125	1973
696.150	2169
696.192	2647
696.235	2872
696.245	2995
696.277	3021
696.319	2721
696.361	2734
696.365	2701
696.404	2958
696.446	3488
696.485	3656
696.488	3640
696.530	3529
696.572	3325
696.604	3114
696.614	3110
696.656	3181
696.698	3269
696.724	3271
696.740	3249
696.783	3070
696.825	2959
696.844	2925
696.867	2973
696.909	2894
696.951	2866
696.964	2882
696.992	2936
697.034	2872
697.076	2750
697.083	2747
697.118	3041
697.160	3287
697.202	3481
697.203	3476
697.244	3570
697.286	3671
697.323	3559
697.327	3564
697.369	3518
697.411	3650
697.442	3628
697.453	3626
697.494	3569
697.536	3611
697.562	3605
697.578	3605
697.620	3547
697.661	3406
697.682	3345
697.703	3274
697.744	3136
697.786	3086
697.801	2999
697.828	2941
697.869	2931
697.911	2890
697.921	2873
697.952	2983
697.994	3035
698.035	3185
698.040	3189
698.077	3190
698.118	3167
698.160	3074
698.160	3060
698.201	3228
698.243	3326
698.279	3437
698.284	3472
698.325	3647
698.367	3866
698.399	3982
698.408	3959
698.449	3801
698.491	3696
698.518	3575
698.532	3669
698.573	3923
698.614	4210
698.638	4339
698.656	4141
698.697	3675
698.738	3184
698.757	2953
698.779	3172
698.820	3543
698.862	3938
698.877	4066
698.903	4131
698.944	4223
698.985	4312
698.996	4325
699.026	4175
699.067	3946
699.116	3662
699.235	3765
699.354	3076
699.474	3885
699.593	4323
699.713	4656
699.832	4659
699.951	4109
700.070	4161
700.190	4487
700.309	4437
700.428	4009
700.547	3622
700.667	4379
700.786	4536
700.905	4127
701.024	3827
701.143	3408
701.262	3711
701.381	4387
701.500	3578
701.619	4151
701.738	3698
701.857	4269
701.976	3834
702.095	3402
702.214	3541
702.333	3527
702.452	3695
702.571	3249
702.690	3674
702.809	3905
702.928	4207
703.047	3991
703.165	3778
703.284	4029
703.403	3788
703.522	3564
703.640	3827
703.759	3225
703.878	3787
703.997	4269
704.115	3533
704.234	3183
704.353	3776
704.471	3592
704.590	3742
704.708	2863
704.827	3395
704.946	3312
705.064	3350
705.183	3511
705.301	2680
705.420	3687
705.538	3769
705.656	3692
705.775	4728
705.893	6159
706.012	8544
706.130	2861
706.249	4627
706.367	3606
706.485	3632
706.604	3259
706.722	2615
706.840	3809
706.958	8238
707.077	4272
707.195	3162
707.313	2832
707.431	3446
707.549	2459
707.668	3272
707.786	3903
707.904	3389
708.022	2428
708.140	2965
708.258	3191
708.376	3204
708.494	2541
708.612	3525
708.730	2232
708.848	2949
708.966	3005
709.084	3028
709.202	3237
709.320	3504
709.438	2682
709.556	3052
709.674	2230
709.791	2438
709.909	2429
710.027	2983
710.145	2088
710.263	3395
710.380	2678
710.498	2025
710.616	3107
710.733	2431
710.851	2373
710.969	4115
711.086	2065
711.204	3327
711.322	2117
711.439	3625
711.557	2927
711.674	2501
711.792	2619
711.909	3934
712.027	3031
712.144	2850
712.262	2517
712.379	3535
712.497	2358
712.614	2660
712.732	2959
712.849	3161
712.966	2810
713.084	3382
713.201	1507
713.318	2420
713.436	2385
713.553	2145
713.670	3179
713.787	3173
713.905	2583
714.022	2665
714.139	2707
714.256	3975
714.373	4727
714.490	10680
714.608	30545
714.725	136568
714.842	116458
714.959	7685
715.076	3225
715.193	3798
715.310	3473
715.427	3336
715.544	2673
715.661	3570
715.778	2067
715.895	3115
716.011	2190
716.128	3399
716.245	2656
716.362	3571
716.479	1781
716.596	3237
716.713	2513
716.829	2189
716.946	2227
717.063	2798
717.180	2873
717.296	3584
717.413	2251
717.530	2051
717.646	2140
717.763	2163
717.880	2543
717.996	2610
718.113	1292
718.229	2706
718.346	2120
718.462	2723
718.579	3069
718.695	3375
718.812	3114
718.928	2092
719.045	2165
719.161	1422
719.277	2375
719.394	2945
719.510	1885
719.626	2256
719.743	2839
719.859	3734
719.975	8060
720.092	34917
720.208	66005
720.324	7657
720.440	2605
720.557	3077
720.673	2186
720.789	3040
720.905	2313
721.021	2258
721.137	2076
721.253	2416
721.369	2500
721.486	1478
721.602	1655
721.718	2149
721.834	2220
721.950	2349
722.066	1408
722.181	1820
722.297	2379
722.413	2036
722.529	2133
722.645	2425
722.761	2314
722.877	2224
722.993	2183
723.108	2643
723.224	1522
723.340	1978
723.456	2023
723.571	2759
723.687	1139
723.803	2362
723.918	1539
724.034	1695
724.150	1472
724.265	2336
724.381	1955
724.497	1343
724.612	1912
724.728	1375
724.843	1877
724.959	2451
725.074	2570
725.190	3089
725.305	2733
725.421	1764
725.536	1497
725.651	2870
725.767	1209
725.882	2650
725.997	1737
726.113	2062
726.228	1164
726.343	1604
726.459	2461
726.574	2215
726.689	1653
726.804	2148
726.920	1243
727.035	2424
727.150	1837
727.265	2399
727.380	2305
727.495	3000
727.610	2992
727.725	2521
727.841	2829
727.956	4933
728.071	2611
728.186	1808
728.301	1576
728.416	2430
728.531	1866
728.645	1632
728.760	2643
728.875	3434
728.990	3846
729.105	2526
729.220	1962
729.335	2726
729.449	2109
729.564	1874
729.679	1716
729.794	1603
729.908	1894
730.023	2120
730.138	522
730.253	997
730.367	1118
730.482	1304
730.596	2061
730.711	2136
730.826	3320
730.940	2698
731.055	1885
731.169	1703
731.284	1584
731.398	1351
731.513	1223
731.627	1842
731.742	2395
731.856	2181
731.970	1508
732.085	2309
732.199	2741
732.313	4603
732.428	12781
732.542	36815
732.656	18124
732.771	3504
732.885	2079
732.999	2601
733.113	1885
733.227	2591
733.342	2811
733.456	1798
733.570	1950
733.684	1930
733.798	1587
733.912	1901
734.026	1303
734.140	2387
734.254	1195
734.368	1869
734.482	2079
734.596	2539
734.710	1671
734.824	1922
734.938	1201
735.052	2171
735.166	2324
735.280	2210
735.393	2103
735.507	2944
735.621	1902
735.735	1603
735.849	1291
735.962	2226
736.076	1828
736.190	2494
736.303	1578
736.417	2324
736.531	1416
736.644	2129
736.758	2411
736.872	2801
736.985	1011
737.099	2501
737.212	1023
737.326	2640
737.439	2351
737.553	2273
737.666	1201
737.780	1732
737.893	1757
738.007	1585
738.120	1451
738.233	1385
738.347	2074
738.460	2361
738.573	1802
738.687	1680
738.800	2213
738.913	2255
739.026	1821
739.140	2150
739.253	1316
739.366	2404
739.479	1045
739.592	1351
739.705	1067
739.818	1648
739.932	1005
740.045	1787
740.158	1210
740.271	2042
740.384	2349
740.497	2491
740.610	3210
740.723	3689
740.836	3464
740.949	2847
741.062	1440
741.174	2417
741.287	1479
741.400	1858
741.513	2798
741.626	3118
741.739	1816
741.851	2242
741.964	1480
742.077	2340
742.189	3010
742.302	5468
742.415	5249
742.527	2313
742.640	2423
742.753	2636
742.865	1031
742.978	1438
743.090	533
743.203	1961
743.316	966
743.428	1692
743.541	596
743.653	1534
743.766	1143
743.878	1977
743.990	2136
744.103	5254
744.215	7407
744.327	2765
744.440	2661
744.552	2303
744.664	1179
744.777	1505
744.889	472
745.001	2538
745.113	1262
745.226	1284
745.338	1705
745.450	1254
745.562	928
745.674	1469
745.786	1339
745.898	2086
746.010	804
746.122	817
746.234	1810
746.347	866
746.459	1577
746.570	3266
746.682	4429
746.794	11380
746.906	4772
747.018	1857
747.130	1853
747.242	2203
747.354	1278
747.466	1792
747.577	144
747.689	1833
747.801	1200
747.913	1607
748.024	853
748.136	919
748.248	984
748.359	993
748.471	1508
748.583	1649
748.694	1157
748.806	2535
748.918	1057
749.029	1279
749.141	1186
749.252	2452
749.364	1167
749.475	1487
749.587	902
749.698	1452
749.809	828
749.921	1236
750.032	358
750.144	1122
750.255	1195
750.366	422
750.478	-175
750.589	1300
750.700	822
750.811	1093
750.923	836
751.034	1938
751.145	1543
751.256	632
751.367	743
751.479	1705
751.590	144
751.701	920
751.812	1003
751.923	742
752.034	605
752.145	772
752.256	392
752.367	1157
752.478	1355
752.589	485
752.700	18
752.811	1249
752.922	1034
753.032	1512
753.143	1215
753.254	573
753.365	1145
753.476	1019
753.586	797
753.697	805
753.808	834
753.919	1415
754.029	485
754.140	1366
754.251	1119
754.361	859
754.472	846
754.582	944
754.693	787
754.804	809
754.914	528
755.025	232
755.135	832
755.246	805
755.356	-116
755.466	805
755.577	855
755.687	1668
755.798	-162
755.908	969
756.018	205
756.129	1361
756.239	946
756.349	1225
756.460	895
756.570	977
756.680	1001
756.790	887
756.900	975
757.011	1376
757.121	721
757.231	740
757.341	1165
757.451	118
757.561	216
757.671	22
757.781	-391
757.891	1016
758.001	-13
758.111	1451
758.221	1010
758.331	1159
758.441	352
758.551	226
758.661	944
758.771	911
758.880	383
758.990	238
759.100	1063
759.210	979
759.320	963
759.429	1462
759.539	1437
759.649	886
759.758	880
759.868	1922
759.978	781
760.087	1888
760.197	1066
760.307	1455
760.416	458
760.526	793
760.635	1591
760.745	1083
760.854	1156
760.964	1967
761.073	988
761.182	1784
761.292	1102
761.401	2087
761.511	569
761.620	1867
761.729	512
761.839	772
761.948	1347
762.057	1504
762.166	1381
762.276	6
762.385	1686
762.494	1863
762.603	297
762.712	1033
762.822	277
762.931	2240
763.040	45
763.149	1758
763.258	1500
763.367	1559
763.476	1208
763.585	1375
763.694	1360
763.803	1124
763.912	1598
764.021	2482
764.130	840
764.238	2166
764.347	1869
764.456	1735
764.565	2408
764.674	2436
764.783	1409
764.891	2777
765.000	3314
765.109	4314
765.217	4181
765.326	6206
765.435	6027
765.543	7934
765.652	8659
765.761	11933
765.869	19627
765.978	32530
766.086	59738
766.195	124629
766.303	315936
766.412	643851
766.520	485945
766.629	158877
766.737	61650
766.846	35530
766.954	21915
767.062	17052
767.171	12931
767.279	9592
767.387	7129
767.496	6300
767.604	5653
767.712	5063
767.820	4508
767.928	4756
768.037	3788
768.145	3973
768.253	3700
768.361	3170
768.469	3528
768.577	3847
768.685	4299
768.793	3276
768.901	3619
769.009	5600
769.117	5996
769.225	7914
769.333	13989
769.441	23225
769.549	46096
769.657	114390
769.765	338148
769.873	504134
769.981	177498
770.088	46231
770.196	22269
770.304	14858
770.412	11142
770.519	7160
770.627	5897
770.735	4397
770.842	4184
770.950	3150
771.058	2788
771.165	3047
771.273	2291
771.380	2138
771.488	2473
771.595	1612
771.703	1864
771.810	2192
771.918	1285
772.025	1778
772.133	908
772.240	1763
772.348	1957
772.455	2356
772.562	1704
772.670	1517
772.777	1404
772.884	1426
772.991	598
773.099	1240
773.206	15
773.313	1730
773.420	866
773.528	1304
773.635	1046
773.742	2179
773.849	1243
773.956	596
774.063	575
774.170	330
774.277	650
774.384	1667
774.491	9
774.598	1151
774.705	6
774.812	1023
774.919	2188
775.026	1171
775.133	-355
775.239	623
775.346	938
775.453	1459
775.560	624
775.667	1125
775.773	329
775.880	1868
775.987	617
776.093	1178
776.200	814
776.307	263
776.413	1303
776.520	936
776.627	895
776.733	1459
776.840	-26
776.946	4578
777.053	8802
777.159	22545
777.266	10734
777.372	18820
777.478	14271
777.585	7020
777.691	534
777.798	1511
777.904	1590
778.010	1130
778.117	849
778.223	1441
778.329	47
778.435	782
778.542	1123
778.648	533
778.754	196
778.860	297
778.966	61
779.072	83
779.178	125
779.284	-234
779.391	278
779.497	100
779.603	1471
779.708	617
779.815	3597
779.920	12211
780.026	14727
780.132	1407
780.238	95
780.344	1119
780.450	199
780.556	438
780.661	-246
780.767	402
780.873	229
780.979	417
781.085	-1289
781.190	531
781.296	-45
781.402	-204
781.507	-191
781.613	184
781.719	-1342
781.824	780
781.930	452
782.035	670
782.141	-354
782.246	1239
782.352	463
782.457	125
782.563	705
782.668	55
782.773	113
782.879	-510
782.984	760
783.090	1150
783.195	332
783.300	806
783.405	-6
783.511	463
783.616	705
783.721	160
783.826	491
783.932	872
784.037	-261
784.142	1112
784.247	-171
784.352	-117
784.457	333
784.562	442
784.667	334
784.772	830
784.877	323
784.982	1599
785.087	-467
785.192	942
785.297	88
785.402	346
785.507	415
785.611	-263
785.716	153
785.821	-182
785.926	-534
786.031	43
786.135	29
786.240	-150
786.345	-1248
786.450	108
786.554	300
786.659	-421
786.763	-384
786.868	684
786.973	470
787.077	424
787.182	-216
787.286	8
787.391	428
787.495	-392
787.600	160
787.704	-264
787.809	148
787.913	-168
788.017	-38
788.122	392
788.226	308
788.330	-1267
788.435	86
788.539	609
788.643	-190
788.747	-210
788.852	-413
788.956	-174
789.060	589
789.164	157
789.268	-922
789.372	869
789.476	205
789.580	-133
789.684	-973
789.788	317
789.892	-377
789.996	633
790.100	-651
790.204	-491
790.308	-871
790.412	-349
790.516	71
790.620	-544
790.724	-87
790.828	-976
790.931	-1028
791.035	1119
791.139	-351
791.242	-531
791.346	262
791.450	173
791.554	-255
791.657	-1593
791.761	909
791.864	986
791.968	-141
792.072	103
792.175	147
792.279	-365
792.382	-181
792.486	245
792.589	-603
792.693	-85
792.796	-1789
792.899	830
793.003	201
793.106	-990
793.209	147
793.313	825
793.416	-1532
793.519	808
793.623	46
793.726	35
793.829	-199
793.932	-130
794.035	-503
794.138	792
794.242	-119
794.345	-179
794.448	680
794.551	623
794.654	6325
794.757	7973
794.860	489
794.963	187
795.066	-485
795.169	664
795.272	-333
795.375	486
795.477	-1922
795.580	93
795.683	-1209
795.786	-270
795.889	-2398
795.991	908
796.094	-24
796.197	-1113
796.300	475
796.402	-478
796.505	-862
796.608	-307
796.710	-233
796.813	-203
796.915	-603
797.018	-32
797.120	-1187
797.223	-1543
797.326	971
797.428	-230
797.530	-479
797.633	-222
797.735	375
797.838	-779
797.940	-110
798.042	-887
798.145	-918
798.247	-754
798.349	-1261
798.452	-130
798.554	-1020
798.656	-1029
798.758	1030
798.860	-1059
798.962	-1516
799.065	-518
799.167	-1263
799.269	1026
799.371	147
799.473	-607
799.575	-1258
799.677	-200
799.779	1369
799.881	-836
799.983	-704
800.085	-555
800.187	-329
800.289	-813
800.390	-1010
800.492	-1223
800.594	-179
800.696	-425
800.798	275
800.899	-1075
801.001	-541
801.103	-534
801.205	-546
801.306	-341
801.408	-1425
801.509	-623
801.611	-920
801.713	-487
801.814	-1329
801.916	-528
802.017	-957
802.119	-335
802.220	-357
802.322	-1297
802.423	678
802.525	-1826
802.626	-422
802.727	-933
802.829	-465
802.930	-1700
803.031	991
803.133	-35
803.234	-1507
803.335	16
803.436	-1226
803.538	-1025
803.639	-1380
803.740	376
803.841	-1946
803.942	-845
804.043	411
804.144	-1379
804.245	-1327
804.346	-323
804.447	-428
804.548	-429
804.649	68
804.750	32
804.851	-548
804.952	-224
805.053	-650
805.154	-2415
805.255	691
805.355	-371
805.456	-790
805.557	-1142
805.658	-1606
805.758	165
805.859	-439
805.960	-385
806.061	-1778
806.161	-650
806.262	-1074
806.362	-562
806.463	-707
806.564	-89
806.664	-360
806.765	-663
806.865	-166
806.966	-509
807.066	-1182
807.166	767
807.267	-225
807.367	-498
807.468	-136
807.568	-1586
807.668	-616
807.769	-534
807.869	-840
807.969	232
808.069	-798
808.170	-48
808.270	-1144
808.370	-452
808.470	-550
808.570	-1225
808.670	-1154
808.770	-212
808.870	-823
808.970	-455
809.070	-998
809.170	-1476
809.271	200
809.370	-62
809.470	-687
809.570	-1341
809.670	-1082
809.770	78
809.870	-359
809.970	-245
810.070	-1161
810.169	295
810.269	-1253
810.369	471
810.469	-1321
810.568	-1133
810.668	-1633
810.768	-642
810.867	-211
810.967	-455
811.066	-473
811.166	-712
811.265	385
811.365	-638
811.464	-698
811.564	-525
811.663	-852
811.763	-2000
811.862	219
811.962	-630
812.061	-643
812.160	-522
812.260	-290
812.359	-525
812.458	-1103
812.557	-131
812.657	-655
812.756	231
812.855	-533
812.954	-174
813.053	139
813.153	-795
813.252	-1528
813.351	72
813.450	-1183
813.549	-1154
813.648	-323
813.747	-523
813.846	-29
813.945	-821
814.044	-523
814.143	-557
814.242	328
814.341	-1008
814.439	-825
814.538	-171
814.637	-878
814.736	-546
814.835	-261
814.933	-493
815.032	-27
815.131	-118
815.229	-291
815.328	123
815.427	-1161
815.525	852
815.624	107
815.722	-207
815.821	-102
815.919	463
816.018	-556
816.116	863
816.215	-235
816.313	-215
816.412	682
816.510	498
816.609	1565
816.707	950
816.805	-23
816.904	890
817.002	1523
817.100	2150
817.198	2790
817.296	1644
817.395	1725
817.493	4343
817.591	4320
817.689	7924
817.787	9887
817.885	18579
817.983	34407
818.081	79465
818.179	191534
818.277	436220
818.375	310895
818.473	86360
818.571	34500
818.669	23582
818.767	20975
818.865	20529
818.963	23862
819.061	37238
819.158	67910
819.256	151076
819.354	347369
819.452	645602
819.549	372882
819.647	111112
819.745	46183
819.842	27990
819.940	18773
820.038	13282
820.135	9960
820.233	8501
820.330	5034
820.428	4636
820.525	4651
820.623	4111
820.720	2079
820.818	2834
820.915	2188
821.012	2942
821.110	979
821.207	2726
821.304	790
821.402	2631
821.499	4810
821.596	7681
821.693	3819
821.791	2130
821.888	326
821.985	741
822.082	288
822.179	2702
822.276	2403
822.373	1471
822.470	119
822.567	683
822.664	29
822.761	594
822.858	-1014
822.955	292
823.052	-310
823.149	-410
823.246	-114
823.343	-657
823.440	3
823.536	-741
823.633	-397
823.730	-824
823.827	-697
823.923	-129
824.020	408
824.117	203
824.213	1247
824.310	1285
824.407	-717
824.503	346
824.600	-636
824.696	-1029
824.793	-89
824.889	-716
824.986	-310
825.082	-488
825.179	-279
825.275	-569
825.371	-813
825.468	240
825.564	-1926
825.660	-76
825.757	-411
825.853	150
825.949	-1327
826.045	-503
826.142	-939
826.238	-325
826.334	-745
826.430	-1270
826.526	-591
826.622	-772
826.718	-954
826.814	-1581
826.910	-522
827.006	-1145
827.102	-1370
827.198	-382
827.294	-660
827.390	130
827.486	-378
827.582	-1312
827.678	-1414
827.774	-28
827.869	-1728
827.965	103
828.061	-1514
828.157	-1409
828.252	-832
828.348	-1399
828.444	-143
828.539	-1570
828.635	-1361
828.731	-92
828.826	-1541
828.922	-523
829.017	-1961
829.113	-558
829.208	-1544
829.304	-843
829.399	-98
829.495	-1121
829.590	-661
829.685	-1519
829.781	-883
829.876	-967
829.971	-929
830.066	-1210
830.162	-1079
830.257	-1462
830.352	-1412
830.447	140
830.543	-1823
830.638	-2081
830.733	-517
830.828	-1074
830.923	-4
831.018	-15
831.113	-1256
831.208	-1184
831.303	-1432
831.398	-883
831.493	-865
831.588	-372
831.683	-1743
831.778	-282
831.873	-1797
831.967	49
832.062	-1875
832.157	-1200
832.252	-113
832.346	-748
832.441	-783
832.536	-724
832.631	-486
832.725	-460
832.820	-1718
832.914	-932
833.009	-1850
833.104	-1363
833.198	-921
833.293	-1125
833.387	-994
833.482	-1520
833.576	-1662
833.670	-907
833.765	-867
833.859	-1438
833.954	-692
834.048	-977
834.142	-1196
834.237	-1184
834.331	-387
834.425	-582
834.519	-1582
834.613	-108
834.708	-1535
834.802	-568
834.896	-1415
834.990	-1073
835.084	-933
835.178	-972
835.272	-1618
835.366	-2108
835.460	-850
835.554	-612
835.648	-1864
835.742	-1660
835.836	-570
835.930	-2473
836.024	-774
836.117	-525
836.211	-1683
836.305	-1343
836.399	-699
836.493	-2341
836.586	-715
836.680	-902
836.774	-2276
836.867	29
836.961	-1954
837.055	-1387
837.148	-1114
837.242	-1442
837.335	-1872
837.429	-1392
837.522	-1497
837.616	-1013
837.709	-877
837.803	-2059
837.896	-601
837.989	-1624
838.083	-1071
838.176	-2012
838.269	-2593
838.363	-280
838.456	-1815
838.549	-1121
838.642	-1375
838.735	384
838.829	-1484
838.922	-1895
839.015	-1429
839.108	-1978
839.201	-998
839.294	-1297
839.387	-1720
839.480	-1531
839.573	-984
839.666	-1382
839.759	-834
839.852	-2099
839.945	-1115
840.038	-1630
840.131	-1643
840.223	-894
840.316	-868
840.409	-1866
840.502	-2520
840.594	-601
840.687	-1498
840.780	-884
840.873	-1352
840.965	-1341
841.058	-598
841.150	-1341
841.243	-1512
841.336	-735
841.428	-981
841.521	-772
841.613	-2008
841.706	-1355
841.798	-1354
841.890	-1244
841.983	-1998
842.075	-1005
842.167	-931
842.260	-1464
842.352	-1153
842.444	-2134
842.537	-1669
842.629	-304
842.721	-1241
842.813	-1803
842.905	-1666
842.997	-1824
843.090	-809
843.182	-1168
843.274	-1584
843.366	20
843.458	-1471
843.550	-331
843.642	-2370
843.734	-1001
843.826	-1265
843.918	-991
844.009	-1244
844.101	-1214
844.193	-776
844.285	-785
844.377	379
844.469	2058
844.560	3820
844.652	3920
844.744	0
844.835	-557
844.927	-835
845.019	-1194
845.110	-1083
845.202	-731
845.293	-1591
845.385	-1152
845.476	-814
845.568	-1044
845.659	-1769
845.751	-939
845.842	-1871
845.934	-1634
846.025	-2136
846.116	-1426
846.208	-2078
846.299	-1394
846.390	-1150
846.482	-963
846.573	-1264
846.664	-1766
846.755	-1431
846.846	-1148
846.937	-2728
847.029	-1945
847.120	-1707
847.211	-2607
847.302	-698
847.393	-1728
847.484	-1678
847.575	-1150
847.666	-1420
847.757	-1222
847.847	-1946
847.938	-298
848.029	-1558
848.120	-1096
848.211	-1513
848.302	-1605
848.392	-2281
848.483	-1126
848.574	-2201
848.664	-1739
848.755	-1373
848.846	-777
848.936	-1385
849.027	-1787
849.118	-954
849.208	-1830
849.299	-1114
849.389	-1610
849.480	1076
849.570	3159
849.661	8453
849.751	14219
849.841	3257
849.932	-1319
850.022	-2053
850.112	-859
850.203	-1340
850.293	-1268
850.383	-2296
850.474	-2488
850.564	-1327
850.654	-1079
850.744	-1428
850.834	-1359
850.924	-805
851.014	-1449
851.104	-1662
851.194	-1886
851.284	-1066
851.374	-1135
851.464	-1383
851.554	-846
851.644	-1846
851.734	-1504
851.824	-1559
851.914	-1457
852.004	-1433
852.094	-1481
852.183	-1524
852.273	-1126
852.363	-1930
852.452	-1181
852.542	-1666
852.632	-1984
852.721	-2179
852.811	-1411
852.901	-1695
852.990	-1694
853.080	-1408
853.169	-1110
853.259	-1240
853.348	-1088
853.438	-1474
853.527	-223
853.617	-124
853.706	3012
853.795	5988
853.885	18214
853.974	35392
854.063	67647
854.152	106420
854.242	33358
854.331	2900
854.420	326
854.509	49
854.598	-475
854.687	-767
854.777	392
854.866	-1244
854.955	-366
855.044	-1470
855.133	-1754
855.222	-2515
855.311	-1757
855.400	-997
855.488	-430
855.577	-1581
855.666	-839
855.755	-1694
855.844	-1403
855.933	-1659
856.021	-1070
856.110	-1291
856.199	-1867
856.288	-1872
856.376	-1739
856.465	-2372
856.554	-852
856.642	-1228
856.731	-826
856.819	-1032
856.908	-1748
856.996	-1991
857.085	-1577
857.173	-2116
857.262	-1172
857.350	-946
857.438	-948
857.527	-1469
857.615	-1169
857.703	-2099
857.792	-833
857.880	-2543
857.968	-1493
858.056	-1585
858.145	-1865
858.233	-2367
858.321	-2145
858.409	-1632
858.497	-1949
858.585	-1538
858.673	-1195
858.761	-2097
858.849	-1125
858.937	-2160
859.025	-1778
859.113	-1573
859.201	-1628
859.289	-476
859.377	-209
859.465	-1158
859.552	-1494
859.640	-2794
859.728	-1265
859.816	-1521
859.903	-705
859.991	-1981
860.079	-1727
860.166	-2385
860.254	-2211
860.342	-2110
860.429	-2277
860.517	-2238
860.604	-1236
860.692	-2043
860.779	-1596
860.867	-1582
860.954	-1252
861.042	-2071
861.129	-1105
861.216	-1431
861.304	-1953
861.391	-2185
861.478	-1375
861.565	-1944
861.653	-646
861.740	-2262
861.827	-2088
861.914	-1941
862.001	-2271
862.089	-1893
862.176	-791
862.263	-1602
862.350	-1145
862.437	-1578
862.524	-1455
862.611	-1597
862.698	-357
862.785	-591
862.871	384
862.958	-1896
863.045	-1226
863.132	-1632
863.219	-1375
863.306	-2095
863.392	-277
863.479	-1744
863.566	-1708
863.652	-1444
863.739	-1537
863.826	-1458
863.912	-1466
863.999	-1866
864.086	-1259
864.172	-2506
864.259	-1271
864.345	-1652
864.432	-1720
864.518	-1301
864.604	-1326
864.691	-2087
864.777	-740
864.863	-1480
864.950	-358
865.036	-1685
865.122	-1668
865.209	-278
865.295	-1566
865.381	-922
865.467	-678
865.553	-376
865.639	1146
865.726	2159
865.812	6741
865.898	15570
865.984	22588
866.070	46667
866.156	49292
866.242	9552
866.328	1143
866.414	-1577
866.499	-405
866.585	-526
866.671	-1388
866.757	-1365
866.843	26
866.928	-1376
867.014	-1455
867.100	-1715
867.186	-1446
867.271	-1803
867.357	-1077
867.442	-873
867.528	-1463
867.614	-614
867.699	-232
867.785	1083
867.870	2562
867.956	4243
868.041	2165
868.127	521
868.212	1389
868.297	1278
868.383	-102
868.468	-142
868.553	672
868.639	-419
868.724	-1301
868.809	-1145
868.894	-1495
868.979	-1408
869.065	-459
869.150	-1985
869.235	-823
869.320	-1902
869.405	-1595
869.490	-2472
869.575	-1812
869.660	-833
869.745	-1207
869.830	-1552
869.915	-897
870.000	-1106
870.085	-381
870.169	-732
870.254	-504
870.339	-1810
870.424	-1357
870.509	-2094
870.593	-1672
870.678	-1678
870.763	-1981
870.847	-874
870.932	-1711
871.016	-621
871.101	-262
871.186	-1662
871.270	-1383
871.355	-2798
871.439	-843
871.523	-951
871.608	-1014
871.692	-551
871.777	-461
871.861	-1048
871.945	-1270
872.030	-1042
872.114	-943
872.198	-1528
872.282	-1134
872.367	-1595
872.451	-1405
872.535	-1484
872.619	-410
872.703	-2083
872.787	-1632
872.871	-1947
872.955	-1697
873.039	-1942
873.123	-1841
873.207	-1459
873.291	-998
873.375	-2155
873.459	-1573
873.543	-1825
873.627	-2117
873.711	-1845
873.794	-1198
873.878	-770
873.962	-1106
874.045	-1125
874.129	-861
874.137	-928
874.213	-1597
874.245	-1335
874.296	-913
874.352	-1554
874.380	-1867
874.460	-1688
874.464	-1683
874.547	-1909
874.568	-1696
874.631	-1069
874.676	-1479
874.714	-1814
874.784	-1139
874.798	-1010
874.881	-694
874.892	-760
874.965	-1160
874.999	-797
875.048	-327
875.107	-750
875.131	-918
875.215	-1115
875.215	-1115
875.298	-841
875.323	-1102
875.381	-1618
875.430	-1700
875.465	-1787
875.538	-1753
875.548	-1743
875.631	-1917
875.646	-1965
875.714	-2310
875.753	-1640
875.798	-774
875.861	-1269
875.881	-1440
875.964	-428
875.968	-490
876.047	-1667
876.076	-1578
876.130	-1387
876.183	-1573
876.213	-1652
876.291	-1582
876.296	-1587
876.379	-1421
876.398	-1400
876.462	-1227
876.506	-1176
876.545	-1124
876.613	-600
876.628	-491
876.711	-1451
876.721	-1383
876.794	-824
876.828	-975
876.877	-1165
876.935	-1065
876.960	-1060
877.043	-256
877.043	-257
877.125	-558
877.150	-680
877.208	-772
877.258	-333
877.291	-116
877.365	163
877.374	188
877.456	-595
877.472	-542
877.539	-105
877.579	10
877.622	-18
877.687	-220
877.704	-242
877.787	-420
877.794	-452
877.869	-921
877.901	-798
877.952	-493
878.008	-752
878.034	-891
878.115	-488
878.117	-480
878.199	-930
878.222	-919
878.282	-896
878.329	-878
878.364	-683
878.437	-22
878.447	15
878.529	-1025
878.544	-1003
878.611	-752
878.651	-789
878.694	-894
878.758	-762
878.776	-698
878.858	-695
878.865	-673
878.941	-653
878.972	-940
879.023	-1086
879.078	-812
879.105	-758
879.185	-194
879.187	-181
879.269	-646
879.292	-695
879.351	-921
879.399	-1069
879.433	-1018
879.506	95
879.516	180
879.598	-988
879.613	-1039
879.680	-742
879.720	-619
879.762	-719
879.827	-709
879.844	-647
879.926	-336
879.933	-395
880.007	-948
880.040	-853
880.089	-729
880.147	-844
880.171	-988
880.253	-981
880.254	-985
880.335	-992
880.360	-799
880.417	-412
880.467	-289
880.499	-103
880.574	314
880.580	295
880.662	-879
880.680	-996
880.744	-1202
880.787	-1319
880.825	-1312
880.893	-1101
880.907	-1066
880.989	-710
881.000	-667
881.070	-440
881.106	-642
881.152	-694
881.213	-577
881.233	-669
881.315	-1497
881.319	-1486
881.396	-613
881.426	-584
881.478	-992
881.532	-1031
881.559	-886
881.639	-1102
881.641	-1104
881.722	-321
881.745	-384
881.803	-394
881.852	-513
881.885	-758
881.958	-673
881.966	-661
882.047	-684
882.064	-687
882.129	-525
882.171	-735
882.210	-710
882.277	-182
882.291	-174
882.372	-265
882.383	-310
882.454	-434
882.489	-319
882.535	-258
882.596	-654
882.616	-708
882.697	-509
882.702	-521
882.778	-445
882.808	-260
882.859	-243
882.914	-458
882.940	-497
883.020	-674
883.021	-671
883.102	-647
883.127	-721
883.183	-712
883.233	-750
883.264	-703
883.339	-212
883.345	-181
883.426	-460
883.445	-285
883.507	327
883.551	252
883.587	72
883.657	-220
883.668	-234
883.749	-110
883.763	-119
883.830	-189
883.869	-300
883.910	-279
883.975	-45
883.991	-81
884.072	-623
884.081	-631
884.152	69
884.187	194
884.233	-325
884.292	-805
884.314	-633
884.394	-279
884.398	-241
884.475	-396
884.504	-645
884.555	-449
884.610	15
884.636	-7
884.716	-688
884.716	-681
884.797	-2
884.821	178
884.877	-39
884.927	-432
884.958	-388
885.033	55
885.038	50
885.118	-339
885.139	-511
885.199	-556
885.244	-360
885.279	-345
885.350	-179
885.359	-105
885.439	-82
885.456	-19
885.520	-191
885.561	-223
885.600	91
885.667	403
885.680	265
885.760	-632
885.773	-772
885.840	-467
885.878	-188
885.920	-151
885.984	-364
886.000	-326
886.080	49
886.089	68
886.160	189
886.195	323
886.240	323
886.300	160
886.320	112
886.400	-121
886.406	-130
886.480	330
886.511	516
886.560	376
886.616	-40
886.640	-78
886.720	-7
886.722	-8
886.800	238
886.827	205
886.879	341
886.932	487
886.959	348
887.038	261
887.039	264
887.119	-256
887.143	-365
887.198	-93
887.248	247
887.278	304
887.354	247
887.358	257
887.437	237
887.459	290
887.517	309
887.564	266
887.596	289
887.669	263
887.676	274
887.755	373
887.774	367
887.835	-376
887.880	-912
887.914	-497
887.985	413
887.994	387
888.073	-74
888.090	-132
888.153	466
888.195	756
888.232	183
888.300	-844
888.311	-708
888.391	250
888.405	421
888.470	48
888.510	-235
888.549	-242
888.615	-135
888.628	-70
888.708	124
888.720	169
888.787	711
888.825	958
888.866	478
888.930	-195
888.945	-53
889.024	636
889.035	725
889.103	400
889.140	187
889.182	325
889.245	553
889.261	474
889.340	73
889.349	24
889.419	713
889.454	1042
889.498	688
889.559	186
889.577	236
889.656	450
889.664	467
889.735	363
889.768	309
889.814	318
889.873	325
889.978	-21
890.083	673
890.187	-8
890.292	715
890.397	1057
890.501	939
890.606	64
890.710	1414
890.815	149
890.919	893
891.024	1158
891.128	672
891.233	493
891.337	861
891.442	163
891.546	637
891.650	-145
891.755	713
891.859	626
891.963	1293
892.068	806
892.172	191
892.276	72
892.380	-261
892.484	532
892.589	529
892.693	703
892.797	-292
892.901	6
893.005	34
893.109	119
893.213	66
893.317	517
893.421	276
893.525	-549
893.629	788
893.733	-324
893.837	-43
893.941	-553
894.045	429
894.148	252
894.252	87
894.356	-552
894.460	1034
894.564	-92
894.667	-30
894.771	96
894.875	68
894.978	247
895.082	-227
895.186	104
895.289	766
895.393	312
895.496	393
895.600	-162
895.703	170
895.807	-364
895.910	-134
896.014	19
896.117	-227
896.221	-30
896.324	386
896.427	202
896.531	467
896.634	-68
896.737	-363
896.840	-392
896.944	501
897.047	57
897.150	317
897.253	-686
897.356	158
897.460	161
897.563	212
897.666	-242
897.769	-470
897.872	-1
897.975	-7
898.078	286
898.181	-185
898.284	-334
898.387	-460
898.490	-411
898.593	-38
898.695	-634
898.798	-132
898.901	-183
899.004	310
899.107	392
899.209	304
899.312	-407
899.415	-124
899.518	356
899.620	-502
899.723	105
899.826	403
899.928	-35
900.031	224
900.133	-946
900.236	44
900.338	-207
900.441	97
900.543	496
900.646	453
900.748	-841
900.851	507
900.953	17
901.055	-26
901.158	-454
901.260	681
901.362	-289
901.465	508
901.567	36
901.669	271
901.771	-255
901.873	-116
901.976	14
902.078	322
902.180	-290
902.282	-446
902.384	-294
902.486	110
902.588	-536
902.690	60
902.792	217
902.894	569
902.996	-645
903.098	-202
903.200	13
903.302	-36
903.404	232
903.505	-137
903.607	434
903.709	609
903.811	-620
903.913	135
904.014	-356
904.116	-345
904.218	-502
904.319	196
904.421	-61
904.523	1235
904.624	555
904.726	-365
904.827	197
904.929	489
905.030	-202
905.132	654
905.233	-822
905.335	-288
905.436	-441
905.537	-450
905.639	-157
905.740	-773
905.841	-599
905.943	-78
906.044	-660
906.145	1006
906.247	-766
906.348	110
906.449	-348
906.550	159
906.651	-257
906.752	178
906.854	-1152
906.955	-293
907.056	293
907.157	-399
907.258	-260
907.359	-502
907.460	-276
907.561	-807
907.662	-794
907.762	-51
907.863	-640
907.964	-481
908.065	-366
908.166	-264
908.267	-826
908.367	-614
908.468	-657
908.569	-559
908.670	-647
908.770	-296
908.871	-136
908.971	-315
909.072	-988
909.173	479
909.273	-698
909.374	358
909.474	-800
909.575	-196
909.675	-528
909.776	544
909.876	41
909.977	270
910.077	-1002
910.177	482
910.278	-1112
910.378	-283
910.478	464
910.579	443
910.679	-658
910.779	-224
910.879	-470
910.980	106
911.080	-474
911.180	93
911.280	119
911.380	-428
911.480	-302
911.580	-557
911.680	-1036
911.780	-169
911.880	-167
911.980	175
912.080	-52
912.180	57
912.280	-19
912.380	-234
912.480	-125
912.580	-298
912.679	-725
912.779	504
912.879	-280
912.979	21
913.078	-560
913.178	153
913.278	73
913.377	-498
913.477	-1108
913.577	135
913.676	-488
913.776	415
913.875	-125
913.975	-174
914.074	-803
914.174	134
914.273	-1666
914.373	-315
914.472	-1281
914.572	-427
914.671	-423
914.770	24
914.870	-602
914.969	-572
915.068	-221
915.167	255
915.267	-833
915.366	-62
915.465	-189
915.564	-1007
915.663	-50
915.763	-217
915.862	-1151
915.961	38
916.060	-735
916.159	-249
916.258	-1027
916.357	-608
916.456	-591
916.555	399
916.654	-608
916.752	338
916.851	-225
916.950	-24
917.049	-228
917.148	-340
917.247	-614
917.345	-180
917.444	-364
917.543	78
917.642	-955
917.740	-589
917.839	-295
917.937	-503
918.036	-449
918.135	-125
918.233	-205
918.332	-981
918.430	-326
918.529	240
918.627	-425
918.726	139
918.824	-473
918.923	-128
919.021	77
919.119	-679
919.218	-467
919.316	146
919.414	-23
919.512	-585
919.611	-459
919.709	285
919.807	-932
919.905	-78
920.003	-304
920.102	-125
920.200	-249
920.298	-261
920.396	-869
920.494	-639
920.592	-1416
920.690	-422
920.788	-371
920.886	252
920.984	-632
921.082	248
921.180	1069
921.277	-9
921.375	-152
921.473	-144
921.571	-169
921.669	-51
921.766	-876
921.864	41
921.962	-302
922.060	-2
922.157	-606
922.255	-24
922.352	-598
922.450	440
922.548	-761
922.645	-649
922.743	-344
922.840	606
922.938	-659
923.035	487
923.133	-303
923.230	646
923.327	-162
923.425	486
923.522	-17
923.619	66
923.717	-411
923.814	360
923.911	-85
924.008	297
924.106	-310
924.203	-189
924.300	-418
924.397	145
924.494	195
924.591	-397
924.688	-382
924.786	-166
924.883	-621
924.979	238
925.077	-415
925.173	-206
925.270	90
925.367	-634
925.464	-132
925.561	680
925.658	-546
925.755	-207
925.852	-262
925.948	540
926.045	1002
926.142	767
926.239	829
926.335	1445
926.432	1356
926.529	1312
926.625	1593
926.722	1652
926.818	224
926.915	-66
927.011	-277
927.108	-503
927.204	-272
927.301	-128
927.397	-811
927.494	70
927.590	-661
927.687	689
927.783	-277
927.879	508
927.976	-593
928.072	153
928.168	492
928.264	-662
928.361	-74
928.457	464
928.553	-542
928.649	224
928.745	-193
928.841	845
928.937	-163
929.033	680
929.129	-850
929.225	324
929.321	-411
929.417	50
929.513	-327
929.609	193
929.705	-850
929.801	705
929.897	-514
929.993	86
930.089	-629
930.184	221
930.280	-755
930.376	444
930.471	-1002
930.567	835
930.663	-353
930.758	181
930.854	-458
930.950	0
931.045	-528
931.141	980
931.236	-162
931.332	32
931.427	-962
931.523	199
931.618	846
931.714	-147
931.809	-1291
931.905	-65
932.000	-746
932.095	-405
932.191	351
932.286	390
932.381	-256
932.476	-1166
932.572	-32
932.667	-663
932.762	-644
932.857	-162
932.952	-88
933.047	-488
933.142	-300
933.237	-389
933.332	-827
933.427	435
933.522	-529
933.617	-128
933.712	-231
933.807	530
933.902	-283
933.997	-332
934.092	-162
934.187	25
934.282	-501
934.376	11
934.471	12
934.566	-458
934.661	-211
934.755	-120
934.850	-273
934.945	7
935.039	-118
935.134	185
935.228	-607
935.323	-222
935.417	-1172
935.512	-324
935.606	-481
935.701	-626
935.795	-171
935.890	-182
935.984	-682
936.079	-148
936.173	7
936.267	-485
936.362	-1124
936.456	-56
936.550	-436
936.644	-518
936.738	-317
936.833	-197
936.927	-896
937.021	-265
937.115	-87
937.209	-989
937.303	263
937.397	-601
937.491	-230
937.585	-276
937.679	-782
937.773	-267
937.867	-652
937.961	-344
938.055	-667
938.149	160
938.243	440
938.337	-598
938.430	-493
938.524	668
938.618	1330
938.712	1679
938.805	-376
938.899	-378
938.993	-379
939.086	1491
939.180	1827
939.274	2606
939.367	119
939.461	239
939.554	-888
939.648	286
939.741	-470
939.835	-228
939.928	-365
940.022	-827
940.115	-545
940.208	-195
940.302	-155
940.395	0
940.488	-1600
940.582	-31
940.675	-593
940.768	303
940.861	-495
940.954	89
941.048	-1243
941.141	162
941.234	-650
941.327	406
941.420	611
941.513	-25
941.606	-713
941.699	420
941.792	-468
941.885	-461
941.978	-92
942.071	-706
942.164	-948
942.257	197
942.349	-383
942.442	42
942.535	-1404
942.628	-1041
942.721	-434
942.813	-1760
942.906	-61
942.999	-601
943.091	-1151
943.184	-932
943.277	-888
943.369	522
943.462	-326
943.554	20
943.647	-1802
943.739	152
943.832	-456
943.924	-747
944.017	-639
944.109	-655
944.201	-540
944.294	-342
944.386	-248
944.478	-607
944.571	-1056
944.663	-443
944.755	-1049
944.847	-565
944.940	-1113
945.032	-860
945.124	-650
945.216	938
945.308	-1088
945.400	-722
945.492	-903
945.584	-1161
945.676	-995
945.768	-393
945.860	-373
945.952	-498
946.044	170
946.136	-436
946.228	-916
946.320	-620
946.412	-1034
946.503	-622
946.595	409
946.687	-1538
946.779	-671
946.870	-404
946.962	-1603
947.054	-376
947.145	-310
947.237	184
947.329	-25
947.420	-731
947.512	-1348
947.603	-270
947.695	-1710
947.786	-1161
947.878	-1339
947.969	-120
948.061	-1820
948.152	-814
948.243	-833
948.335	-511
948.426	-1463
948.517	-1675
948.609	-1384
948.700	-499
948.791	-286
948.882	-660
948.973	-734
949.065	-828
949.156	-811
949.247	-1368
949.338	-1378
949.429	-1022
949.520	-775
949.611	-1004
949.702	-420
949.793	-994
949.884	-318
949.975	-559
950.066	-2076
950.157	-484
950.247	-1304
950.338	-504
950.429	-1052
950.520	-397
950.611	-1388
950.701	-959
950.792	-1214
950.883	-841
950.973	-1254
951.064	-285
951.155	-1306
951.245	-201
951.336	-1189
951.427	-818
951.517	-712
951.608	27
951.698	-1125
951.788	170
951.879	-1035
951.969	-1012
952.060	-1107
952.150	-527
952.240	-714
952.331	-1597
952.421	69
952.511	-1384
952.602	-819
952.692	-38
952.782	-820
952.872	-1056
952.962	-492
953.052	-226
953.143	-1200
953.233	-658
953.323	-805
953.413	85
953.503	-814
953.593	113
953.683	-680
953.773	-1603
953.863	-861
953.953	62
954.042	-1496
954.132	-1231
954.222	-255
954.312	-775
954.402	-843
954.492	-943
954.581	-1653
954.671	-386
954.761	-2177
954.850	206
954.940	-215
955.030	-357
955.119	-1005
955.209	-1225
955.298	-1970
955.388	-240
955.477	-801
955.567	-1329
955.656	-996
955.746	-234
955.835	-985
955.925	-989
956.014	-942
956.103	-1085
956.193	-880
956.282	-446
956.371	-851
956.461	-1053
956.550	-1439
956.639	100
956.728	-1451
956.817	-814
956.906	-1386
956.995	293
957.085	-1410
957.174	-541
957.263	-396
957.352	-552
957.441	-909
957.530	-796
957.619	-475
957.708	-1330
957.796	-1123
957.885	-812
957.974	-1277
958.063	-485
958.152	-1420
958.241	-597
958.329	-1567
958.418	-226
958.507	-1488
958.596	-368
958.684	-1595
958.773	-106
958.861	-687
958.950	-633
959.039	-1335
959.127	-700
959.216	-472
959.304	-1393
959.393	-1819
959.481	-749
959.570	-1214
959.658	-770
959.746	-762
959.835	-286
959.923	-1354
960.011	-699
960.100	-537
960.188	-451
960.276	-1639
960.365	-659
960.453	-670
960.541	-898
960.629	-1896
960.717	-671
960.805	-1508
960.893	-787
960.981	-1862
961.069	752
961.158	-1452
961.245	-501
961.333	-882
961.421	-1474
961.509	-1254
961.597	-1196
961.685	-1070
961.773	-759
961.861	-2375
961.949	-280
962.036	-1576
962.124	-690
962.212	-1123
962.299	-661
962.387	-1992
962.475	-1392
962.562	-2060
962.650	-216
962.738	-1165
962.825	-934
962.913	-1648
963.000	-713
963.088	-968
963.175	-1178
963.263	-267
963.350	-605
963.438	-1742
963.525	-1645
963.612	-383
963.700	-1058
963.787	-700
963.874	-705
963.962	-988
964.049	-760
964.136	-1722
964.223	-1336
964.310	-975
964.398	-548
964.485	-1426
964.572	-595
964.659	-1362
964.746	-989
964.833	-1125
964.920	-1009
965.007	-1423
965.094	-411
965.181	-1365
965.268	-340
965.355	-2161
965.441	-417
965.528	-1787
965.615	-197
965.702	-1838
965.789	-1373
965.875	-869
965.962	-725
966.049	-1040
966.136	-977
966.222	-1480
966.309	-1067
966.395	-1493
966.482	-1029
966.569	-2155
966.655	-1358
966.742	-865
966.828	-674
966.915	-1803
967.001	-865
967.087	-1761
967.174	-968
967.260	-1653
967.347	-1137
967.433	-1614
967.519	-291
967.605	-1480
967.692	-769
967.778	-2001
967.864	-818
967.950	-1438
968.036	-1515
968.123	-1020
968.209	-1478
968.295	-2437
968.381	-180
968.467	-617
968.553	-1378
968.639	-1345
968.725	-1092
968.811	-812
968.897	-737
968.983	-1054
969.069	-876
969.154	-1351
969.240	-53
969.326	-1145
969.412	-1087
969.497	-2176
969.583	-1562
969.669	-443
969.755	-45
969.840	-1448
969.926	-1037
970.012	-2133
970.097	-411
970.183	-1691
970.268	-1175
970.354	-650
970.439	-1812
970.525	-836
970.610	-1604
970.696	-55
970.781	-1109
970.866	-1373
970.952	105
971.037	-1541
971.122	-1124
971.208	-1598
971.293	-1023
971.378	-2518
971.463	-778
971.549	-1149
971.634	-460
971.719	-645
971.804	-1231
971.889	-1437
971.974	-1184
972.059	-1347
972.144	-21
972.229	-1240
972.314	-1628
972.399	-1358
972.484	-1517
972.569	-1498
972.654	-2212
972.739	-890
972.824	-1223
972.908	-2369
972.993	-1136
973.078	-1488
973.163	-939
973.247	-1117
973.332	-2411
973.417	-349
973.501	-1997
973.586	-1750
973.671	-765
973.755	-1750
973.840	-1290
973.924	-523
974.009	-717
974.093	-1863
974.178	2
974.262	-1974
974.346	-1720
974.431	-1425
974.515	-1593
974.600	-1900
974.684	-730
974.768	-1400
974.852	-275
974.937	-1954
975.021	-49
975.105	-1494
975.189	-278
975.273	-141
975.358	-1953
975.442	-1270
975.526	-927
975.610	-1838
975.694	-1635
975.778	-729
975.862	-482
975.946	-3116
976.030	-106
976.114	-1444
976.198	-802
976.281	-1728
976.365	-600
976.449	-1483
976.533	-1066
976.617	-1736
976.700	-796
976.784	-939
976.868	-1318
976.951	-1826
977.035	-1539
977.119	-1567
977.202	-714
977.286	-1685
977.369	-185
977.453	-940
977.536	-1714
977.620	-1925
977.703	-689
977.787	-2160
977.870	-566
977.953	-63
978.037	-2131
978.120	-1213
978.203	-1117
978.287	-1368
978.370	-879
978.453	-1535
978.536	-1198
978.620	-1686
978.703	-625
978.786	-2049
978.869	-1429
978.952	-2494
979.035	-887
979.118	-987
979.201	-931
979.284	-1303
979.367	-1412
979.450	-931
979.533	-1134
979.616	-1571
979.699	-1348
979.782	-1555
979.865	-1790
979.948	-1034
980.030	-1679
980.113	-1058
980.196	-1965
980.279	-927
980.361	-705
980.444	-1124
980.526	-1071
980.609	-1854
980.692	-1812
980.774	-992
980.857	-1063
980.939	-1035
981.022	-868
981.104	-2053
981.187	-1462
981.269	-1255
981.352	-470
981.434	-2394
981.516	-1656
981.599	-1118
981.681	-1454
981.763	-615
981.846	-753
981.928	-1757
982.010	-892
982.092	-1567
982.174	142
982.256	-1516
982.339	-885
982.421	-1466
982.503	-1263
982.585	-2130
982.667	-1214
982.749	-1662
982.831	-1347
982.913	-2299
982.995	256
983.077	-2282
983.158	-488
983.240	-2479
983.322	-970
983.404	-2107
983.486	-1505
983.568	-1858
983.649	-1136
983.731	-1088
983.813	-924
983.894	-761
983.976	-1960
984.058	-2459
984.139	-555
984.221	-2383
984.302	-460
984.384	-1804
984.465	-1011
984.547	-1050
984.628	-808
984.710	-782
984.791	-1265
984.872	-1522
984.954	-1646
985.035	-2210
985.116	-1415
985.198	-1600
985.279	-87
985.360	-1447
985.441	-1882
985.522	-1240
985.604	-1343
985.685	-3256
985.766	-807
985.847	-394
985.928	-1843
986.009	-1502
986.090	-1130
986.171	-904
986.252	-1793
986.333	-1829
986.414	-1039
986.495	-1772
986.576	-1512
986.656	-1837
986.737	-1723
986.818	-1788
986.899	-870
986.980	-1121
987.060	-854
987.141	-2033
987.222	-1531
987.302	-1028
987.383	-935
987.464	-2611
987.544	-524
987.625	-1942
987.705	-1062
987.786	-2076
987.866	-793
987.947	-1598
988.027	-584
988.108	-2478
988.188	-658
988.268	-2206
988.349	-1200
988.429	-981
988.509	-1092
988.589	-1709
988.670	-2018
988.750	-333
988.830	-1911
988.910	-994
988.990	-659
989.070	-1691
989.151	-859
989.231	-1773
989.311	-783
989.391	-1816
989.471	-444
989.551	-2183
989.631	-1982
989.711	-1561
989.791	-803
989.870	-2112
989.950	281
990.030	-1967
990.110	-1261
990.190	-1740
990.269	-2209
990.349	-958
990.429	-1364
990.509	-1102
990.588	-1077
990.668	-945
990.747	-489
990.827	-1483
990.907	-1046
990.986	-1643
991.066	-1259
991.145	-988
991.225	-744
991.304	-2697
991.383	-57
991.463	-2194
991.542	-1317
991.622	-1603
991.701	-1179
991.780	-1741
991.859	-1644
991.939	-1510
992.018	-2117
992.097	-1714
992.176	-931
992.256	-1408
992.335	-1776
992.414	-1358
992.493	-2286
992.572	-1559
992.651	-1006
992.730	-1779
992.809	-635
992.888	-2525
992.967	-1398
993.046	-501
993.125	-2712
993.203	-2463
993.282	-921
993.361	-951
993.440	-40
993.519	-1879
993.597	-1150
993.676	-2096
993.755	-507
993.834	-1167
993.912	-2666
993.991	-942
994.069	-1793
994.148	-1614
994.226	-1187
994.305	-1670
994.384	-2039
994.462	-258
994.540	-1715
994.619	-1384
994.697	-918
994.776	-1807
994.854	-798
994.932	-1866
995.011	-1335
995.089	-1910
995.167	-1110
995.245	-997
995.324	-2328
995.402	-1839
995.480	-1787
995.558	-1444
995.636	-1359
995.714	-2652
995.792	-467
995.870	-1801
995.948	-82
996.026	-970
996.104	-2104
996.182	-1180
996.260	-1898
996.338	-1668
996.416	-2319
996.494	-1893
996.572	-1183
996.649	-2269
996.727	-2363
996.805	-1041
996.883	-1471
996.960	-2415
997.038	-795
997.116	-1518
997.193	-1667
997.271	-1305
997.348	-1859
997.426	-1424
997.504	-2490
997.581	-1111
997.658	-1069
997.736	-2708
997.813	-1524
997.891	-769
997.968	-1759
998.046	-2425
998.123	-2014
998.200	-1166
998.277	-2106
998.355	-1255
998.432	-2607
998.509	-1399
998.586	-1325
998.663	-1843
998.741	-1705
998.818	-2250
998.895	-1805
998.972	-1605
999.049	-1542
999.126	-2462
999.203	-1360
999.280	-1649
999.357	-1744
999.434	-1979
999.511	-1872
999.587	-1631
999.664	-1712
999.741	-1312
999.818	-1704
999.895	-1732
999.971	-1640
1000.048	-1998
1000.125	-1142
1000.202	-2298
1000.278	-1319
1000.355	-1857
1000.431	-1581
1000.508	-2282
1000.584	-1449
1000.661	-1865
1000.738	-1337
1000.814	-1456
1000.890	-1800
1000.967	-1950
1001.043	-699
1001.120	-3070
1001.196	-1534
1001.272	-1284
1001.349	-2048
1001.425	-1139
1001.501	-2058
1001.577	-2225
1001.654	-1705
1001.730	-2169
1001.806	-1173
1001.882	-2339
1001.958	-1440
1002.034	-1730
1002.110	-1212
1002.186	-2314
1002.262	-1787
1002.338	-3057
1002.414	-1032
1002.490	-1258
1002.566	-1606
1002.642	-2520
1002.718	-1126
1002.794	-1431
1002.870	-1159
1002.945	-2314
1003.021	-1457
1003.097	-1598
1003.173	-675
1003.248	-1878
1003.324	-2077
1003.400	-1528
1003.475	-1977
1003.551	-2329
1003.626	-1562
1003.702	-2090
1003.777	-1420
1003.853	-2303
1003.928	-2284
1004.004	-1686
1004.079	-1009
1004.155	-2406
1004.230	-2272
1004.305	-851
1004.381	-2191
1004.456	-1940
1004.531	-1368
1004.607	-1835
1004.682	-1325
1004.757	-2276
1004.832	-2194
1004.907	-2558
1004.982	-1196
1005.057	-1766
1005.133	-1222
1005.208	-2495
1005.283	-1885
1005.358	-1822
1005.433	-2096
1005.508	-1764
1005.583	-2151
1005.657	-2057
1005.732	-1221
1005.807	-2445
1005.882	-1607
1005.957	-1723
1006.032	-1444
1006.106	-2491
1006.181	-1552
1006.256	-1283
1006.331	-1962
1006.405	-2297
1006.480	-1564
1006.554	-1998
1006.629	-1557
1006.704	-1857
1006.778	-1239
1006.853	-888
1006.927	-2252
1007.002	-2687
1007.076	-1560
1007.150	-1900
1007.225	-1480
1007.299	-1700
1007.373	-2154
1007.448	-2155
1007.522	-1323
1007.596	-2013
1007.671	-1126
1007.745	-1063
1007.819	-1182
1007.893	-2758
1007.967	-566
1008.041	-3022
1008.115	-300
1008.190	-2035
1008.264	-457
1008.338	-2782
1008.412	-1702
1008.486	-2422
1008.560	-896
1008.633	-2391
1008.707	-1777
1008.781	-787
1008.855	-1992
1008.929	-1827
1009.003	-2373
1009.076	-2044
1009.150	-1054
1009.224	-1332
1009.298	-1600
1009.371	-2621
1009.445	-1250
1009.519	-2125
1009.592	-2154
1009.666	-1679
1009.739	-2343
1009.813	-3306
1009.886	-1270
1009.960	-2927
1010.033	-766
1010.107	-2336
1010.180	-1923
1010.253	-1920
1010.327	-1828
1010.400	-1608
1010.473	-1470
1010.547	-357
1010.620	-1777
1010.693	-2493
1010.766	-1888
1010.840	-1390
1010.913	-1521
1010.986	-2178
1011.059	-1163
1011.132	-1604
1011.205	-1782
1011.278	-1570
1011.351	-2451
1011.424	-1287
1011.497	-1762
1011.570	-2211
1011.643	-2053
1011.716	-2287
1011.789	-1913
1011.862	-1407
1011.934	-767
1012.007	-2376
1012.080	-1879
1012.153	-2336
1012.225	-1048
1012.298	-3036
1012.371	-2064
1012.443	-1096
1012.516	-1641
1012.588	-1859
1012.661	-2130
1012.733	-2142
1012.806	-1535
1012.879	-2616
1012.951	-1576
1013.023	-1962
1013.096	-1639
1013.168	-2093
1013.241	-1175
1013.313	-2672
1013.385	-2487
1013.458	-2705
1013.530	-1567
1013.602	-2290
1013.674	-991
1013.746	-2416
1013.819	-1833
1013.891	-1194
1013.963	-1677
1014.035	-1665
1014.107	-1824
1014.179	-1892
1014.251	-1795
1014.323	-2102
1014.395	-1911
1014.467	-1393
1014.539	-1091
1014.611	-2136
1014.683	-1598
1014.754	-2408
1014.826	-2154
1014.898	-2186
1014.970	-2009
1015.042	-1691
1015.113	-1404
1015.185	-1770
1015.257	-1363
1015.328	-2086
1015.400	-2494
1015.471	-1804
1015.543	-2118
1015.615	-2145
1015.686	-1451
1015.757	-1602
1015.829	-1233
1015.901	-2641
1015.972	-1736
1016.043	-1965
1016.115	-758
1016.186	-2230
1016.257	-1450
1016.328	-2548
1016.400	-1641
1016.471	-2719
1016.542	-1714
1016.613	-1518
1016.685	-1423
1016.756	-2034
1016.827	-1939
1016.898	-2879
1016.969	-1999
1017.040	-2388
1017.111	-2025
1017.182	-2196
1017.253	-2174
1017.324	-2717
1017.395	-1545
1017.466	-1949
1017.537	-2331
1017.608	-1471
1017.678	-2550
1017.749	-1875
1017.820	-1954
1017.891	-2313
1017.961	-1918
1018.032	-1876
1018.103	-2023
1018.173	-2026
1018.244	-2455
1018.315	-1967
1018.385	-1182
1018.456	-2529
1018.526	-2726
1018.597	-2302
1018.667	-2223
1018.738	-2084
1018.808	-2129
1018.878	-2269
1018.949	-1866
1019.019	-2340
1019.089	-1657
1019.160	-1587
1019.230	-1788
1019.300	-1863
1019.371	-2326
1019.441	-1642
1019.511	-1420
1019.581	-2117
1019.651	-1651
1019.721	-2843
1019.791	-1392
1019.861	-1787
1019.931	-1059
1020.001	-2295
1020.071	-1318
1020.141	-1917
1020.211	-2127
1020.281	-2547
1020.351	-2158
1020.421	-2181
1020.491	-2151
1020.560	-2460
1020.630	-1481
1020.700	-2022
1020.770	-1769
1020.839	-1751
1020.909	-1546
1020.979	-2559
1021.048	-1620
1021.118	-1576
1021.187	-1268
1021.257	-1352
1021.326	-1050
1021.396	-2579
1021.465	-1207
1021.535	-2316
1021.604	-2738
1021.674	-1463
1021.743	-1711
1021.812	-1644
1021.882	-1428
1021.951	-1619
1022.020	-2127
1022.089	-2711
1022.159	-1549
1022.228	-1772
1022.297	-1392
1022.366	-1857
1022.435	-1623
1022.504	-1615
1022.573	-2148
1022.642	-2055
1022.711	-1614
1022.781	-2007
1022.849	-1193
1022.918	-2384
1022.987	-2172
1023.056	-2325
1023.125	-1980
1023.194	-1659
1023.263	-1104
1023.331	-2243
1023.400	-1908
1023.469	-1637
1023.538	-1176
1023.606	-2932
1023.675	-1633
1023.744	-2166
1023.812	-2160
1023.881	-1187
1023.949	-1110
1024.018	-2002
1024.086	-1988
1024.155	-2741
1024.223	-2232
1024.292	-1408
1024.360	-1675
1024.429	-2495
1024.497	-1302
1024.565	-1837
1024.634	-1305
1024.702	-1758
1024.770	-1288
1024.838	-2218
1024.907	-872
1024.975	-2140
1025.043	-1964
1025.111	-2339
1025.179	-2179
1025.247	-2029
1025.315	-1089
1025.383	-2087
1025.451	-1741
1025.519	-2541
1025.587	-1042
1025.655	-988
1025.723	-2847
1025.791	-861
1025.859	-1409
1025.927	-1322
1025.995	-1719
1026.062	-1549
1026.130	-1735
1026.198	-2069
1026.266	-1976
1026.333	-1276
1026.401	-1041
1026.469	-2233
1026.536	-1391
1026.604	-1968
1026.671	-1110
1026.739	-2196
1026.806	-1551
1026.874	-1865
1026.941	-2157
1027.009	-2605
1027.076	-2248
1027.144	-1684
1027.211	-2063
1027.278	-2812
1027.345	-2490
1027.413	-1702
1027.480	-2193
1027.547	-2279
1027.614	-1672
1027.682	-2489
1027.749	-1914
1027.816	-1882
1027.883	-1581
1027.950	-2062
1028.017	-1460
1028.084	-1260
1028.151	-1722
1028.218	-2552
1028.285	-1162
1028.352	-1966
1028.419	-1668
1028.486	-2039
1028.553	-2152
1028.619	-3270
1028.686	-1381
1028.753	-1709
1028.820	-1963
1028.886	-1976
1028.953	-1030
1029.020	-1360
1029.086	-1543
1029.153	-1699
1029.220	-1646
1029.286	-1813
1029.353	-1369
1029.419	-2933
1029.486	-1889
1029.552	-1584
1029.619	-1905
1029.685	-2403
1029.751	-1693
1029.818	-1131
1029.884	-1751
1029.951	-1190
1030.017	-1881
1030.083	-2351
1030.149	-957
1030.216	-2018
1030.282	-1474
1030.348	-2566
1030.414	-1752
1030.480	-1898
1030.546	-1774
1030.612	-2278
1030.678	-1511
1030.744	-2609
1030.810	-1601
1030.876	-2250
1030.942	-1703
1031.008	-2630
1031.074	-1621
1031.140	-1765
1031.206	-1356
1031.272	-2051
1031.337	-891
1031.403	-1890
1031.469	-2095
1031.534	-2703
1031.600	-1862
1031.666	-1726
1031.731	-1386
1031.797	-2322
1031.863	-1955
1031.928	-2127
1031.994	-1563
1032.059	-1669
1032.125	-1300
1032.190	-2308
1032.256	-1790
1032.321	-2332
1032.386	-1929
1032.452	-1998
1032.517	-1196
1032.582	-1633
1032.647	-1637
1032.713	-2693
1032.778	-1483
1032.843	-2053
1032.908	-1925
1032.974	-1563
1033.039	-1477
1033.104	-2196
1033.169	-1386
1033.234	-2871
1033.299	-1394
1033.364	-2062
1033.429	-1312
1033.494	-1603
1033.559	-1784
1033.624	-2546
1033.688	-1360
1033.753	-2381
1033.818	-1270
1033.883	-2037
1033.948	-1875
1034.013	-2185
1034.077	-1092
1034.142	-1892
1034.207	-1749
1034.271	-1973
1034.336	-1545
1034.400	-1971
1034.465	-1945
1034.530	-1588
1034.594	-1524
1034.658	-2453
1034.723	-1587
1034.787	-1721
1034.852	-2680
1034.916	-1840
1034.981	-1907
1035.045	-2105
1035.109	-1778
1035.173	-1514
1035.238	-1903
1035.302	-1870
1035.366	-2453
1035.430	-2628
1035.495	-2414
1035.559	-1496
1035.623	-1933
1035.687	-1904
1035.751	-1438
1035.815	-2093
1035.879	-2477
1035.943	-2266
1036.007	-1348
1036.071	-2413
1036.135	-1060
1036.198	-1796
1036.262	-2542
1036.326	-2812
1036.390	-1803
1036.454	-1696
1036.517	-1365
1036.581	-2570
1036.645	-1307
1036.709	-1625
1036.772	-2010
1036.836	-2300
1036.900	-1043
1036.963	-2362
1037.026	-1688
1037.090	-1883
1037.154	-2055
1037.217	-1931
1037.280	-1536
1037.344	-2625
1037.407	-1820
1037.471	-1639
1037.534	-2071
1037.597	-2527
1037.661	-2398
1037.724	-2617
1037.787	-1584
1037.850	-1649
1037.913	-2186
1037.977	-2124
1038.040	-2152
1038.103	-1705
1038.166	-2185
1038.229	-1636
1038.292	-1095
1038.355	-2067
1038.418	-1587
1038.481	-1591
1038.544	-2244
1038.607	-1884
1038.670	-1712
1038.732	-1561
1038.795	-1820
1038.858	-2574
1038.921	-1979
1038.984	-2488
1039.046	-1930
1039.109	-2505
1039.172	-2020
1039.234	-2896
1039.297	-2214
1039.360	-1753
1039.422	-1890
1039.485	-1730
1039.547	-2226
1039.610	-1859
1039.672	-1651
1039.734	-2237
1039.797	-1908
1039.859	-2293
1039.922	-1382
1039.984	-2232
1040.046	-1108
1040.109	-1600
1040.171	-1921
1040.233	-1789
1040.295	-1357
1040.358	-2761
1040.420	-2079
1040.482	-2045
1040.544	-1403
1040.606	-1915
1040.668	-1766
1040.730	-1972
1040.792	-2765
1040.854	-2733
1040.916	-2270
1040.978	-2036
1041.040	-828
1041.102	-2276
1041.164	-2090
1041.225	-2785
1041.287	-2436
1041.349	-2611
1041.411	-1978
1041.472	-2727
1041.534	-1408
1041.596	-2418
1041.657	-2486
1041.719	-2351
1041.781	-1887
1041.842	-2473
1041.904	-2119
1041.965	-1907
1042.027	-1032
1042.088	-2304
1042.150	-2267
1042.211	-2396
1042.272	-835
1042.334	-2422
1042.395	-1858
1042.456	-2363
1042.518	-1871
1042.579	-1870
1042.640	-3093
1042.701	-2318
1042.763	-1658
1042.824	-1962
1042.885	-2376
1042.946	-2277
1043.007	-1426
1043.068	-1962
1043.129	-1828
1043.190	-2400
1043.251	-1947
1043.312	-2657
1043.373	-1664
1043.434	-2546
1043.495	-1587
1043.556	-1351
1043.616	-1536
1043.677	-2340
1043.738	-2547
1043.799	-2333
1043.859	-2348
1043.920	-2223
1043.981	-2561
1044.041	-2452
1044.102	-1481
1044.162	-2764
1044.223	-1631
1044.284	-2206
1044.344	-1745
1044.405	-1831
1044.465	-2288
1044.525	-2043
1044.586	-1898
1044.646	-2134
1044.707	-1191
1044.767	-2226
1044.827	-2161
1044.887	-2496
1044.948	-2227
1045.008	-2336
1045.068	-2369
1045.128	-2784
1045.188	-2019
1045.249	-1347
1045.309	-2093
1045.369	-2533
1045.429	-2619
1045.489	-2204
1045.549	-974
1045.609	-2564
1045.669	-1864
1045.729	-2837
1045.789	-1811
1045.848	-1733
1045.908	-1648
1045.968	-1947
1046.028	-1459
1046.088	-1517
1046.147	-1332
1046.207	-2206
1046.267	-1290
1046.326	-1574
1046.386	-1280
1046.446	-964
1046.505	-2632
1046.565	-915
1046.624	-1492
1046.684	-933
1046.743	-413
1046.803	-1856
1046.862	-332
1046.922	0
