'Start Wavelength	183.907
'End Wavelength	1046.922
'Gate Delay	5.000
'Gate Width (ms)	1.050
'Laser Output Level	0.000
'X Position	0.000
'Y Position	0.000
'Z Position	0.000
'Grid Point Number	1.000
'Shot Number	100.000
183.907	-144.000
183.977	-102.000
184.047	110
184.116	823
184.186	669
184.256	352
184.325	-436
184.395	-10
184.465	1082
184.534	318
184.604	-286
184.674	320
184.743	-175
184.813	631
184.883	192
184.952	103
185.022	412
185.092	500
185.161	753
185.231	-10
185.301	1332
185.370	2018
185.440	599
185.509	109
185.579	1218
185.649	-36
185.718	315
185.788	613
185.857	229
185.927	-732
185.996	576
186.066	333
186.136	284
186.205	435
186.275	563
186.344	646
186.414	628
186.483	-123
186.553	1061
186.622	1867
186.692	976
186.761	741
186.831	920
186.900	78
186.970	795
187.039	318
187.109	1860
187.178	1240
187.248	856
187.317	504
187.387	597
187.456	1164
187.526	1937
187.595	1445
187.664	1692
187.734	500
187.803	1488
187.873	879
187.942	1751
188.012	315
188.081	663
188.150	758
188.220	1135
188.289	1179
188.358	1201
188.428	665
188.497	362
188.567	653
188.636	1030
188.705	1418
188.775	1208
188.844	-129
188.913	1769
188.983	433
189.052	1123
189.121	1199
189.191	726
189.260	1392
189.329	2261
189.399	826
189.468	1227
189.537	864
189.606	1380
189.676	802
189.745	1420
189.814	1767
189.883	2095
189.953	1079
190.022	2007
190.091	4089
190.161	5993
190.230	1609
190.299	1399
190.368	706
190.437	1019
190.507	1194
190.576	1782
190.645	1123
190.714	541
190.783	858
190.853	1732
190.922	1073
190.991	1417
191.060	1802
191.129	1332
191.198	1462
191.268	1120
191.337	828
191.406	1667
191.475	1060
191.544	910
191.613	731
191.682	888
191.752	125
191.821	1402
191.890	532
191.959	1068
192.028	860
192.097	774
192.166	1375
192.235	377
192.304	1547
192.373	887
192.442	1247
192.511	967
192.580	807
192.650	1179
192.719	614
192.788	1662
192.857	1187
192.926	1369
192.995	1261
193.064	2214
193.133	2951
193.202	3926
193.271	3556
193.340	3169
193.409	3457
193.478	3477
193.547	4257
193.615	6594
193.684	4898
193.753	4355
193.822	3196
193.891	1788
193.960	2287
194.029	2490
194.098	2221
194.167	1008
194.236	1634
194.305	1633
194.374	1101
194.443	1823
194.512	2002
194.580	1227
194.649	1777
194.718	2249
194.787	1389
194.856	1248
194.925	1594
194.994	2809
195.062	3149
195.131	2335
195.200	2324
195.269	3318
195.338	2401
195.407	1524
195.475	1143
195.544	3220
195.613	2126
195.682	3041
195.751	3011
195.819	3066
195.888	1922
195.957	3285
196.026	3838
196.094	3630
196.163	3283
196.232	3037
196.301	2911
196.369	2399
196.438	2490
196.507	2020
196.576	1822
196.644	2479
196.713	1128
196.782	1365
196.850	1683
196.919	1426
196.988	1952
197.056	1667
197.125	1809
197.194	2156
197.262	1054
197.331	1596
197.400	1926
197.468	1966
197.537	1319
197.606	2594
197.674	3269
197.743	6147
197.812	2988
197.880	5860
197.949	4144
198.017	5711
198.086	4534
198.155	2713
198.223	2207
198.292	7027
198.360	3757
198.429	1950
198.497	2818
198.566	4732
198.635	7138
198.703	3986
198.772	2930
198.840	7037
198.909	8897
198.977	2816
199.046	2368
199.114	3548
199.183	2478
199.251	1952
199.320	2261
199.388	2003
199.457	2038
199.525	1911
199.594	2209
199.662	2345
199.731	2641
199.799	2543
199.867	1891
199.936	2203
200.004	2316
200.073	2859
200.141	1737
200.210	1716
200.278	2683
200.346	2523
200.415	2696
200.483	3002
200.552	2306
200.620	2629
200.688	2717
200.757	2762
200.825	1850
200.893	2449
200.962	2603
201.030	2430
201.098	2169
201.167	3165
201.235	2611
201.303	2870
201.372	2095
201.440	2720
201.508	3198
201.577	3326
201.645	2251
201.713	2590
201.781	2019
201.850	4014
201.918	2525
201.986	1957
202.055	2962
202.123	2259
202.191	2194
202.259	2620
202.327	3198
202.396	2658
202.464	2342
202.532	4356
202.600	10623
202.669	8008
202.737	3470
202.805	2835
202.873	2829
202.941	2661
203.009	2689
203.078	2549
203.146	2916
203.214	2440
203.282	2416
203.350	3251
203.418	2476
203.487	3332
203.555	1757
203.623	2652
203.691	3216
203.759	2286
203.827	2532
203.895	3826
203.963	3073
204.031	2966
204.099	2940
204.168	2646
204.236	3015
204.304	3786
204.372	3154
204.440	3027
204.508	2433
204.576	2010
204.644	2816
204.712	2855
204.780	2524
204.848	2647
204.916	2031
204.984	2926
205.052	2539
205.120	3224
205.188	2705
205.256	3117
205.324	3057
205.392	2518
205.460	3046
205.528	3452
205.596	3297
205.664	2609
205.732	3092
205.799	7786
205.867	14141
205.935	4310
206.003	4438
206.071	3286
206.139	2702
206.207	3910
206.275	2637
206.343	3165
206.411	2863
206.478	3412
206.546	3359
206.614	3065
206.682	2466
206.750	3572
206.818	3632
206.885	4107
206.953	2052
207.021	3771
207.089	3408
207.157	3331
207.225	3313
207.292	2443
207.360	3235
207.428	3808
207.496	3201
207.563	4439
207.631	3385
207.699	3004
207.767	3510
207.834	3659
207.902	2662
207.970	3151
208.038	2511
208.105	4104
208.173	3679
208.241	4099
208.309	5418
208.376	5607
208.444	8313
208.512	5753
208.579	3826
208.647	4907
208.715	4971
208.782	3387
208.850	3041
208.918	4157
208.985	4019
209.053	4080
209.120	3844
209.188	2649
209.256	3320
209.323	3462
209.391	5589
209.459	5463
209.526	3375
209.594	3490
209.661	3457
209.729	4090
209.796	4313
209.864	4274
209.932	3241
209.999	4615
210.067	4710
210.134	4830
210.202	3929
210.269	6391
210.337	5939
210.404	4532
210.472	3835
210.539	4719
210.607	4656
210.674	5322
210.742	4577
210.809	4652
210.877	5445
210.944	5909
211.012	3564
211.079	5837
211.146	4745
211.214	4177
211.281	5272
211.349	5911
211.416	4666
211.484	5748
211.551	4651
211.618	4777
211.686	4213
211.753	4283
211.821	5146
211.888	4311
211.955	4887
212.023	4684
212.090	4323
212.157	4923
212.225	5237
212.292	9570
212.359	15972
212.427	35218
212.494	19759
212.561	8508
212.629	5939
212.696	6439
212.763	5692
212.831	4212
212.898	5534
212.965	4500
213.032	5233
213.100	5807
213.167	5286
213.234	6678
213.301	5014
213.369	5430
213.436	4143
213.503	4122
213.570	5749
213.638	5346
213.705	4104
213.772	3923
213.839	5556
213.906	6695
213.973	6784
214.041	5032
214.108	5102
214.175	5066
214.242	5561
214.309	5643
214.376	5136
214.444	6232
214.511	5552
214.578	6119
214.645	5869
214.712	6655
214.779	5246
214.846	5226
214.913	7354
214.980	7514
215.048	7494
215.115	8247
215.182	7697
215.249	6250
215.316	5417
215.383	5661
215.450	5378
215.517	5266
215.584	4940
215.651	4770
215.718	5116
215.785	6409
215.852	6001
215.919	7345
215.986	6284
216.053	5865
216.120	4986
216.187	6265
216.254	6198
216.321	5471
216.388	6402
216.455	6778
216.522	6189
216.589	7687
216.656	11498
216.722	13636
216.789	8635
216.856	8506
216.923	7207
216.990	7491
217.057	7912
217.124	9748
217.191	9101
217.258	10221
217.324	11940
217.391	12481
217.458	9648
217.525	8248
217.592	7378
217.659	6079
217.725	7364
217.792	9139
217.859	10468
217.926	5866
217.993	5167
218.059	5011
218.126	4623
218.193	5109
218.260	4127
218.327	3672
218.393	4496
218.460	5014
218.527	4019
218.594	5351
218.660	9049
218.727	10695
218.794	5005
218.860	5410
218.927	3650
218.994	4616
219.061	3572
219.127	5565
219.194	8393
219.261	5157
219.327	3382
219.394	3780
219.461	2819
219.527	3485
219.594	6264
219.661	4280
219.727	2893
219.794	3831
219.860	3666
219.927	5261
219.994	7220
220.060	12689
220.127	9980
220.193	7548
220.260	7097
220.326	11305
220.393	15228
220.460	18651
220.526	13193
220.593	9995
220.659	10528
220.726	10279
220.792	20840
220.859	21547
220.925	24011
220.992	29243
221.058	28971
221.125	27797
221.191	22035
221.258	11069
221.324	8703
221.391	7544
221.457	6622
221.524	5993
221.590	8420
221.657	21976
221.723	17241
221.789	14021
221.856	14459
221.922	8804
221.989	5719
222.055	5497
222.121	4248
222.188	7076
222.254	5172
222.321	3993
222.387	3147
222.453	3241
222.520	3799
222.586	3380
222.652	4383
222.719	3652
222.785	4325
222.851	3883
222.918	4274
222.984	4636
223.050	4179
223.116	3576
223.183	4139
223.249	2789
223.315	2574
223.382	3739
223.448	2629
223.514	3012
223.580	2161
223.647	2867
223.713	2544
223.779	2933
223.845	2282
223.911	3301
223.978	2153
224.044	3455
224.110	2305
224.176	3447
224.242	3358
224.309	2476
224.375	3351
224.441	3153
224.507	2209
224.573	1796
224.639	3512
224.705	2198
224.772	2931
224.838	3240
224.904	4469
224.970	3280
225.036	3271
225.102	3882
225.168	3793
225.234	3830
225.300	3470
225.366	4143
225.432	3107
225.499	3643
225.565	3597
225.631	3998
225.697	3520
225.763	4821
225.829	6583
225.895	7799
225.961	10226
226.027	9417
226.093	8508
226.159	10599
226.225	15126
226.291	31130
226.357	47056
226.423	28593
226.489	16938
226.554	12361
226.620	10606
226.686	14923
226.752	21629
226.818	32626
226.884	58088
226.950	54523
227.016	26145
227.082	16285
227.148	11758
227.214	13070
227.279	10070
227.345	8461
227.411	6552
227.477	7744
227.543	12722
227.609	16389
227.674	10642
227.740	6994
227.806	5938
227.872	5587
227.938	5959
228.003	10601
228.069	6368
228.135	4771
228.201	4873
228.267	4374
228.332	6322
228.398	6600
228.464	6064
228.530	3743
228.595	3910
228.661	3671
228.727	8534
228.792	7921
228.858	4505
228.924	4834
228.990	7520
229.055	5893
229.121	7537
229.187	4794
229.252	5406
229.318	3495
229.384	4810
229.449	6849
229.515	3032
229.581	2336
229.646	5159
229.712	5572
229.777	11900
229.843	14029
229.909	9321
229.974	9483
230.040	8499
230.105	6673
230.171	6516
230.236	8503
230.302	13479
230.368	11460
230.433	4710
230.499	7264
230.564	7362
230.630	5488
230.695	4264
230.761	3918
230.826	3113
230.892	8133
230.957	4924
231.023	5024
231.088	3821
231.154	4502
231.219	5355
231.284	6862
231.350	9094
231.415	4135
231.481	3825
231.546	4284
231.612	3588
231.677	2912
231.742	2845
231.808	5518
231.873	3646
231.939	2381
232.004	8699
232.069	9376
232.135	4689
232.200	4526
232.265	3664
232.331	2653
232.396	1873
232.461	3243
232.527	2743
232.592	3378
232.657	4084
232.723	8819
232.788	7565
232.853	4110
232.918	3290
232.984	3434
233.049	3348
233.114	8347
233.179	8704
233.245	10988
233.310	16027
233.375	5542
233.440	4656
233.506	3594
233.571	3743
233.636	4021
233.701	3933
233.766	9392
233.832	13886
233.897	6229
233.962	5403
234.027	8547
234.092	7066
234.157	6494
234.222	6090
234.288	8724
234.353	29442
234.418	28635
234.483	15317
234.548	10655
234.613	7599
234.678	8034
234.743	8791
234.808	30994
234.873	20443
234.938	9487
235.004	7262
235.069	7239
235.134	5904
235.199	6031
235.264	5008
235.329	4258
235.394	5510
235.459	8481
235.524	7460
235.589	6833
235.654	4988
235.719	4256
235.784	5205
235.849	7145
235.913	17866
235.978	19325
236.043	22533
236.108	9619
236.173	8289
236.238	10175
236.303	6506
236.368	7084
236.433	11435
236.498	21702
236.563	15324
236.627	25515
236.692	77150
236.757	71724
236.822	32506
236.887	24141
236.952	18691
237.017	14595
237.081	16504
237.146	19842
237.211	39069
237.276	75951
237.341	120351
237.405	73126
237.470	31261
237.535	24053
237.600	14153
237.664	12014
237.729	9396
237.794	12707
237.859	25265
237.923	20106
237.988	11369
238.053	16186
238.118	17497
238.182	37598
238.247	37672
238.312	19857
238.376	13888
238.441	11775
238.506	10586
238.570	5661
238.635	7287
238.700	5985
238.764	6310
238.829	16329
238.893	23541
238.958	11386
239.023	10352
239.087	6635
239.152	8422
239.216	5946
239.281	5664
239.346	5218
239.410	6343
239.475	7921
239.539	35438
239.604	32007
239.668	9725
239.733	7514
239.797	9689
239.862	22001
239.926	34624
239.991	15465
240.055	7881
240.120	6935
240.184	6796
240.249	6498
240.313	5783
240.378	7008
240.442	21138
240.507	38068
240.571	12963
240.635	18210
240.700	24228
240.764	9494
240.829	6708
240.893	4835
240.957	7299
241.022	20342
241.086	39191
241.151	19750
241.215	7817
241.279	11222
241.344	21605
241.408	10566
241.472	7957
241.537	7863
241.601	7294
241.665	5827
241.730	5451
241.794	7824
241.858	7183
241.922	6629
241.987	7524
242.051	6182
242.115	5085
242.179	6459
242.244	4273
242.308	6909
242.372	7672
242.436	9598
242.501	8035
242.565	5879
242.629	5312
242.693	6171
242.757	4316
242.822	5705
242.886	7040
242.950	7382
243.014	7553
243.078	9204
243.142	8889
243.206	7566
243.271	9851
243.335	9200
243.399	13611
243.463	43061
243.527	117431
243.591	42367
243.655	18216
243.719	11134
243.783	11390
243.847	17137
243.911	22619
243.975	27755
244.040	21569
244.104	11804
244.168	8532
244.232	13723
244.296	20066
244.360	20452
244.424	13181
244.488	10590
244.552	9326
244.615	6865
244.679	7278
244.743	9823
244.807	11118
244.871	6850
244.935	6908
244.999	5124
245.063	7644
245.127	8929
245.191	13468
245.255	14677
245.319	11280
245.383	11483
245.446	9405
245.510	7349
245.574	8198
245.638	9484
245.702	7761
245.766	22360
245.829	13449
245.893	10580
245.957	8067
246.021	9548
246.085	9567
246.149	12893
246.212	27324
246.276	44042
246.340	21710
246.404	14628
246.467	13599
246.531	22139
246.595	14891
246.659	12861
246.722	11624
246.786	15679
246.850	15555
246.913	20815
246.977	10020
247.041	10121
247.104	12143
247.168	10990
247.232	26044
247.295	56733
247.359	29476
247.423	14483
247.486	23762
247.550	16198
247.614	13127
247.677	16709
247.741	11628
247.804	10358
247.868	12624
247.932	23449
247.995	53936
248.059	23410
248.122	12550
248.186	15488
248.249	25007
248.313	82219
248.376	90476
248.440	60570
248.503	23995
248.567	20092
248.630	26454
248.694	36586
248.757	43569
248.821	89947
248.884	58198
248.948	50172
249.011	71193
249.075	103195
249.138	94135
249.202	39259
249.265	25396
249.328	31601
249.392	23067
249.455	18266
249.519	14408
249.582	18572
249.645	28824
249.709	23903
249.772	16929
249.835	14943
249.899	18419
249.962	15482
250.025	14355
250.089	33363
250.152	49710
250.215	25969
250.279	17913
250.342	19349
250.405	18323
250.468	16725
250.532	22624
250.595	33270
250.658	102122
250.721	171364
250.785	67133
250.848	36678
250.911	22816
250.974	21987
251.038	27411
251.101	56595
251.164	32064
251.227	31403
251.290	28851
251.354	39801
251.417	138663
251.480	151016
251.543	102779
251.606	240500
251.669	199667
251.732	85399
251.795	80555
251.859	83024
251.922	164664
251.985	107283
252.048	43538
252.111	32934
252.174	30816
252.237	51196
252.300	110535
252.363	114990
252.426	212160
252.489	102455
252.552	59176
252.615	40076
252.678	38775
252.741	82607
252.804	105229
252.867	214803
252.930	142081
252.993	79155
253.056	47450
253.119	38568
253.182	29736
253.245	46905
253.308	39184
253.371	36402
253.434	35459
253.497	31952
253.559	53834
253.622	42270
253.685	51040
253.748	53494
253.811	27599
253.874	34826
253.937	33319
254.000	24756
254.062	37479
254.125	58489
254.188	51528
254.251	48820
254.314	24549
254.376	41356
254.439	47924
254.502	39661
254.565	41088
254.628	68521
254.690	46165
254.753	26744
254.816	21711
254.878	26116
254.941	39977
255.004	44269
255.067	21687
255.129	22558
255.192	13016
255.255	12444
255.317	16866
255.380	12287
255.443	9348
255.505	9974
255.568	10101
255.631	11227
255.693	11573
255.756	9966
255.819	9957
255.881	8980
255.944	9033
256.006	8731
256.069	9305
256.132	9568
256.194	13625
256.257	37379
256.319	28148
256.382	26682
256.444	13710
256.507	11217
256.569	10318
256.632	12317
256.694	20403
256.757	41865
256.819	122375
256.882	59370
256.944	24867
257.007	20075
257.069	22042
257.132	15555
257.194	13051
257.257	11963
257.319	12732
257.381	15208
257.444	35756
257.506	131081
257.569	166979
257.631	103114
257.693	49975
257.756	25967
257.818	23678
257.880	15989
257.943	14159
258.005	12393
258.067	11419
258.130	10965
258.192	14093
258.254	30057
258.317	19613
258.379	12150
258.441	29899
258.503	31434
258.566	39259
258.628	55297
258.690	15870
258.753	14481
258.815	26460
258.877	17521
258.939	11128
259.001	10362
259.064	9611
259.126	14340
259.188	20533
259.250	13146
259.312	17851
259.375	50945
259.437	34093
259.499	13896
259.561	12033
259.623	12744
259.685	12499
259.747	12739
259.809	36713
259.872	74269
259.934	98350
259.996	95534
260.058	29343
260.120	14534
260.182	12308
260.244	10723
260.306	9208
260.368	10156
260.430	10471
260.492	21962
260.554	47620
260.616	41733
260.678	50764
260.740	79670
260.802	21716
260.864	17303
260.926	14153
260.988	14037
261.050	14258
261.112	29268
261.174	75948
261.236	62246
261.298	20470
261.359	33957
261.421	51483
261.483	16462
261.545	13775
261.607	9684
261.669	11033
261.731	22312
261.793	53873
261.854	26222
261.916	15653
261.978	14034
262.040	16241
262.102	12670
262.164	22252
262.225	19021
262.287	11078
262.349	27173
262.411	23226
262.472	12421
262.534	23012
262.596	53122
262.658	18781
262.719	11743
262.781	16112
262.843	48492
262.904	23793
262.966	16259
263.028	20648
263.090	79619
263.151	201538
263.213	70181
263.275	38288
263.336	18091
263.398	14004
263.459	10287
263.521	11383
263.583	24736
263.644	19153
263.706	9991
263.767	7604
263.829	7973
263.891	6270
263.952	7372
264.014	6085
264.075	12869
264.137	32267
264.198	17301
264.260	7763
264.321	8609
264.383	19619
264.444	48790
264.506	18044
264.567	12149
264.629	17698
264.690	39401
264.752	17490
264.813	12491
264.875	8047
264.936	8328
264.998	7557
265.059	8204
265.120	8653
265.182	14376
265.243	58692
265.305	70872
265.366	19825
265.427	12151
265.489	10348
265.550	7266
265.611	10425
265.673	11914
265.734	8365
265.795	7485
265.857	7236
265.918	8884
265.979	19073
266.040	96381
266.102	95164
266.163	29151
266.224	22979
266.286	14678
266.347	9535
266.408	10055
266.469	11460
266.530	9439
266.592	7883
266.653	16467
266.714	29252
266.775	11955
266.836	8207
266.898	7547
266.959	12809
267.020	11382
267.081	8054
267.142	6422
267.203	6419
267.264	6341
267.326	8173
267.387	7079
267.448	6303
267.509	6526
267.570	7067
267.631	6700
267.692	5705
267.753	7134
267.814	6175
267.875	14274
267.936	33865
267.997	18929
268.058	16382
268.119	9856
268.180	10509
268.241	8755
268.302	7311
268.363	6481
268.424	8076
268.485	9429
268.546	6614
268.607	5681
268.668	5410
268.729	5152
268.790	6761
268.851	8547
268.912	20833
268.972	27793
269.033	15522
269.094	8287
269.155	6782
269.216	6709
269.277	8492
269.338	7062
269.398	6417
269.459	8789
269.520	12379
269.581	16603
269.642	19078
269.702	14316
269.763	10032
269.824	8802
269.885	10798
269.945	19105
270.006	8850
270.067	6422
270.128	6667
270.188	7203
270.249	6690
270.310	6020
270.370	6752
270.431	6920
270.492	6368
270.553	7709
270.613	17586
270.674	34592
270.734	16859
270.795	10469
270.856	13902
270.916	13914
270.977	8580
271.038	10419
271.098	12188
271.159	17416
271.219	18203
271.280	9049
271.340	7841
271.401	11314
271.462	29707
271.522	16713
271.583	10461
271.643	10197
271.704	10262
271.764	12006
271.825	26093
271.885	78691
271.946	111065
272.006	41018
272.066	47085
272.127	85585
272.187	29393
272.248	17777
272.308	18978
272.369	55361
272.429	36265
272.489	26880
272.550	31189
272.610	28733
272.671	25602
272.731	22607
272.791	40561
272.852	22724
272.912	18758
272.972	12294
273.033	11152
273.093	20509
273.153	20061
273.214	13959
273.274	16334
273.334	44485
273.394	91035
273.455	41250
273.515	35902
273.575	79858
273.635	37976
273.696	45052
273.756	85073
273.816	39922
273.876	23257
273.936	48020
273.997	90545
274.057	27904
274.117	19803
274.177	27810
274.237	97030
274.297	97239
274.358	72663
274.418	69379
274.478	55668
274.538	26889
274.598	23402
274.658	69990
274.718	96673
274.778	40850
274.838	21864
274.898	42935
274.958	130419
275.018	94848
275.078	62534
275.138	28792
275.198	17394
275.258	15053
275.318	17692
275.378	32113
275.438	33190
275.498	24617
275.558	53531
275.618	109794
275.678	66840
275.738	39433
275.798	34704
275.858	22622
275.918	12348
275.978	15068
276.038	15425
276.098	12804
276.157	22105
276.217	63306
276.277	33462
276.337	24534
276.397	14984
276.457	17003
276.517	14201
276.576	11027
276.636	10837
276.696	18379
276.756	38398
276.815	33099
276.875	15795
276.935	18974
276.995	18064
277.055	12416
277.114	11759
277.174	16968
277.234	48586
277.293	26330
277.353	16462
277.413	13148
277.472	13212
277.532	15331
277.592	16537
277.651	46033
277.711	95487
277.771	36877
277.830	98666
277.890	95001
277.950	62467
278.009	161182
278.069	72146
278.128	62964
278.188	98479
278.248	47224
278.307	99650
278.367	71369
278.426	26384
278.486	18296
278.545	14831
278.605	14269
278.664	14043
278.724	16366
278.783	33239
278.843	87805
278.902	33460
278.962	21459
279.021	24827
279.081	35920
279.140	36482
279.199	27294
279.259	25035
279.318	27168
279.378	36480
279.437	63901
279.496	184900
279.556	456924
279.615	411065
279.675	141528
279.734	79115
279.793	102358
279.853	153415
279.912	65133
279.971	37346
280.031	35715
280.090	52731
280.149	98448
280.208	92347
280.268	310658
280.327	357007
280.386	111250
280.445	69630
280.505	63603
280.564	35298
280.623	30002
280.682	35723
280.742	52144
280.801	23047
280.860	17414
280.919	15919
280.978	15464
281.037	15830
281.097	14297
281.156	14954
281.215	13874
281.274	17261
281.333	53450
281.392	50271
281.451	16210
281.510	12561
281.569	13581
281.628	12118
281.688	11649
281.747	12445
281.806	13958
281.865	10425
281.924	11528
281.983	12173
282.042	8642
282.101	8358
282.160	10199
282.219	9010
282.278	11165
282.337	33379
282.396	29350
282.454	12689
282.513	16636
282.572	48903
282.631	36590
282.690	14674
282.749	11871
282.808	15834
282.867	15320
282.926	15105
282.985	11066
283.043	9009
283.102	10226
283.161	13663
283.220	26107
283.279	59988
283.338	24103
283.396	14529
283.455	14676
283.514	14649
283.573	21623
283.631	19081
283.690	14092
283.749	13363
283.808	24707
283.866	31810
283.925	15689
283.984	14771
284.043	18868
284.101	21233
284.160	16176
284.219	22341
284.277	19684
284.336	26240
284.395	69403
284.453	67852
284.512	28974
284.570	34725
284.629	35122
284.688	29917
284.746	33926
284.805	39869
284.863	49116
284.922	62778
284.981	75087
285.039	104547
285.098	173008
285.156	337083
285.215	485300
285.273	462033
285.332	386044
285.390	228399
285.449	146033
285.507	100722
285.566	75143
285.624	58589
285.683	47092
285.741	37345
285.799	34062
285.858	30337
285.916	27104
285.975	22348
286.033	19701
286.091	17612
286.150	15633
286.208	16653
286.267	19616
286.325	18932
286.383	26420
286.442	23747
286.500	14529
286.558	12470
286.616	12503
286.675	16994
286.733	17108
286.791	15519
286.850	17654
286.908	20993
286.966	33268
287.024	17785
287.083	12975
287.141	11100
287.199	12015
287.257	19129
287.315	15294
287.374	15593
287.432	31809
287.490	25877
287.548	17514
287.606	13096
287.664	13177
287.723	17938
287.781	26709
287.839	16071
287.897	17648
287.955	22262
288.013	33898
288.071	72145
288.129	220246
288.187	548876
288.245	313447
288.303	107832
288.361	59360
288.419	47095
288.477	34530
288.535	26291
288.593	20066
288.651	17037
288.709	13684
288.767	13302
288.825	13557
288.883	11172
288.941	11442
288.999	10635
289.057	10713
289.115	10469
289.173	10220
289.231	11666
289.289	12309
289.346	10818
289.404	11852
289.462	21007
289.520	23938
289.578	12457
289.636	8582
289.694	7597
289.751	8664
289.809	7640
289.867	8903
289.925	11862
289.983	15345
290.040	8681
290.098	7746
290.156	11043
290.214	13910
290.271	9987
290.329	7693
290.387	7506
290.444	7703
290.502	6542
290.560	6886
290.617	8017
290.675	8950
290.733	8359
290.790	10430
290.848	8964
290.906	10039
290.963	11000
291.021	10101
291.078	9009
291.136	11628
291.194	26749
291.251	66905
291.309	25567
291.366	11500
291.424	9275
291.481	11537
291.539	10820
291.596	12120
291.654	7783
291.711	7658
291.769	10586
291.826	23380
291.884	18509
291.941	10026
291.999	9234
292.056	12059
292.114	13385
292.171	9604
292.228	10053
292.286	14469
292.343	24373
292.401	32424
292.458	21965
292.515	14784
292.573	16542
292.630	16649
292.687	17411
292.745	13936
292.802	18947
292.859	43107
292.917	71529
292.974	50476
293.031	18125
293.089	12427
293.146	10932
293.203	10886
293.260	10483
293.318	16992
293.375	21824
293.432	14830
293.489	10885
293.546	11414
293.604	17564
293.661	44529
293.718	106037
293.775	65047
293.832	33451
293.889	27024
293.947	31664
294.004	24954
294.061	20497
294.118	33592
294.175	64724
294.232	82029
294.289	41713
294.346	21220
294.403	18419
294.460	17911
294.517	15743
294.574	13950
294.631	13049
294.688	16927
294.745	34970
294.802	109186
294.859	132849
294.916	65514
294.973	42478
295.030	30325
295.087	24799
295.144	18763
295.201	15680
295.258	14561
295.315	18350
295.372	42550
295.429	86491
295.486	45058
295.542	27326
295.599	48028
295.656	89221
295.713	65732
295.770	81552
295.827	39607
295.883	21071
295.940	19908
295.997	31003
296.054	35855
296.111	19207
296.167	13138
296.224	10939
296.281	9684
296.338	10090
296.394	11121
296.451	15462
296.508	36532
296.564	73930
296.621	56978
296.678	87501
296.734	140160
296.791	63435
296.848	32117
296.904	32140
296.961	61344
297.018	93951
297.074	79082
297.131	34182
297.187	24954
297.244	33035
297.301	80512
297.357	155740
297.414	69287
297.470	28059
297.527	19871
297.583	16807
297.640	18574
297.696	15153
297.753	12610
297.809	9802
297.866	9006
297.922	9496
297.979	11018
298.035	12854
298.092	21704
298.148	49729
298.204	59789
298.261	33893
298.317	43584
298.374	108357
298.430	80115
298.486	41070
298.543	31830
298.599	25843
298.656	25290
298.712	40114
298.768	93201
298.824	79595
298.881	30193
298.937	17991
298.993	16369
299.050	20515
299.106	20935
299.162	16151
299.218	17254
299.275	15119
299.331	17722
299.387	28476
299.443	88987
299.500	112300
299.556	51719
299.612	25915
299.668	23318
299.724	25771
299.780	29727
299.837	22179
299.893	29500
299.949	79449
300.005	112772
300.061	88178
300.117	137887
300.173	83183
300.229	38586
300.285	42021
300.341	52032
300.397	31173
300.453	19839
300.510	17107
300.566	19327
300.622	22271
300.678	47708
300.734	95295
300.790	91313
300.845	106293
300.901	72632
300.957	90075
301.013	82424
301.069	36982
301.125	24597
301.181	28337
301.237	22369
301.293	15159
301.349	13056
301.405	12318
301.461	12042
301.516	13889
301.572	17115
301.628	31594
301.684	33604
301.740	38382
301.796	63950
301.851	48017
301.907	71165
301.963	84055
302.019	106294
302.074	253054
302.130	284193
302.186	143491
302.242	60371
302.297	39447
302.353	37066
302.409	60744
302.464	64753
302.520	50665
302.576	102551
302.631	127070
302.687	83845
302.743	39186
302.798	22509
302.854	17685
302.910	18823
302.965	23592
303.021	42778
303.076	43690
303.132	49921
303.187	62264
303.243	36895
303.299	19780
303.354	16212
303.410	13968
303.465	14191
303.521	13215
303.576	14585
303.632	19684
303.687	30458
303.743	81398
303.798	85241
303.853	38924
303.909	22190
303.964	20196
304.020	27643
304.075	47161
304.130	42847
304.186	68976
304.241	77225
304.297	63136
304.352	37517
304.358	36002
304.407	23738
304.449	21821
304.463	21189
304.518	23748
304.539	23117
304.573	22155
304.629	21384
304.630	21574
304.684	30961
304.720	52777
304.739	63657
304.794	107092
304.811	93715
304.850	62011
304.902	32116
304.905	30191
304.960	20371
304.992	21158
305.015	21700
305.071	20684
305.083	19920
305.126	17192
305.173	13384
305.181	12781
305.236	11596
305.264	12250
305.292	12882
305.347	17264
305.354	17380
305.402	18244
305.445	20417
305.457	20998
305.512	25875
305.535	26778
305.567	28104
305.622	27466
305.626	28232
305.678	44376
305.716	79170
305.733	91894
305.788	120577
305.807	105544
305.843	79420
305.897	85205
305.898	85183
305.953	93285
305.988	66339
306.008	51640
306.063	31038
306.078	28599
306.118	22684
306.168	16741
306.173	16226
306.228	14535
306.259	13539
306.283	12793
306.338	12601
306.349	12840
306.393	13866
306.440	17345
306.448	18029
306.503	18781
306.530	20956
306.558	25521
306.613	50241
306.620	54550
306.668	79477
306.711	92573
306.723	93905
306.778	82202
306.801	64946
306.833	44608
306.888	24383
306.892	23670
306.943	16513
306.982	15185
306.997	14736
307.052	14463
307.072	15003
307.107	17173
307.162	21935
307.163	22073
307.217	34593
307.253	42121
307.272	44001
307.327	49319
307.343	45134
307.381	37153
307.434	33038
307.436	33330
307.491	52980
307.524	78042
307.546	86557
307.600	87582
307.614	77889
307.655	50970
307.704	30147
307.710	28887
307.765	32212
307.795	39132
307.819	44349
307.874	73334
307.885	73215
307.929	62079
307.975	43924
307.984	42933
308.038	51820
308.065	64283
308.093	98709
308.148	191361
308.156	213739
308.202	312680
308.246	382382
308.257	382708
308.312	238415
308.336	178160
308.366	132676
308.421	87734
308.426	83927
308.475	54508
308.517	40847
308.530	37558
308.585	32046
308.607	31036
308.639	31720
308.694	35962
308.697	36492
308.748	56376
308.787	83196
308.803	85002
308.857	71697
308.877	60782
308.912	49334
308.967	43449
308.967	43571
309.021	56252
309.058	70232
309.076	84795
309.130	143161
309.148	168264
309.185	272792
309.238	447563
309.239	448104
309.293	480961
309.328	445033
309.348	400915
309.402	222583
309.418	177534
309.457	125713
309.508	84221
309.511	82467
309.566	75979
309.598	77852
309.620	85508
309.674	115431
309.688	124767
309.729	122989
309.778	103811
309.783	101855
309.837	74910
309.868	62682
309.892	65481
309.946	81375
309.959	88958
310.001	103868
310.049	116259
310.055	113673
310.109	74743
310.139	50004
310.163	38841
310.218	24850
310.229	23178
310.272	19118
310.319	16648
310.326	16233
310.381	14841
310.409	14597
310.435	14433
310.489	13720
310.499	13747
310.543	13715
310.589	13875
310.598	13608
310.652	13270
310.679	12508
310.706	11058
310.760	7983
310.769	7638
310.814	7043
310.859	6683
310.868	6707
310.923	7300
310.948	7669
310.977	8435
311.031	10324
311.038	10630
311.085	10019
311.128	9135
311.139	9028
311.193	8586
311.218	8422
311.247	7914
311.301	7178
311.308	7133
311.356	7298
311.398	7454
311.410	7198
311.464	6371
311.488	5887
311.518	6286
311.572	7329
311.578	7489
311.626	9874
311.668	12261
311.680	12290
311.734	12139
311.758	12172
311.788	11850
311.842	11276
311.847	11272
311.896	14587
311.937	17751
311.950	17009
312.004	13979
312.027	12604
312.058	10791
312.112	7825
312.117	7590
312.165	7604
312.207	7742
312.297	10292
312.386	7843
312.476	9486
312.566	17066
312.656	8244
312.745	4957
312.835	8016
312.925	7572
313.015	7771
313.104	8767
313.194	6287
313.284	6524
313.374	9712
313.463	7520
313.553	6149
313.643	5163
313.732	5001
313.822	5205
313.912	7069
314.001	8021
314.091	10099
314.180	11786
314.270	11211
314.360	12779
314.449	10089
314.539	6286
314.628	5542
314.718	9189
314.808	11589
314.897	6414
314.987	6595
315.076	9981
315.166	13702
315.255	12239
315.345	12478
315.434	12291
315.524	11902
315.613	13665
315.703	17898
315.792	31938
315.881	97817
315.971	32806
316.060	27469
316.150	41541
316.239	39563
316.328	12964
316.418	7172
316.507	8035
316.597	10396
316.686	11220
316.775	22380
316.865	40324
316.954	8499
317.043	5866
317.133	6717
317.222	6316
317.311	6572
317.400	6361
317.490	12326
317.579	12603
317.668	11944
317.757	21408
317.847	55827
317.936	171696
318.025	55752
318.114	34280
318.203	18950
318.293	20347
318.382	28562
318.471	24814
318.560	40187
318.649	63568
318.738	14156
318.828	13670
318.917	14156
319.006	22416
319.095	54622
319.184	88721
319.273	46829
319.362	23792
319.451	10829
319.540	11499
319.629	26750
319.718	34142
319.807	19253
319.896	45500
319.985	104907
320.074	35305
320.163	14903
320.252	25957
320.341	19047
320.430	13532
320.519	19637
320.608	10720
320.697	9737
320.786	10643
320.875	13679
320.964	18774
321.053	27439
321.142	41533
321.230	37332
321.319	38074
321.408	64573
321.497	28140
321.586	30221
321.675	42215
321.764	34229
321.852	25318
321.941	39640
322.030	24732
322.119	36632
322.207	74212
322.296	57127
322.385	27915
322.474	37539
322.562	85775
322.651	38668
322.740	39070
322.829	53110
322.917	57313
323.006	28987
323.095	23146
323.183	22309
323.272	33577
323.361	68553
323.449	163182
323.538	59324
323.626	124284
323.715	65000
323.804	38631
323.892	110788
323.981	49479
324.069	23003
324.158	67940
324.246	47476
324.335	19827
324.424	23584
324.512	10754
324.601	16600
324.689	40579
324.778	61364
324.866	42005
324.954	12258
325.043	12540
325.131	30747
325.220	48816
325.308	51320
325.397	38499
325.485	19760
325.574	8219
325.662	7331
325.750	8505
325.839	7065
325.927	7705
326.015	12087
326.104	23428
326.192	26530
326.280	7550
326.369	8449
326.457	13004
326.545	19474
326.634	8553
326.722	5783
326.810	6329
326.898	6966
326.987	9908
327.075	20969
327.163	23580
327.251	14951
327.340	25834
327.428	25977
327.516	7357
327.604	7997
327.692	8779
327.781	13263
327.869	21626
327.957	12739
328.045	10093
328.133	6938
328.221	10521
328.309	7864
328.397	6802
328.485	10371
328.574	17822
328.662	44306
328.750	27019
328.838	12040
328.926	6915
329.014	5441
329.102	13462
329.190	27682
329.278	13527
329.366	5734
329.454	5612
329.542	4552
329.630	5434
329.718	5983
329.806	7915
329.893	7987
329.981	7312
330.069	12537
330.157	45704
330.245	90270
330.333	37770
330.421	10775
330.509	19296
330.597	55041
330.684	29680
330.772	15233
330.860	21073
330.948	20893
331.036	8820
331.123	4794
331.211	6640
331.299	9195
331.387	26464
331.475	29226
331.562	10548
331.650	6536
331.738	9893
331.825	12520
331.913	6657
332.001	6507
332.089	12197
332.176	25515
332.264	64605
332.352	37620
332.439	11224
332.527	8704
332.614	9149
332.702	12192
332.790	9702
332.877	32450
332.965	51725
333.052	14570
333.140	19845
333.228	35414
333.315	10006
333.403	12631
333.490	38907
333.578	30075
333.665	40787
333.753	17417
333.840	8445
333.928	14255
334.015	39387
334.103	61909
334.190	129078
334.278	28114
334.365	17177
334.452	11612
334.540	8379
334.627	14171
334.715	20898
334.802	55166
334.889	230167
334.977	169495
335.064	21795
335.151	11452
335.239	12002
335.326	19171
335.413	71603
335.501	60588
335.588	11888
335.675	9033
335.762	15156
335.850	19319
335.937	19726
336.024	66655
336.111	202445
336.199	64530
336.286	14642
336.373	7973
336.460	6445
336.547	6491
336.635	10522
336.722	8036
336.809	8098
336.896	16904
336.983	49965
337.070	96680
337.157	117897
337.245	138439
337.332	77621
337.419	11413
337.506	8275
337.593	12011
337.680	44904
337.767	71730
337.854	27579
337.941	32138
338.028	43820
338.115	15003
338.202	18993
338.289	49073
338.376	128095
338.463	38534
338.550	59965
338.637	41312
338.724	30455
338.811	37979
338.898	8649
338.984	7191
339.071	8755
339.158	13691
339.245	27555
339.332	16449
339.419	32298
339.506	22317
339.593	5053
339.679	6080
339.766	6018
339.853	11151
339.940	18044
340.027	6883
340.113	7349
340.200	9844
340.287	8580
340.374	13412
340.460	16010
340.547	8050
340.634	18943
340.720	54093
340.807	22627
340.894	6127
340.980	7702
341.067	6111
341.154	8218
341.240	14433
341.327	24279
341.414	9151
341.500	8288
341.587	6707
341.674	7707
341.760	18929
341.847	18288
341.933	6614
342.020	3542
342.106	4343
342.193	8355
342.279	12934
342.366	12036
342.452	17313
342.539	10825
342.625	29486
342.712	53937
342.798	20701
342.885	8789
342.971	3445
343.058	3555
343.144	5520
343.230	4672
343.317	5628
343.403	3873
343.490	3893
343.576	4190
343.662	6300
343.749	7803
343.835	11890
343.921	25243
344.008	130034
344.094	211031
344.180	44485
344.267	24449
344.353	70435
344.439	61169
344.525	25617
344.612	11522
344.698	8823
344.784	6451
344.870	6283
344.957	7484
345.043	10616
345.129	8967
345.215	15974
345.301	8319
345.387	6692
345.474	3914
345.560	5208
345.646	8370
345.732	5995
345.818	7151
345.904	7264
345.990	8829
346.076	12873
346.162	18853
346.249	7687
346.335	5318
346.421	8009
346.507	36583
346.593	81845
346.679	17398
346.765	6724
346.851	5991
346.937	5746
347.023	5546
347.108	8361
347.194	5953
347.280	5714
347.366	11694
347.452	39632
347.538	109798
347.624	77860
347.710	54329
347.796	10901
347.882	7030
347.967	6341
348.053	8641
348.139	6405
348.225	5487
348.311	6001
348.397	5130
348.482	8072
348.568	7921
348.654	5652
348.740	7868
348.825	7739
348.911	16636
348.997	63633
349.083	89339
349.168	14917
349.254	7685
349.340	6612
349.425	5398
349.511	9797
349.597	11499
349.682	25076
349.768	59620
349.854	21357
349.939	6396
350.025	5216
350.110	4150
350.196	4671
350.282	3851
350.367	6162
350.453	15898
350.538	12561
350.624	9530
350.709	7719
350.795	5746
350.880	6140
350.966	8430
351.051	13970
351.137	10466
351.222	7822
351.308	28459
351.393	46511
351.479	12101
351.564	5953
351.649	6231
351.735	5313
351.820	4838
351.906	6287
351.991	12169
352.076	44878
352.162	42271
352.247	9849
352.332	8949
352.418	15129
352.503	25128
352.588	81294
352.673	49333
352.759	14083
352.844	7997
352.929	10133
353.014	11266
353.100	10287
353.185	19329
353.270	24566
353.355	17973
353.441	7997
353.526	11580
353.611	23919
353.696	21197
353.781	13395
353.866	6258
353.952	9059
354.037	24310
354.122	42857
354.207	36125
354.292	13045
354.377	7083
354.462	5884
354.547	9680
354.632	9336
354.717	15251
354.802	19035
354.887	7659
354.972	5533
355.057	4490
355.142	4441
355.227	8740
355.312	15635
355.397	35998
355.482	68187
355.567	27972
355.652	26034
355.737	30369
355.822	78715
355.907	44969
355.991	10076
356.076	6498
356.161	6484
356.246	5496
356.331	8550
356.416	28759
356.501	137774
356.585	103423
356.670	16442
356.755	13557
356.840	25441
356.924	122687
357.009	294693
357.094	88317
357.179	25142
357.263	15889
357.348	17786
357.433	15855
357.517	14861
357.602	11260
357.687	10264
357.771	13777
357.856	15650
357.941	19243
358.025	92234
358.110	277464
358.195	103075
358.279	18873
358.364	19919
358.448	68189
358.533	135510
358.617	94651
358.702	90459
358.787	30919
358.871	21795
358.956	14916
359.040	7626
359.125	5634
359.209	6068
359.294	9325
359.378	11997
359.462	15786
359.547	10508
359.631	8720
359.716	6067
359.800	8235
359.885	11414
359.969	7494
360.053	7587
360.138	8277
360.222	12290
360.306	22150
360.391	15298
360.475	23836
360.559	43785
360.644	56323
360.728	38591
360.812	91265
360.896	175048
360.981	73473
361.065	32697
361.149	11905
361.233	11054
361.318	9760
361.402	12418
361.486	10475
361.570	8380
361.654	12755
361.739	39153
361.823	143787
361.907	160283
361.991	28327
362.075	23249
362.159	41679
362.243	28106
362.327	27686
362.411	29334
362.495	17489
362.580	10684
362.664	7462
362.748	7664
362.832	9458
362.916	18845
363.000	63087
363.084	168040
363.168	192079
363.252	41948
363.336	20903
363.420	35209
363.503	100603
363.587	76991
363.671	18195
363.755	15713
363.839	19096
363.923	11643
364.007	24474
364.091	27360
364.175	52563
364.258	136946
364.342	88043
364.426	91167
364.510	43694
364.594	29090
364.677	50686
364.761	168290
364.845	92697
364.929	37393
365.013	28560
365.096	28358
365.180	29369
365.264	56855
365.347	128877
365.431	46479
365.515	14730
365.598	9027
365.682	11005
365.766	20169
365.849	16453
365.933	12479
366.017	16452
366.100	9927
366.184	6699
366.267	8907
366.351	6328
366.435	6250
366.518	4349
366.602	5449
366.685	7241
366.769	9878
366.852	18728
366.936	24988
367.019	14822
367.103	16680
367.186	20641
367.270	6725
367.353	5039
367.436	7391
367.520	6120
367.603	9492
367.687	16386
367.770	24453
367.853	17787
367.937	55967
368.020	63400
368.104	17290
368.187	21871
368.270	26692
368.353	23278
368.437	48988
368.520	98427
368.603	50296
368.687	67317
368.770	86026
368.853	23350
368.936	28185
369.020	21479
369.103	9674
369.186	6845
369.269	8483
369.352	21381
369.436	23962
369.519	13307
369.602	7130
369.685	9759
369.768	10222
369.851	9159
369.934	7026
370.018	12252
370.101	22351
370.184	17072
370.267	12790
370.350	21093
370.433	35841
370.516	94605
370.599	101814
370.682	42156
370.765	59533
370.848	76891
370.931	118985
371.014	38384
371.097	10653
371.180	8415
371.263	6296
371.346	4754
371.429	7048
371.511	8497
371.594	16406
371.677	24673
371.760	23890
371.843	27718
371.926	126063
372.009	206678
372.091	60199
372.174	61166
372.257	110210
372.340	39729
372.423	41926
372.505	36217
372.588	18245
372.671	54199
372.754	121682
372.836	51595
372.919	58321
373.002	72660
373.085	23201
373.167	26535
373.250	64334
373.332	114807
373.415	179099
373.498	295137
373.580	106886
373.663	192440
373.746	194875
373.828	42448
373.911	21342
373.993	32797
374.076	91313
374.159	62608
374.241	46341
374.324	106187
374.406	62015
374.489	120013
374.571	244802
374.654	84226
374.736	64755
374.819	173062
374.901	239953
374.983	198998
375.066	33643
375.148	23868
375.231	86513
375.313	111379
375.395	36106
375.478	11349
375.560	10657
375.643	17102
375.725	70721
375.807	220770
375.890	164120
375.972	79104
376.054	51773
376.136	78542
376.219	32580
376.301	78554
376.383	165508
376.465	56381
376.548	45073
376.630	65938
376.712	145218
376.794	50515
376.877	9178
376.959	7295
377.041	11482
377.123	22266
377.205	17175
377.287	5678
377.369	6423
377.452	6888
377.534	6987
377.616	7079
377.698	6617
377.780	5595
377.862	8242
377.944	7902
378.026	4323
378.108	6323
378.190	6029
378.272	5999
378.354	5274
378.436	5810
378.518	17956
378.600	41694
378.682	36173
378.764	76339
378.846	44814
378.928	19184
379.010	22127
379.091	12022
379.173	7828
379.255	7365
379.337	14282
379.419	49190
379.501	96606
379.583	31176
379.664	14784
379.746	36061
379.828	79165
379.910	96605
379.991	66872
380.073	13634
380.155	11362
380.237	8217
380.318	7152
380.400	9444
380.482	21810
380.564	27925
380.645	31065
380.727	24171
380.809	14921
380.890	11260
380.972	8349
381.053	9572
381.135	12495
381.217	35666
381.298	71904
381.380	32416
381.461	46135
381.543	170299
381.624	154078
381.706	28761
381.787	19592
381.869	23691
381.951	91010
382.032	251289
382.113	127537
382.195	30842
382.276	27478
382.358	65845
382.439	135806
382.521	162591
382.602	219973
382.684	112725
382.765	210191
382.846	244009
382.928	337422
383.009	162891
383.090	173313
383.172	549179
383.253	619716
383.334	222833
383.416	216137
383.497	99006
383.578	68538
383.659	150075
383.741	516404
383.822	964377
383.903	418349
383.984	186720
384.066	252322
384.147	128660
384.228	34097
384.309	28567
384.390	21227
384.471	16839
384.553	19387
384.634	25936
384.715	23148
384.796	14942
384.877	25823
384.958	77117
385.039	71550
385.120	24830
385.201	16279
385.282	21546
385.363	20760
385.444	18418
385.525	39245
385.606	107999
385.687	73199
385.768	24552
385.849	37062
385.930	134995
386.011	172920
386.092	40885
386.173	14024
386.254	12572
386.335	13589
386.416	17437
386.496	54666
386.577	65085
386.658	25980
386.739	18369
386.820	18769
386.901	14249
386.981	14123
387.062	9996
387.143	27835
387.224	77001
387.304	56642
387.385	24167
387.466	18000
387.547	18865
387.627	14498
387.708	42400
387.789	139627
387.869	132113
387.950	31800
388.031	10246
388.111	13097
388.192	33081
388.273	39375
388.353	19500
388.434	15232
388.514	39749
388.595	135483
388.676	140585
388.756	66417
388.837	69103
388.917	33239
388.998	9498
389.078	10491
389.159	9450
389.239	8908
389.320	16787
389.400	14480
389.480	40736
389.561	73245
389.641	28559
389.722	17915
389.802	25289
389.883	43153
389.963	91427
390.043	51048
390.124	22025
390.204	37594
390.284	85234
390.365	51182
390.445	85671
390.525	179457
390.605	131594
390.686	37181
390.766	14813
390.846	10093
390.927	9015
391.007	8261
391.087	12342
391.167	10731
391.247	10750
391.328	22361
391.408	27079
391.488	15622
391.568	8020
391.648	14189
391.728	17724
391.808	18250
391.888	21772
391.969	50488
392.049	59602
392.129	29616
392.209	44513
392.289	82948
392.369	45402
392.449	42547
392.529	25734
392.609	24284
392.689	38892
392.769	91869
392.849	63695
392.929	69981
393.009	128783
393.089	91436
393.169	113522
393.248	392425
393.328	1125227
393.408	992051
393.488	266726
393.568	83425
393.648	44405
393.728	28955
393.807	22012
393.887	20271
393.967	19071
394.047	21893
394.127	25664
394.206	45895
394.286	177324
394.366	566433
394.446	464163
394.525	97472
394.605	31887
394.685	36024
394.764	71974
394.844	97466
394.924	52707
395.003	21567
395.083	17919
395.163	15248
395.242	15201
395.322	13989
395.402	12034
395.481	20478
395.561	58655
395.640	108577
395.720	84830
395.799	118542
395.879	73833
395.958	67669
396.038	251171
396.117	735580
396.197	633190
396.276	177713
396.356	69646
396.435	51642
396.515	39468
396.594	51730
396.673	109075
396.753	406934
396.832	980487
396.912	615670
396.991	140926
397.070	46439
397.150	27276
397.229	20942
397.308	29658
397.388	34576
397.467	17952
397.546	12180
397.625	9930
397.705	15986
397.784	14649
397.863	9090
397.942	8009
398.022	13013
398.101	50922
398.180	95391
398.259	38709
398.338	14191
398.417	10967
398.497	9511
398.576	9769
398.655	6776
398.734	7014
398.813	10733
398.892	49740
398.971	102317
399.050	33735
399.129	7045
399.208	5930
399.287	5995
399.366	5312
399.445	6097
399.524	6473
399.603	6665
399.682	17811
399.761	51785
399.840	117182
399.919	60387
399.998	11012
400.077	5354
400.156	4962
400.235	9221
400.313	7216
400.392	13998
400.471	50343
400.550	55273
400.629	14992
400.708	10442
400.786	13210
400.865	29830
400.944	23651
401.023	12331
401.102	4487
401.180	5204
401.259	6650
401.338	8670
401.416	10928
401.495	8889
401.574	8483
401.652	8301
401.731	11003
401.810	9899
401.888	5163
401.967	3966
402.046	5920
402.124	10605
402.203	11574
402.281	7518
402.360	15816
402.438	34950
402.517	17277
402.596	9769
402.674	8385
402.753	5526
402.831	6787
402.910	11984
402.988	47831
403.066	108030
403.145	45440
403.223	44594
403.302	85309
403.380	61240
403.459	56718
403.537	20613
403.615	9482
403.694	3226
403.772	5617
403.850	4251
403.929	4288
404.007	5055
404.085	15839
404.164	14495
404.242	6129
404.320	7378
404.398	14237
404.477	59768
404.555	209592
404.633	132066
404.711	17807
404.789	7742
404.868	8120
404.946	4626
405.024	3707
405.102	4027
405.180	4062
405.258	3895
405.336	5540
405.415	7667
405.493	14960
405.571	11826
405.649	4746
405.727	5671
405.805	10184
405.883	9330
405.961	11026
406.039	9718
406.117	5734
406.195	13952
406.273	68126
406.351	169684
406.429	75967
406.507	15007
406.585	6264
406.663	8372
406.740	10379
406.818	8110
406.896	5296
406.974	7481
407.052	25785
407.130	114498
407.208	113179
407.285	19413
407.363	5359
407.441	6186
407.519	5592
407.596	8261
407.674	18477
407.752	40587
407.830	37936
407.907	17327
407.985	7412
408.063	4873
408.141	5629
408.218	10962
408.296	9890
408.373	8668
408.451	8580
408.529	7235
408.606	3770
408.684	3211
408.762	3135
408.839	2399
408.917	3036
408.994	3573
409.072	3563
409.149	3786
409.227	7745
409.304	8045
409.382	6979
409.459	8160
409.537	10765
409.614	9369
409.692	6697
409.769	8272
409.846	12596
409.924	14297
410.001	8929
410.079	6220
410.156	6316
410.233	5994
410.311	4650
410.388	5468
410.465	5532
410.543	5698
410.620	4565
410.697	6731
410.775	7038
410.852	3919
410.929	8184
411.006	8473
411.083	6861
411.161	12554
411.238	13268
411.315	7591
411.392	4577
411.469	7374
411.547	6593
411.624	3593
411.701	4339
411.778	8905
411.855	14449
411.932	7270
412.009	4334
412.086	4717
412.163	6794
412.240	7651
412.317	8849
412.394	6720
412.471	4340
412.548	4449
412.625	4823
412.702	8766
412.779	11520
412.856	5933
412.933	3479
413.010	4147
413.087	12913
413.164	47437
413.241	45746
413.318	11247
413.395	10449
413.471	12475
413.548	5748
413.625	5708
413.702	7185
413.779	4791
413.855	2164
413.932	2426
414.009	2638
414.086	2735
414.162	4317
414.239	12539
414.316	51153
414.393	78369
414.469	19331
414.546	4543
414.623	2967
414.699	4606
414.776	6416
414.853	4569
414.929	5951
415.006	5571
415.082	6518
415.159	5438
415.236	4207
415.312	5598
415.389	12504
415.465	13610
415.542	6880
415.618	6180
415.695	9479
415.771	7404
415.848	5809
415.924	6954
416.000	5042
416.077	3959
416.153	2312
416.230	1343
416.306	3090
416.383	4892
416.459	3161
416.535	2985
416.612	3279
416.688	3472
416.764	4775
416.841	3718
416.917	4108
416.993	4593
417.069	7392
417.146	7752
417.222	9206
417.298	5451
417.374	4869
417.451	5423
417.527	7771
417.603	7568
417.679	6426
417.755	4639
417.831	2742
417.908	3022
417.984	3117
418.060	4281
418.136	12846
418.212	14120
418.288	5969
418.364	3718
418.440	5376
418.516	9838
418.592	14026
418.668	22377
418.744	28438
418.820	17595
418.896	4831
418.972	3108
419.048	5473
419.124	14840
419.200	8806
419.276	3274
419.352	3129
419.428	3587
419.504	5730
419.579	7231
419.655	4708
419.731	7050
419.807	23114
419.883	34920
419.959	20106
420.034	8369
420.110	21094
420.186	56490
420.262	31612
420.337	9150
420.413	6212
420.489	3440
420.565	4350
420.640	3581
420.716	4646
420.792	2344
420.867	5610
420.943	4576
421.019	9899
421.094	6658
421.170	3482
421.245	2845
421.321	4719
421.397	5557
421.472	10339
421.548	20131
421.623	12656
421.699	8050
421.774	7758
421.850	8353
421.925	13095
422.001	11129
422.076	8530
422.152	11323
422.227	18804
422.302	20064
422.378	30208
422.453	57663
422.529	145219
422.604	369949
422.679	517491
422.755	297685
422.830	96932
422.905	41353
422.981	24069
423.056	16290
423.131	12412
423.207	10939
423.282	13209
423.357	20158
423.432	13049
423.508	17488
423.583	32655
423.658	18986
423.733	9577
423.808	11657
423.883	11787
423.959	9939
424.034	7733
424.109	5554
424.184	4811
424.259	4186
424.334	4122
424.409	3649
424.484	3695
424.559	5151
424.634	5674
424.709	8119
424.784	8767
424.859	5771
424.934	13937
425.009	47395
425.084	59028
425.159	17890
425.234	4953
425.309	2520
425.384	4433
425.459	4085
425.534	4517
425.609	5107
425.683	3692
425.758	3452
425.833	5218
425.908	9412
425.983	34962
426.058	65275
426.132	23411
426.207	8310
426.282	12567
426.357	8357
426.431	3934
426.506	5078
426.581	6120
426.655	4589
426.730	4643
426.805	3372
426.879	4052
426.954	5389
427.029	16319
427.103	80021
427.178	142381
427.253	47809
427.327	9327
427.402	10958
427.476	14991
427.551	6427
427.625	7176
427.700	6036
427.774	5127
427.849	6055
427.923	4000
427.998	4309
428.072	6152
428.147	16214
428.221	62325
428.296	118088
428.370	43647
428.444	11315
428.519	17499
428.593	28545
428.667	23353
428.742	28216
428.816	31704
428.890	97229
428.965	96442
429.039	37332
429.113	28348
429.188	8863
429.262	4904
429.336	14478
429.410	32924
429.485	20536
429.559	25556
429.633	13963
429.707	7407
429.781	30561
429.855	114330
429.930	122437
430.004	88383
430.078	119399
430.152	97083
430.226	171085
430.300	122092
430.374	20804
430.448	14423
430.522	55159
430.596	105674
430.670	65995
430.744	171219
430.818	177598
430.892	35074
430.966	8927
431.040	4895
431.114	3821
431.188	3518
431.262	4926
431.336	5823
431.410	19990
431.484	36333
431.557	18031
431.631	4570
431.705	6386
431.779	35792
431.853	108367
431.927	53283
432.000	8112
432.074	4930
432.148	7626
432.222	5818
432.295	3685
432.369	4350
432.443	13929
432.516	78515
432.590	141803
432.664	42845
432.737	7506
432.811	3221
432.885	2410
432.958	3366
433.032	1717
433.106	2271
433.179	2523
433.253	2060
433.326	2662
433.400	2325
433.473	2750
433.547	989
433.620	4129
433.694	8609
433.767	8076
433.841	3420
433.914	1976
433.988	2302
434.061	2662
434.134	2196
434.208	1452
434.281	1206
434.355	2142
434.428	2592
434.501	2520
434.575	2658
434.648	3289
434.721	1721
434.795	1648
434.868	1255
434.941	2136
435.014	1746
435.088	2817
435.161	5393
435.234	8889
435.307	9591
435.381	5314
435.454	5089
435.527	6726
435.600	5790
435.673	4181
435.746	3628
435.819	4095
435.892	2756
435.966	2769
436.039	3128
436.112	2847
436.185	1424
436.258	2148
436.331	929
436.404	1381
436.477	1918
436.550	1876
436.623	1774
436.696	2203
436.769	3583
436.842	2952
436.915	4412
436.987	6218
437.060	2234
437.133	2188
437.206	2380
437.279	3161
437.352	1848
437.425	2508
437.498	4059
437.570	9744
437.643	6965
437.716	2346
437.789	2095
437.861	7647
437.934	13774
438.007	6266
438.080	3104
438.152	4750
438.225	16527
438.298	103138
438.370	200605
438.443	69673
438.516	15421
438.588	5456
438.661	2706
438.734	3647
438.806	4390
438.879	5948
438.951	5626
439.024	7937
439.096	3502
439.169	2859
439.241	2353
439.314	2962
439.386	6671
439.459	10487
439.531	14118
439.604	4770
439.676	2517
439.749	2197
439.821	1573
439.893	2963
439.966	3401
440.038	4163
440.110	4503
440.183	3060
440.255	2253
440.327	8583
440.400	48278
440.472	138499
440.544	71503
440.617	11512
440.689	7592
440.761	10874
440.833	13838
440.905	8621
440.978	2306
441.050	2067
441.122	2968
441.194	2556
441.266	1766
441.338	3384
441.411	10961
441.483	51187
441.555	55804
441.627	13919
441.699	10514
441.771	7408
441.843	3410
441.915	2813
441.987	3374
442.059	2451
442.131	5288
442.203	8763
442.275	9267
442.347	7678
442.419	14064
442.491	64888
442.563	112300
442.635	48458
442.706	37959
442.778	21547
442.850	5445
442.922	3939
442.994	6103
443.066	8980
443.137	7190
443.209	5861
443.281	9529
443.353	22407
443.425	88267
443.496	228124
443.568	182722
443.640	60700
443.711	14083
443.783	6796
443.855	4454
443.926	3635
443.998	5677
444.070	6386
444.141	6628
444.213	10237
444.285	10567
444.356	12214
444.428	9305
444.499	4257
444.571	2342
444.642	3096
444.714	5113
444.785	8903
444.857	15049
444.928	25320
445.000	14150
445.071	20804
445.143	18909
445.214	13100
445.285	25159
445.357	63671
445.428	188306
445.500	324833
445.571	194397
445.642	91815
445.714	50163
445.785	36673
445.856	14487
445.928	12549
445.999	10046
446.070	6767
446.141	9872
446.213	11350
446.284	6916
446.355	7098
446.426	4837
446.497	6308
446.569	11663
446.640	13136
446.711	10433
446.782	5191
446.853	9275
446.924	8597
446.995	5914
447.066	7779
447.138	10234
447.209	5190
447.280	1976
447.351	2071
447.422	3086
447.493	4709
447.564	6891
447.635	9817
447.706	4749
447.777	2377
447.847	1637
447.918	3321
447.989	6547
448.060	9941
448.131	20335
448.202	15630
448.273	10689
448.344	4651
448.414	3941
448.485	3451
448.556	3127
448.627	2247
448.698	3193
448.768	2037
448.839	3883
448.910	9494
448.981	7622
449.051	4840
449.122	1988
449.193	2188
449.263	3232
449.334	2727
449.405	6608
449.475	13095
449.546	10536
449.616	11739
449.687	7352
449.758	3442
449.828	2800
449.899	2739
449.969	2603
450.040	2251
450.110	6438
450.181	7199
450.251	3758
450.322	2881
450.392	3754
450.463	2520
450.533	2125
450.604	3066
450.674	2462
450.744	2637
450.815	2360
450.885	2860
450.955	3160
451.026	2590
451.096	3233
451.166	4956
451.237	15789
451.307	25041
451.377	9349
451.447	3130
451.518	3019
451.588	2900
451.658	3937
451.728	9363
451.799	32961
451.869	24596
451.939	7331
452.009	3131
452.079	3156
452.149	4113
452.219	12590
452.289	34883
452.360	19330
452.430	6211
452.500	5547
452.570	7263
452.640	10471
452.710	30617
452.780	32517
452.850	26667
452.920	23453
452.990	10068
453.060	6152
453.129	8992
453.199	11741
453.269	50845
453.339	78243
453.409	105698
453.479	126440
453.549	168237
453.619	155516
453.688	54177
453.758	10929
453.828	5536
453.898	3889
453.968	3832
454.037	2808
454.087	3113
454.107	3132
454.168	2302
454.177	2065
454.247	3759
454.249	3867
454.316	4386
454.330	5505
454.386	8664
454.411	15657
454.456	23452
454.492	23097
454.525	22362
454.574	12690
454.595	8893
454.655	6203
454.665	6067
454.734	12632
454.736	13381
454.804	25602
454.817	31942
454.873	45281
454.898	44521
454.943	39249
454.979	27880
455.013	20327
455.060	14650
455.082	14920
455.141	24708
455.152	24925
455.221	47804
455.222	48809
455.291	43258
455.303	38617
455.360	23578
455.384	22036
455.430	25424
455.465	33354
455.499	36197
455.546	46544
455.569	45195
455.627	24515
455.638	22048
455.707	10351
455.708	10451
455.777	8186
455.789	8304
455.846	8300
455.869	8200
455.916	8046
455.950	8899
455.985	8988
456.031	8588
456.054	8248
456.112	7902
456.124	8001
456.193	9850
456.193	9740
456.262	12958
456.274	14061
456.332	16758
456.355	17569
456.401	15989
456.436	13455
456.470	11406
456.516	8730
456.540	7871
456.597	8021
456.609	7944
456.678	8289
456.678	8213
456.747	8192
456.759	8134
456.817	8021
456.840	8396
456.886	8910
456.920	9027
456.955	9631
457.001	11251
457.024	13173
457.082	19091
457.093	19798
457.162	25897
457.163	26103
457.232	25238
457.243	24161
457.301	16303
457.324	13098
457.370	11020
457.405	11682
457.439	12436
457.485	12842
457.508	13130
457.566	14696
457.577	15105
457.646	18331
457.647	18482
457.715	29259
457.727	31509
457.784	46767
457.808	55690
457.853	65969
457.889	72344
457.922	64485
457.969	49210
457.991	54026
458.050	71390
458.060	74907
458.129	111171
458.130	112333
458.198	92442
458.211	86151
458.267	50964
458.292	36640
458.336	32052
458.372	30986
458.405	41193
458.453	58798
458.474	74716
458.533	126011
458.543	130100
458.611	175413
458.614	176865
458.680	96914
458.694	78580
458.749	45213
458.775	32452
458.818	25836
458.855	22810
458.887	22055
458.936	21311
458.955	21078
459.016	21080
459.024	21111
459.093	21832
459.097	21902
459.162	24338
459.177	25280
459.230	28834
459.257	30744
459.299	29985
459.338	28968
459.368	29717
459.418	31962
459.437	30056
459.499	22877
459.505	22773
459.574	21986
459.579	22042
459.643	21517
459.659	21470
459.711	23182
459.740	24141
459.780	26845
459.820	29535
459.849	29957
459.900	31923
459.917	31751
459.981	30147
459.986	29881
460.054	26908
460.061	26710
460.123	30842
460.141	32092
460.191	39283
460.222	44236
460.260	48933
460.302	54882
460.328	49135
460.382	35077
460.397	34083
460.462	30120
460.465	30190
460.534	34468
460.543	34958
460.602	60061
460.623	69629
460.671	97326
460.703	118937
460.739	104642
460.783	80501
460.808	65407
460.864	28801
460.876	28096
460.944	28414
460.945	28380
461.013	27974
461.024	28000
461.081	30360
461.104	31712
461.150	30163
461.184	28414
461.218	27713
461.264	26618
461.286	26907
461.345	27985
461.355	28070
461.423	29397
461.425	29423
461.491	32563
461.505	33419
461.559	67609
461.585	83727
461.628	136814
461.665	185322
461.696	199894
461.745	225492
461.764	186274
461.825	48643
461.832	47401
461.901	37474
461.905	37139
461.969	34859
461.985	34190
462.037	31714
462.065	30293
462.105	37645
462.145	45667
462.173	66836
462.225	106346
462.241	118294
462.305	169022
462.310	163309
462.378	69342
462.385	58532
462.446	40276
462.465	35211
462.514	34841
462.545	35146
462.582	34261
462.625	32818
462.650	32457
462.705	31664
462.718	33075
462.785	40588
462.786	41023
462.854	66009
462.865	70202
462.922	85320
462.945	90989
462.990	61715
463.025	38139
463.058	34575
463.104	30149
463.126	30392
463.184	31408
463.194	31959
463.262	35657
463.264	35771
463.330	38325
463.344	38788
463.398	42076
463.424	43615
463.466	45253
463.504	46823
463.533	46512
463.583	45778
463.601	48009
463.663	55291
463.669	57006
463.737	76934
463.743	78703
463.805	121070
463.823	133223
463.873	203134
463.903	246312
463.940	257180
463.982	268865
464.008	207209
464.062	72603
464.076	66805
464.142	38362
464.144	38320
464.211	37557
464.221	37491
464.279	40959
464.301	42237
464.347	47464
464.381	51280
464.414	58641
464.461	68862
464.482	70209
464.540	73574
464.550	70606
464.617	48024
464.620	47190
464.685	55033
464.699	56721
464.753	60260
464.779	62011
464.820	64173
464.859	65836
464.888	68525
464.938	72905
464.956	73830
465.018	76765
465.023	75113
465.091	51803
465.098	49327
465.158	49637
465.177	49678
465.226	52343
465.257	53887
465.293	58469
465.336	63713
465.361	70309
465.416	84927
465.428	91594
465.495	126860
465.496	127634
465.563	214950
465.575	229857
465.631	273807
465.654	291870
465.698	173792
465.734	74744
465.765	66029
465.813	53144
465.833	52809
465.893	52134
465.900	52238
465.968	52449
465.972	52362
466.035	53828
466.052	54090
466.102	56055
466.131	56998
466.170	58284
466.210	59449
466.237	60291
466.290	61627
466.304	62537
466.369	65782
466.372	66130
466.439	72693
466.449	73480
466.506	81386
466.528	84192
466.573	120413
466.607	147301
466.641	220201
466.687	320984
466.708	352864
466.766	439217
466.775	405254
466.842	142389
466.845	129627
466.909	95640
466.925	87376
466.977	81523
467.004	78239
467.044	80040
467.083	81516
467.111	85606
467.163	92779
467.178	94946
467.242	102929
467.245	102892
467.312	97373
467.321	96424
467.379	98121
467.400	98424
467.446	109179
467.480	116545
467.559	98626
467.638	82448
467.717	88394
467.796	98702
467.875	114340
467.955	103631
468.034	154546
468.113	354257
468.192	514431
468.271	130525
468.350	85047
468.429	91380
468.508	88966
468.588	81316
468.667	84343
468.746	88293
468.825	84383
468.904	72876
468.983	93378
469.062	158383
469.141	188408
469.220	74736
469.299	69562
469.378	76841
469.456	76834
469.535	74417
469.614	76713
469.693	86562
469.772	117785
469.851	172970
469.930	113895
470.009	75560
470.088	78521
470.166	93552
470.245	131844
470.324	166332
470.403	132284
470.482	98036
470.560	81612
470.639	87124
470.718	101914
470.797	81671
470.875	97277
470.954	147235
471.033	156000
471.111	61160
471.190	56861
471.269	54830
471.347	57565
471.426	64317
471.505	73277
471.583	71520
471.662	63452
471.740	60464
471.819	58436
471.898	58730
471.976	58419
472.055	61472
472.133	71855
472.212	103119
472.290	112829
472.369	67547
472.447	56139
472.526	55228
472.604	58082
472.683	66188
472.761	75644
472.839	66024
472.918	61981
472.996	65533
473.075	81276
473.153	77017
473.231	63592
473.310	81376
473.388	75680
473.466	68954
473.545	76765
473.623	108655
473.701	109624
473.780	65109
473.858	65256
473.936	71089
474.014	63066
474.093	75789
474.171	122745
474.249	182942
474.327	111610
474.405	57418
474.484	57359
474.562	61765
474.640	62350
474.718	67942
474.796	68009
474.874	59131
474.952	55490
475.030	58015
475.108	62026
475.187	70709
475.265	81682
475.343	124742
475.421	141571
475.499	71337
475.577	71110
475.655	98938
475.733	218390
475.811	395030
475.889	349015
475.966	214937
476.044	70038
476.122	96684
476.200	126646
476.278	96250
476.356	62407
476.434	69094
476.512	88647
476.590	125828
476.667	100747
476.745	62181
476.823	65372
476.901	64354
476.979	68318
477.056	63707
477.134	66231
477.212	66894
477.290	63017
477.367	55418
477.445	55354
477.523	57015
477.601	58344
477.678	60078
477.756	79239
477.834	91934
477.911	58650
477.989	58495
478.066	62178
478.144	76147
478.222	89538
478.299	149978
478.377	133554
478.454	57309
478.532	53951
478.609	62948
478.687	67502
478.764	54620
478.842	63286
478.919	71871
478.997	66719
479.074	56538
479.152	76053
479.229	101799
479.307	63495
479.384	48753
479.461	49671
479.539	60359
479.616	75559
479.694	63361
479.771	70651
479.848	76254
479.926	111964
480.003	114315
480.080	55744
480.157	52766
480.235	56186
480.312	56555
480.389	70008
480.467	124516
480.544	158011
480.621	73850
480.698	66744
480.775	79621
480.853	80389
480.930	61463
481.007	64984
481.084	75363
481.161	78523
481.238	73979
481.315	56853
481.392	55323
481.470	58517
481.547	62260
481.624	58090
481.701	58325
481.778	63127
481.855	74879
481.932	119022
482.009	212306
482.086	137021
482.163	69389
482.240	104865
482.317	191511
482.393	143597
482.470	66385
482.547	67928
482.624	61186
482.701	64296
482.778	61375
482.855	52879
482.932	52236
483.009	52635
483.085	61137
483.162	72027
483.239	70040
483.316	57258
483.393	55753
483.469	57320
483.546	72230
483.623	79838
483.699	60108
483.776	65157
483.853	76588
483.930	111366
484.006	293737
484.083	488523
484.160	170513
484.236	180600
484.313	148282
484.389	122872
484.466	109618
484.543	107094
484.619	112407
484.696	117469
484.772	132465
484.849	145770
484.925	106114
485.002	99144
485.078	112373
485.155	116931
485.231	99985
485.308	100102
485.384	106797
485.461	144522
485.537	292393
485.614	347413
485.690	112763
485.766	97116
485.843	111600
485.919	176758
485.995	187904
486.072	92636
486.148	89025
486.224	89443
486.301	101582
486.377	124990
486.453	125232
486.530	107824
486.606	127484
486.682	149502
486.758	229710
486.835	285610
486.911	214776
486.987	382792
487.063	393081
487.139	494776
487.215	321726
487.292	134333
487.368	109546
487.444	129762
487.520	161900
487.596	155134
487.672	211941
487.748	501359
487.824	761816
487.900	330694
487.976	161823
488.052	149134
488.128	170724
488.204	139333
488.280	114173
488.356	141039
488.432	343845
488.508	538913
488.584	158239
488.660	104021
488.736	102200
488.812	116289
488.888	144053
488.964	200951
489.039	480923
489.115	743133
489.191	408910
489.267	116111
489.343	100994
489.418	82650
489.494	79607
489.570	77944
489.646	85093
489.722	87115
489.797	93589
489.873	167507
489.949	406200
490.024	315290
490.100	89627
490.176	84619
490.251	116665
490.327	159087
490.403	90324
490.478	73991
490.554	65409
490.629	67964
490.705	70473
490.781	80961
490.856	82944
490.932	98039
491.007	99040
491.083	93453
491.158	87743
491.234	128153
491.309	310440
491.385	310573
491.460	96208
491.536	100347
491.611	88558
491.686	104438
491.762	146557
491.837	322554
491.913	533802
491.988	738085
492.063	897098
492.139	264551
492.214	146335
492.289	70825
492.365	72385
492.440	90005
492.515	98541
492.590	88209
492.666	72052
492.741	113386
492.816	181843
492.891	89110
492.967	62334
493.042	58331
493.117	56972
493.192	57200
493.267	70306
493.342	94067
493.418	93097
493.493	61397
493.568	56745
493.643	62807
493.718	92207
493.793	156692
493.868	166153
493.943	100878
494.018	68927
494.093	67151
494.168	67561
494.243	56805
494.318	54886
494.393	54960
494.468	55769
494.543	58925
494.618	74371
494.693	64963
494.768	64991
494.842	66077
494.917	55982
494.992	61008
495.067	57070
495.142	56488
495.217	65783
495.292	69637
495.366	84461
495.441	109032
495.516	135303
495.591	190594
495.665	653792
495.740	1523349
495.815	581244
495.890	119451
495.964	87914
496.039	85508
496.114	81083
496.188	85214
496.263	86044
496.338	81577
496.412	98803
496.487	112597
496.561	123422
496.636	123834
496.710	93866
496.785	109677
496.860	126710
496.934	96078
497.009	97120
497.083	97178
497.158	105331
497.232	129200
497.307	156573
497.381	121067
497.455	155741
497.530	206668
497.604	137742
497.679	146963
497.753	232723
497.827	292659
497.902	245949
497.976	264373
498.050	529362
498.125	1798838
498.199	1700608
498.273	372104
498.348	283888
498.422	233990
498.496	228415
498.570	208089
498.645	160020
498.719	161839
498.793	187062
498.867	280691
498.941	343768
499.016	783705
499.090	1964226
499.164	638650
499.238	124240
499.312	111667
499.386	141066
499.460	125864
499.534	116233
499.609	144573
499.683	219144
499.757	193300
499.831	372434
499.905	1400845
499.979	1208381
500.053	265173
500.127	271856
500.201	191754
500.275	120473
500.349	113983
500.422	132772
500.496	195168
500.570	399438
500.644	867768
500.718	1483860
500.792	308387
500.866	115092
500.940	154428
501.013	123891
501.087	128495
501.161	222941
501.235	284824
501.309	567987
501.382	1467756
501.456	1134242
501.530	314346
501.603	548458
501.677	189834
501.751	96836
501.825	112174
501.898	221345
501.972	662086
502.046	366841
502.119	125202
502.193	289916
502.266	715181
502.340	304553
502.413	317320
502.487	622877
502.561	366429
502.634	117263
502.708	92420
502.781	83632
502.855	67208
502.928	60191
503.002	60854
503.075	63323
503.149	70356
503.222	75801
503.295	89107
503.369	108051
503.442	150641
503.516	491332
503.589	1264847
503.662	764532
503.736	249874
503.809	595703
503.882	442573
503.956	629744
504.029	537603
504.102	344713
504.175	398377
504.249	179088
504.322	130610
504.395	107806
504.468	77714
504.542	76402
504.615	58043
504.688	54414
504.761	58176
504.834	73264
504.907	96049
504.980	156184
505.053	77121
505.127	106024
505.200	107021
505.273	118530
505.346	68961
505.419	56911
505.492	50120
505.565	42071
505.638	43287
505.711	47819
505.784	46440
505.857	46368
505.930	52034
506.003	49996
506.076	56721
506.149	86513
506.221	108802
506.294	87765
506.367	238781
506.440	796294
506.513	364556
506.586	114331
506.659	67224
506.731	56162
506.804	77074
506.877	113696
506.950	73660
507.022	51617
507.095	81583
507.168	93673
507.241	56969
507.313	49210
507.386	61494
507.459	83358
507.531	55352
507.604	48437
507.677	46872
507.749	43666
507.822	59949
507.894	111409
507.967	110967
508.040	61385
508.112	55074
508.185	53715
508.257	59061
508.330	90765
508.402	57028
508.475	57179
508.547	62301
508.620	64042
508.692	115616
508.765	60396
508.837	44651
508.909	43826
508.982	46952
509.054	55448
509.127	47465
509.199	43878
509.271	41315
509.344	40133
509.416	41935
509.488	45192
509.560	45834
509.633	52395
509.705	60918
509.777	59473
509.849	90941
509.922	59090
509.994	43916
510.066	43971
510.138	48299
510.210	73929
510.283	71050
510.355	61856
510.427	55896
510.499	56941
510.571	57281
510.643	59312
510.715	106522
510.787	92953
510.859	59582
510.931	78751
511.003	103094
511.076	87148
511.148	52608
511.219	54653
511.291	107605
511.363	120952
511.435	50375
511.507	45391
511.579	46132
511.651	47691
511.723	47594
511.795	47992
511.867	51756
511.939	72284
512.010	178522
512.082	118692
512.154	59162
512.226	54571
512.298	72984
512.369	107503
512.441	82123
512.513	87396
512.585	69274
512.656	70509
512.728	84194
512.800	56908
512.871	54972
512.943	55171
513.015	51871
513.086	57825
513.158	67023
513.230	72673
513.301	112198
513.373	115219
513.444	66418
513.516	56077
513.588	58009
513.659	67681
513.731	85955
513.802	77162
513.874	168561
513.945	309510
514.016	93539
514.088	59029
514.159	69222
514.231	90529
514.302	104035
514.374	69975
514.445	80618
514.516	183234
514.588	122560
514.659	81658
514.730	166445
514.802	110117
514.873	87948
514.944	83193
515.016	79622
515.087	92790
515.158	123285
515.229	160376
515.301	89805
515.372	106392
515.443	83603
515.514	68340
515.585	58310
515.656	58015
515.728	55359
515.799	55981
515.870	60283
515.941	62260
516.012	65498
516.083	76790
516.154	92928
516.225	123223
516.296	120322
516.367	112750
516.438	132909
516.509	171533
516.580	240634
516.651	699943
516.722	2405035
516.793	965551
516.864	249656
516.935	224468
517.006	251234
517.077	339008
517.148	745375
517.219	2342592
517.289	3108973
517.360	1156220
517.431	332387
517.502	130574
517.573	112474
517.643	104830
517.714	109535
517.785	114120
517.856	125561
517.926	153287
517.997	183015
518.068	235006
518.138	301401
518.209	456499
518.280	1515421
518.350	3651271
518.421	1942842
518.492	340256
518.562	196756
518.633	180125
518.703	166962
518.774	238120
518.845	448249
518.915	410016
518.986	199453
519.056	169133
519.127	274083
519.197	400116
519.268	856752
519.338	454279
519.408	146070
519.479	177717
519.549	119540
519.620	80666
519.690	64983
519.760	65039
519.831	71374
519.901	71954
519.971	57176
520.042	65934
520.112	85343
520.182	89278
520.253	98001
520.323	63717
520.393	66701
520.463	76619
520.534	70590
520.604	106395
520.674	77410
520.744	89268
520.814	127596
520.885	133541
520.955	247937
521.025	907214
521.095	285172
521.165	74413
521.235	72935
521.305	62572
521.375	55111
521.445	65444
521.515	93578
521.585	108991
521.655	101964
521.725	84143
521.795	74646
521.865	57877
521.935	97156
522.005	85789
522.075	57160
522.145	63183
522.215	81066
522.285	115007
522.355	160670
522.424	313406
522.494	258850
522.564	121149
522.634	235918
522.704	670729
522.774	211272
522.843	72741
522.913	71281
522.983	92886
523.053	72789
523.122	71535
523.192	106069
523.262	389164
523.331	344342
523.401	73534
523.471	51696
523.540	56492
523.610	43842
523.680	43932
523.749	47860
523.819	67450
523.888	67684
523.958	45881
524.027	48870
524.097	53358
524.166	50205
524.236	64102
524.305	54938
524.375	49584
524.444	45757
524.514	50839
524.583	55821
524.653	76345
524.722	79848
524.791	54090
524.861	51496
524.930	48482
524.999	56877
525.069	79829
525.138	66027
525.207	85483
525.277	54077
525.346	56901
525.415	52567
525.484	57132
525.554	75287
525.623	69611
525.692	58695
525.761	67199
525.830	71511
525.900	84822
525.969	125684
526.038	176244
526.107	320952
526.176	854155
526.245	670008
526.314	286068
526.383	490786
526.452	599745
526.522	985904
526.591	995742
526.660	426950
526.729	212553
526.797	202989
526.867	393483
526.935	1547409
527.004	2187062
527.073	1093705
527.142	164563
527.211	89250
527.280	89305
527.349	88451
527.418	52372
527.487	50032
527.555	46992
527.624	42509
527.693	42448
527.762	44843
527.831	43595
527.899	44940
527.968	46294
528.037	48953
528.106	62765
528.174	122430
528.243	95936
528.312	147544
528.380	182640
528.449	61875
528.518	42640
528.586	36583
528.655	37931
528.723	36607
528.792	38701
528.861	47715
528.929	41083
528.998	36162
529.066	35426
529.135	36188
529.203	35421
529.272	36100
529.340	38201
529.409	42437
529.477	40596
529.545	61633
529.614	58538
529.682	70873
529.751	80384
529.819	71986
529.887	54853
529.956	41472
530.024	43941
530.092	38076
530.161	50555
530.229	90430
530.297	49121
530.365	37329
530.434	35223
530.502	35048
530.570	35282
530.638	34070
530.707	41908
530.775	44189
530.843	36166
530.911	36235
530.979	36075
531.047	38019
531.115	38726
531.183	36672
531.252	38254
531.320	40641
531.388	35877
531.456	38125
531.524	36310
531.592	37832
531.660	41236
531.728	38472
531.796	37582
531.864	38119
531.932	41178
532.000	42022
532.067	45346
532.135	47740
532.203	56723
532.271	59782
532.339	105315
532.407	297950
532.475	157005
532.542	79074
532.610	81358
532.678	107948
532.746	432178
532.814	993902
532.881	228764
532.949	60584
533.017	49328
533.084	43748
533.152	41678
533.220	42567
533.287	52469
533.355	40098
533.423	38601
533.490	38445
533.558	39390
533.625	42403
533.693	45852
533.761	45217
533.828	48974
533.896	49130
533.963	97884
534.031	116252
534.098	173031
534.166	68986
534.233	41955
534.300	43579
534.368	45679
534.435	45263
534.503	43619
534.570	45849
534.637	50863
534.705	57822
534.772	62874
534.840	98925
534.907	395253
534.974	443627
535.041	80989
535.109	72353
535.176	46326
535.243	40854
535.310	45876
535.378	42409
535.445	37774
535.512	36755
535.579	38368
535.646	37985
535.714	39668
535.781	45603
535.848	43280
535.915	44591
535.982	41927
536.049	43487
536.116	45887
536.183	44702
536.250	46998
536.317	50867
536.384	61280
536.451	90638
536.518	91167
536.585	68969
536.652	86258
536.719	119530
536.786	94620
536.853	77570
536.920	114269
536.987	170956
537.053	156942
537.120	564882
537.187	396296
537.254	62016
537.321	51742
537.388	48020
537.454	42577
537.521	41046
537.588	40625
537.654	46710
537.721	51296
537.788	49441
537.855	44051
537.921	47181
537.988	48355
538.055	48366
538.121	48875
538.188	55976
538.254	93960
538.321	175535
538.388	95726
538.454	53147
538.521	46259
538.587	41630
538.654	42035
538.720	42109
538.787	42899
538.853	49401
538.920	64876
538.986	66903
539.053	53118
539.119	56084
539.185	51667
539.252	64255
539.318	105382
539.385	68818
539.451	63779
539.517	61688
539.583	73259
539.650	182378
539.716	430481
539.782	99673
539.849	55135
539.915	53466
539.981	60025
540.047	69313
540.114	61857
540.180	63553
540.246	65738
540.312	93391
540.378	177810
540.444	155577
540.510	182048
540.576	478697
540.643	121613
540.709	54314
540.775	50959
540.841	52082
540.907	72113
540.973	96653
541.039	91376
541.105	95888
541.171	57666
541.237	52355
541.303	55198
541.369	63336
541.435	89119
541.500	144597
541.566	86628
541.632	50389
541.698	44448
541.764	45769
541.830	43948
541.896	45956
541.961	48504
542.027	51740
542.093	50119
542.159	53471
542.224	63629
542.290	88620
542.356	151706
542.421	151309
542.487	69885
542.553	57452
542.618	64632
542.684	55092
542.750	57221
542.815	67461
542.881	123947
542.947	430232
543.012	248633
543.078	55925
543.143	50142
543.209	54154
543.274	56498
543.340	65929
543.405	171786
543.471	237617
543.536	56616
543.602	48708
543.667	48100
543.732	44364
543.798	44386
543.863	44853
543.928	41254
543.994	40625
544.059	42624
544.124	43136
544.190	44580
544.255	46392
544.320	49930
544.386	55808
544.451	78459
544.516	86217
544.581	89763
544.646	273840
544.712	358316
544.777	72168
544.842	64619
544.907	68016
544.972	54570
545.037	53919
545.102	58902
545.168	61261
545.233	63191
545.298	68102
545.363	82971
545.428	87622
545.493	159728
545.558	343863
545.623	115354
545.688	63295
545.753	57305
545.818	55417
545.883	57698
545.947	56002
546.012	65428
546.077	67568
546.142	61916
546.207	65246
546.272	85264
546.337	86701
546.401	65977
546.466	61919
546.531	60429
546.596	67604
546.661	66919
546.725	61777
546.790	58523
546.855	61258
546.919	62213
546.984	68785
547.049	75477
547.113	89448
547.178	77311
547.243	88810
547.307	96816
547.372	117224
547.436	125204
547.501	95907
547.565	100301
547.630	119625
547.695	116495
547.759	130086
547.823	111238
547.888	90122
547.952	91225
548.017	98930
548.081	113415
548.146	148105
548.210	122110
548.274	99820
548.339	95775
548.403	89033
548.468	86276
548.532	86718
548.596	89179
548.660	90666
548.725	101265
548.789	122166
548.853	119503
548.917	103214
548.982	139170
549.046	126054
549.110	87181
549.174	84992
549.238	89542
549.303	91430
549.367	96626
549.431	92993
549.495	89568
549.559	90977
549.623	99475
549.687	120256
549.751	152215
549.815	126824
549.879	118917
549.943	112274
550.007	122421
550.071	124173
550.135	141494
550.199	117280
550.263	108170
550.327	118788
550.391	152553
550.455	118520
550.519	118364
550.582	128549
550.646	170377
550.710	164514
550.774	134893
550.838	137214
550.901	141713
550.965	153658
551.029	164841
551.093	183143
551.156	227755
551.220	374812
551.284	368168
551.347	224166
551.411	384138
551.475	355225
551.538	150507
551.602	131424
551.666	125172
551.729	114765
551.793	114708
551.856	111857
551.920	109311
551.983	110061
552.047	110348
552.110	108283
552.174	109541
552.237	113876
552.301	105772
552.364	104604
552.428	103770
552.491	108863
552.554	113024
552.618	114458
552.681	120236
552.745	131718
552.808	192673
552.871	251024
552.934	170546
552.998	129967
553.061	122968
553.124	110267
553.187	104829
553.251	107316
553.314	107821
553.377	103718
553.440	109724
553.503	124923
553.567	126701
553.630	106503
553.693	104752
553.756	108770
553.819	103807
553.882	101094
553.945	100011
554.008	98535
554.071	100120
554.134	101755
554.197	97524
554.260	95183
554.323	103867
554.386	103581
554.449	103733
554.512	101204
554.575	99059
554.638	101715
554.701	98991
554.764	94904
554.827	94627
554.889	88801
554.952	85324
555.015	85602
555.078	86294
555.141	89482
555.203	86427
555.266	87453
555.329	89648
555.391	85887
555.454	89809
555.517	87879
555.580	82904
555.642	77836
555.705	77807
555.768	79988
555.830	77935
555.893	73510
555.955	73021
556.018	75831
556.080	74850
556.143	75792
556.206	76265
556.268	80843
556.330	83359
556.393	79000
556.455	81006
556.518	119079
556.580	109422
556.643	71980
556.705	71607
556.767	70539
556.830	74529
556.892	84810
556.955	127772
557.017	88790
557.079	71959
557.142	70989
557.204	87220
557.266	165064
557.328	124374
557.391	66541
557.453	62879
557.515	64824
557.577	84091
557.639	83256
557.701	64658
557.764	64066
557.826	70260
557.888	75139
557.950	75419
558.012	79723
558.074	103819
558.136	231408
558.198	503400
558.260	172058
558.322	94734
558.384	94996
558.446	106078
558.508	123662
558.570	156881
558.632	247462
558.694	333534
558.756	324644
558.818	927510
558.880	1962739
558.942	618781
559.003	558086
559.065	252037
559.127	128590
559.189	126157
559.251	139130
559.312	188704
559.374	455986
559.436	1377671
559.498	594144
559.559	146752
559.621	126140
559.683	141669
559.744	237575
559.806	722141
559.868	923559
559.929	195300
559.991	137925
560.052	201357
560.114	505774
560.176	291707
560.237	310536
560.299	455834
560.360	114489
560.422	70455
560.483	63144
560.545	59244
560.606	58304
560.667	56583
560.729	55384
560.790	53712
560.852	53423
560.913	53505
560.974	52344
561.036	53428
561.097	55320
561.158	55476
561.220	56999
561.281	58456
561.342	60169
561.403	69217
561.465	92171
561.526	218155
561.587	253220
561.648	75657
561.709	57931
561.771	55728
561.832	54301
561.893	53448
561.954	50820
562.015	52768
562.076	51347
562.137	52673
562.198	51685
562.259	51928
562.320	53845
562.381	60660
562.442	87728
562.503	66291
562.564	52242
562.625	49663
562.686	50218
562.747	58283
562.808	52248
562.869	52747
562.930	61724
562.991	58635
563.051	54957
563.112	53361
563.173	51025
563.234	49764
563.294	50283
563.355	52306
563.416	53554
563.477	51780
563.537	53024
563.598	57348
563.659	54991
563.720	53986
563.780	56017
563.841	57277
563.901	52721
563.962	51644
564.023	52594
564.083	54090
564.144	56766
564.204	54268
564.265	56324
564.325	71028
564.386	138763
564.446	106766
564.507	53757
564.567	52670
564.628	50991
564.688	51536
564.749	51787
564.809	61858
564.869	72811
564.930	54251
564.990	50392
565.050	50893
565.111	49808
565.171	48923
565.231	50094
565.292	50828
565.352	50486
565.412	52598
565.472	54843
565.532	57169
565.593	53377
565.653	51639
565.713	53966
565.773	58127
565.833	72210
565.893	85562
565.953	59564
566.013	57164
566.074	61292
566.134	78176
566.194	125076
566.254	123005
566.314	80645
566.374	60873
566.434	60366
566.494	60836
566.554	61092
566.614	62613
566.673	63892
566.733	67301
566.793	72430
566.853	71694
566.913	71190
566.973	73741
567.033	73820
567.092	75767
567.152	72362
567.212	74615
567.272	76654
567.331	81739
567.391	81495
567.451	87659
567.511	112463
567.570	107070
567.630	76100
567.690	72814
567.749	74348
567.809	79030
567.868	88552
567.928	96106
567.988	112161
568.047	121092
568.107	138494
568.166	177157
568.226	254440
568.285	331026
568.345	295445
568.404	254690
568.464	230800
568.523	216756
568.582	220356
568.642	240454
568.701	280485
568.761	381242
568.820	545465
568.879	535440
568.939	444870
568.998	342268
569.057	269333
569.116	222979
569.176	184933
569.235	158245
569.294	139080
569.353	123701
569.413	111579
569.472	102357
569.531	92735
569.590	86551
569.649	79843
569.708	75385
569.767	75841
569.827	83724
569.886	71655
569.945	64863
570.004	64970
570.063	64359
570.122	66416
570.181	69276
570.240	73015
570.299	71720
570.358	68998
570.417	56860
570.475	53854
570.534	56951
570.593	57202
570.652	58615
570.711	59285
570.770	56902
570.829	61787
570.887	60381
570.946	63723
571.005	51337
571.064	53127
571.122	58398
571.181	64411
571.240	52783
571.299	47555
571.357	52745
571.416	55328
571.475	63693
571.533	62011
571.592	50607
571.650	53517
571.709	47108
571.768	48069
571.826	46662
571.885	43889
571.943	43646
572.002	45393
572.060	47245
572.119	41313
572.177	40663
572.236	38952
572.294	40075
572.352	39965
572.411	41444
572.469	40005
572.528	40533
572.586	40658
572.644	46991
572.703	55868
572.761	44737
572.819	41565
572.877	39280
572.936	37499
572.994	38568
573.052	38751
573.110	41578
573.169	40840
573.227	39456
573.285	38358
573.343	38463
573.401	39594
573.459	38505
573.517	38578
573.576	39187
573.634	39393
573.692	42491
573.750	39539
573.808	39811
573.866	43967
573.924	56285
573.982	52590
574.040	39542
574.098	39151
574.155	37657
574.213	35691
574.271	36398
574.329	39034
574.387	36992
574.445	35959
574.503	35052
574.560	33755
574.618	32726
574.676	34317
574.734	33662
574.792	35232
574.849	34334
574.907	33007
574.965	34102
575.022	32763
575.080	33479
575.138	35037
575.195	37021
575.253	38738
575.311	41974
575.368	35337
575.426	33480
575.483	33450
575.541	34854
575.598	34422
575.656	37384
575.713	37096
575.771	35947
575.828	34458
575.886	35224
575.943	37068
576.001	38346
576.058	38553
576.115	40872
576.173	47204
576.230	52185
576.287	57364
576.345	45819
576.402	38950
576.459	40437
576.517	40342
576.574	45472
576.631	44297
576.688	39559
576.746	37307
576.803	37476
576.860	35041
576.917	36373
576.974	35875
577.031	36844
577.089	36871
577.146	37937
577.203	38728
577.260	40189
577.317	43056
577.374	47597
577.431	44547
577.488	40069
577.545	36415
577.602	35740
577.659	35074
577.716	34272
577.773	34916
577.830	33205
577.886	34415
577.943	34580
578.000	35122
578.057	38916
578.114	35681
578.171	35071
578.227	34806
578.284	34702
578.341	38025
578.398	38187
578.454	40535
578.511	45497
578.568	48376
578.625	41770
578.681	36881
578.738	34908
578.794	35097
578.851	34392
578.908	35570
578.964	38442
579.021	38285
579.077	36480
579.134	34880
579.190	35407
579.247	34638
579.303	33880
579.360	34366
579.416	33662
579.473	33411
579.529	32646
579.586	33007
579.642	34374
579.698	36288
579.755	36589
579.811	35484
579.867	35222
579.924	33671
579.980	34249
580.036	35446
580.093	34852
580.149	36163
580.205	35380
580.261	34850
580.317	38147
580.374	40957
580.430	46329
580.486	44043
580.542	39827
580.598	39364
580.619	39370
580.654	39441
580.692	37863
580.710	37165
580.765	36870
580.767	36917
580.823	38251
580.838	37824
580.879	36883
580.911	36891
580.935	36991
580.984	35375
580.991	35211
581.047	36636
581.057	36511
581.103	36225
581.130	36480
581.159	36819
581.203	36462
581.215	36442
581.270	36793
581.276	36687
581.326	36083
581.349	36197
581.382	36462
581.422	36840
581.438	37061
581.494	38155
581.494	38097
581.550	36544
581.567	37148
581.606	38510
581.640	37919
581.661	37636
581.713	36068
581.717	35979
581.773	35614
581.786	35541
581.829	35477
581.859	35515
581.885	35601
581.932	35962
581.940	36069
581.996	35786
582.004	35735
582.052	35559
582.077	35268
582.107	35073
582.150	35959
582.163	36220
582.219	35499
582.223	35577
582.274	36948
582.296	37045
582.330	37298
582.368	36956
582.386	36850
582.441	35046
582.441	35063
582.497	34522
582.514	34498
582.552	34680
582.587	34815
582.608	34847
582.659	34490
582.663	34487
582.719	34676
582.732	34477
582.774	33927
582.805	33707
582.830	33504
582.877	34191
582.885	34340
582.941	33792
582.950	33903
582.996	34378
583.023	34905
583.052	35571
583.095	35172
583.107	35040
583.162	35290
583.168	35336
583.218	35836
583.240	35150
583.273	34127
583.313	33790
583.328	33755
583.384	34090
583.385	34109
583.439	34170
583.458	34245
583.494	34474
583.531	33437
583.549	33028
583.603	33348
583.605	33341
583.660	33492
583.676	33462
583.715	33494
583.748	33930
583.770	34235
583.820	34498
583.825	34504
583.881	34769
583.893	34417
583.936	32834
583.965	32618
583.991	32661
584.038	33336
584.046	33422
584.101	33811
584.110	33856
584.156	33936
584.183	33582
584.211	33187
584.255	32715
584.266	32537
584.321	32842
584.328	32892
584.376	33374
584.400	33369
584.431	33060
584.472	33083
584.486	33119
584.541	32854
584.545	32878
584.596	32727
584.617	33042
584.651	34039
584.689	35234
584.706	35353
584.761	36026
584.762	36055
584.816	35796
584.834	36031
584.871	36475
584.906	36625
584.926	36562
584.978	36674
584.980	36650
585.035	37958
585.051	38516
585.090	39926
585.123	41130
585.145	41619
585.195	43787
585.200	44005
585.254	46501
585.267	47359
585.309	49166
585.340	51930
585.364	54289
585.412	58042
585.419	58495
585.473	63904
585.484	66032
585.528	75902
585.556	88091
585.583	103445
585.628	151395
585.637	163971
585.692	318151
585.700	345063
585.747	465744
585.772	369822
585.801	236070
585.845	111962
585.856	88148
585.910	62071
585.917	60425
585.965	52814
585.989	50755
586.019	48442
586.061	46559
586.074	45989
586.128	47217
586.133	47383
586.183	48395
586.205	48681
586.237	48510
586.277	47994
586.292	47658
586.346	47318
586.349	47452
586.401	48011
586.421	48763
586.455	50322
586.493	53621
586.509	55548
586.564	68913
586.565	69831
586.618	103848
586.637	98360
586.672	80563
586.709	62865
586.727	55603
586.781	54756
586.781	54614
586.835	51994
586.853	51580
586.889	50859
586.925	50590
586.944	50467
586.996	52397
586.998	52295
587.052	53794
587.068	54371
587.106	54931
587.140	55177
587.161	55254
587.212	57232
587.215	57167
587.269	59356
587.284	59952
587.323	60449
587.356	62402
587.377	63495
587.427	65004
587.431	64895
587.485	67248
587.499	68343
587.539	70501
587.571	73023
587.593	74611
587.643	78171
587.648	78203
587.702	81955
587.715	83535
587.755	87360
587.786	90750
587.810	92818
587.858	97792
587.864	98063
587.917	107299
587.930	109931
587.971	116939
588.001	123663
588.025	128189
588.073	136571
588.079	137174
588.133	151644
588.145	155903
588.187	168250
588.217	179342
588.241	188571
588.288	212548
588.295	214896
588.348	244477
588.360	252970
588.402	281759
588.431	306714
588.456	326429
588.503	373983
588.510	379765
588.564	449334
588.575	468604
588.617	538889
588.646	602770
588.671	664088
588.718	806862
588.725	831528
588.778	1078819
588.789	1136114
588.832	1432712
588.861	1616608
588.886	1784423
588.932	1935650
588.939	1915666
588.993	1785844
589.004	1827839
589.047	1811485
589.075	1666056
589.100	1502481
589.147	1099647
589.154	1059163
589.207	832430
589.218	801252
589.261	727742
589.290	707956
589.314	712709
589.361	767943
589.368	783451
589.421	990011
589.433	1044586
589.475	1356791
589.504	1541726
589.528	1639877
589.576	1721300
589.582	1677901
589.635	1505511
589.647	1429126
589.689	1067595
589.718	787719
589.742	656538
589.790	457993
589.795	440212
589.849	336337
589.861	319660
589.902	273719
589.932	243659
589.955	219732
590.004	180111
590.009	175625
590.062	151115
590.075	146533
590.115	130869
590.146	122286
590.168	115636
590.218	104962
590.222	103419
590.275	95472
590.289	94337
590.328	88084
590.360	83860
590.381	80173
590.431	74685
590.435	73743
590.488	68234
590.503	67479
590.541	64411
590.574	62573
590.594	60309
590.645	56651
590.647	56066
590.700	53245
590.716	52979
590.753	50636
590.787	49414
590.806	48010
590.859	45734
590.859	45310
590.912	44475
590.930	44513
590.965	42639
591.001	41773
591.018	40837
591.071	39209
591.072	39555
591.124	38432
591.143	38532
591.177	37248
591.214	36851
591.230	36644
591.283	36938
591.285	37298
591.336	37057
591.356	37351
591.389	36688
591.427	36182
591.442	34789
591.495	31288
591.498	31341
591.547	29806
591.569	29674
591.600	29220
591.640	29236
591.653	28938
591.706	29120
591.711	29446
591.759	29067
591.782	29518
591.811	29806
591.853	30678
591.864	29940
591.917	27221
591.924	27191
591.969	26146
591.995	26105
592.022	25781
592.066	25963
592.075	26004
592.127	28253
592.137	29054
592.180	29785
592.208	30306
592.233	27851
592.279	24038
592.285	23573
592.338	22492
592.350	22532
592.390	22013
592.421	22102
592.443	21577
592.491	21345
592.495	21125
592.548	21885
592.562	22369
592.600	21228
592.633	20752
592.653	20347
592.704	19915
592.705	20019
592.775	19936
592.846	21023
592.916	21295
592.987	23433
593.058	21066
593.128	19596
593.199	18896
593.270	19892
593.341	18915
593.411	19623
593.482	20774
593.553	19317
593.623	19206
593.694	19065
593.764	20217
593.835	18923
593.906	18675
593.976	19751
594.047	19165
594.117	23690
594.188	23433
594.258	19019
594.329	18864
594.399	18287
594.470	18420
594.540	19814
594.611	19109
594.681	18928
594.751	19927
594.822	21737
594.892	23087
594.963	21882
595.033	21040
595.103	21601
595.174	23385
595.244	32244
595.314	37014
595.384	22638
595.455	21392
595.525	22869
595.595	22092
595.665	23652
595.736	22818
595.806	22541
595.876	22234
595.946	22631
596.016	22519
596.087	22637
596.157	22976
596.227	23957
596.297	24491
596.367	25495
596.437	28537
596.507	33822
596.577	38421
596.647	27951
596.717	27415
596.787	27077
596.857	27107
596.927	28506
596.997	26988
597.067	28502
597.137	27782
597.207	28419
597.277	28207
597.347	26596
597.417	27162
597.487	28718
597.557	27456
597.626	29118
597.696	30737
597.766	33773
597.836	38492
597.906	28768
597.975	26550
598.045	25096
598.115	26606
598.185	27701
598.254	30849
598.324	33303
598.394	34184
598.464	33466
598.533	31561
598.603	29954
598.672	29426
598.742	29008
598.812	28483
598.881	29939
598.951	29519
599.020	28306
599.090	30592
599.159	30365
599.229	28641
599.299	28854
599.368	30136
599.437	28672
599.507	27849
599.576	28163
599.646	26296
599.715	26356
599.785	26199
599.854	27664
599.924	28477
599.993	26672
600.062	26108
600.132	26429
600.201	27434
600.270	33294
600.340	33511
600.409	31448
600.478	30897
600.547	31516
600.617	29561
600.686	25497
600.755	24723
600.824	24199
600.894	22679
600.963	22010
601.032	21687
601.101	20814
601.170	20642
601.239	21586
601.308	22962
601.378	21643
601.447	20183
601.516	20510
601.585	23248
601.654	24197
601.723	21572
601.792	20773
601.861	22524
601.930	23917
601.999	25375
602.068	24092
602.137	27351
602.206	25937
602.275	25055
602.343	29807
602.412	28584
602.481	22702
602.550	22232
602.619	23182
602.688	25052
602.756	23446
602.825	23124
602.894	23520
602.963	22877
603.032	24679
603.100	24613
603.169	24157
603.238	24158
603.307	23388
603.375	24937
603.444	25076
603.513	25752
603.581	24529
603.650	26306
603.719	25343
603.787	25919
603.856	26723
603.924	26119
603.993	28460
604.061	28009
604.130	29441
604.198	30154
604.267	30617
604.335	30872
604.404	29941
604.472	31593
604.541	31050
604.609	31761
604.678	32081
604.746	32379
604.815	31952
604.883	33014
604.951	33269
605.020	34044
605.088	33841
605.156	34306
605.225	35708
605.293	34656
605.361	35064
605.429	35366
605.498	37314
605.566	38656
605.634	38999
605.702	40418
605.771	39717
605.839	40325
605.907	40352
605.975	38516
606.043	37875
606.111	37282
606.180	38149
606.248	37781
606.316	37916
606.384	37091
606.452	42317
606.520	46930
606.588	41848
606.656	38939
606.724	38327
606.792	35929
606.860	32289
606.928	30476
606.996	29649
607.064	28814
607.132	29314
607.200	31748
607.267	32772
607.335	32978
607.403	33515
607.471	32259
607.539	31487
607.607	32204
607.674	29226
607.742	29410
607.810	30741
607.878	29616
607.946	28405
608.013	30214
608.081	31230
608.149	31740
608.216	31628
608.284	34459
608.352	32555
608.419	32851
608.487	37635
608.555	33265
608.622	31981
608.690	34231
608.757	37543
608.825	37714
608.893	37314
608.960	38319
609.028	38440
609.095	41695
609.163	34312
609.230	30529
609.298	29582
609.365	30138
609.432	32168
609.500	34655
609.567	38899
609.635	43323
609.702	45763
609.769	45147
609.837	37690
609.904	34101
609.971	36767
610.039	44924
610.106	64913
610.173	130518
610.241	308687
610.308	230731
610.375	108678
610.442	45652
610.509	36209
610.577	33601
610.644	34434
610.711	34523
610.778	34674
610.845	35492
610.912	36936
610.980	37547
611.047	37630
611.114	38839
611.181	36407
611.248	35888
611.315	39390
611.382	38474
611.449	39901
611.516	40894
611.583	42225
611.650	41411
611.717	41184
611.784	43798
611.851	48677
611.918	54583
611.984	68099
612.051	108389
612.118	239739
612.185	606490
612.252	343582
612.319	77574
612.386	58252
612.452	52175
612.519	49537
612.586	53825
612.653	49829
612.719	48180
612.786	45994
612.853	42683
612.919	40468
612.986	42724
613.053	40172
613.120	37072
613.186	35135
613.253	37615
613.319	36527
613.386	36307
613.453	38738
613.519	41052
613.586	44745
613.652	54665
613.719	47792
613.785	45421
613.852	38671
613.918	36423
613.985	38216
614.051	39925
614.118	42645
614.184	39613
614.250	37890
614.317	37322
614.383	37287
614.449	38418
614.516	37906
614.582	39342
614.648	37686
614.715	37485
614.781	36732
614.847	37126
614.914	37910
614.980	35781
615.046	35639
615.112	36855
615.179	38483
615.245	40004
615.311	44743
615.377	55221
615.443	56340
615.509	45534
615.575	44903
615.642	42369
615.708	44952
615.774	49157
615.840	54679
615.906	66830
615.972	94995
616.038	170131
616.104	336757
616.170	778811
616.236	601783
616.302	126886
616.368	83576
616.434	59939
616.500	55074
616.565	61649
616.631	74727
616.697	60149
616.763	64069
616.829	100846
616.895	180933
616.961	164441
617.026	69039
617.092	45095
617.158	42483
617.224	38788
617.289	36815
617.355	35674
617.421	34355
617.487	35594
617.552	33456
617.618	31736
617.684	32197
617.749	34239
617.815	31642
617.880	29218
617.946	30971
618.012	31859
618.077	32297
618.143	31491
618.208	31403
618.274	33017
618.339	32889
618.405	28446
618.470	28882
618.536	29682
618.601	29597
618.667	27823
618.732	25903
618.798	24603
618.863	25826
618.928	25013
618.994	26565
619.059	29231
619.124	36968
619.190	29477
619.255	24969
619.320	26115
619.386	25755
619.451	23803
619.516	24764
619.581	24260
619.647	24855
619.712	24832
619.777	24501
619.842	25101
619.907	26030
619.972	26245
620.038	24750
620.103	24561
620.168	22528
620.233	24408
620.298	23698
620.363	25640
620.428	25761
620.493	25997
620.558	25956
620.623	25084
620.688	25915
620.753	25117
620.818	25525
620.883	26570
620.948	26896
621.013	25537
621.078	25601
621.143	26346
621.207	28066
621.272	27262
621.337	26955
621.402	28828
621.467	32798
621.532	31535
621.596	27778
621.661	27056
621.726	25186
621.791	26390
621.855	27690
621.920	28603
621.985	29109
622.049	31791
622.114	29781
622.179	28481
622.243	27884
622.308	28399
622.373	31380
622.437	29030
622.502	27108
622.566	26134
622.631	26856
622.695	28377
622.760	27348
622.824	27424
622.889	29045
622.953	30408
623.018	42701
623.082	39132
623.147	29842
623.211	28470
623.276	28867
623.340	25607
623.404	25392
623.469	25007
623.533	26571
623.597	24760
623.662	24578
623.726	24068
623.790	22930
623.854	22866
623.919	24144
623.983	22906
624.047	23883
624.111	22533
624.176	23805
624.240	24332
624.304	27711
624.368	23418
624.432	23846
624.496	24789
624.560	27327
624.625	29717
624.689	26922
624.753	24569
624.817	25483
624.881	23864
624.945	22887
625.009	22034
625.073	22854
625.137	24593
625.201	29519
625.265	28924
625.329	24535
625.393	25080
625.456	24872
625.520	25569
625.584	27236
625.648	31409
625.712	41873
625.776	77735
625.839	82387
625.903	36822
625.967	23906
626.031	37573
626.095	52370
626.158	25504
626.222	18527
626.286	17544
626.349	16553
626.413	15617
626.477	18767
626.540	18166
626.604	15602
626.668	17162
626.731	15561
626.795	16491
626.858	15483
626.922	14740
626.986	16183
627.049	14943
627.113	15415
627.176	16095
627.240	14881
627.303	14851
627.366	14560
627.430	15210
627.493	15731
627.557	14948
627.620	16751
627.684	15384
627.747	15946
627.810	13306
627.874	14026
627.937	12385
628.000	15566
628.064	14055
628.127	11276
628.190	13537
628.253	12558
628.317	11561
628.380	12021
628.443	11778
628.506	12146
628.569	11696
628.632	10561
628.696	10974
628.759	10630
628.822	10535
628.885	9811
628.948	10134
629.011	10986
629.074	11095
629.137	10163
629.200	9305
629.263	12397
629.326	8805
629.389	9045
629.452	10347
629.515	11142
629.578	9543
629.641	10540
629.704	9989
629.767	11161
629.830	9376
629.892	10006
629.955	8825
630.018	11544
630.081	11886
630.144	16229
630.207	10164
630.269	12544
630.332	11032
630.395	10576
630.458	8672
630.520	8388
630.583	10567
630.646	9649
630.708	8456
630.771	8361
630.834	9718
630.896	8374
630.959	8594
631.021	7832
631.084	9017
631.146	10263
631.209	10776
631.272	8912
631.334	8892
631.397	8725
631.459	9306
631.522	10905
631.584	9600
631.646	11237
631.709	11975
631.771	14853
631.834	11650
631.896	10387
631.958	8241
632.021	9720
632.083	8182
632.145	8443
632.208	8991
632.270	9975
632.332	7451
632.395	7409
632.457	9207
632.519	7354
632.581	8676
632.643	7166
632.706	8185
632.768	6940
632.830	8468
632.892	8136
632.954	7651
633.016	8966
633.078	8670
633.141	7010
633.203	8013
633.265	8321
633.327	8396
633.389	8263
633.451	9807
633.513	12121
633.575	11467
633.637	11032
633.698	10716
633.760	9509
633.822	9028
633.884	9406
633.946	9405
634.008	9398
634.070	10039
634.132	11013
634.193	10894
634.255	12738
634.317	12647
634.379	13591
634.441	9714
634.502	9674
634.564	10323
634.626	10234
634.687	11072
634.749	9043
634.811	8120
634.873	7698
634.934	8312
634.996	8540
635.057	7131
635.119	7909
635.181	8638
635.242	8995
635.304	6404
635.365	8803
635.427	7241
635.488	8247
635.550	7204
635.611	8652
635.673	5476
635.734	10034
635.796	9380
635.857	11650
635.918	9654
635.980	12995
636.041	10988
636.102	13155
636.164	14194
636.225	13475
636.286	9055
636.348	10559
636.409	9199
636.470	7592
636.531	8030
636.593	8277
636.654	8779
636.715	7470
636.776	6622
636.838	5998
636.899	7589
636.960	7288
637.021	6687
637.082	6219
637.143	7614
637.204	5993
637.265	6540
637.326	6274
637.387	5740
637.448	5120
637.509	6797
637.570	5818
637.631	6490
637.692	5304
637.753	4290
637.814	6816
637.875	6039
637.936	6631
637.997	5211
638.058	6591
638.119	6841
638.179	6294
638.240	6447
638.301	5295
638.362	4779
638.423	4895
638.483	6852
638.544	4249
638.605	5917
638.666	5069
638.726	5755
638.787	5957
638.848	5505
638.908	4829
638.969	5888
639.030	4814
639.090	3712
639.151	5593
639.211	8161
639.272	8648
639.332	15423
639.393	8747
639.453	6068
639.514	6162
639.574	5806
639.635	4977
639.695	6379
639.756	4775
639.816	6497
639.877	8443
639.937	15458
639.997	18734
640.058	6780
640.118	4747
640.178	5682
640.239	4649
640.299	4675
640.359	4746
640.420	5201
640.480	5574
640.540	6517
640.600	6471
640.661	6756
640.721	5823
640.781	9610
640.841	4882
640.901	6043
640.961	6042
641.021	6519
641.082	7974
641.142	12178
641.202	8827
641.262	3451
641.322	5030
641.382	3235
641.442	5404
641.502	4466
641.562	5320
641.622	4782
641.682	5661
641.742	5870
641.802	5516
641.861	6971
641.921	6173
641.981	6508
642.041	7113
642.101	8503
642.161	4143
642.221	4242
642.280	4089
642.340	3713
642.400	3060
642.460	4864
642.519	4491
642.579	3647
642.639	4943
642.698	2474
642.758	6744
642.818	4906
642.877	4100
642.937	5884
642.997	6858
643.056	9552
643.116	5049
643.175	6494
643.235	5042
643.294	5750
643.354	6693
643.414	6646
643.473	8986
643.532	10745
643.592	16227
643.651	28420
643.711	50419
643.770	100797
643.830	247053
643.889	507359
643.948	110760
644.008	18311
644.067	10906
644.126	7177
644.186	6945
644.245	7410
644.304	5035
644.363	6414
644.423	3742
644.482	5704
644.541	5937
644.600	3983
644.659	7822
644.719	8882
644.778	13619
644.837	23188
644.896	50418
644.955	111516
645.014	34977
645.073	8488
645.132	4922
645.191	6270
645.250	4780
645.309	7020
645.368	5988
645.427	8095
645.486	12293
645.545	21788
645.604	7541
645.663	6043
645.722	4935
645.781	6741
645.840	8306
645.898	9823
645.957	16267
646.016	23987
646.075	45491
646.134	90222
646.192	244401
646.251	342269
646.310	47720
646.369	12802
646.427	9961
646.486	6431
646.545	5769
646.603	4812
646.662	5269
646.721	4865
646.779	4550
646.838	4560
646.896	7345
646.955	8094
647.014	13360
647.072	25520
647.131	69784
647.189	31190
647.248	5163
647.306	3793
647.365	4391
647.423	2641
647.481	4805
647.540	2588
647.598	3815
647.657	3629
647.715	4361
647.773	2499
647.832	4174
647.890	2267
647.948	2817
648.007	4044
648.065	2887
648.123	2443
648.181	4657
648.240	3292
648.298	1937
648.356	2503
648.414	3803
648.472	2976
648.531	3650
648.589	3455
648.647	2986
648.705	2418
648.763	3725
648.821	3543
648.879	3385
648.937	4554
648.995	6528
649.053	8398
649.111	11516
649.169	20998
649.227	34539
649.285	72786
649.343	202039
649.401	94584
649.459	25636
649.516	15177
649.574	5351
649.632	7374
649.690	8584
649.748	7395
649.806	9034
649.863	18838
649.921	48213
649.979	30326
650.037	4961
650.094	2297
650.152	3210
650.210	2155
650.268	3320
650.325	2885
650.383	2475
650.440	1438
650.498	3164
650.556	2404
650.613	1864
650.671	2663
650.728	2795
650.786	3314
650.843	3548
650.901	1748
650.958	3102
651.016	2592
651.073	2741
651.131	2340
651.188	1651
651.246	1952
651.303	712
651.360	2900
651.418	1987
651.475	2658
651.532	1586
651.590	2363
651.647	1505
651.704	1950
651.762	2768
651.819	2923
651.876	1323
651.933	2553
651.990	2788
652.048	922
652.105	1402
652.162	2375
652.219	1753
652.276	2416
652.333	1528
652.390	1210
652.448	1410
652.505	1333
652.562	2027
652.619	965
652.676	2368
652.733	2722
652.790	769
652.847	1190
652.904	1336
652.961	1014
653.017	1418
653.074	1828
653.131	1910
653.188	1591
653.245	2044
653.302	1691
653.359	1288
653.415	1709
653.472	1510
653.529	2660
653.586	1220
653.642	1747
653.699	2637
653.756	1671
653.813	1278
653.869	2195
653.926	1196
653.983	1891
654.039	2067
654.096	1816
654.152	3335
654.209	1623
654.266	1749
654.322	1660
654.379	3035
654.435	3551
654.492	2641
654.548	4075
654.605	6316
654.661	4353
654.717	2402
654.774	2566
654.830	2075
654.887	1601
654.943	2380
655.000	1587
655.056	1812
655.112	1528
655.168	1506
655.225	1943
655.281	2303
655.337	4172
655.394	5665
655.450	4450
655.506	3758
655.562	6619
655.618	5949
655.675	1158
655.731	2216
655.787	1690
655.843	2486
655.899	1956
655.955	3042
656.011	3100
656.067	1752
656.123	4201
656.179	3451
656.235	5641
656.291	2240
656.347	3796
656.403	2848
656.459	2039
656.515	3826
656.571	2316
656.627	2239
656.683	2061
656.739	3067
656.795	1838
656.850	2608
656.906	3152
656.962	3678
657.018	1783
657.074	1411
657.129	1618
657.185	2881
657.241	5320
657.297	3341
657.352	2385
657.408	1688
657.464	3299
657.519	2452
657.575	411
657.630	866
657.686	1515
657.742	783
657.797	1416
657.853	1363
657.908	2361
657.964	496
658.019	1605
658.075	1446
658.130	2353
658.186	1169
658.241	2053
658.297	1742
658.352	1682
658.407	2097
658.463	1435
658.518	2160
658.573	1616
658.629	1283
658.684	1432
658.739	1698
658.795	649
658.850	1426
658.905	415
658.960	1745
659.016	718
659.071	1365
659.126	1390
659.181	2031
659.236	5290
659.291	6322
659.346	1975
659.401	1295
659.457	811
659.512	1696
659.567	1959
659.622	1271
659.677	1929
659.732	1251
659.787	1715
659.842	2011
659.897	2334
659.952	2197
660.007	1510
660.061	1707
660.116	1055
660.171	1023
660.226	746
660.281	1725
660.336	541
660.391	2132
660.445	1237
660.500	1219
660.555	1286
660.610	990
660.664	1251
660.719	1154
660.774	842
660.828	1445
660.883	1887
660.938	2097
660.992	764
661.047	1615
661.101	783
661.156	1399
661.211	1009
661.265	1926
661.320	482
661.374	1598
661.429	829
661.483	1655
661.538	1294
661.592	1349
661.647	1190
661.701	1529
661.755	1928
661.810	1464
661.864	1188
661.919	1355
661.973	1702
662.027	813
662.081	483
662.136	730
662.190	1443
662.244	1231
662.299	1384
662.353	1422
662.407	1246
662.461	2088
662.515	1883
662.569	1488
662.624	2475
662.678	1698
662.732	2130
662.786	1557
662.840	891
662.894	1610
662.948	1943
663.002	1251
663.056	1431
663.110	1132
663.164	1518
663.218	1874
663.272	2162
663.326	2217
663.380	2180
663.434	1733
663.488	994
663.542	958
663.595	1835
663.649	1201
663.703	2017
663.757	2241
663.811	1299
663.864	1766
663.918	1938
663.972	2109
664.026	1641
664.079	1245
664.133	2158
664.187	1475
664.240	1561
664.294	1184
664.348	2067
664.401	2144
664.455	1044
664.508	1004
664.562	1942
664.615	1876
664.669	1495
664.722	1949
664.776	1470
664.829	1776
664.883	993
664.936	1293
664.990	1832
665.043	1892
665.097	1637
665.150	2861
665.203	1129
665.257	2710
665.310	1773
665.363	1791
665.417	2768
665.470	2875
665.523	2614
665.576	1728
665.630	2108
665.683	2662
665.736	1600
665.789	1893
665.842	1693
665.895	3048
665.949	2232
666.002	2248
666.055	2030
666.108	2908
666.161	2418
666.214	2870
666.267	3510
666.320	3364
666.373	2453
666.426	2108
666.479	1816
666.532	3285
666.585	4112
666.638	4261
666.691	3513
666.744	3763
666.796	3329
666.849	3391
666.902	2916
666.955	2224
667.008	1775
667.060	2513
667.113	1731
667.166	2066
667.219	2508
667.271	2451
667.324	1454
667.377	2517
667.430	2550
667.482	2431
667.535	2745
667.587	3359
667.640	3454
667.693	4487
667.745	6496
667.798	7790
667.850	4178
667.903	2356
667.955	2826
668.008	3223
668.060	2295
668.113	2948
668.165	3480
668.218	2944
668.270	3409
668.322	3212
668.375	2565
668.427	3729
668.479	2704
668.532	3906
668.584	2765
668.636	2626
668.689	2828
668.741	2772
668.793	2955
668.845	2705
668.898	3209
668.950	3561
669.002	3813
669.054	2841
669.106	3072
669.158	4264
669.211	2925
669.263	3189
669.315	4169
669.367	3626
669.419	3243
669.471	5171
669.523	5033
669.575	6473
669.627	4956
669.679	3706
669.731	4290
669.783	4775
669.835	4914
669.886	4908
669.938	4981
669.990	4098
670.042	3325
670.094	5067
670.146	4948
670.197	5889
670.249	6925
670.301	8978
670.353	11288
670.404	17350
670.456	24071
670.508	37944
670.560	60226
670.611	102669
670.663	183219
670.715	440649
670.766	661781
670.818	256066
670.869	57723
670.921	28012
670.972	18552
671.024	13623
671.075	10962
671.127	9487
671.178	7613
671.230	6785
671.281	6224
671.333	6459
671.384	5940
671.436	7559
671.487	7351
671.538	8794
671.590	10641
671.641	15345
671.692	24100
671.744	44905
671.795	34735
671.846	14400
671.897	8562
671.949	7186
672.000	5824
672.051	5840
672.102	5994
672.153	4751
672.204	4364
672.256	4988
672.307	4636
672.358	4290
672.409	4327
672.460	4305
672.511	3509
672.562	4172
672.613	4570
672.664	3519
672.715	4262
672.766	3437
672.817	3296
672.868	3435
672.919	3546
672.970	3423
673.021	3769
673.071	3142
673.122	4246
673.173	4337
673.224	4206
673.275	3300
673.326	3790
673.376	3687
673.427	2919
673.478	3463
673.528	4129
673.579	3376
673.630	3727
673.680	4202
673.731	3675
673.782	3417
673.832	4202
673.883	4128
673.934	3143
673.984	3446
674.035	3215
674.085	3914
674.136	3892
674.186	3327
674.237	5453
674.287	8363
674.338	6132
674.388	4309
674.438	3337
674.489	3734
674.539	4607
674.589	4116
674.640	4180
674.690	3572
674.740	3718
674.791	6060
674.841	3901
674.891	4359
674.942	4658
674.992	3766
675.042	3766
675.092	3391
675.142	3637
675.193	4180
675.243	3498
675.293	4411
675.343	3361
675.393	3518
675.443	4039
675.493	3833
675.543	3312
675.593	3741
675.643	4464
675.693	3106
675.743	3606
675.793	3872
675.843	3092
675.893	3529
675.943	3851
675.993	3836
676.043	4030
676.093	3580
676.142	3367
676.192	3784
676.242	4045
676.292	3451
676.341	3525
676.391	4141
676.441	3301
676.491	4133
676.540	3330
676.590	3559
676.640	3410
676.689	3629
676.739	3329
676.789	3253
676.838	3331
676.888	2613
676.937	3580
676.987	3258
677.037	2823
677.086	2943
677.136	3653
677.185	3776
677.235	2551
677.284	2929
677.333	3373
677.383	2909
677.432	2101
677.482	3067
677.531	3698
677.580	3007
677.630	2543
677.679	2325
677.728	2957
677.778	2952
677.827	2834
677.876	3710
677.925	3118
677.975	3691
678.024	3155
678.073	3826
678.122	2896
678.171	3128
678.220	3965
678.269	4000
678.319	4972
678.368	3947
678.417	3681
678.466	3803
678.515	4414
678.564	3877
678.613	3699
678.662	2839
678.711	4112
678.760	3008
678.809	3900
678.857	3836
678.906	3453
678.955	3612
679.004	4384
679.053	3456
679.102	2427
679.151	3295
679.199	3911
679.248	3138
679.297	3569
679.346	3965
679.394	3930
679.443	3417
679.492	3935
679.540	3548
679.589	3775
679.638	4265
679.686	2642
679.735	4028
679.784	3771
679.832	3688
679.881	3079
679.929	3219
679.978	3397
680.026	3483
680.075	3764
680.123	2962
680.172	3395
680.220	2858
680.268	3773
680.317	3518
680.365	3122
680.414	2975
680.462	4254
680.510	3995
680.559	2968
680.607	2853
680.655	3080
680.703	3573
680.752	3060
680.800	2912
680.848	2846
680.896	2845
680.945	3305
680.993	2561
681.041	3707
681.089	3779
681.137	3587
681.185	2376
681.233	2818
681.258	3037
681.281	3231
681.329	3195
681.377	3154
681.380	3155
681.425	2935
681.473	4105
681.502	3362
681.521	2817
681.569	4091
681.617	3609
681.624	3542
681.665	3026
681.713	3117
681.745	3569
681.761	3763
681.809	3225
681.857	3802
681.867	3665
681.904	3135
681.952	4209
681.989	3961
682.000	3872
682.048	3688
682.096	3451
682.111	3555
682.143	3700
682.191	3277
682.233	3932
682.239	4025
682.286	3891
682.334	2905
682.354	3156
682.382	3461
682.430	3901
682.476	3398
682.477	3377
682.525	3794
682.572	3789
682.598	3260
682.620	2772
682.667	4017
682.715	4174
682.720	4212
682.763	4455
682.810	3936
682.841	4284
682.857	4432
682.905	3833
682.952	3199
682.963	3170
683.000	3037
683.047	4022
683.085	4251
683.095	4292
683.142	3682
683.190	4215
683.206	3809
683.237	3077
683.284	4290
683.328	4115
683.332	4084
683.379	3902
683.426	3854
683.449	3799
683.473	3781
683.521	3923
683.568	3945
683.571	3974
683.615	4111
683.662	4242
683.693	4220
683.709	4239
683.757	4020
683.804	4273
683.814	4175
683.851	3721
683.898	4232
683.936	4034
683.945	3996
683.992	4040
684.039	4556
684.057	4605
684.086	4572
684.133	5048
684.179	4510
684.180	4484
684.227	5318
684.274	5033
684.300	5321
684.321	5485
684.368	4299
684.415	4781
684.422	4687
684.462	4115
684.509	4119
684.543	4208
684.556	4249
684.603	4658
684.649	3550
684.665	3865
684.696	4525
684.743	4338
684.786	4541
684.790	4550
684.837	4767
684.883	5237
684.908	5192
684.930	5105
684.977	5412
685.023	4832
685.029	4853
685.070	4913
685.117	4813
685.150	4696
685.164	4679
685.210	5116
685.257	5646
685.272	5482
685.303	5085
685.350	5299
685.393	5367
685.396	5378
685.443	6265
685.490	6691
685.514	6585
685.536	6287
685.583	6237
685.629	5220
685.636	5181
685.675	5118
685.722	5460
685.757	5705
685.768	5758
685.815	5816
685.861	5939
685.878	5635
685.908	5191
685.954	5597
686.000	5951
686.000	5955
686.047	6366
686.093	7803
686.121	7338
686.139	6877
686.185	6217
686.232	6139
686.242	6129
686.278	6051
686.324	5704
686.363	4825
686.370	4696
686.416	5211
686.463	5516
686.484	5464
686.509	5446
686.555	5756
686.601	5071
686.606	5133
686.647	5598
686.693	5814
686.727	6150
686.739	6261
686.785	5653
686.831	5778
686.848	5657
686.877	5433
686.923	5247
686.969	5298
686.969	5298
687.015	5388
687.061	5994
687.090	5985
687.107	5923
687.153	5643
687.199	5256
687.211	5172
687.245	5038
687.291	5399
687.332	5682
687.336	5714
687.382	6179
687.428	6016
687.453	5871
687.474	5611
687.520	5535
687.565	5018
687.574	5020
687.611	5375
687.657	5382
687.695	5533
687.702	5525
687.748	5923
687.794	6345
687.816	6031
687.839	5741
687.885	6072
687.931	5641
687.937	5647
687.976	5670
688.022	6156
688.058	6370
688.067	6439
688.113	6252
688.158	6302
688.179	6014
688.204	5657
688.249	6242
688.295	6237
688.300	6257
688.340	6418
688.386	6790
688.421	6281
688.431	6137
688.477	5946
688.522	6214
688.542	6278
688.567	6423
688.613	6354
688.658	5977
688.663	6003
688.703	6231
688.749	6669
688.784	6609
688.794	6537
688.839	6393
688.884	5810
688.905	5699
688.930	5670
688.975	5799
689.020	5797
689.026	5765
689.065	5850
689.110	6084
689.146	6423
689.155	6412
689.201	5855
689.246	5951
689.267	5739
689.291	5739
689.336	6328
689.381	6337
689.388	6373
689.426	6421
689.471	6427
689.509	6197
689.516	6173
689.561	6251
689.606	6493
689.630	6288
689.651	6062
689.696	5684
689.741	6104
689.750	6083
689.785	6151
689.830	6119
689.871	6252
689.875	6255
689.920	5812
689.965	6143
689.992	5926
690.010	5847
690.054	6002
690.099	6230
690.112	6214
690.144	6177
690.189	6007
690.233	5557
690.233	5562
690.278	6333
690.323	6160
690.354	6423
690.367	6529
690.412	6317
690.457	6215
690.474	6186
690.501	6123
690.546	6475
690.590	6570
690.595	6553
690.635	6283
690.680	5977
690.716	5675
690.724	5679
690.769	5638
690.813	6415
690.836	6082
690.857	5803
690.902	6035
690.946	6325
690.957	6306
690.991	6382
691.035	6899
691.077	6958
691.080	6954
691.124	6634
691.168	6889
691.198	6950
691.213	7041
691.257	6939
691.301	6955
691.318	6991
691.346	6903
691.390	6568
691.434	6195
691.439	6170
691.478	6564
691.522	7548
691.559	7484
691.567	7399
691.611	6864
691.655	6908
691.680	6775
691.699	6824
691.743	7014
691.787	7082
691.800	7057
691.831	6940
691.875	7212
691.919	7049
691.921	7041
691.964	7587
692.008	7842
692.041	8235
692.052	8205
692.096	7856
692.139	7489
692.162	7250
692.183	7195
692.227	7327
692.271	7083
692.282	7037
692.315	7048
692.359	7130
692.402	7379
692.403	7393
692.447	7288
692.490	7369
692.523	7588
692.534	7743
692.578	7946
692.622	7572
692.643	7847
692.666	7876
692.709	7228
692.753	6812
692.763	6752
692.797	6966
692.840	6924
692.884	7137
692.884	7153
692.928	7442
692.971	7785
693.004	7940
693.015	7887
693.059	7184
693.102	7106
693.124	6908
693.146	7043
693.189	7378
693.233	7666
693.245	7772
693.276	7743
693.320	7613
693.363	7227
693.365	7215
693.407	7539
693.450	7583
693.485	7390
693.493	7366
693.537	7978
693.580	7616
693.605	7695
693.624	7796
693.667	7960
693.710	8266
693.725	8289
693.753	8249
693.797	8127
693.840	8196
693.845	8150
693.883	8134
693.926	8183
693.966	8238
693.970	8192
694.013	7626
694.056	7189
694.086	6647
694.099	6808
694.142	7531
694.185	7907
694.206	8230
694.229	8296
694.272	8482
694.315	8341
694.326	8284
694.358	8495
694.401	9083
694.444	9480
694.446	9479
694.487	9138
694.530	8649
694.566	8374
694.573	8351
694.616	8020
694.659	7557
694.686	7334
694.702	7329
694.745	7376
694.787	7227
694.806	7206
694.830	7310
694.873	7457
694.916	7563
694.926	7557
694.959	7689
695.002	7784
695.044	8038
695.046	8044
695.087	8478
695.130	8380
695.166	8455
695.172	8485
695.215	8336
695.258	8229
695.286	8245
695.301	8264
695.343	8225
695.386	8200
695.406	8118
695.428	8009
695.471	7818
695.514	7754
695.526	7652
695.556	7728
695.599	8116
695.641	8152
695.646	8180
695.684	8257
695.726	7946
695.766	7743
695.769	7744
695.811	7665
695.854	7429
695.886	7213
695.896	7276
695.938	7466
695.981	7685
696.005	7775
696.023	7816
696.065	8000
696.108	8107
696.125	8173
696.150	8340
696.192	8461
696.235	8359
696.245	8396
696.277	8384
696.319	8221
696.361	8064
696.365	8031
696.404	8090
696.446	8247
696.485	8222
696.488	8259
696.530	8636
696.572	8842
696.604	9016
696.614	8952
696.656	8528
696.698	8240
696.724	8027
696.740	8119
696.783	8241
696.825	8333
696.844	8370
696.867	8219
696.909	7976
696.951	7583
696.964	7489
696.992	7642
697.034	7760
697.076	7941
697.083	7940
697.118	8120
697.160	8307
697.202	8518
697.203	8503
697.244	8540
697.286	8536
697.323	8457
697.327	8463
697.369	8339
697.411	8242
697.442	8160
697.453	8219
697.494	8358
697.536	8567
697.562	8604
697.578	8762
697.620	9155
697.661	9554
697.682	9735
697.703	9831
697.744	9994
697.786	10191
697.801	10191
697.828	10296
697.869	10514
697.911	10624
697.921	10646
697.952	10264
697.994	9721
698.035	9117
698.040	9027
698.077	8982
698.118	8875
698.160	8799
698.160	8776
698.201	8958
698.243	9107
698.279	9226
698.284	9238
698.325	9126
698.367	9029
698.399	8900
698.408	8930
698.449	8995
698.491	9032
698.518	9047
698.532	9018
698.573	8816
698.614	8672
698.638	8555
698.656	8672
698.697	8900
698.738	9111
698.757	9193
698.779	9146
698.820	9013
698.862	8868
698.877	8794
698.903	9262
698.944	9977
698.985	10685
698.996	10855
699.026	10504
699.067	9983
699.116	9337
699.235	9716
699.354	9087
699.474	8847
699.593	10177
699.713	9893
699.832	9883
699.951	10215
700.070	8760
700.190	8874
700.309	9433
700.428	10094
700.547	9246
700.667	9672
700.786	9736
700.905	9178
701.024	9708
701.143	8209
701.262	8203
701.381	7902
701.500	9153
701.619	10536
701.738	8413
701.857	9230
701.976	8199
702.095	9422
702.214	9174
702.333	9978
702.452	8801
702.571	7558
702.690	8128
702.809	8539
702.928	7645
703.047	7790
703.165	8739
703.284	8095
703.403	7773
703.522	9726
703.640	9469
703.759	11131
703.878	13976
703.997	8514
704.115	8005
704.234	7799
704.353	8104
704.471	7801
704.590	7236
704.708	6995
704.827	6987
704.946	7447
705.064	7764
705.183	8046
705.301	8429
705.420	11930
705.538	10026
705.656	8578
705.775	7687
705.893	8896
706.012	9380
706.130	8999
706.249	8779
706.367	8760
706.485	9033
706.604	9193
706.722	9857
706.840	13175
706.958	11057
707.077	8936
707.195	8448
707.313	8623
707.431	7291
707.549	8729
707.668	8092
707.786	8999
707.904	8327
708.022	7584
708.140	8513
708.258	8641
708.376	8702
708.494	8020
708.612	8403
708.730	11918
708.848	11032
708.966	10420
709.084	10093
709.202	9264
709.320	10102
709.438	9398
709.556	10163
709.674	9009
709.791	9286
709.909	8492
710.027	8746
710.145	8311
710.263	9148
710.380	9352
710.498	9685
710.616	8844
710.733	9583
710.851	10914
710.969	9051
711.086	9969
711.204	9537
711.322	8846
711.439	9359
711.557	8845
711.674	8858
711.792	9240
711.909	8179
712.027	7913
712.144	7730
712.262	8895
712.379	9089
712.497	13023
712.614	11712
712.732	11523
712.849	10471
712.966	12148
713.084	14363
713.201	11060
713.318	11030
713.436	10413
713.553	9918
713.670	11802
713.787	12370
713.905	12019
714.022	10287
714.139	11040
714.256	13657
714.373	16285
714.490	28027
714.608	74329
714.725	308479
714.842	250518
714.959	19773
715.076	13097
715.193	11184
715.310	10816
715.427	10361
715.544	9488
715.661	9739
715.778	8831
715.895	9917
716.011	10616
716.128	9395
716.245	9400
716.362	12106
716.479	12299
716.596	8950
716.713	9362
716.829	8811
716.946	9038
717.063	8080
717.180	8262
717.296	8289
717.413	8093
717.530	8223
717.646	8360
717.763	6947
717.880	7807
717.996	8471
718.113	9238
718.229	7814
718.346	8040
718.462	7976
718.579	12181
718.695	20923
718.812	14051
718.928	11481
719.045	9266
719.161	7817
719.277	7552
719.394	7853
719.510	8060
719.626	7635
719.743	10487
719.859	12434
719.975	22439
720.092	85492
720.208	161873
720.324	19131
720.440	9298
720.557	10642
720.673	16679
720.789	21358
720.905	39113
721.021	11947
721.137	6545
721.253	7618
721.369	8617
721.486	8931
721.602	12171
721.718	6165
721.834	6345
721.950	6748
722.066	6395
722.181	6258
722.297	7210
722.413	6859
722.529	7454
722.645	6306
722.761	6459
722.877	6719
722.993	6624
723.108	7052
723.224	6326
723.340	6285
723.456	6265
723.571	6303
723.687	6519
723.803	5080
723.918	5858
724.034	6075
724.150	6217
724.265	7923
724.381	15928
724.497	16296
724.612	5404
724.728	4486
724.843	6214
724.959	7195
725.074	15954
725.190	14677
725.305	6944
725.421	5018
725.536	4938
725.651	5060
725.767	4553
725.882	4610
725.997	5003
726.113	4994
726.228	5384
726.343	4874
726.459	5223
726.574	5487
726.689	4941
726.804	5006
726.920	5165
727.035	4814
727.150	5169
727.265	5377
727.380	5630
727.495	5804
727.610	5428
727.725	4976
727.841	4757
727.956	4669
728.071	5995
728.186	4585
728.301	4709
728.416	5289
728.531	5023
728.645	4160
728.760	5782
728.875	6338
728.990	6155
729.105	5030
729.220	5559
729.335	4660
729.449	4372
729.564	3806
729.679	4147
729.794	4731
729.908	5340
730.023	4158
730.138	3453
730.253	4253
730.367	3979
730.482	3538
730.596	4335
730.711	4727
730.826	4314
730.940	4341
731.055	5134
731.169	3556
731.284	4237
731.398	3672
731.513	4873
731.627	5395
731.742	6675
731.856	5920
731.970	5132
732.085	5310
732.199	7337
732.313	11698
732.428	31914
732.542	94372
732.656	44730
732.771	9554
732.885	6135
732.999	5676
733.113	5428
733.227	5057
733.342	5310
733.456	4697
733.570	4415
733.684	3983
733.798	3942
733.912	4045
734.026	3541
734.140	3647
734.254	5697
734.368	9254
734.482	9601
734.596	3726
734.710	3945
734.824	4035
734.938	4390
735.052	4992
735.166	5464
735.280	4487
735.393	3771
735.507	3445
735.621	5830
735.735	10119
735.849	5910
735.962	3668
736.076	5486
736.190	3806
736.303	7781
736.417	7513
736.531	4604
736.644	4326
736.758	2954
736.872	4442
736.985	3964
737.099	3992
737.212	3519
737.326	3861
737.439	3680
737.553	4028
737.666	3937
737.780	3662
737.893	3229
738.007	2514
738.120	3243
738.233	3509
738.347	3361
738.460	4459
738.573	3979
738.687	3291
738.800	4505
738.913	5920
739.026	4070
739.140	3884
739.253	2995
739.366	3649
739.479	3118
739.592	2781
739.705	3541
739.818	3368
739.932	2960
740.045	3196
740.158	3164
740.271	4125
740.384	4039
740.497	4534
740.610	5097
740.723	4415
740.836	5185
740.949	4725
741.062	7524
741.174	4285
741.287	2794
741.400	3474
741.513	4025
741.626	4500
741.739	4259
741.851	3710
741.964	4094
742.077	3597
742.189	4688
742.302	8371
742.415	5867
742.527	3706
742.640	2880
742.753	3734
742.865	3251
742.978	2661
743.090	2970
743.203	2681
743.316	2943
743.428	2007
743.541	2673
743.653	2493
743.766	3077
743.878	3355
743.990	4546
744.103	6619
744.215	10349
744.327	4628
744.440	4724
744.552	7673
744.664	3900
744.777	2796
744.889	2540
745.001	3361
745.113	3065
745.226	2480
745.338	2999
745.450	1990
745.562	1822
745.674	2221
745.786	2692
745.898	2358
746.010	1954
746.122	1751
746.234	2612
746.347	2025
746.459	3279
746.570	2827
746.682	6196
746.794	12743
746.906	5415
747.018	2425
747.130	2698
747.242	2383
747.354	2491
747.466	2552
747.577	2493
747.689	2135
747.801	2404
747.913	2106
748.024	2224
748.136	1747
748.248	2506
748.359	1573
748.471	2303
748.583	1998
748.694	2378
748.806	2558
748.918	3326
749.029	2878
749.141	2903
749.252	3457
749.364	3734
749.475	10454
749.587	3793
749.698	2049
749.809	3244
749.921	1933
750.032	2138
750.144	1825
750.255	1604
750.366	1428
750.478	2067
750.589	1698
750.700	2170
750.811	2678
750.923	4218
751.034	11647
751.145	8341
751.256	3062
751.367	1928
751.479	1685
751.590	909
751.701	2158
751.812	1372
751.923	1856
752.034	2064
752.145	2018
752.256	1764
752.367	1433
752.478	2119
752.589	1428
752.700	1059
752.811	2007
752.922	2162
753.032	2627
753.143	2642
753.254	1306
753.365	2092
753.476	2022
753.586	1977
753.697	1629
753.808	1033
753.919	1349
754.029	1387
754.140	1905
754.251	2413
754.361	1546
754.472	1568
754.582	1971
754.693	1844
754.804	1244
754.914	1373
755.025	1309
755.135	1558
755.246	1869
755.356	1118
755.466	2295
755.577	2209
755.687	1531
755.798	1141
755.908	677
756.018	1313
756.129	1944
756.239	2085
756.349	1867
756.460	1994
756.570	1381
756.680	1796
756.790	1632
756.900	2761
757.011	1323
757.121	2314
757.231	1605
757.341	1616
757.451	1360
757.561	1386
757.671	1293
757.781	681
757.891	2146
758.001	656
758.111	1210
758.221	1620
758.331	2389
758.441	2762
758.551	4594
758.661	3310
758.771	2095
758.880	2528
758.990	2175
759.100	1551
759.210	1121
759.320	1714
759.429	2092
759.539	2414
759.649	1039
759.758	2437
759.868	1811
759.978	1693
760.087	2922
760.197	2381
760.307	2219
760.416	2887
760.526	1484
760.635	2600
760.745	1688
760.854	3038
760.964	3467
761.073	3353
761.182	1810
761.292	2528
761.401	2768
761.511	2370
761.620	1698
761.729	2205
761.839	2258
761.948	2119
762.057	2246
762.166	1671
762.276	548
762.385	2716
762.494	1156
762.603	1394
762.712	1687
762.822	955
762.931	1658
763.040	737
763.149	1716
763.258	2110
763.367	1490
763.476	2041
763.585	1455
763.694	1743
763.803	2070
763.912	2456
764.021	1537
764.130	921
764.238	1637
764.347	1609
764.456	2370
764.565	2289
764.674	1012
764.783	1308
764.891	1262
765.000	2286
765.109	1442
765.217	1529
765.326	3393
765.435	3398
765.543	2234
765.652	2170
765.761	2006
765.869	4051
765.978	5462
766.086	9995
766.195	17112
766.303	53693
766.412	196165
766.520	131941
766.629	17036
766.737	7100
766.846	4196
766.954	3600
767.062	3760
767.171	2678
767.279	2788
767.387	2318
767.496	1755
767.604	1915
767.712	1364
767.820	2660
767.928	2170
768.037	2135
768.145	1659
768.253	3079
768.361	1151
768.469	2199
768.577	1660
768.685	2819
768.793	2199
768.901	1899
769.009	2706
769.117	1949
769.225	2080
769.333	3488
769.441	4251
769.549	7842
769.657	17633
769.765	69826
769.873	153196
769.981	29225
770.088	4721
770.196	3287
770.304	2550
770.412	3119
770.519	2810
770.627	2767
770.735	1767
770.842	2466
770.950	2236
771.058	2494
771.165	2401
771.273	2407
771.380	2858
771.488	2358
771.595	1936
771.703	1978
771.810	2579
771.918	2330
772.025	2578
772.133	2459
772.240	2315
772.348	2746
772.455	2732
772.562	2299
772.670	2040
772.777	2566
772.884	2268
772.991	1669
773.099	1611
773.206	1838
773.313	2284
773.420	1797
773.528	1622
773.635	1823
773.742	2329
773.849	2561
773.956	1790
774.063	1798
774.170	1792
774.277	2344
774.384	2017
774.491	2150
774.598	2178
774.705	2318
774.812	3298
774.919	2126
775.026	2845
775.133	3258
775.239	1744
775.346	1731
775.453	2250
775.560	2154
775.667	2006
775.773	1114
775.880	2943
775.987	1587
776.093	1993
776.200	1713
776.307	1954
776.413	2557
776.520	1850
776.627	1988
776.733	1870
776.840	2636
776.946	5171
777.053	9017
777.159	22777
777.266	11834
777.372	18922
777.478	16580
777.585	8275
777.691	2350
777.798	1991
777.904	3386
778.010	4350
778.117	4366
778.223	2230
778.329	2545
778.435	1574
778.542	1816
778.648	1290
778.754	698
778.860	1558
778.966	1794
779.072	1146
779.178	852
779.284	1448
779.391	1339
779.497	268
779.603	3025
779.708	608
779.815	2753
779.920	2430
780.026	3666
780.132	1564
780.238	1931
780.344	959
780.450	1185
780.556	939
780.661	1679
780.767	693
780.873	1302
780.979	1428
781.085	1214
781.190	1371
781.296	1030
781.402	993
781.507	832
781.613	1761
781.719	831
781.824	1445
781.930	2387
782.035	916
782.141	1421
782.246	1484
782.352	1648
782.457	2186
782.563	1151
782.668	1674
782.773	1809
782.879	1359
782.984	2392
783.090	2359
783.195	4795
783.300	2626
783.405	1377
783.511	1220
783.616	1734
783.721	1260
783.826	1239
783.932	2204
784.037	2026
784.142	1060
784.247	776
784.352	2406
784.457	1784
784.562	1504
784.667	728
784.772	1516
784.877	461
784.982	1725
785.087	823
785.192	1615
785.297	898
785.402	1105
785.507	1204
785.611	1215
785.716	690
785.821	1560
785.926	1000
786.031	942
786.135	1527
786.240	1183
786.345	352
786.450	1348
786.554	1376
786.659	353
786.763	306
786.868	1097
786.973	2750
787.077	335
787.182	795
787.286	600
787.391	1103
787.495	343
787.600	567
787.704	-533
787.809	1031
787.913	-100
788.017	1381
788.122	519
788.226	675
788.330	1105
788.435	107
788.539	982
788.643	270
788.747	1182
788.852	941
788.956	144
789.060	1782
789.164	1172
789.268	457
789.372	858
789.476	968
789.580	133
789.684	216
789.788	549
789.892	327
789.996	563
790.100	878
790.204	566
790.308	1092
790.412	77
790.516	991
790.620	503
790.724	1124
790.828	592
790.931	341
791.035	1074
791.139	51
791.242	75
791.346	1944
791.450	1368
791.554	369
791.657	-411
791.761	1810
791.864	809
791.968	756
792.072	1456
792.175	1018
792.279	680
792.382	2129
792.486	2276
792.589	1123
792.693	1120
792.796	-789
792.899	450
793.003	1609
793.106	-762
793.209	926
793.313	1969
793.416	-403
793.519	1981
793.623	2446
793.726	3466
793.829	1454
793.932	562
794.035	60
794.138	1509
794.242	1801
794.345	845
794.448	2485
794.551	2863
794.654	4025
794.757	3107
794.860	1923
794.963	832
795.066	1357
795.169	1166
795.272	233
795.375	1202
795.477	364
795.580	1411
795.683	109
795.786	-284
795.889	-441
795.991	1386
796.094	2471
796.197	-431
796.300	2376
796.402	504
796.505	-611
796.608	204
796.710	1276
796.813	639
796.915	488
797.018	203
797.120	894
797.223	-1288
797.326	1628
797.428	600
797.530	1465
797.633	398
797.735	2014
797.838	2267
797.940	2773
798.042	-367
798.145	516
798.247	164
798.349	-1963
798.452	243
798.554	40
798.656	-318
798.758	1126
798.860	323
798.962	386
799.065	-387
799.167	-166
799.269	906
799.371	1527
799.473	1439
799.575	535
799.677	1545
799.779	2647
799.881	2077
799.983	1712
800.085	1207
800.187	669
800.289	-40
800.390	697
800.492	188
800.594	1426
800.696	242
800.798	1178
800.899	108
801.001	139
801.103	-336
801.205	490
801.306	712
801.408	-119
801.509	-295
801.611	158
801.713	-354
801.814	-795
801.916	-357
802.017	174
802.119	-459
802.220	-157
802.322	-889
802.423	2172
802.525	115
802.626	1024
802.727	290
802.829	920
802.930	-1866
803.031	2360
803.133	-491
803.234	739
803.335	-207
803.436	-642
803.538	60
803.639	-887
803.740	-58
803.841	-352
803.942	606
804.043	602
804.144	-944
804.245	808
804.346	-555
804.447	-2
804.548	872
804.649	2771
804.750	201
804.851	61
804.952	-255
805.053	1141
805.154	-967
805.255	1192
805.355	460
805.456	-479
805.557	-1078
805.658	-677
805.758	44
805.859	576
805.960	-321
806.061	216
806.161	-480
806.262	160
806.362	-21
806.463	492
806.564	382
806.664	694
806.765	591
806.865	564
806.966	536
807.066	323
807.166	645
807.267	374
807.367	-287
807.468	271
807.568	-826
807.668	868
807.769	607
807.869	229
807.969	300
808.069	66
808.170	291
808.270	1232
808.370	907
808.470	1779
808.570	-368
808.670	-14
808.770	-287
808.870	-461
808.970	116
809.070	-398
809.170	-463
809.271	680
809.370	-494
809.470	26
809.570	-429
809.670	220
809.770	-343
809.870	787
809.970	33
810.070	341
810.169	197
810.269	-1169
810.369	747
810.469	-38
810.568	-266
810.668	-396
810.768	-529
810.867	321
810.967	-519
811.066	243
811.166	-809
811.265	-367
811.365	-85
811.464	-214
811.564	-39
811.663	631
811.763	-842
811.862	566
811.962	778
812.061	-474
812.160	-434
812.260	292
812.359	243
812.458	1410
812.557	6633
812.657	7383
812.756	1116
812.855	327
812.954	-680
813.053	811
813.153	466
813.252	-940
813.351	-33
813.450	242
813.549	-253
813.648	411
813.747	-449
813.846	1350
813.945	-1111
814.044	587
814.143	-18
814.242	730
814.341	-411
814.439	616
814.538	-168
814.637	-134
814.736	-356
814.835	878
814.933	-809
815.032	1022
815.131	416
815.229	781
815.328	500
815.427	162
815.525	901
815.624	1048
815.722	152
815.821	886
815.919	888
816.018	463
816.116	1209
816.215	1338
816.313	809
816.412	973
816.510	913
816.609	2042
816.707	1709
816.805	1619
816.904	775
817.002	1476
817.100	2606
817.198	3160
817.296	2183
817.395	3656
817.493	4453
817.591	4640
817.689	6357
817.787	8628
817.885	14727
817.983	28439
818.081	62849
818.179	151681
818.277	340032
818.375	243826
818.473	68989
818.571	29048
818.669	21314
818.767	19847
818.865	18347
818.963	21832
819.061	31562
819.158	57317
819.256	121634
819.354	280353
819.452	510390
819.549	289674
819.647	89190
819.745	39409
819.842	24266
819.940	16463
820.038	10784
820.135	10138
820.233	8374
820.330	5532
820.428	4320
820.525	5417
820.623	3309
820.720	3004
820.818	3833
820.915	3462
821.012	3416
821.110	2792
821.207	3072
821.304	2428
821.402	3405
821.499	5057
821.596	8914
821.693	5680
821.791	2496
821.888	3503
821.985	7397
822.082	4231
822.179	3246
822.276	4704
822.373	2574
822.470	1022
822.567	265
822.664	119
822.761	1804
822.858	1184
822.955	1519
823.052	649
823.149	695
823.246	573
823.343	-291
823.440	1214
823.536	726
823.633	605
823.730	1129
823.827	1403
823.923	588
824.020	2355
824.117	1986
824.213	2253
824.310	1706
824.407	803
824.503	1154
824.600	1680
824.696	-162
824.793	1327
824.889	-19
824.986	215
825.082	183
825.179	1167
825.275	78
825.371	642
825.468	527
825.564	-869
825.660	1016
825.757	598
825.853	818
825.949	81
826.045	4
826.142	-420
826.238	392
826.334	713
826.430	-234
826.526	397
826.622	-168
826.718	736
826.814	-322
826.910	1407
827.006	164
827.102	117
827.198	113
827.294	270
827.390	384
827.486	965
827.582	-1759
827.678	-853
827.774	1021
827.869	-531
827.965	734
828.061	-93
828.157	-311
828.252	538
828.348	-496
828.444	509
828.539	-487
828.635	171
828.731	1208
828.826	-722
828.922	1028
829.017	235
829.113	483
829.208	465
829.304	213
829.399	1530
829.495	-768
829.590	810
829.685	-980
829.781	-117
829.876	259
829.971	218
830.066	238
830.162	756
830.257	7
830.352	446
830.447	706
830.543	396
830.638	-784
830.733	1919
830.828	-870
830.923	873
831.018	224
831.113	423
831.208	-320
831.303	-519
831.398	461
831.493	201
831.588	296
831.683	435
831.778	21
831.873	-417
831.967	1104
832.062	-100
832.157	-598
832.252	1179
832.346	198
832.441	1942
832.536	1519
832.631	5805
832.725	2253
832.820	747
832.914	-1
833.009	267
833.104	138
833.198	1355
833.293	310
833.387	1219
833.482	395
833.576	813
833.670	192
833.765	540
833.859	-7
833.954	-237
834.048	-658
834.142	667
834.237	-68
834.331	499
834.425	159
834.519	150
834.613	589
834.708	-769
834.802	-320
834.896	-370
834.990	-431
835.084	100
835.178	-368
835.272	304
835.366	-810
835.460	1595
835.554	-579
835.648	801
835.742	-992
835.836	479
835.930	-695
836.024	-289
836.117	955
836.211	1166
836.305	1738
836.399	2237
836.493	189
836.586	1118
836.680	-217
836.774	-516
836.867	215
836.961	-445
837.055	-1003
837.148	-136
837.242	163
837.335	-933
837.429	311
837.522	251
837.616	636
837.709	2585
837.803	730
837.896	1014
837.989	385
838.083	861
838.176	4083
838.269	2191
838.363	1032
838.456	298
838.549	1720
838.642	2908
838.735	4959
838.829	933
838.922	-788
839.015	358
839.108	-506
839.201	327
839.294	-515
839.387	80
839.480	-348
839.573	674
839.666	504
839.759	188
839.852	-1242
839.945	-16
840.038	-325
840.131	-319
840.223	742
840.316	1100
840.409	340
840.502	31
840.594	958
840.687	-1102
840.780	-296
840.873	-65
840.965	209
841.058	1261
841.150	2930
841.243	1217
841.336	488
841.428	382
841.521	-26
841.613	-235
841.706	3
841.798	972
841.890	-317
841.983	-596
842.075	694
842.167	-15
842.260	619
842.352	1605
842.444	2228
842.537	4253
842.629	4769
842.721	432
842.813	-140
842.905	277
842.997	458
843.090	1249
843.182	1606
843.274	4390
843.366	11940
843.458	19706
843.550	8808
843.642	1225
843.734	776
843.826	574
843.918	683
844.009	1507
844.101	-525
844.193	648
844.285	656
844.377	1749
844.469	3062
844.560	5812
844.652	5295
844.744	1356
844.835	62
844.927	778
845.019	181
845.110	419
845.202	-124
845.293	-540
845.385	-716
845.476	-148
845.568	7
845.659	-41
845.751	-93
845.842	-244
845.934	-721
846.025	-85
846.116	-672
846.208	-483
846.299	-210
846.390	236
846.482	241
846.573	646
846.664	1253
846.755	1318
846.846	1919
846.937	-1081
847.029	-82
847.120	-393
847.211	-461
847.302	237
847.393	-1954
847.484	58
847.575	-500
847.666	17
847.757	160
847.847	-609
847.938	1241
848.029	-316
848.120	-481
848.211	208
848.302	-844
848.392	-702
848.483	217
848.574	-358
848.664	-744
848.755	-101
848.846	356
848.936	-292
849.027	911
849.118	-334
849.208	475
849.299	1113
849.389	3134
849.480	8183
849.570	16456
849.661	32453
849.751	48623
849.841	14859
849.932	1463
850.022	374
850.112	477
850.203	-39
850.293	393
850.383	113
850.474	-726
850.564	-486
850.654	453
850.744	110
850.834	-93
850.924	-134
851.014	193
851.104	638
851.194	220
851.284	1492
851.374	1207
851.464	798
851.554	582
851.644	663
851.734	965
851.824	351
851.914	-431
852.004	1291
852.094	317
852.183	-78
852.273	418
852.363	376
852.452	104
852.542	579
852.632	-411
852.721	58
852.811	200
852.901	499
852.990	756
853.080	1241
853.169	207
853.259	1213
853.348	972
853.438	2384
853.527	3007
853.617	4678
853.706	11466
853.795	22487
853.885	52951
853.974	96752
854.063	187489
854.152	256401
854.242	79110
854.331	12423
854.420	5465
854.509	4243
854.598	4244
854.687	1696
854.777	3044
854.866	994
854.955	1067
855.044	1021
855.133	279
855.222	673
855.311	60
855.400	489
855.488	197
855.577	580
855.666	555
855.755	1166
855.844	-346
855.933	-156
856.021	221
856.110	850
856.199	-63
856.288	-758
856.376	-547
856.465	-775
856.554	518
856.642	255
856.731	280
856.819	996
856.908	234
856.996	-145
857.085	-1032
857.173	-654
857.262	-798
857.350	432
857.438	-1391
857.527	-12
857.615	-711
857.703	469
857.792	-919
857.880	-519
857.968	-536
858.056	48
858.145	-160
858.233	-277
858.321	-790
858.409	250
858.497	57
858.585	-1576
858.673	-476
858.761	-608
858.849	-594
858.937	111
859.025	293
859.113	508
859.201	-482
859.289	1196
859.377	-354
859.465	392
859.552	-58
859.640	-130
859.728	-374
859.816	448
859.903	-66
859.991	-713
860.079	-170
860.166	371
860.254	-357
860.342	-382
860.429	-353
860.517	-510
860.604	117
860.692	833
860.779	519
860.867	-3
860.954	246
861.042	712
861.129	334
861.216	229
861.304	-309
861.391	-318
861.478	-381
861.565	434
861.653	607
861.740	-530
861.827	57
861.914	-673
862.001	-131
862.089	303
862.176	157
862.263	288
862.350	-289
862.437	-1001
862.524	-456
862.611	1190
862.698	1652
862.785	1796
862.871	2498
862.958	233
863.045	-96
863.132	-65
863.219	162
863.306	-426
863.392	1447
863.479	543
863.566	-236
863.652	361
863.739	-386
863.826	384
863.912	292
863.999	-778
864.086	343
864.172	-89
864.259	-175
864.345	14
864.432	395
864.518	-335
864.604	-784
864.691	106
864.777	1093
864.863	719
864.950	1203
865.036	1011
865.122	2080
865.209	2350
865.295	2439
865.381	2485
865.467	2167
865.553	4436
865.639	5936
865.726	12244
865.812	26144
865.898	50282
865.984	73152
866.070	147593
866.156	132962
866.242	28697
866.328	6205
866.414	3068
866.499	2849
866.585	1643
866.671	1769
866.757	2091
866.843	1528
866.928	1184
867.014	418
867.100	1655
867.186	1543
867.271	1919
867.357	2788
867.442	3209
867.528	1162
867.614	2635
867.699	2829
867.785	3890
867.870	5927
867.956	7565
868.041	4611
868.127	3737
868.212	4951
868.297	4928
868.383	2559
868.468	4534
868.553	5136
868.639	4814
868.724	9670
868.809	6985
868.894	806
868.979	963
869.065	928
869.150	293
869.235	714
869.320	616
869.405	322
869.490	805
869.575	-643
869.660	1052
869.745	471
869.830	670
869.915	468
870.000	1278
870.085	913
870.169	1373
870.254	2013
870.339	469
870.424	-17
870.509	577
870.593	1097
870.678	1299
870.763	723
870.847	1265
870.932	1074
871.016	2093
871.101	1708
871.186	594
871.270	356
871.355	-267
871.439	824
871.523	468
871.608	-135
871.692	1251
871.777	1227
871.861	897
871.945	222
872.030	791
872.114	60
872.198	-108
872.282	115
872.367	344
872.451	-175
872.535	210
872.619	351
872.703	748
872.787	562
872.871	786
872.955	-258
873.039	90
873.123	540
873.207	659
873.291	-201
873.375	-12
873.459	45
873.543	-527
873.627	74
873.711	792
873.794	972
873.878	-106
873.962	-232
874.045	432
874.129	-561
874.137	-494
874.213	174
874.245	208
874.296	256
874.352	-324
874.380	-609
874.460	325
874.464	363
874.547	540
874.568	379
874.631	-130
874.676	117
874.714	322
874.784	519
874.798	568
874.881	1646
874.892	1479
874.965	284
874.999	555
875.048	898
875.107	462
875.131	295
875.215	698
875.215	698
875.298	197
875.323	258
875.381	461
875.430	671
875.465	799
875.538	748
875.548	737
875.631	452
875.646	338
875.714	-243
875.753	-215
875.798	-129
875.861	812
875.881	1098
875.964	360
875.968	378
876.047	722
876.076	718
876.130	741
876.183	1064
876.213	1258
876.291	1081
876.296	1056
876.379	486
876.398	582
876.462	961
876.506	818
876.545	720
876.613	767
876.628	753
876.711	106
876.721	207
876.794	1183
876.828	1099
876.877	808
876.935	582
876.960	636
877.043	2388
877.043	2386
877.125	1551
877.150	1644
877.208	2145
877.258	1969
877.291	1755
877.365	1628
877.374	1623
877.456	1556
877.472	1622
877.539	1982
877.579	1861
877.622	1676
877.687	1775
877.704	1810
877.787	1964
877.794	1972
877.869	1909
877.901	1702
877.952	1462
878.008	1289
878.034	1224
878.115	1098
878.117	1094
878.199	1153
878.222	1014
878.282	1077
878.329	1610
878.364	1733
878.437	1640
878.447	1637
878.529	897
878.544	823
878.611	766
878.651	1007
878.694	1393
878.758	1226
878.776	1049
878.858	1747
878.865	1724
878.941	1748
878.972	1803
879.023	1809
879.078	1376
879.105	1289
879.185	2266
879.187	2285
879.269	1835
879.292	1743
879.351	1312
879.399	1140
879.433	1212
879.506	1370
879.516	1365
879.598	1205
879.613	1251
879.680	1412
879.720	1250
879.762	1242
879.827	1288
879.844	1284
879.926	1815
879.933	1848
880.007	2303
880.040	2383
880.089	2648
880.147	3861
880.171	4464
880.253	6806
880.254	6816
880.335	9640
880.360	10690
880.417	15818
880.467	22688
880.499	27771
880.574	33111
880.580	32159
880.662	12200
880.680	9253
880.744	4601
880.787	2341
880.825	1996
880.893	1907
880.907	1931
880.989	1666
881.000	1622
881.070	1548
881.106	1737
881.152	1940
881.213	1585
881.233	1455
881.315	1262
881.319	1260
881.396	1668
881.426	1696
881.478	1566
881.532	1782
881.559	1879
881.639	1230
881.641	1222
881.722	1075
881.745	1207
881.803	2075
881.852	2344
881.885	2099
881.958	1978
881.966	2035
882.047	2839
882.064	2810
882.129	2992
882.171	3575
882.210	4929
882.277	7265
882.291	7151
882.372	4549
882.383	4288
882.454	2854
882.489	2262
882.535	1889
882.596	1512
882.616	1504
882.697	1189
882.702	1190
882.778	1908
882.808	2057
882.859	1584
882.914	1400
882.940	1703
883.020	1741
883.021	1743
883.102	1841
883.127	1725
883.183	1624
883.233	1564
883.264	1589
883.339	1791
883.345	1813
883.426	1772
883.445	1807
883.507	1793
883.551	1743
883.587	1831
883.657	2308
883.668	2442
883.749	2678
883.763	2765
883.830	2027
883.869	1588
883.910	1964
883.975	2446
883.991	2390
884.072	2050
884.081	2003
884.152	1690
884.187	1515
884.233	1738
884.292	1975
884.314	1849
884.394	1677
884.398	1648
884.475	1295
884.504	1292
884.555	1691
884.610	1599
884.636	1513
884.716	2027
884.716	2036
884.797	1984
884.821	2000
884.877	1686
884.927	1264
884.958	1303
885.033	1769
885.038	1796
885.118	1885
885.139	1934
885.199	1698
885.244	1487
885.279	1686
885.350	2062
885.359	2112
885.439	2335
885.456	2386
885.520	2278
885.561	2186
885.600	2193
885.667	2325
885.680	2360
885.760	2414
885.773	2410
885.840	2259
885.878	2128
885.920	2155
885.984	2334
886.000	2384
886.080	2299
886.089	2310
886.160	2780
886.195	2865
886.240	2520
886.300	2341
886.320	2415
886.400	2255
886.406	2264
886.480	3493
886.511	3838
886.560	3846
886.616	3983
886.640	3797
886.720	2972
886.722	2937
886.800	2691
886.827	2660
886.879	2283
886.932	2021
886.959	2334
887.038	2961
887.039	2963
887.119	2265
887.143	2101
887.198	2576
887.248	2958
887.278	2774
887.354	2180
887.358	2207
887.437	2523
887.459	2660
887.517	2785
887.564	2853
887.596	2899
887.669	2792
887.676	2797
887.755	2846
887.774	2811
887.835	2287
887.880	1964
887.914	2260
887.985	2818
887.994	2846
888.073	3007
888.090	3027
888.153	3355
888.195	3505
888.232	3439
888.300	3340
888.311	3288
888.391	2860
888.405	2758
888.470	2527
888.510	2358
888.549	2496
888.615	2753
888.628	2868
888.708	3505
888.720	3580
888.787	3245
888.825	3062
888.866	2850
888.930	2467
888.945	2538
889.024	2896
889.035	2934
889.103	3190
889.140	3298
889.182	3217
889.245	3097
889.261	3169
889.340	3447
889.349	3470
889.419	2946
889.454	2667
889.498	2556
889.559	2393
889.577	2537
889.656	3139
889.664	3192
889.735	3329
889.768	3382
889.814	3094
889.873	2691
889.978	3217
890.083	3050
890.187	2689
890.292	2918
890.397	3030
890.501	2270
890.606	2023
890.710	3145
890.815	2952
890.919	3326
891.024	2973
891.128	4358
891.233	3582
891.337	3824
891.442	2741
891.546	3500
891.650	2530
891.755	2461
891.859	4917
891.963	3898
892.068	3578
892.172	3137
892.276	2504
892.380	3500
892.484	3923
892.589	4262
892.693	3037
892.797	2784
892.901	3100
893.005	3058
893.109	3491
893.213	3428
893.317	3005
893.421	2671
893.525	2269
893.629	3112
893.733	2634
893.837	2871
893.941	3049
894.045	2721
894.148	3000
894.252	3057
894.356	3610
894.460	4047
894.564	2797
894.667	2989
894.771	2877
894.875	3131
894.978	1972
895.082	2662
895.186	3645
895.289	3220
895.393	2604
895.496	2843
895.600	2886
895.703	2751
895.807	2806
895.910	3264
896.014	3310
896.117	2853
896.221	3580
896.324	3340
896.427	3082
896.531	3057
896.634	2844
896.737	3046
896.840	3479
896.944	2236
897.047	2901
897.150	3061
897.253	2964
897.356	3152
897.460	3477
897.563	4085
897.666	3129
897.769	3717
897.872	3165
897.975	2538
898.078	3192
898.181	2659
898.284	2926
898.387	3186
898.490	3137
898.593	2775
898.695	2734
898.798	3444
898.901	3693
899.004	2513
899.107	3359
899.209	2877
899.312	3422
899.415	2681
899.518	2425
899.620	2736
899.723	3345
899.826	6222
899.928	9406
900.031	2955
900.133	2903
900.236	3208
900.338	2592
900.441	2659
900.543	3251
900.646	2693
900.748	3163
900.851	2426
900.953	2193
901.055	3728
901.158	2929
901.260	3104
901.362	2742
901.465	2443
901.567	3244
901.669	3303
901.771	3257
901.873	2535
901.976	2293
902.078	2808
902.180	2741
902.282	3313
902.384	2836
902.486	3243
902.588	4062
902.690	4797
902.792	2824
902.894	3936
902.996	3063
903.098	2908
903.200	2975
903.302	2988
903.404	2642
903.505	2758
903.607	2515
903.709	2779
903.811	2929
903.913	2710
904.014	2207
904.116	3130
904.218	2851
904.319	2902
904.421	3249
904.523	2771
904.624	3299
904.726	2769
904.827	2828
904.929	2504
905.030	2932
905.132	3331
905.233	3135
905.335	2345
905.436	1600
905.537	2346
905.639	2293
905.740	3006
905.841	2422
905.943	2982
906.044	2872
906.145	2832
906.247	2147
906.348	2164
906.449	3572
906.550	2798
906.651	2572
906.752	3327
906.854	2844
906.955	3115
907.056	3006
907.157	3054
907.258	3306
907.359	2308
907.460	2664
907.561	3178
907.662	2926
907.762	2400
907.863	2793
907.964	3459
908.065	3353
908.166	2668
908.267	2877
908.367	3555
908.468	2740
908.569	3077
908.670	4071
908.770	4654
908.871	5139
908.971	6014
909.072	5565
909.173	3048
909.273	2800
909.374	2535
909.474	1874
909.575	3941
909.675	2979
909.776	2607
909.876	2871
909.977	2397
910.077	2998
910.177	2350
910.278	3002
910.378	2660
910.478	2301
910.579	2887
910.679	3613
910.779	3127
910.879	3061
910.980	3193
911.080	2541
911.180	3234
911.280	2880
911.380	2438
911.480	2955
911.580	3547
911.680	3409
911.780	2428
911.880	3997
911.980	2820
912.080	2513
912.180	3439
912.280	3024
912.380	3696
912.480	2728
912.580	3233
912.679	1902
912.779	2004
912.879	2352
912.979	3043
913.078	2491
913.178	2257
913.278	2073
913.377	2138
913.477	2482
913.577	2770
913.676	3088
913.776	3434
913.875	2568
913.975	2706
914.074	3483
914.174	1696
914.273	1956
914.373	3099
914.472	2437
914.572	2522
914.671	2382
914.770	2438
914.870	2197
914.969	2191
915.068	2482
915.167	2832
915.267	2534
915.366	3094
915.465	2491
915.564	2134
915.663	2706
915.763	2344
915.862	2957
915.961	2455
916.060	2579
916.159	2059
916.258	2428
916.357	3005
916.456	2435
916.555	2541
916.654	2894
916.752	2973
916.851	3008
916.950	2824
917.049	1986
917.148	2440
917.247	2527
917.345	2606
917.444	2038
917.543	2985
917.642	3008
917.740	3129
917.839	2819
917.937	3938
918.036	2904
918.135	3048
918.233	2452
918.332	2093
918.430	2824
918.529	3183
918.627	2825
918.726	2472
918.824	3076
918.923	2699
919.021	2368
919.119	2169
919.218	2200
919.316	3995
919.414	2902
919.512	3521
919.611	2631
919.709	2525
919.807	1955
919.905	4140
920.003	3017
920.102	2779
920.200	2454
920.298	2948
920.396	3565
920.494	2746
920.592	3321
920.690	3184
920.788	2847
920.886	2393
920.984	3530
921.082	3181
921.180	3393
921.277	2372
921.375	3774
921.473	3322
921.571	3302
921.669	4548
921.766	2827
921.864	4038
921.962	3469
922.060	3708
922.157	3299
922.255	3605
922.352	3367
922.450	3462
922.548	3717
922.645	4341
922.743	4546
922.840	5744
922.938	6416
923.035	5205
923.133	4913
923.230	5909
923.327	6937
923.425	6027
923.522	6742
923.619	6016
923.717	5285
923.814	5757
923.911	5782
924.008	5319
924.106	5996
924.203	5510
924.300	5712
924.397	5771
924.494	5990
924.591	6806
924.688	6221
924.786	4669
924.883	4969
924.979	5484
925.077	6170
925.173	5422
925.270	5434
925.367	5380
925.464	6483
925.561	6005
925.658	7034
925.755	7422
925.852	7479
925.948	6602
926.045	5621
926.142	6751
926.239	5846
926.335	4983
926.432	5574
926.529	6258
926.625	5737
926.722	5043
926.818	5865
926.915	6634
927.011	5630
927.108	4952
927.204	5466
927.301	4598
927.397	5111
927.494	6139
927.590	5116
927.687	5236
927.783	5793
927.879	6096
927.976	5219
928.072	4451
928.168	5024
928.264	4933
928.361	4305
928.457	5577
928.553	5126
928.649	4563
928.745	5121
928.841	4916
928.937	5040
929.033	5050
929.129	4584
929.225	4978
929.321	5325
929.417	5001
929.513	5314
929.609	4844
929.705	4593
929.801	5296
929.897	4745
929.993	4657
930.089	5092
930.184	4287
930.280	4997
930.376	5065
930.471	3975
930.567	4414
930.663	4852
930.758	3803
930.854	4759
930.950	3831
931.045	4356
931.141	5398
931.236	5865
931.332	5285
931.427	3828
931.523	5636
931.618	5063
931.714	3008
931.809	4269
931.905	5003
932.000	4368
932.095	3305
932.191	4703
932.286	5111
932.381	4777
932.476	3986
932.572	3379
932.667	4768
932.762	3760
932.857	4581
932.952	4238
933.047	4176
933.142	3630
933.237	4378
933.332	4537
933.427	5204
933.522	4339
933.617	4632
933.712	4783
933.807	4757
933.902	4752
933.997	3963
934.092	3897
934.187	4501
934.282	4553
934.376	4942
934.471	3837
934.566	3110
934.661	4261
934.755	4654
934.850	4639
934.945	5119
935.039	4109
935.134	4697
935.228	4088
935.323	5367
935.417	4210
935.512	3107
935.606	3886
935.701	4756
935.795	3824
935.890	4231
935.984	3857
936.079	3211
936.173	3305
936.267	3918
936.362	2961
936.456	4036
936.550	4793
936.644	4332
936.738	4110
936.833	3562
936.927	4038
937.021	3729
937.115	3132
937.209	3903
937.303	4344
937.397	3047
937.491	3682
937.585	4414
937.679	4496
937.773	4493
937.867	3236
937.961	4348
938.055	5152
938.149	4976
938.243	3941
938.337	3738
938.430	2827
938.524	3878
938.618	4424
938.712	4118
938.805	4409
938.899	4382
938.993	4475
939.086	4476
939.180	3255
939.274	4438
939.367	4416
939.461	4716
939.554	4422
939.648	3839
939.741	3022
939.835	3654
939.928	4209
940.022	4929
940.115	3296
940.208	4199
940.302	4310
940.395	4829
940.488	3548
940.582	4036
940.675	3903
940.768	4098
940.861	3804
940.954	5229
941.048	3342
941.141	4472
941.234	4560
941.327	6166
941.420	7267
941.513	5740
941.606	4817
941.699	3878
941.792	3887
941.885	3825
941.978	3743
942.071	3754
942.164	2643
942.257	3937
942.349	3444
942.442	4394
942.535	2944
942.628	3169
942.721	3545
942.813	2579
942.906	4245
942.999	3991
943.091	3617
943.184	3753
943.277	2898
943.369	3535
943.462	3854
943.554	3249
943.647	3892
943.739	3866
943.832	3412
943.924	2173
944.017	3464
944.109	2576
944.201	3565
944.294	3983
944.386	3573
944.478	3310
944.571	3884
944.663	3940
944.755	3004
944.847	3286
944.940	3161
945.032	3041
945.124	3367
945.216	4085
945.308	3640
945.400	3759
945.492	3458
945.584	3466
945.676	3586
945.768	4187
945.860	4534
945.952	3888
946.044	3619
946.136	2925
946.228	3641
946.320	2722
946.412	3492
946.503	4748
946.595	3936
946.687	2142
946.779	2721
946.870	3113
946.962	2938
947.054	3672
947.145	3726
947.237	3029
947.329	3506
947.420	3393
947.512	3102
947.603	2891
947.695	3132
947.786	2202
947.878	2743
947.969	3069
948.061	2921
948.152	3220
948.243	3222
948.335	2972
948.426	2616
948.517	3518
948.609	2491
948.700	3195
948.791	2610
948.882	3114
948.973	2067
949.065	2628
949.156	3608
949.247	2816
949.338	3107
949.429	2050
949.520	2544
949.611	2460
949.702	3438
949.793	2865
949.884	2217
949.975	2444
950.066	1876
950.157	2500
950.247	2462
950.338	2334
950.429	2593
950.520	3573
950.611	3582
950.701	3714
950.792	3493
950.883	3422
950.973	3031
951.064	4261
951.155	3713
951.245	3564
951.336	3076
951.427	2505
951.517	3245
951.608	3510
951.698	2483
951.788	2558
951.879	2374
951.969	2175
952.060	2630
952.150	2056
952.240	3331
952.331	1671
952.421	3744
952.511	2718
952.602	2185
952.692	1616
952.782	2099
952.872	2303
952.962	2428
953.052	2385
953.143	1354
953.233	3294
953.323	2826
953.413	2205
953.503	2958
953.593	2759
953.683	2631
953.773	1074
953.863	2325
953.953	2015
954.042	2403
954.132	2745
954.222	3211
954.312	2424
954.402	2487
954.492	4930
954.581	8769
954.671	4423
954.761	2856
954.850	2567
954.940	2275
955.030	2093
955.119	2528
955.209	2461
955.298	1824
955.388	2844
955.477	2349
955.567	1206
955.656	2713
955.746	1913
955.835	2193
955.925	2063
956.014	2770
956.103	1809
956.193	3171
956.282	2652
956.371	2803
956.461	2700
956.550	1388
956.639	2795
956.728	2037
956.817	2557
956.906	2195
956.995	2936
957.085	2104
957.174	2185
957.263	1730
957.352	1243
957.441	2567
957.530	2063
957.619	2532
957.708	1985
957.796	960
957.885	2327
957.974	1242
958.063	2407
958.152	1001
958.241	2597
958.329	2067
958.418	1810
958.507	1539
958.596	2411
958.684	1312
958.773	3274
958.861	1105
958.950	1638
959.039	2304
959.127	2557
959.216	2497
959.304	2426
959.393	1017
959.481	2462
959.570	2394
959.658	1517
959.746	2972
959.835	5148
959.923	10020
960.011	5084
960.100	2879
960.188	2792
960.276	2263
960.365	1940
960.453	1953
960.541	1881
960.629	1327
960.717	1800
960.805	1845
960.893	2179
960.981	1245
961.069	2135
961.158	1928
961.245	2393
961.333	1797
961.421	1926
961.509	2625
961.597	2675
961.685	1815
961.773	2457
961.861	2154
961.949	2557
962.036	1016
962.124	2047
962.212	1338
962.299	1284
962.387	1140
962.475	2273
962.562	1976
962.650	2264
962.738	2523
962.825	1399
962.913	2376
963.000	2013
963.088	3014
963.175	2289
963.263	1989
963.350	2091
963.438	2985
963.525	4799
963.612	7874
963.700	16535
963.787	42144
963.874	20155
963.962	3568
964.049	1736
964.136	1452
964.223	1261
964.310	1472
964.398	1726
964.485	2081
964.572	3889
964.659	7701
964.746	7108
964.833	1897
964.920	1517
965.007	1946
965.094	1834
965.181	1633
965.268	2404
965.355	2409
965.441	1589
965.528	1476
965.615	2987
965.702	2292
965.789	1080
965.875	1522
965.962	1455
966.049	1910
966.136	3008
966.222	2183
966.309	3063
966.395	1337
966.482	2108
966.569	1492
966.655	2264
966.742	1853
966.828	2173
966.915	1015
967.001	1700
967.087	1571
967.174	3067
967.260	3484
967.347	5913
967.433	14027
967.519	29415
967.605	10910
967.692	2305
967.778	1330
967.864	1948
967.950	1629
968.036	771
968.123	2301
968.209	2310
968.295	1354
968.381	2898
968.467	1410
968.553	1016
968.639	3040
968.725	2592
968.811	7140
968.897	5964
968.983	1123
969.069	1553
969.154	2921
969.240	2525
969.326	1041
969.412	1892
969.497	1138
969.583	807
969.669	1402
969.755	811
969.840	1349
969.926	2830
970.012	2782
970.097	4628
970.183	4184
970.268	2964
970.354	4421
970.439	8679
970.525	18901
970.610	6623
970.696	1875
970.781	1217
970.866	874
970.952	1160
971.037	558
971.122	1601
971.208	1697
971.293	2024
971.378	352
971.463	1023
971.549	1579
971.634	1254
971.719	1671
971.804	3045
971.889	3984
971.974	1848
972.059	727
972.144	1603
972.229	754
972.314	1484
972.399	1572
972.484	2123
972.569	2635
972.654	3599
972.739	8334
972.824	10808
972.908	3664
972.993	874
973.078	1060
973.163	379
973.247	1884
973.332	449
973.417	2632
973.501	1545
973.586	1839
973.671	1667
973.755	2477
973.840	2410
973.924	2139
974.009	3064
974.093	1279
974.178	4670
974.262	7294
974.346	7770
974.431	2426
974.515	1672
974.600	1758
974.684	1444
974.768	628
974.852	2101
974.937	109
975.021	1834
975.105	767
975.189	1666
975.273	1494
975.358	1006
975.442	349
975.526	2242
975.610	65
975.694	736
975.778	1681
975.862	2182
975.946	-826
976.030	2720
976.114	641
976.198	1274
976.281	1331
976.365	1449
976.449	559
976.533	1229
976.617	925
976.700	1576
976.784	1686
976.868	2011
976.951	4955
977.035	3744
977.119	2761
977.202	1356
977.286	1068
977.369	1451
977.453	1548
977.536	1000
977.620	1388
977.703	1410
977.787	607
977.870	2584
977.953	2650
978.037	753
978.120	4436
978.203	5117
978.287	10470
978.370	5429
978.453	1591
978.536	1246
978.620	3344
978.703	6385
978.786	3402
978.869	477
978.952	23
979.035	2266
979.118	1317
979.201	797
979.284	1217
979.367	703
979.450	1080
979.533	433
979.616	774
979.699	1491
979.782	421
979.865	1131
979.948	1837
980.030	674
980.113	952
980.196	346
980.279	1119
980.361	891
980.444	450
980.526	1407
980.609	1999
980.692	1806
980.774	2093
980.857	905
980.939	2525
981.022	511
981.104	592
981.187	1313
981.269	1526
981.352	703
981.434	350
981.516	654
981.599	1789
981.681	796
981.763	915
981.846	1228
981.928	812
982.010	1286
982.092	302
982.174	952
982.256	-47
982.339	1327
982.421	747
982.503	1213
982.585	841
982.667	1007
982.749	728
982.831	1103
982.913	396
982.995	2467
983.077	950
983.158	3730
983.240	598
983.322	1143
983.404	2029
983.486	563
983.568	2182
983.649	1622
983.731	1323
983.813	568
983.894	1547
983.976	345
984.058	1158
984.139	2444
984.221	-338
984.302	1539
984.384	825
984.465	387
984.547	984
984.628	367
984.710	1188
984.791	848
984.872	1018
984.954	799
985.035	1038
985.116	856
985.198	566
985.279	1652
985.360	1262
985.441	500
985.522	1597
985.604	643
985.685	-652
985.766	1665
985.847	2185
985.928	430
986.009	546
986.090	634
986.171	2374
986.252	320
986.333	772
986.414	1065
986.495	532
986.576	753
986.656	526
986.737	1428
986.818	1141
986.899	237
986.980	628
987.060	2119
987.141	833
987.222	1067
987.302	1558
987.383	2072
987.464	997
987.544	855
987.625	995
987.705	1421
987.786	1446
987.866	1650
987.947	1093
988.027	1267
988.108	291
988.188	1592
988.268	815
988.349	1750
988.429	2040
988.509	1057
988.589	285
988.670	-522
988.750	2183
988.830	1381
988.910	1647
988.990	440
989.070	444
989.151	840
989.231	665
989.311	618
989.391	1294
989.471	1595
989.551	1114
989.631	-230
989.711	2093
989.791	514
989.870	106
989.950	1232
990.030	531
990.110	1328
990.190	175
990.269	805
990.349	118
990.429	1593
990.509	805
990.588	-187
990.668	282
990.747	56
990.827	176
990.907	1424
990.986	890
991.066	1011
991.145	601
991.225	1325
991.304	859
991.383	1133
991.463	5
991.542	877
991.622	377
991.701	-32
991.780	94
991.859	419
991.939	192
992.018	669
992.097	1585
992.176	603
992.256	331
992.335	162
992.414	592
992.493	318
992.572	588
992.651	2009
992.730	311
992.809	738
992.888	-8
992.967	10
993.046	833
993.125	965
993.203	575
993.282	-145
993.361	281
993.440	1028
993.519	-744
993.597	861
993.676	-557
993.755	820
993.834	259
993.912	-290
993.991	751
994.069	112
994.148	452
994.226	434
994.305	449
994.384	508
994.462	1072
994.540	-371
994.619	328
994.697	1062
994.776	-100
994.854	1020
994.932	488
995.011	707
995.089	835
995.167	-728
995.245	72
995.324	221
995.402	758
995.480	-265
995.558	539
995.636	-46
995.714	-126
995.792	1538
995.870	1
995.948	-12
996.026	302
996.104	27
996.182	879
996.260	-73
996.338	157
996.416	-377
996.494	-538
996.572	797
996.649	-137
996.727	-1054
996.805	312
996.883	-341
996.960	-10
997.038	633
997.116	247
997.193	-378
997.271	-303
997.348	-753
997.426	-238
997.504	-608
997.581	-78
997.658	-37
997.736	-509
997.813	-633
997.891	554
997.968	280
998.046	79
998.123	815
998.200	562
998.277	-571
998.355	369
998.432	-1265
998.509	60
998.586	-11
998.663	233
998.741	204
998.818	-425
998.895	-125
998.972	11
999.049	-299
999.126	-999
999.203	68
999.280	-612
999.357	-236
999.434	-1044
999.511	532
999.587	1058
999.664	-252
999.741	1297
999.818	928
999.895	-119
999.971	-765
1000.048	181
1000.125	826
1000.202	210
1000.278	403
1000.355	305
1000.431	-341
1000.508	-723
1000.584	177
1000.661	-534
1000.738	-701
1000.814	-567
1000.890	482
1000.967	-1332
1001.043	518
1001.120	-1395
1001.196	-315
1001.272	-385
1001.349	-41
1001.425	76
1001.501	-927
1001.577	-1468
1001.654	823
1001.730	-834
1001.806	-894
1001.882	-1246
1001.958	599
1002.034	-236
1002.110	14
1002.186	-1237
1002.262	-1235
1002.338	-1436
1002.414	-549
1002.490	289
1002.566	-1119
1002.642	-1012
1002.718	346
1002.794	-478
1002.870	-656
1002.945	-478
1003.021	-1593
1003.097	-602
1003.173	-179
1003.248	-1470
1003.324	4
1003.400	-138
1003.475	-807
1003.551	-656
1003.626	66
1003.702	-1043
1003.777	-707
1003.853	157
1003.928	-732
1004.004	-911
1004.079	-49
1004.155	-311
1004.230	-1130
1004.305	214
1004.381	-1232
1004.456	-1312
1004.531	-781
1004.607	-617
1004.682	-926
1004.757	-977
1004.832	-652
1004.907	-190
1004.982	-899
1005.057	-938
1005.133	-1588
1005.208	-293
1005.283	-517
1005.358	-475
1005.433	-1012
1005.508	-276
1005.583	-1924
1005.657	-831
1005.732	91
1005.807	-1928
1005.882	-994
1005.957	-1390
1006.032	242
1006.106	-909
1006.181	-392
1006.256	-6
1006.331	-871
1006.405	-829
1006.480	132
1006.554	-1637
1006.629	575
1006.704	-587
1006.778	-707
1006.853	-675
1006.927	-1198
1007.002	-1882
1007.076	-1054
1007.150	-712
1007.225	-342
1007.299	-178
1007.373	-1496
1007.448	-1139
1007.522	-56
1007.596	-772
1007.671	-707
1007.745	-362
1007.819	-1235
1007.893	-553
1007.967	-797
1008.041	-1590
1008.115	-985
1008.190	-1213
1008.264	-1105
1008.338	-1912
1008.412	-849
1008.486	-641
1008.560	-1306
1008.633	-1380
1008.707	-1172
1008.781	-503
1008.855	-1421
1008.929	-1097
1009.003	-1661
1009.076	-1044
1009.150	-853
1009.224	-755
1009.298	-263
1009.371	-1179
1009.445	-506
1009.519	-761
1009.592	-1050
1009.666	-478
1009.739	-857
1009.813	-1939
1009.886	-152
1009.960	-2000
1010.033	-405
1010.107	-1057
1010.180	-1225
1010.253	-1130
1010.327	-1484
1010.400	-1352
1010.473	-984
1010.547	-190
1010.620	-1167
1010.693	-454
1010.766	-1007
1010.840	-1155
1010.913	-596
1010.986	-1335
1011.059	-1248
1011.132	-1509
1011.205	-1026
1011.278	-603
1011.351	-1191
1011.424	-1374
1011.497	-2359
1011.570	-1296
1011.643	-875
1011.716	-1498
1011.789	-2032
1011.862	-964
1011.934	-680
1012.007	-1606
1012.080	-493
1012.153	-1203
1012.225	-254
1012.298	-2169
1012.371	-1246
1012.443	-851
1012.516	-1745
1012.588	-771
1012.661	-834
1012.733	-2534
1012.806	612
1012.879	-1950
1012.951	-1613
1013.023	-1025
1013.096	-803
1013.168	-1108
1013.241	-846
1013.313	-1948
1013.385	-1977
1013.458	-1306
1013.530	-733
1013.602	-1427
1013.674	-1234
1013.746	-1610
1013.819	-1835
1013.891	-1023
1013.963	-1120
1014.035	-1386
1014.107	-983
1014.179	-544
1014.251	-2058
1014.323	-1168
1014.395	-642
1014.467	-1439
1014.539	-776
1014.611	-1518
1014.683	-1076
1014.754	-770
1014.826	-1736
1014.898	-910
1014.970	-2090
1015.042	-309
1015.113	-996
1015.185	-1441
1015.257	-2185
1015.328	-736
1015.400	-1411
1015.471	-850
1015.543	-1721
1015.615	-1190
1015.686	-1355
1015.757	-1507
1015.829	-1197
1015.901	-1822
1015.972	-1301
1016.043	-1270
1016.115	-1805
1016.186	-877
1016.257	-2554
1016.328	-815
1016.400	-887
1016.471	-1413
1016.542	-1473
1016.613	-1488
1016.685	-987
1016.756	-20
1016.827	-987
1016.898	-2005
1016.969	-1321
1017.040	-1594
1017.111	-1062
1017.182	-1796
1017.253	-1340
1017.324	-1307
1017.395	-1122
1017.466	-1340
1017.537	-1507
1017.608	-1226
1017.678	-1440
1017.749	-1363
1017.820	-1873
1017.891	-1835
1017.961	-1593
1018.032	-2160
1018.103	-1499
1018.173	-1600
1018.244	-1497
1018.315	-1406
1018.385	-1262
1018.456	-1465
1018.526	-814
1018.597	-1048
1018.667	-1486
1018.738	-2076
1018.808	-1451
1018.878	-1974
1018.949	-1239
1019.019	-1307
1019.089	-1599
1019.160	-907
1019.230	-1777
1019.300	-1667
1019.371	-2070
1019.441	-914
1019.511	-1141
1019.581	-2894
1019.651	-1051
1019.721	-2096
1019.791	-1422
1019.861	-1502
1019.931	-1983
1020.001	-1439
1020.071	-2077
1020.141	-1519
1020.211	-878
1020.281	-1827
1020.351	-1432
1020.421	-1241
1020.491	-788
1020.560	-1583
1020.630	-1574
1020.700	-1285
1020.770	-2371
1020.839	-1481
1020.909	-1034
1020.979	-1424
1021.048	-1427
1021.118	-1757
1021.187	-2004
1021.257	-1158
1021.326	-1179
1021.396	-1430
1021.465	-1884
1021.535	-1694
1021.604	-2420
1021.674	-1817
1021.743	-1886
1021.812	-561
1021.882	-1284
1021.951	-1336
1022.020	-1698
1022.089	-1196
1022.159	-2066
1022.228	-2210
1022.297	-1805
1022.366	-872
1022.435	-1692
1022.504	-1998
1022.573	-2309
1022.642	-1524
1022.711	-2255
1022.781	-1692
1022.849	-2003
1022.918	-1793
1022.987	-1279
1023.056	-1974
1023.125	-1573
1023.194	-1936
1023.263	-1211
1023.331	-1384
1023.400	-2440
1023.469	-1673
1023.538	-1366
1023.606	-1377
1023.675	-2099
1023.744	-1599
1023.812	-1356
1023.881	-1893
1023.949	-1197
1024.018	-2126
1024.086	-1750
1024.155	-1417
1024.223	-1970
1024.292	-1438
1024.360	-1888
1024.429	-1825
1024.497	-1710
1024.565	-2242
1024.634	-1669
1024.702	-1974
1024.770	-1114
1024.838	-2158
1024.907	-1729
1024.975	-1217
1025.043	-1765
1025.111	-2394
1025.179	-2121
1025.247	-2026
1025.315	-2358
1025.383	-1881
1025.451	-1839
1025.519	-1447
1025.587	-1548
1025.655	-1445
1025.723	-1385
1025.791	-2025
1025.859	-980
1025.927	-862
1025.995	-1867
1026.062	-2247
1026.130	-1633
1026.198	-1819
1026.266	-2409
1026.333	-1862
1026.401	-1910
1026.469	-1726
1026.536	-2488
1026.604	-1284
1026.671	-2431
1026.739	-2024
1026.806	-1927
1026.874	-2195
1026.941	-2224
1027.009	-1964
1027.076	-2578
1027.144	-1263
1027.211	-2819
1027.278	-1714
1027.345	-1542
1027.413	-1286
1027.480	-2283
1027.547	-1622
1027.614	-2146
1027.682	-2561
1027.749	-1637
1027.816	-2068
1027.883	-1576
1027.950	-1952
1028.017	-2821
1028.084	-1533
1028.151	-1994
1028.218	-1691
1028.285	-1894
1028.352	-2323
1028.419	-1809
1028.486	-1614
1028.553	-1230
1028.619	-2516
1028.686	-1488
1028.753	-2337
1028.820	-1788
1028.886	-2470
1028.953	-1820
1029.020	-1521
1029.086	-1173
1029.153	-2155
1029.220	-2000
1029.286	-1645
1029.353	-1834
1029.419	-2178
1029.486	-1574
1029.552	-2096
1029.619	-1659
1029.685	-2469
1029.751	-1948
1029.818	-1256
1029.884	-1729
1029.951	-127
1030.017	-2384
1030.083	-2300
1030.149	-1545
1030.216	-2018
1030.282	-1413
1030.348	-1815
1030.414	-1922
1030.480	-1560
1030.546	-2504
1030.612	-1826
1030.678	-2050
1030.744	-2213
1030.810	-2494
1030.876	-2023
1030.942	-2998
1031.008	-2103
1031.074	-2254
1031.140	-2412
1031.206	-1161
1031.272	-2652
1031.337	-1827
1031.403	-2290
1031.469	-2051
1031.534	-2292
1031.600	-2645
1031.666	-2599
1031.731	-1574
1031.797	-2117
1031.863	-1561
1031.928	-2222
1031.994	-2040
1032.059	-1909
1032.125	-2035
1032.190	-1996
1032.256	-1973
1032.321	-1772
1032.386	-1664
1032.452	-1728
1032.517	-1572
1032.582	-1993
1032.647	-2313
1032.713	-2167
1032.778	-2190
1032.843	-1368
1032.908	-1946
1032.974	-1500
1033.039	-1848
1033.104	-955
1033.169	-1817
1033.234	-923
1033.299	-1271
1033.364	-541
1033.429	-826
1033.494	-57
1033.559	-1378
1033.624	-1839
1033.688	-2181
1033.753	-2934
1033.818	-1869
1033.883	-2346
1033.948	-1657
1034.013	-818
1034.077	-474
1034.142	144
1034.207	264
1034.271	1776
1034.336	2248
1034.400	2165
1034.465	1575
1034.530	328
1034.594	-860
1034.658	-2032
1034.723	-1815
1034.787	-1157
1034.852	-2034
1034.916	-2133
1034.981	-2166
1035.045	-1862
1035.109	-1401
1035.173	-1979
1035.238	-1959
1035.302	-2334
1035.366	-1106
1035.430	-1590
1035.495	-2535
1035.559	-1864
1035.623	-2167
1035.687	-2271
1035.751	-2137
1035.815	-2494
1035.879	-2148
1035.943	-2025
1036.007	-1910
1036.071	-1674
1036.135	-1752
1036.198	-2488
1036.262	-1981
1036.326	-1489
1036.390	-1832
1036.454	-1283
1036.517	-351
1036.581	-150
1036.645	852
1036.709	240
1036.772	-414
1036.836	-1804
1036.900	-1432
1036.963	-2093
1037.026	-1394
1037.090	-2367
1037.154	-2900
1037.217	-1922
1037.280	-2508
1037.344	-2279
1037.407	-2141
1037.471	-2573
1037.534	-968
1037.597	-2251
1037.661	-2260
1037.724	-2390
1037.787	-1285
1037.850	-1657
1037.913	-1793
1037.977	-1219
1038.040	-1834
1038.103	-1388
1038.166	-1835
1038.229	-1525
1038.292	-2023
1038.355	-1638
1038.418	-2065
1038.481	-1370
1038.544	-2190
1038.607	-1273
1038.670	-1560
1038.732	-1902
1038.795	-1662
1038.858	-2480
1038.921	-1112
1038.984	-1943
1039.046	-1404
1039.109	-2077
1039.172	-2071
1039.234	-2360
1039.297	-2228
1039.360	-1641
1039.422	-2286
1039.485	-1702
1039.547	-2377
1039.610	-1620
1039.672	-1548
1039.734	-2030
1039.797	-2193
1039.859	-2430
1039.922	-1983
1039.984	-2337
1040.046	-2109
1040.109	-2173
1040.171	-1948
1040.233	-2211
1040.295	-2497
1040.358	-2618
1040.420	-2211
1040.482	-1922
1040.544	-2277
1040.606	-2197
1040.668	-1976
1040.730	-2231
1040.792	-1945
1040.854	-2101
1040.916	-1979
1040.978	-1781
1041.040	-1603
1041.102	-1778
1041.164	-1904
1041.225	-1729
1041.287	-2726
1041.349	-2053
1041.411	-2038
1041.472	-1635
1041.534	-1810
1041.596	-2433
1041.657	-1703
1041.719	-1493
1041.781	-2391
1041.842	-3176
1041.904	-1962
1041.965	-1765
1042.027	-1843
1042.088	-1861
1042.150	-817
1042.211	-2180
1042.272	-2317
1042.334	-2207
1042.395	-1551
1042.456	-3296
1042.518	-1398
1042.579	-1351
1042.640	-2469
1042.701	-2770
1042.763	-2302
1042.824	-2314
1042.885	-1448
1042.946	-1934
1043.007	-1097
1043.068	-2024
1043.129	-2899
1043.190	-2128
1043.251	-1092
1043.312	-2561
1043.373	-1708
1043.434	-2046
1043.495	-1817
1043.556	-1852
1043.616	-2107
1043.677	-2189
1043.738	-1932
1043.799	-2002
1043.859	-1602
1043.920	-2361
1043.981	-1682
1044.041	-2619
1044.102	-2380
1044.162	-2500
1044.223	-2523
1044.284	-1909
1044.344	-2146
1044.405	-1583
1044.465	-1334
1044.525	-1614
1044.586	-1719
1044.646	-2303
1044.707	-1633
1044.767	-2381
1044.827	-1317
1044.887	-2249
1044.948	-778
1045.008	-2211
1045.068	-1659
1045.128	-1892
1045.188	-1934
1045.249	-1770
1045.309	-2355
1045.369	-1462
1045.429	-1408
1045.489	-1607
1045.549	-1255
1045.609	-1736
1045.669	-2007
1045.729	-1285
1045.789	-2114
1045.848	-1399
1045.908	-2097
1045.968	-1402
1046.028	-1196
1046.088	-1563
1046.147	-1929
1046.207	-1551
1046.267	-1474
1046.326	-1069
1046.386	-957
1046.446	-957
1046.505	-764
1046.565	16
1046.624	-802
1046.684	-1067
1046.743	-949
1046.803	231
1046.862	-468
1046.922	0
