'Start Wavelength	183.907
'End Wavelength	1046.922
'Gate Delay	5.000
'Gate Width (ms)	1.050
'Laser Output Level	0.000
'X Position	0.000
'Y Position	0.000
'Z Position	0.000
'Grid Point Number	1.000
'Shot Number	100.000
183.907	256.000
183.977	-230.000
184.047	123
184.116	461
184.186	650
184.256	-32
184.325	30
184.395	349
184.465	524
184.534	342
184.604	573
184.674	-57
184.743	-430
184.813	712
184.883	219
184.952	-260
185.022	414
185.092	244
185.161	879
185.231	1162
185.301	-119
185.370	338
185.440	183
185.509	-133
185.579	357
185.649	178
185.718	406
185.788	694
185.857	-267
185.927	-4
185.996	1012
186.066	-589
186.136	706
186.205	66
186.275	296
186.344	-98
186.414	-304
186.483	-741
186.553	1498
186.622	1104
186.692	1063
186.761	-51
186.831	185
186.900	-144
186.970	299
187.039	1365
187.109	995
187.178	172
187.248	949
187.317	142
187.387	131
187.456	-353
187.526	446
187.595	1055
187.664	70
187.734	789
187.803	-7
187.873	433
187.942	1036
188.012	458
188.081	1126
188.150	315
188.220	1098
188.289	1016
188.358	781
188.428	604
188.497	-54
188.567	949
188.636	101
188.705	750
188.775	354
188.844	-652
188.913	871
188.983	-137
189.052	150
189.121	205
189.191	635
189.260	936
189.329	194
189.399	436
189.468	435
189.537	-140
189.606	563
189.676	104
189.745	256
189.814	505
189.883	-282
189.953	471
190.022	554
190.091	1755
190.161	1937
190.230	965
190.299	451
190.368	72
190.437	1093
190.507	284
190.576	158
190.645	331
190.714	248
190.783	-21
190.853	1103
190.922	780
190.991	585
191.060	15
191.129	-321
191.198	30
191.268	766
191.337	-235
191.406	1272
191.475	890
191.544	3
191.613	388
191.682	400
191.752	-150
191.821	126
191.890	592
191.959	-208
192.028	556
192.097	-6
192.166	425
192.235	556
192.304	580
192.373	-404
192.442	-93
192.511	192
192.580	861
192.650	575
192.719	194
192.788	107
192.857	-97
192.926	324
192.995	859
193.064	816
193.133	1441
193.202	1554
193.271	1614
193.340	1810
193.409	737
193.478	1332
193.547	1781
193.615	2448
193.684	2030
193.753	1396
193.822	923
193.891	985
193.960	114
194.029	282
194.098	830
194.167	-20
194.236	811
194.305	740
194.374	667
194.443	486
194.512	221
194.580	471
194.649	524
194.718	881
194.787	911
194.856	827
194.925	464
194.994	450
195.062	864
195.131	595
195.200	195
195.269	935
195.338	698
195.407	379
195.475	473
195.544	1029
195.613	456
195.682	836
195.751	938
195.819	1032
195.888	546
195.957	1049
196.026	446
196.094	564
196.163	327
196.232	952
196.301	779
196.369	439
196.438	1166
196.507	801
196.576	336
196.644	-31
196.713	764
196.782	451
196.850	594
196.919	880
196.988	455
197.056	769
197.125	500
197.194	1205
197.262	390
197.331	846
197.400	545
197.468	125
197.537	361
197.606	1386
197.674	1713
197.743	2986
197.812	1216
197.880	2770
197.949	1447
198.017	3154
198.086	1802
198.155	1071
198.223	1004
198.292	2695
198.360	1026
198.429	944
198.497	847
198.566	1849
198.635	3283
198.703	1616
198.772	1018
198.840	3132
198.909	2613
198.977	965
199.046	1200
199.114	1191
199.183	1067
199.251	-67
199.320	425
199.388	461
199.457	740
199.525	480
199.594	327
199.662	648
199.731	651
199.799	315
199.867	838
199.936	750
200.004	713
200.073	1157
200.141	726
200.210	-3
200.278	-124
200.346	1183
200.415	1324
200.483	1833
200.552	1931
200.620	1216
200.688	889
200.757	317
200.825	1751
200.893	1398
200.962	646
201.030	303
201.098	777
201.167	1040
201.235	534
201.303	1166
201.372	1539
201.440	1451
201.508	499
201.577	375
201.645	487
201.713	634
201.781	256
201.850	1399
201.918	550
201.986	401
202.055	237
202.123	1094
202.191	1153
202.259	484
202.327	982
202.396	453
202.464	874
202.532	412
202.600	3734
202.669	2124
202.737	1558
202.805	1109
202.873	1316
202.941	771
203.009	522
203.078	78
203.146	573
203.214	355
203.282	96
203.350	1172
203.418	1335
203.487	681
203.555	809
203.623	1508
203.691	597
203.759	1161
203.827	763
203.895	1124
203.963	921
204.031	1088
204.099	1026
204.168	1200
204.236	643
204.304	1299
204.372	1215
204.440	335
204.508	478
204.576	820
204.644	649
204.712	351
204.780	1147
204.848	1085
204.916	1111
204.984	819
205.052	1214
205.120	673
205.188	1003
205.256	810
205.324	1306
205.392	357
205.460	1001
205.528	1997
205.596	325
205.664	399
205.732	786
205.799	3799
205.867	5286
205.935	1404
206.003	2064
206.071	769
206.139	1289
206.207	815
206.275	1318
206.343	1102
206.411	1049
206.478	1214
206.546	912
206.614	542
206.682	279
206.750	1246
206.818	2022
206.885	1806
206.953	396
207.021	1351
207.089	1681
207.157	1014
207.225	818
207.292	920
207.360	844
207.428	988
207.496	650
207.563	1331
207.631	1064
207.699	921
207.767	998
207.834	1181
207.902	655
207.970	1038
208.038	945
208.105	13
208.173	1726
208.241	2312
208.309	1507
208.376	977
208.444	2179
208.512	1749
208.579	802
208.647	1888
208.715	1778
208.782	1101
208.850	531
208.918	1946
208.985	989
209.053	1615
209.120	1093
209.188	569
209.256	1286
209.323	951
209.391	1109
209.459	2482
209.526	729
209.594	1152
209.661	1271
209.729	1001
209.796	947
209.864	1281
209.932	1038
209.999	1914
210.067	1212
210.134	1145
210.202	1488
210.269	2167
210.337	2822
210.404	1328
210.472	1079
210.539	962
210.607	1540
210.674	1782
210.742	1434
210.809	2044
210.877	1279
210.944	2132
211.012	1271
211.079	2051
211.146	1464
211.214	1868
211.281	1800
211.349	2770
211.416	1304
211.484	1143
211.551	1378
211.618	1679
211.686	1861
211.753	1265
211.821	1306
211.888	1612
211.955	1177
212.023	1736
212.090	1523
212.157	1759
212.225	2009
212.292	3076
212.359	7132
212.427	15048
212.494	7042
212.561	3170
212.629	1851
212.696	1831
212.763	2046
212.831	1226
212.898	1381
212.965	1091
213.032	1201
213.100	1769
213.167	1853
213.234	2513
213.301	2062
213.369	1469
213.436	1487
213.503	1692
213.570	1966
213.638	1172
213.705	1058
213.772	1403
213.839	1174
213.906	2539
213.973	2257
214.041	1238
214.108	1624
214.175	1439
214.242	2121
214.309	1465
214.376	1371
214.444	1425
214.511	2106
214.578	2228
214.645	2485
214.712	2054
214.779	2124
214.846	1584
214.913	1791
214.980	2392
215.048	3262
215.115	3143
215.182	1527
215.249	1993
215.316	1389
215.383	1721
215.450	1627
215.517	1752
215.584	1284
215.651	1482
215.718	1570
215.785	2247
215.852	1997
215.919	2046
215.986	1808
216.053	901
216.120	1051
216.187	1322
216.254	1207
216.321	1563
216.388	2318
216.455	1316
216.522	1333
216.589	2378
216.656	3728
216.722	3863
216.789	3027
216.856	3118
216.923	2419
216.990	1965
217.057	2232
217.124	2595
217.191	2325
217.258	3541
217.324	3328
217.391	3980
217.458	2528
217.525	2092
217.592	2318
217.659	1274
217.725	2729
217.792	3392
217.859	2291
217.926	2005
217.993	1659
218.059	1622
218.126	1691
218.193	1204
218.260	1482
218.327	1282
218.393	1333
218.460	1040
218.527	1669
218.594	1352
218.660	3311
218.727	2935
218.794	1004
218.860	1563
218.927	1572
218.994	338
219.061	271
219.127	1830
219.194	3288
219.261	754
219.327	612
219.394	1436
219.461	1028
219.527	813
219.594	2137
219.661	1929
219.727	133
219.794	1725
219.860	794
219.927	1992
219.994	2938
220.060	6461
220.127	4458
220.193	3580
220.260	2753
220.326	4308
220.393	5394
220.460	7164
220.526	4407
220.593	3132
220.659	3555
220.726	3853
220.792	8785
220.859	7392
220.925	9655
220.992	11165
221.058	10852
221.125	10927
221.191	8273
221.258	3954
221.324	2960
221.391	2187
221.457	2022
221.524	2473
221.590	3517
221.657	10046
221.723	6235
221.789	6898
221.856	5579
221.922	3303
221.989	1824
222.055	1588
222.121	1460
222.188	3172
222.254	2408
222.321	1351
222.387	421
222.453	1456
222.520	887
222.586	530
222.652	1201
222.719	866
222.785	704
222.851	1526
222.918	1361
222.984	497
223.050	1367
223.116	700
223.183	2263
223.249	799
223.315	158
223.382	508
223.448	689
223.514	935
223.580	220
223.647	1006
223.713	915
223.779	1145
223.845	934
223.911	1356
223.978	1025
224.044	811
224.110	1020
224.176	139
224.242	659
224.309	-3
224.375	522
224.441	617
224.507	676
224.573	617
224.639	1393
224.705	240
224.772	693
224.838	369
224.904	851
224.970	491
225.036	733
225.102	577
225.168	1267
225.234	747
225.300	535
225.366	829
225.432	1093
225.499	1283
225.565	1137
225.631	748
225.697	2003
225.763	2115
225.829	2208
225.895	1870
225.961	3282
226.027	2779
226.093	2395
226.159	3694
226.225	5603
226.291	13654
226.357	17384
226.423	9052
226.489	5891
226.554	4754
226.620	4149
226.686	4234
226.752	7171
226.818	12766
226.884	26017
226.950	19466
227.016	9445
227.082	5187
227.148	3819
227.214	4114
227.279	2661
227.345	2669
227.411	3008
227.477	4527
227.543	10566
227.609	9248
227.674	5129
227.740	3009
227.806	2773
227.872	1739
227.938	2004
228.003	3038
228.069	1586
228.135	1173
228.201	1870
228.267	781
228.332	1698
228.398	2345
228.464	2066
228.530	252
228.595	766
228.661	671
228.727	2635
228.792	1842
228.858	455
228.924	920
228.990	2132
229.055	1092
229.121	2259
229.187	847
229.252	1454
229.318	1316
229.384	780
229.449	1433
229.515	338
229.581	-139
229.646	1585
229.712	1257
229.777	3908
229.843	3357
229.909	2184
229.974	2900
230.040	2262
230.105	1595
230.171	2474
230.236	3178
230.302	4109
230.368	3141
230.433	1755
230.499	1585
230.564	2670
230.630	1255
230.695	1001
230.761	1499
230.826	1090
230.892	3057
230.957	1361
231.023	759
231.088	947
231.154	667
231.219	1052
231.284	2234
231.350	2796
231.415	2022
231.481	1444
231.546	715
231.612	1113
231.677	1294
231.742	461
231.808	1455
231.873	740
231.939	568
232.004	2646
232.069	2636
232.135	1213
232.200	507
232.265	1190
232.331	792
232.396	1273
232.461	773
232.527	819
232.592	912
232.657	1442
232.723	1917
232.788	1476
232.853	1244
232.918	547
232.984	879
233.049	712
233.114	1060
233.179	2737
233.245	3438
233.310	2715
233.375	767
233.440	670
233.506	1802
233.571	610
233.636	1557
233.701	587
233.766	2563
233.832	2653
233.897	741
233.962	60
234.027	1895
234.092	1772
234.157	982
234.222	1607
234.288	2592
234.353	7539
234.418	5717
234.483	3633
234.548	2047
234.613	1439
234.678	2240
234.743	2008
234.808	8004
234.873	4143
234.938	2513
235.004	1626
235.069	2079
235.134	1348
235.199	1495
235.264	621
235.329	614
235.394	1626
235.459	1546
235.524	1706
235.589	1834
235.654	1967
235.719	348
235.784	1450
235.849	1568
235.913	2874
235.978	4428
236.043	4217
236.108	1865
236.173	1066
236.238	2021
236.303	1062
236.368	1865
236.433	2945
236.498	5158
236.563	4672
236.627	10263
236.692	33841
236.757	25854
236.822	10230
236.887	6867
236.952	5499
237.017	4244
237.081	5028
237.146	6850
237.211	14823
237.276	35385
237.341	49643
237.405	22616
237.470	9488
237.535	6285
237.600	4875
237.664	3532
237.729	2396
237.794	3265
237.859	8437
237.923	5566
237.988	2832
238.053	5220
238.118	3902
238.182	10908
238.247	9200
238.312	4278
238.376	3106
238.441	1398
238.506	2578
238.570	491
238.635	3032
238.700	1637
238.764	1582
238.829	4159
238.893	4312
238.958	2764
239.023	2950
239.087	1880
239.152	2094
239.216	1780
239.281	1594
239.346	1494
239.410	1286
239.475	2153
239.539	10207
239.604	6812
239.668	3397
239.733	2994
239.797	6947
239.862	19118
239.926	13839
239.991	5481
240.055	3127
240.120	1535
240.184	1244
240.249	1203
240.313	1522
240.378	1660
240.442	5450
240.507	8698
240.571	2585
240.635	4072
240.700	4567
240.764	1404
240.829	1935
240.893	531
240.957	1238
241.022	5792
241.086	8883
241.151	3043
241.215	772
241.279	2975
241.344	4064
241.408	2338
241.472	1394
241.537	2314
241.601	1834
241.665	1614
241.730	1310
241.794	1146
241.858	1104
241.922	2188
241.987	1614
242.051	1314
242.115	1346
242.179	2071
242.244	1132
242.308	1516
242.372	1353
242.436	2605
242.501	2107
242.565	1287
242.629	1077
242.693	2264
242.757	886
242.822	1798
242.886	1430
242.950	2626
243.014	1657
243.078	2964
243.142	2285
243.206	1628
243.271	2403
243.335	2678
243.399	4849
243.463	20694
243.527	46107
243.591	11401
243.655	4925
243.719	3092
243.783	3201
243.847	5025
243.911	6594
243.975	7052
244.040	3653
244.104	2593
244.168	2006
244.232	3013
244.296	4003
244.360	6090
244.424	2644
244.488	1234
244.552	2316
244.615	1395
244.679	1500
244.743	2965
244.807	2022
244.871	1781
244.935	1300
244.999	982
245.063	1122
245.127	2803
245.191	4639
245.255	3276
245.319	2973
245.383	1307
245.446	2707
245.510	1187
245.574	2175
245.638	1558
245.702	1817
245.766	5996
245.829	3122
245.893	619
245.957	1159
246.021	2157
246.085	2055
246.149	2363
246.212	7608
246.276	12071
246.340	4170
246.404	3444
246.467	3846
246.531	4801
246.595	3424
246.659	2890
246.722	2077
246.786	2992
246.850	4318
246.913	4710
246.977	1571
247.041	1537
247.104	2449
247.168	3007
247.232	7885
247.295	16810
247.359	7292
247.423	3993
247.486	5755
247.550	3694
247.614	2536
247.677	3384
247.741	2110
247.804	2520
247.868	3194
247.932	7453
247.995	14369
248.059	4662
248.122	2263
248.186	3986
248.249	7127
248.313	29205
248.376	26232
248.440	16011
248.503	4776
248.567	6058
248.630	6347
248.694	8783
248.757	13198
248.821	29746
248.884	15232
248.948	15208
249.011	20806
249.075	34537
249.138	25675
249.202	9662
249.265	6247
249.328	6577
249.392	4858
249.455	4306
249.519	3819
249.582	4159
249.645	8560
249.709	6014
249.772	5641
249.835	4340
249.899	4104
249.962	4102
250.025	3365
250.089	10783
250.152	13291
250.215	6113
250.279	3676
250.342	4348
250.405	4585
250.468	4251
250.532	6316
250.595	10794
250.658	48589
250.721	67178
250.785	20951
250.848	12159
250.911	7179
250.974	5973
251.038	9805
251.101	17881
251.164	8215
251.227	8422
251.290	9035
251.354	16675
251.417	65296
251.480	54325
251.543	43890
251.606	111034
251.669	73530
251.732	29263
251.795	27869
251.859	30769
251.922	72041
251.985	33865
252.048	13247
252.111	9770
252.174	8000
252.237	16740
252.300	35170
252.363	43598
252.426	84345
252.489	30554
252.552	15089
252.615	10287
252.678	11853
252.741	28180
252.804	41713
252.867	88784
252.930	44846
252.993	22622
253.056	13148
253.119	9507
253.182	6846
253.245	14203
253.308	9007
253.371	6770
253.434	5841
253.497	6995
253.559	15360
253.622	9197
253.685	10561
253.748	9582
253.811	4618
253.874	6650
253.937	5952
254.000	5614
254.062	10574
254.125	16125
254.188	12457
254.251	9811
254.314	5117
254.376	9333
254.439	9613
254.502	7827
254.565	11189
254.628	17555
254.690	8331
254.753	4116
254.816	4199
254.878	5236
254.941	11963
255.004	10818
255.067	4175
255.129	3210
255.192	2364
255.255	997
255.317	3645
255.380	2100
255.443	1233
255.505	1987
255.568	1424
255.631	1651
255.693	1663
255.756	1168
255.819	2579
255.881	1156
255.944	1179
256.006	952
256.069	1611
256.132	1071
256.194	2729
256.257	7297
256.319	5544
256.382	4335
256.444	4730
256.507	2803
256.569	2413
256.632	2944
256.694	5636
256.757	19688
256.819	51355
256.882	17612
256.944	6743
257.007	5208
257.069	5039
257.132	3418
257.194	3731
257.257	3289
257.319	3000
257.381	4457
257.444	14616
257.506	63250
257.569	58012
257.631	22174
257.693	12238
257.756	7194
257.818	5538
257.880	3167
257.943	3243
258.005	2258
258.067	2490
258.130	2141
258.192	2702
258.254	5820
258.317	3544
258.379	2525
258.441	8754
258.503	7625
258.566	10848
258.628	11966
258.690	2455
258.753	3262
258.815	5136
258.877	2618
258.939	2318
259.001	1978
259.064	2611
259.126	2250
259.188	3275
259.250	1989
259.312	3390
259.375	8472
259.437	4598
259.499	1814
259.561	2631
259.623	1728
259.685	1530
259.747	2487
259.809	11025
259.872	17709
259.934	30246
259.996	21206
260.058	5165
260.120	3376
260.182	2371
260.244	2545
260.306	1461
260.368	2236
260.430	1530
260.492	4410
260.554	8090
260.616	5240
260.678	14863
260.740	16509
260.802	4170
260.864	2964
260.926	1654
260.988	2474
261.050	3201
261.112	7114
261.174	19512
261.236	11959
261.298	3660
261.359	7695
261.421	10415
261.483	3016
261.545	2536
261.607	1172
261.669	2644
261.731	4769
261.793	10826
261.854	3723
261.916	3011
261.978	1902
262.040	2100
262.102	2483
262.164	3887
262.225	2689
262.287	1942
262.349	6574
262.411	4170
262.472	2318
262.534	4965
262.596	8930
262.658	2597
262.719	1787
262.781	3571
262.843	8664
262.904	3540
262.966	3579
263.028	5491
263.090	28683
263.151	61123
263.213	16303
263.275	8521
263.336	3720
263.398	2896
263.459	1844
263.521	1412
263.583	5527
263.644	3644
263.706	1557
263.767	-128
263.829	1042
263.891	868
263.952	924
264.014	596
264.075	2860
264.137	6710
264.198	2927
264.260	174
264.321	1320
264.383	5600
264.444	11803
264.506	3677
264.567	2060
264.629	5529
264.690	7961
264.752	3438
264.813	2641
264.875	813
264.936	2485
264.998	1451
265.059	1915
265.120	2814
265.182	4268
265.243	28554
265.305	22238
265.366	5323
265.427	2904
265.489	3421
265.550	391
265.611	1747
265.673	1742
265.734	1678
265.795	1537
265.857	1348
265.918	1892
265.979	7867
266.040	46182
266.102	31911
266.163	8982
266.224	5227
266.286	3643
266.347	1823
266.408	2122
266.469	2236
266.530	1853
266.592	1244
266.653	3928
266.714	5226
266.775	2644
266.836	1462
266.898	544
266.959	1304
267.020	2235
267.081	1756
267.142	692
267.203	807
267.264	286
267.326	1471
267.387	684
267.448	424
267.509	1141
267.570	1608
267.631	1080
267.692	438
267.753	1595
267.814	694
267.875	4276
267.936	8331
267.997	4590
268.058	3040
268.119	1750
268.180	1415
268.241	1248
268.302	2087
268.363	815
268.424	1247
268.485	1740
268.546	439
268.607	524
268.668	240
268.729	461
268.790	1173
268.851	1850
268.912	5025
268.972	5566
269.033	1976
269.094	911
269.155	847
269.216	640
269.277	839
269.338	1058
269.398	1195
269.459	1205
269.520	2360
269.581	3164
269.642	3532
269.702	1904
269.763	1800
269.824	1247
269.885	1861
269.945	3443
270.006	1041
270.067	1272
270.128	1072
270.188	906
270.249	973
270.310	791
270.370	295
270.431	1692
270.492	814
270.553	1356
270.613	4923
270.674	7689
270.734	2580
270.795	1750
270.856	2549
270.916	1199
270.977	1364
271.038	1634
271.098	1691
271.159	2705
271.219	1650
271.280	1251
271.340	1393
271.401	1471
271.462	5032
271.522	1923
271.583	1690
271.643	2027
271.704	1256
271.764	2557
271.825	6668
271.885	25757
271.946	30716
272.006	8987
272.066	15695
272.127	25223
272.187	8353
272.248	3521
272.308	5813
272.369	18885
272.429	8353
272.489	6209
272.550	4833
272.610	5576
272.671	3769
272.731	4641
272.791	6456
272.852	3458
272.912	2616
272.972	1903
273.033	2432
273.093	3069
273.153	3758
273.214	2115
273.274	2540
273.334	13935
273.394	23961
273.455	7591
273.515	9535
273.575	19362
273.635	7277
273.696	11874
273.756	23801
273.816	7186
273.876	4907
273.936	10725
273.997	16207
274.057	3610
274.117	3503
274.177	6621
274.237	30494
274.297	21409
274.358	13721
274.418	19145
274.478	11762
274.538	4285
274.598	4206
274.658	14939
274.718	16555
274.778	6737
274.838	4149
274.898	8433
274.958	24341
275.018	25835
275.078	13354
275.138	5045
275.198	3484
275.258	1610
275.318	3046
275.378	5639
275.438	5887
275.498	3620
275.558	12931
275.618	24314
275.678	15045
275.738	8535
275.798	5548
275.858	2996
275.918	2316
275.978	3003
276.038	2517
276.098	1539
276.157	5179
276.217	12948
276.277	5475
276.337	4092
276.397	2080
276.457	2732
276.517	1874
276.576	1824
276.636	950
276.696	3129
276.756	8742
276.815	4934
276.875	3237
276.935	3221
276.995	2154
277.055	2622
277.114	1909
277.174	4319
277.234	11630
277.293	3983
277.353	1868
277.413	1847
277.472	1665
277.532	2369
277.592	3223
277.651	15393
277.711	22105
277.771	8203
277.830	28251
277.890	18472
277.950	17503
278.009	50417
278.069	15881
278.128	18110
278.188	21859
278.248	10509
278.307	27535
278.367	14343
278.426	5083
278.486	3811
278.545	2681
278.605	1466
278.664	2054
278.724	3487
278.783	11475
278.843	24721
278.902	5959
278.962	3586
279.021	4233
279.081	6626
279.140	6277
279.199	4103
279.259	4315
279.318	5302
279.378	7098
279.437	14407
279.496	51819
279.556	138110
279.615	89732
279.675	25150
279.734	15435
279.793	23138
279.853	32869
279.912	12111
279.971	6820
280.031	6450
280.090	14184
280.149	23043
280.208	21061
280.268	95721
280.327	81451
280.386	19025
280.445	13620
280.505	11738
280.564	7268
280.623	5297
280.682	7698
280.742	10788
280.801	3146
280.860	2854
280.919	3034
280.978	2453
281.037	2092
281.097	1910
281.156	1928
281.215	2236
281.274	3959
281.333	16437
281.392	9950
281.451	3207
281.510	1960
281.569	1993
281.628	1599
281.688	1974
281.747	2720
281.806	2527
281.865	1534
281.924	2219
281.983	1973
282.042	1390
282.101	1176
282.160	1270
282.219	1053
282.278	1959
282.337	7453
282.396	4130
282.454	1886
282.513	3070
282.572	11392
282.631	5655
282.690	2255
282.749	1330
282.808	2306
282.867	1881
282.926	2159
282.985	1154
283.043	846
283.102	1652
283.161	2139
283.220	6599
283.279	12541
283.338	3610
283.396	2096
283.455	2895
283.514	3330
283.573	3699
283.631	2734
283.690	2067
283.749	1448
283.808	4505
283.866	5239
283.925	2233
283.984	2738
284.043	2774
284.101	2878
284.160	2648
284.219	3090
284.277	2348
284.336	5158
284.395	15931
284.453	12234
284.512	5125
284.570	5982
284.629	5615
284.688	4730
284.746	5354
284.805	5731
284.863	7823
284.922	10086
284.981	11891
285.039	19940
285.098	37619
285.156	93051
285.215	176521
285.273	163474
285.332	83911
285.390	43830
285.449	26912
285.507	19399
285.566	14322
285.624	10871
285.683	7807
285.741	6355
285.799	4903
285.858	4966
285.916	3731
285.975	3300
286.033	3230
286.091	3259
286.150	1805
286.208	2153
286.267	2754
286.325	2958
286.383	4381
286.442	3285
286.500	2719
286.558	1854
286.616	2434
286.675	2806
286.733	3212
286.791	2313
286.850	3528
286.908	3594
286.966	5560
287.024	2574
287.083	2402
287.141	1288
287.199	2464
287.257	2630
287.315	2242
287.374	2831
287.432	6729
287.490	4224
287.548	2079
287.606	2230
287.664	2760
287.723	3076
287.781	4267
287.839	2452
287.897	3297
287.955	4966
288.013	9558
288.071	24474
288.129	94468
288.187	213247
288.245	87335
288.303	29005
288.361	17182
288.419	12453
288.477	8668
288.535	5609
288.593	4960
288.651	3508
288.709	2451
288.767	2371
288.825	2198
288.883	1246
288.941	1522
288.999	1666
289.057	1745
289.115	1905
289.173	1379
289.231	1904
289.289	2078
289.346	836
289.404	2220
289.462	3554
289.520	3177
289.578	1602
289.636	1207
289.694	1185
289.751	625
289.809	1330
289.867	1771
289.925	1965
289.983	1976
290.040	784
290.098	1214
290.156	1516
290.214	1609
290.271	1429
290.329	1633
290.387	828
290.444	443
290.502	1008
290.560	715
290.617	978
290.675	1146
290.733	913
290.790	2197
290.848	609
290.906	1397
290.963	1357
291.021	1685
291.078	1072
291.136	1780
291.194	6575
291.251	11912
291.309	2866
291.366	1407
291.424	1143
291.481	1235
291.539	1278
291.596	1195
291.654	266
291.711	-10
291.769	1568
291.826	2803
291.884	1624
291.941	1582
291.999	633
292.056	1239
292.114	958
292.171	1264
292.228	1669
292.286	1896
292.343	2878
292.401	3585
292.458	2311
292.515	1572
292.573	2225
292.630	1728
292.687	1948
292.745	773
292.802	2834
292.859	7120
292.917	12524
292.974	6992
293.031	2362
293.089	1541
293.146	1407
293.203	870
293.260	1909
293.318	1071
293.375	2945
293.432	1343
293.489	1383
293.546	1348
293.604	3237
293.661	10698
293.718	26568
293.775	10120
293.832	4623
293.889	3751
293.947	4311
294.004	2662
294.061	2881
294.118	6124
294.175	12842
294.232	14322
294.289	5017
294.346	3207
294.403	3014
294.460	2514
294.517	1935
294.574	1474
294.631	2334
294.688	3236
294.745	8929
294.802	29665
294.859	25151
294.916	8693
294.973	5497
295.030	3825
295.087	4102
295.144	2441
295.201	1844
295.258	1807
295.315	3123
295.372	11591
295.429	20685
295.486	7323
295.542	4754
295.599	12135
295.656	17305
295.713	12851
295.770	17819
295.827	6228
295.883	3227
295.940	3323
295.997	4186
296.054	4061
296.111	2966
296.167	2166
296.224	1299
296.281	1670
296.338	524
296.394	2240
296.451	2350
296.508	7615
296.564	14427
296.621	10465
296.678	25141
296.734	30780
296.791	10376
296.848	5900
296.904	5357
296.961	12415
297.018	22681
297.074	14429
297.131	5733
297.187	4906
297.244	7767
297.301	27768
297.357	41152
297.414	12688
297.470	5745
297.527	3888
297.583	3507
297.640	3277
297.696	2525
297.753	1479
297.809	1516
297.866	1681
297.922	2299
297.979	577
298.035	2238
298.092	3653
298.148	13100
298.204	10147
298.261	5512
298.317	11882
298.374	28919
298.430	14937
298.486	6367
298.543	4549
298.599	4415
298.656	5585
298.712	9184
298.768	24350
298.824	14888
298.881	5950
298.937	3214
298.993	3156
299.050	4030
299.106	2832
299.162	2041
299.218	2601
299.275	1562
299.331	3666
299.387	8092
299.443	27963
299.500	32056
299.556	15476
299.612	6883
299.668	6331
299.724	14390
299.780	14188
299.837	6987
299.893	8312
299.949	26182
300.005	28171
300.061	25334
300.117	41246
300.173	17263
300.229	7942
300.285	7397
300.341	8106
300.397	4692
300.453	3467
300.510	2975
300.566	4259
300.622	8384
300.678	29033
300.734	36055
300.790	24022
300.845	27315
300.901	21617
300.957	29753
301.013	17125
301.069	6347
301.125	5012
301.181	4269
301.237	4052
301.293	2793
301.349	2682
301.405	1891
301.461	2170
301.516	2564
301.572	2973
301.628	4959
301.684	4482
301.740	7572
301.796	11479
301.851	7608
301.907	13332
301.963	15141
302.019	27718
302.074	74237
302.130	65262
302.186	26868
302.242	11702
302.297	8525
302.353	7813
302.409	13155
302.464	11501
302.520	9282
302.576	24211
302.631	24528
302.687	12163
302.743	5879
302.798	3828
302.854	3558
302.910	3056
302.965	3488
303.021	6128
303.076	6607
303.132	7530
303.187	8491
303.243	4570
303.299	2570
303.354	2123
303.410	2231
303.465	2267
303.521	1960
303.576	2367
303.632	3726
303.687	8304
303.743	23650
303.798	16838
303.853	7380
303.909	3643
303.964	3097
304.020	4780
304.075	6972
304.130	5931
304.186	9949
304.241	10934
304.297	7362
304.352	4292
304.358	4122
304.407	2727
304.449	2668
304.463	2649
304.518	3320
304.539	3296
304.573	3225
304.629	3143
304.630	3220
304.684	6949
304.720	14057
304.739	17605
304.794	26445
304.811	22301
304.850	11807
304.902	5524
304.905	5162
304.960	4014
304.992	4511
305.015	4807
305.071	4013
305.083	3941
305.126	3647
305.173	2688
305.181	2551
305.236	2705
305.264	2485
305.292	2313
305.347	3640
305.354	3705
305.402	4201
305.445	4691
305.457	4816
305.512	5472
305.535	5666
305.567	5739
305.622	6092
305.626	6293
305.678	13139
305.716	25185
305.733	28934
305.788	30734
305.807	27141
305.843	21208
305.897	28218
305.898	28290
305.953	25901
305.988	17810
306.008	13441
306.063	8093
306.078	7313
306.118	6045
306.168	4351
306.173	4235
306.228	4238
306.259	3902
306.283	3752
306.338	4123
306.349	4155
306.393	4837
306.440	6391
306.448	6501
306.503	6349
306.530	6238
306.558	8162
306.613	14703
306.620	15663
306.668	22516
306.711	30414
306.723	30558
306.778	23067
306.801	18095
306.833	12663
306.888	6809
306.892	6489
306.943	5463
306.982	5529
306.997	5638
307.052	4893
307.072	5066
307.107	5980
307.162	7354
307.163	7360
307.217	9947
307.253	11893
307.272	12321
307.327	12792
307.343	12268
307.381	10622
307.434	9691
307.436	10067
307.491	19917
307.524	27671
307.546	29306
307.600	29997
307.614	28296
307.655	18981
307.704	10854
307.710	10933
307.765	12648
307.795	15235
307.819	18859
307.874	27365
307.885	28284
307.929	24942
307.975	21433
307.984	22878
308.038	35526
308.065	43981
308.093	72224
308.148	137948
308.156	150998
308.202	221417
308.246	266091
308.257	256386
308.312	156161
308.336	116976
308.366	90768
308.421	53923
308.426	50482
308.475	35844
308.517	25227
308.530	24128
308.585	20230
308.607	19008
308.639	18912
308.694	19215
308.697	19238
308.748	29994
308.787	39881
308.803	39489
308.857	33252
308.877	30693
308.912	29773
308.967	30050
308.967	29984
309.021	42801
309.058	52488
309.076	66328
309.130	112942
309.148	129878
309.185	200000
309.238	315528
309.239	317091
309.293	351453
309.328	342526
309.348	302382
309.402	181702
309.418	149948
309.457	111036
309.508	66506
309.511	65901
309.566	55950
309.598	50364
309.620	54471
309.674	66322
309.688	69216
309.729	67638
309.778	63213
309.783	62142
309.837	46828
309.868	38722
309.892	42819
309.946	53605
309.959	56448
310.001	72237
310.049	88307
310.055	85167
310.109	51951
310.139	33480
310.163	28092
310.218	17698
310.229	15706
310.272	13933
310.319	12204
310.326	12135
310.381	10929
310.409	10486
310.435	10354
310.489	10394
310.499	10312
310.543	10370
310.589	10487
310.598	10647
310.652	11265
310.679	11544
310.706	10569
310.760	8521
310.769	8167
310.814	8498
310.859	8818
310.868	8787
310.923	8495
310.948	8253
310.977	8944
311.031	10469
311.038	10632
311.085	10253
311.128	9568
311.139	9577
311.193	9645
311.218	9676
311.247	9668
311.301	9366
311.308	9297
311.356	9383
311.398	9554
311.410	9475
311.464	8740
311.488	8375
311.518	8586
311.572	8946
311.578	8953
311.626	11622
311.668	13873
311.680	13802
311.734	13213
311.758	12898
311.788	12630
311.842	12056
311.847	11944
311.896	14854
311.937	17309
311.950	17498
312.004	17986
312.027	18122
312.058	15799
312.112	11508
312.117	11037
312.165	10430
312.207	9843
312.297	14000
312.386	12281
312.476	11757
312.566	20998
312.656	13477
312.745	9928
312.835	10947
312.925	12161
313.015	11687
313.104	11710
313.194	10771
313.284	10621
313.374	14459
313.463	13439
313.553	11625
313.643	10695
313.732	9964
313.822	10373
313.912	11044
314.001	13451
314.091	14446
314.180	17692
314.270	16781
314.360	16344
314.449	16917
314.539	12688
314.628	11843
314.718	13675
314.808	15536
314.897	13448
314.987	12600
315.076	15813
315.166	18283
315.255	16598
315.345	16748
315.434	16734
315.524	16051
315.613	18658
315.703	23748
315.792	43058
315.881	152958
315.971	68579
316.060	29608
316.150	31192
316.239	31307
316.328	16976
316.418	12994
316.507	14897
316.597	18122
316.686	17208
316.775	19371
316.865	33015
316.954	14892
317.043	11171
317.133	13178
317.222	12354
317.311	12038
317.400	11929
317.490	16306
317.579	20050
317.668	18881
317.757	29207
317.847	67269
317.936	255907
318.025	108369
318.114	59408
318.203	37371
318.293	28692
318.382	52037
318.471	43104
318.560	49005
318.649	85870
318.738	27033
318.828	17813
318.917	18879
319.006	19252
319.095	35662
319.184	96312
319.273	63098
319.362	35333
319.451	16247
319.540	13878
319.629	25937
319.718	44459
319.807	23126
319.896	34034
319.985	117747
320.074	56631
320.163	17421
320.252	23007
320.341	20892
320.430	20559
320.519	25540
320.608	19231
320.697	17524
320.786	18028
320.875	20928
320.964	26719
321.053	36584
321.142	46159
321.230	52483
321.319	39165
321.408	76222
321.497	41918
321.586	36307
321.675	37426
321.764	40113
321.852	31555
321.941	48487
322.030	39977
322.119	37628
322.207	79058
322.296	57008
322.385	38746
322.474	41260
322.562	93245
322.651	57800
322.740	39666
322.829	49062
322.917	45247
323.006	33711
323.095	29971
323.183	24331
323.272	33145
323.361	43952
323.449	110663
323.538	46351
323.626	75072
323.715	56500
323.804	24142
323.892	66996
323.981	49002
324.069	18804
324.158	36595
324.246	41244
324.335	19818
324.424	30127
324.512	14585
324.601	18029
324.689	22980
324.778	36542
324.866	31405
324.954	14592
325.043	13831
325.131	20591
325.220	29526
325.308	35924
325.397	26990
325.485	21409
325.574	11752
325.662	11012
325.750	12285
325.839	11319
325.927	9880
326.015	13415
326.104	15271
326.192	21383
326.280	11752
326.369	11771
326.457	14499
326.545	24476
326.634	14343
326.722	9900
326.810	10950
326.898	11303
326.987	14165
327.075	23705
327.163	23906
327.251	14862
327.340	16509
327.428	22026
327.516	13614
327.604	13427
327.692	12742
327.781	12854
327.869	17102
327.957	13639
328.045	14420
328.133	10306
328.221	11223
328.309	12087
328.397	10790
328.485	13757
328.574	19006
328.662	50284
328.750	33716
328.838	16391
328.926	12669
329.014	11266
329.102	14619
329.190	28790
329.278	24140
329.366	11611
329.454	10604
329.542	11859
329.630	11322
329.718	12987
329.806	16471
329.893	18620
329.981	26470
330.069	48085
330.157	134156
330.245	282240
330.333	192898
330.421	54193
330.509	30741
330.597	59843
330.684	46487
330.772	19928
330.860	21703
330.948	25973
331.036	16724
331.123	9720
331.211	10856
331.299	13009
331.387	20754
331.475	37872
331.562	15483
331.650	10440
331.738	11452
331.825	14575
331.913	10829
332.001	10507
332.089	11924
332.176	18975
332.264	34775
332.352	33814
332.439	15689
332.527	13140
332.614	10014
332.702	12748
332.790	11456
332.877	19479
332.965	38044
333.052	19198
333.140	16043
333.228	35642
333.315	17966
333.403	13585
333.490	23692
333.578	26943
333.665	41730
333.753	30425
333.840	14711
333.928	16746
334.015	30649
334.103	43177
334.190	121884
334.278	52253
334.365	32004
334.452	29598
334.540	24728
334.627	27586
334.715	34960
334.802	51384
334.889	140990
334.977	164417
335.064	48760
335.151	31083
335.239	25652
335.326	28117
335.413	63884
335.501	97084
335.588	29375
335.675	27018
335.762	32318
335.850	46677
335.937	49602
336.024	74795
336.111	177064
336.199	108059
336.286	43717
336.373	28519
336.460	21395
336.547	18833
336.635	19570
336.722	17125
336.809	15938
336.896	19198
336.983	40436
337.070	91346
337.157	129323
337.245	85216
337.332	69317
337.419	17239
337.506	13292
337.593	15947
337.680	29586
337.767	90695
337.854	32326
337.941	32292
338.028	33575
338.115	19596
338.202	19188
338.289	27256
338.376	81376
338.463	35343
338.550	49529
338.637	63077
338.724	20341
338.811	28763
338.898	12155
338.984	11099
339.071	12753
339.158	13655
339.245	28939
339.332	21779
339.419	20906
339.506	22351
339.593	9681
339.679	10930
339.766	10779
339.853	13191
339.940	25200
340.027	12737
340.113	11442
340.200	14710
340.287	12750
340.374	13638
340.460	21071
340.547	12840
340.634	16804
340.720	51209
340.807	38210
340.894	11431
340.980	10038
341.067	10739
341.154	11452
341.240	14613
341.327	30943
341.414	13871
341.500	12998
341.587	11207
341.674	10080
341.760	21901
341.847	26354
341.933	12829
342.020	7569
342.106	9513
342.193	11057
342.279	18205
342.366	13939
342.452	22099
342.539	14640
342.625	24423
342.712	60724
342.798	28646
342.885	15189
342.971	8362
343.058	7799
343.144	8432
343.230	9048
343.317	9596
343.403	9475
343.490	7831
343.576	8151
343.662	9362
343.749	10267
343.835	13280
343.921	19436
344.008	75142
344.094	185304
344.180	53603
344.267	21120
344.353	50377
344.439	61067
344.525	33031
344.612	22307
344.698	25115
344.784	17806
344.870	10889
344.957	9819
345.043	14948
345.129	11936
345.215	20254
345.301	12911
345.387	9430
345.474	7357
345.560	8618
345.646	10292
345.732	9506
345.818	10752
345.904	9976
345.990	10968
346.076	11088
346.162	14650
346.249	10682
346.335	9160
346.421	11792
346.507	22782
346.593	73523
346.679	26141
346.765	12083
346.851	13318
346.937	14919
347.023	10631
347.108	12332
347.194	11103
347.280	10249
347.366	12709
347.452	29746
347.538	97000
347.624	73584
347.710	61956
347.796	15995
347.882	10710
347.967	11041
348.053	12680
348.139	10151
348.225	9024
348.311	10425
348.397	9038
348.482	11310
348.568	14259
348.654	11840
348.740	21703
348.825	31567
348.911	23760
348.997	41401
349.083	83408
349.168	21075
349.254	10213
349.340	11408
349.425	8829
349.511	12026
349.597	13682
349.682	19992
349.768	54758
349.854	33738
349.939	11121
350.025	10126
350.110	11209
350.196	9942
350.282	7695
350.367	8625
350.453	11810
350.538	13347
350.624	12575
350.709	11931
350.795	8966
350.880	9607
350.966	9893
351.051	12124
351.137	11372
351.222	10207
351.308	19820
351.393	55672
351.479	20216
351.564	9784
351.649	9478
351.735	8605
351.820	8133
351.906	9333
351.991	11661
352.076	32474
352.162	55351
352.247	16571
352.332	11226
352.418	18341
352.503	20422
352.588	69398
352.673	69295
352.759	19077
352.844	12346
352.929	11745
353.014	15279
353.100	11937
353.185	15124
353.270	23129
353.355	24965
353.441	11009
353.526	11082
353.611	20792
353.696	25921
353.781	16624
353.866	10872
353.952	11312
354.037	20540
354.122	42653
354.207	41922
354.292	19673
354.377	10745
354.462	9739
354.547	12204
354.632	11352
354.717	14650
354.802	18651
354.887	11126
354.972	8980
355.057	9345
355.142	8759
355.227	10082
355.312	15556
355.397	30125
355.482	63724
355.567	39502
355.652	25001
355.737	27678
355.822	63680
355.907	62452
355.991	14880
356.076	10966
356.161	9812
356.246	9474
356.331	11392
356.416	19077
356.501	88848
356.585	112153
356.670	24596
356.755	16684
356.840	20715
356.924	64398
357.009	230932
357.094	109372
357.179	29652
357.263	21474
357.348	18611
357.433	19686
357.517	18689
357.602	16916
357.687	15603
357.771	19563
357.856	54811
357.941	39956
358.025	55741
358.110	221746
358.195	130695
358.279	27899
358.364	20193
358.448	47357
358.533	127202
358.617	101198
358.702	93715
358.787	43420
358.871	24937
358.956	23391
359.040	13053
359.125	10038
359.209	11442
359.294	28392
359.378	53500
359.462	27575
359.547	15806
359.631	11578
359.716	9766
359.800	11159
359.885	15239
359.969	12043
360.053	10528
360.138	10598
360.222	15624
360.306	23914
360.391	21854
360.475	31021
360.559	71969
360.644	57244
360.728	45866
360.812	51092
360.896	146996
360.981	75499
361.065	45326
361.149	16821
361.233	16027
361.318	14089
361.402	15733
361.486	14718
361.570	13716
361.654	16625
361.739	30174
361.823	92117
361.907	157364
361.991	43161
362.075	30314
362.159	56938
362.243	59967
362.327	79497
362.411	96262
362.495	52796
362.580	32700
362.664	29003
362.748	33651
362.832	49525
362.916	88163
363.000	183801
363.084	271813
363.168	244135
363.252	83677
363.336	39815
363.420	38260
363.503	85574
363.587	114919
363.671	34427
363.755	27806
363.839	36293
363.923	30180
364.007	43366
364.091	58561
364.175	78877
364.258	208291
364.342	274767
364.426	340626
364.510	203777
364.594	88086
364.677	58499
364.761	135673
364.845	112860
364.929	47879
365.013	41822
365.096	32697
365.180	38772
365.264	37316
365.347	128785
365.431	67679
365.515	22953
365.598	16205
365.682	14968
365.766	20784
365.849	26264
365.933	16977
366.017	18741
366.100	17344
366.184	11428
366.267	13374
366.351	12558
366.435	11660
366.518	10471
366.602	11325
366.685	11812
366.769	13295
366.852	17693
366.936	30122
367.019	20961
367.103	16299
367.186	24878
367.270	14142
367.353	10381
367.436	12629
367.520	11573
367.603	14226
367.687	18415
367.770	31054
367.853	20569
367.937	37751
368.020	68745
368.104	24646
368.187	22590
368.270	30593
368.353	27969
368.437	29392
368.520	55196
368.603	42545
368.687	46606
368.770	96039
368.853	31832
368.936	26799
369.020	27254
369.103	15086
369.186	12308
369.269	12830
369.352	18593
369.436	26766
369.519	18940
369.602	12584
369.685	12619
369.768	14205
369.851	12265
369.934	10300
370.018	12707
370.101	23343
370.184	20059
370.267	15761
370.350	23465
370.433	33565
370.516	70216
370.599	124186
370.682	56215
370.765	56578
370.848	61893
370.931	107013
371.014	50207
371.097	15487
371.180	12281
371.263	10813
371.346	8774
371.429	10170
371.511	10487
371.594	17278
371.677	23775
371.760	27906
371.843	24472
371.926	78361
372.009	196311
372.091	78123
372.174	43698
372.257	94559
372.340	46193
372.423	35194
372.505	41616
372.588	22821
372.671	34437
372.754	105099
372.836	64137
372.919	40081
373.002	84468
373.085	33895
373.167	23679
373.250	47896
373.332	95940
373.415	120279
373.498	259549
373.580	121142
373.663	158566
373.746	226703
373.828	62541
373.911	27478
373.993	25117
374.076	72771
374.159	79876
374.241	34751
374.324	91103
374.406	72235
374.489	67095
374.571	197588
374.654	98942
374.736	44139
374.819	119387
374.901	172957
374.983	197520
375.066	49563
375.148	22055
375.231	57305
375.313	122841
375.395	54459
375.478	19461
375.560	14841
375.643	18065
375.725	37791
375.807	150650
375.890	132561
375.972	58532
376.054	35169
376.136	46124
376.219	26474
376.301	42052
376.383	136492
376.465	64543
376.548	43037
376.630	43679
376.712	114206
376.794	65775
376.877	15157
376.959	10350
377.041	11616
377.123	19578
377.205	24841
377.287	10492
377.369	9747
377.452	9916
377.534	10671
377.616	10777
377.698	10825
377.780	9331
377.862	11508
377.944	11765
378.026	9133
378.108	8899
378.190	9813
378.272	10249
378.354	8390
378.436	8293
378.518	13304
378.600	38078
378.682	34255
378.764	64284
378.846	60226
378.928	19997
379.010	27132
379.091	17798
379.173	12030
379.255	10375
379.337	13214
379.419	29796
379.501	91496
379.583	45720
379.664	16148
379.746	27414
379.828	64033
379.910	89119
379.991	83871
380.073	20994
380.155	14672
380.237	12492
380.318	10934
380.400	11326
380.482	18635
380.564	29882
380.645	27393
380.727	26500
380.809	17753
380.890	15714
380.972	12146
381.053	12301
381.135	13371
381.217	24010
381.298	70148
381.380	42128
381.461	31599
381.543	109600
381.624	160220
381.706	39507
381.787	21374
381.869	23971
381.951	49450
382.032	183541
382.113	140807
382.195	40436
382.276	27442
382.358	41468
382.439	106190
382.521	114719
382.602	183494
382.684	99049
382.765	166405
382.846	213510
382.928	301170
383.009	195592
383.090	144946
383.172	412719
383.253	626152
383.334	247844
383.416	189115
383.497	120688
383.578	77415
383.659	131095
383.741	376060
383.822	853911
383.903	512823
383.984	177262
384.066	222488
384.147	162011
384.228	47965
384.309	36563
384.390	31845
384.471	25213
384.553	25795
384.634	28810
384.715	31060
384.796	21361
384.877	23083
384.958	60135
385.039	84743
385.120	39196
385.201	21781
385.282	24582
385.363	26078
385.444	26044
385.525	34149
385.606	84636
385.687	83275
385.768	30182
385.849	32776
385.930	89326
386.011	166546
386.092	62139
386.173	25125
386.254	19808
386.335	19835
386.416	20355
386.496	44378
386.577	75226
386.658	35616
386.739	25303
386.820	23651
386.901	21765
386.981	21929
387.062	19491
387.143	26471
387.224	66881
387.304	74256
387.385	34888
387.466	26852
387.547	30065
387.627	25565
387.708	32763
387.789	105301
387.869	140937
387.950	51420
388.031	22184
388.111	19855
388.192	31208
388.273	40907
388.353	30985
388.434	21730
388.514	28415
388.595	89074
388.676	130981
388.756	75293
388.837	68112
388.917	52177
388.998	18656
389.078	16966
389.159	15329
389.239	15812
389.320	20633
389.400	18378
389.480	26687
389.561	67109
389.641	43542
389.722	18754
389.802	26925
389.883	31353
389.963	73504
390.043	57030
390.124	24450
390.204	28787
390.284	79754
390.365	62256
390.445	62617
390.525	187405
390.605	193380
390.686	61597
390.766	25679
390.846	18115
390.927	14110
391.007	16783
391.087	17255
391.167	19458
391.247	17227
391.328	19697
391.408	27444
391.488	23734
391.568	15442
391.648	20110
391.728	26008
391.808	25068
391.888	27709
391.969	43094
392.049	70878
392.129	41493
392.209	39884
392.289	82788
392.369	59686
392.449	52651
392.529	45026
392.609	42596
392.689	47471
392.769	92591
392.849	102036
392.929	88625
393.009	156860
393.089	179667
393.169	243258
393.248	559298
393.328	1175755
393.408	1254091
393.488	685482
393.568	280129
393.648	144565
393.728	90839
393.807	67310
393.887	54051
393.967	46958
394.047	47005
394.127	49773
394.206	67800
394.286	158808
394.366	519733
394.446	639940
394.525	245134
394.605	81502
394.685	52871
394.764	65101
394.844	105306
394.924	101497
395.003	45515
395.083	30216
395.163	28600
395.242	26902
395.322	27853
395.402	24618
395.481	27220
395.561	47247
395.640	122491
395.720	145845
395.799	151276
395.879	123388
395.958	95849
396.038	235425
396.117	658679
396.197	789380
396.276	385435
396.356	156513
396.435	108736
396.515	92107
396.594	111677
396.673	193622
396.753	499833
396.832	1095615
396.912	971652
396.991	371259
397.070	138030
397.150	77074
397.229	57927
397.308	73690
397.388	144722
397.467	94615
397.546	38448
397.625	26825
397.705	27171
397.784	26539
397.863	20482
397.942	18051
398.022	17255
398.101	32188
398.180	90185
398.259	57070
398.338	21839
398.417	16894
398.497	15255
398.576	14639
398.655	12297
398.734	11960
398.813	12351
398.892	26560
398.971	91147
399.050	56868
399.129	13669
399.208	10334
399.287	11939
399.366	10559
399.445	9551
399.524	9879
399.603	10394
399.682	15398
399.761	29517
399.840	91576
399.919	84485
399.998	17849
400.077	9252
400.156	8107
400.235	11156
400.313	10178
400.392	11292
400.471	32581
400.550	63443
400.629	23539
400.708	12484
400.786	11109
400.865	21336
400.944	27157
401.023	16156
401.102	7518
401.180	7676
401.259	7682
401.338	9212
401.416	11733
401.495	11163
401.574	9236
401.652	9816
401.731	10982
401.810	10509
401.888	7340
401.967	6832
402.046	8546
402.124	9408
402.203	13991
402.281	9950
402.360	11815
402.438	27170
402.517	23428
402.596	10488
402.674	9687
402.753	9024
402.831	7944
402.910	9980
402.988	20216
403.066	66699
403.145	48107
403.223	22838
403.302	59010
403.380	47106
403.459	45997
403.537	24050
403.615	13018
403.694	7983
403.772	8733
403.850	8051
403.929	7099
404.007	8287
404.085	14767
404.164	15724
404.242	13522
404.320	26708
404.398	80465
404.477	101515
404.555	153334
404.633	154384
404.711	75144
404.789	54598
404.868	19305
404.946	11167
405.024	9249
405.102	7494
405.180	7719
405.258	7197
405.336	7856
405.415	7327
405.493	13129
405.571	12544
405.649	7466
405.727	7173
405.805	11064
405.883	10604
405.961	11173
406.039	12036
406.117	8127
406.195	11328
406.273	31150
406.351	124716
406.429	91607
406.507	19059
406.585	10607
406.663	9408
406.740	11577
406.818	11410
406.896	7922
406.974	8307
407.052	13082
407.130	69007
407.208	118746
407.285	30909
407.363	9683
407.441	10289
407.519	10210
407.596	12963
407.674	37778
407.752	169945
407.830	161217
407.907	38168
407.985	13686
408.063	9410
408.141	8157
408.218	11606
408.296	11819
408.373	9958
408.451	10840
408.529	11142
408.606	7472
408.684	8131
408.762	7324
408.839	8448
408.917	8041
408.994	9584
409.072	9670
409.149	11308
409.227	16025
409.304	20873
409.382	22509
409.459	25658
409.537	30178
409.614	32799
409.692	29129
409.769	27176
409.846	31387
409.924	38759
410.001	35315
410.079	30362
410.156	24116
410.233	20354
410.311	18592
410.388	14752
410.465	14678
410.543	15371
410.620	11434
410.697	12007
410.775	12742
410.852	9596
410.929	12073
411.006	15442
411.083	11745
411.161	17506
411.238	19009
411.315	14451
411.392	9401
411.469	11709
411.547	12774
411.624	8985
411.701	8605
411.778	9010
411.855	16557
411.932	11956
412.009	7536
412.086	7993
412.163	8264
412.240	9932
412.317	10484
412.394	11092
412.471	7251
412.548	6639
412.625	6496
412.702	8227
412.779	14061
412.856	11282
412.933	6505
413.010	7005
413.087	9153
413.164	31179
413.241	52641
413.318	17939
413.395	9924
413.471	15043
413.548	8860
413.625	7150
413.702	8212
413.779	7587
413.855	5012
413.932	4815
414.009	4225
414.086	4747
414.162	5975
414.239	8478
414.316	27114
414.393	74043
414.469	34558
414.546	7425
414.623	5058
414.699	5797
414.776	7127
414.853	6077
414.929	5610
415.006	5981
415.082	6937
415.159	6595
415.236	6189
415.312	6437
415.389	9449
415.465	14494
415.542	9644
415.618	6132
415.695	10570
415.771	7592
415.848	7920
415.924	7798
416.000	6337
416.077	4805
416.153	4428
416.230	4924
416.306	4557
416.383	5418
416.459	5308
416.535	4754
416.612	4863
416.688	4403
416.764	4358
416.841	4874
416.917	5792
416.993	5779
417.069	6714
417.146	10322
417.222	15777
417.298	10850
417.374	6216
417.451	6537
417.527	7076
417.603	8311
417.679	7251
417.755	6958
417.831	3858
417.908	5642
417.984	4014
418.060	4977
418.136	10960
418.212	16082
418.288	8365
418.364	6322
418.440	6070
418.516	9780
418.592	10619
418.668	17300
418.744	25450
418.820	20917
418.896	8320
418.972	5443
419.048	6202
419.124	13111
419.200	12764
419.276	6768
419.352	4768
419.428	6657
419.504	6765
419.579	8802
419.655	8394
419.731	8234
419.807	16290
419.883	30177
419.959	25172
420.034	10749
420.110	14352
420.186	45348
420.262	44501
420.337	13601
420.413	11254
420.489	10763
420.565	9738
420.640	9812
420.716	10905
420.792	9770
420.867	11177
420.943	11693
421.019	14961
421.094	15686
421.170	14339
421.245	13381
421.321	16261
421.397	19218
421.472	37230
421.548	115496
421.623	87414
421.699	32036
421.774	28075
421.850	29603
421.925	36916
422.001	41868
422.076	46678
422.152	56269
422.227	77491
422.302	102931
422.378	148208
422.453	238367
422.529	401159
422.604	551137
422.679	478843
422.755	521146
422.830	475912
422.905	294425
422.981	184875
423.056	124978
423.131	90739
423.207	69250
423.282	56770
423.357	54013
423.432	43541
423.508	37778
423.583	44282
423.658	41190
423.733	26561
423.808	24194
423.883	23873
423.959	24600
424.034	22567
424.109	21851
424.184	17690
424.259	15840
424.334	14272
424.409	12106
424.484	11649
424.559	12335
424.634	10809
424.709	12639
424.784	13190
424.859	11080
424.934	11848
425.009	32135
425.084	57583
425.159	28279
425.234	9109
425.309	8036
425.384	16485
425.459	30261
425.534	12939
425.609	8642
425.683	7387
425.758	6401
425.833	7338
425.908	9152
425.983	18335
426.058	55895
426.132	33269
426.207	9812
426.282	11771
426.357	10327
426.431	6785
426.506	7410
426.581	7169
426.655	6642
426.730	6345
426.805	7022
426.879	7982
426.954	7362
427.029	10418
427.103	40605
427.178	112073
427.253	61580
427.327	12638
427.402	12071
427.476	29098
427.551	18714
427.625	8092
427.700	8402
427.774	6347
427.849	7804
427.923	6836
427.998	8031
428.072	9199
428.147	19164
428.221	66838
428.296	224798
428.370	154391
428.444	28430
428.519	16386
428.593	23248
428.667	22628
428.742	26090
428.816	34121
428.890	124989
428.965	241631
429.039	85425
429.113	33042
429.188	16633
429.262	9341
429.336	11053
429.410	26929
429.485	23235
429.559	20020
429.633	20383
429.707	12837
429.781	26617
429.855	129571
429.930	234390
430.004	99775
430.078	100291
430.152	126492
430.226	274392
430.300	320396
430.374	90007
430.448	27463
430.522	33390
430.596	89933
430.670	76869
430.744	179319
430.818	273529
430.892	70350
430.966	16400
431.040	10058
431.114	6871
431.188	5799
431.262	6285
431.336	6718
431.410	10912
431.484	25890
431.557	22042
431.631	9236
431.705	12819
431.779	45290
431.853	197890
431.927	173581
432.000	31816
432.074	9977
432.148	8129
432.222	6900
432.295	5455
432.369	5071
432.443	8311
432.516	34819
432.590	107724
432.664	50819
432.737	9392
432.811	4069
432.885	3394
432.958	4707
433.032	3586
433.106	2597
433.179	3201
433.253	4418
433.326	3676
433.400	2896
433.473	4159
433.547	2964
433.620	4131
433.694	7571
433.767	8553
433.841	4576
433.914	4257
433.988	3978
434.061	4760
434.134	3508
434.208	3288
434.281	3338
434.355	4038
434.428	3709
434.501	4742
434.575	3115
434.648	4094
434.721	3285
434.795	3139
434.868	2866
434.941	3396
435.014	3803
435.088	4220
435.161	6626
435.234	9348
435.307	12880
435.381	8714
435.454	8151
435.527	11985
435.600	13151
435.673	14451
435.746	12669
435.819	11163
435.892	10274
435.966	8737
436.039	7421
436.112	6489
436.185	4661
436.258	4694
436.331	3925
436.404	4783
436.477	3612
436.550	3886
436.623	3940
436.696	3631
436.769	4544
436.842	4900
436.915	4812
436.987	5615
437.060	3933
437.133	3488
437.206	2913
437.279	4005
437.352	2468
437.425	3519
437.498	4343
437.570	7905
437.643	7936
437.716	3996
437.789	3672
437.861	6498
437.934	17266
438.007	10995
438.080	4050
438.152	5072
438.225	8405
438.298	42400
438.370	140732
438.443	73309
438.516	19337
438.588	6278
438.661	4281
438.734	3613
438.806	4224
438.879	5807
438.951	6094
439.024	10411
439.096	5284
439.169	3370
439.241	2515
439.314	3488
439.386	4585
439.459	6627
439.531	10556
439.604	5434
439.676	2530
439.749	3225
439.821	2896
439.893	3681
439.966	2896
440.038	4343
440.110	5583
440.183	4219
440.255	3948
440.327	6613
440.400	18554
440.472	86993
440.544	71029
440.617	12568
440.689	8209
440.761	9639
440.833	14940
440.905	11451
440.978	3889
441.050	4031
441.122	4014
441.194	2640
441.266	4647
441.338	4228
441.411	6388
441.483	27794
441.555	50423
441.627	14396
441.699	7938
441.771	8146
441.843	5311
441.915	5481
441.987	4963
442.059	4984
442.131	7224
442.203	11357
442.275	13942
442.347	18213
442.419	33436
442.491	129719
442.563	321530
442.635	171850
442.706	50993
442.778	32794
442.850	13844
442.922	10965
442.994	11106
443.066	14256
443.137	16003
443.209	18873
443.281	27542
443.353	54688
443.425	160601
443.496	457848
443.568	532837
443.640	256950
443.711	68539
443.783	27289
443.855	17516
443.926	12234
443.998	10169
444.070	10198
444.141	9565
444.213	10519
444.285	12764
444.356	11125
444.428	9958
444.499	7727
444.571	6908
444.642	6779
444.714	8426
444.785	11828
444.857	12226
444.928	21670
445.000	18280
445.071	20529
445.143	27601
445.214	29888
445.285	47503
445.357	113757
445.428	307354
445.500	585360
445.571	501478
445.642	331675
445.714	126211
445.785	60423
445.856	26560
445.928	18985
445.999	15367
446.070	12560
446.141	11003
446.213	12900
446.284	7671
446.355	8099
446.426	6211
446.497	6137
446.569	8054
446.640	10830
446.711	9509
446.782	5281
446.853	6410
446.924	5419
446.995	4990
447.066	5308
447.138	8403
447.209	5796
447.280	2793
447.351	3082
447.422	2729
447.493	4107
447.564	4634
447.635	7037
447.706	4652
447.777	3192
447.847	2445
447.918	2757
447.989	4393
448.060	5511
448.131	10573
448.202	10950
448.273	8700
448.344	4856
448.414	3026
448.485	3837
448.556	3045
448.627	3365
448.698	2928
448.768	2817
448.839	2653
448.910	6028
448.981	6537
449.051	3735
449.122	2732
449.193	2533
449.263	3165
449.334	3179
449.405	4208
449.475	9358
449.546	7771
449.616	7635
449.687	8286
449.758	5306
449.828	3417
449.899	3460
449.969	2520
450.040	3304
450.110	4215
450.181	4986
450.251	2867
450.322	2537
450.392	3618
450.463	3181
450.533	3064
450.604	3989
450.674	3200
450.744	4451
450.815	3372
450.885	4116
450.955	4251
451.026	3792
451.096	3814
451.166	5492
451.237	7190
451.307	17794
451.377	9394
451.447	3527
451.518	3554
451.588	3414
451.658	3449
451.728	5135
451.799	15795
451.869	20297
451.939	5198
452.009	3621
452.079	3043
452.149	3926
452.219	5691
452.289	18854
452.360	16663
452.430	6549
452.500	5710
452.570	8363
452.640	13050
452.710	30120
452.780	46156
452.850	32749
452.920	25604
452.990	11736
453.060	6912
453.129	8843
453.199	8214
453.269	18426
453.339	45679
453.409	72983
453.479	62211
453.549	92803
453.619	101482
453.688	42099
453.758	8662
453.828	5720
453.898	3591
453.968	4289
454.037	3346
454.087	3095
454.107	2996
454.168	2854
454.177	2834
454.247	3500
454.249	3470
454.316	2781
454.330	2962
454.386	3627
454.411	5214
454.456	7859
454.492	11230
454.525	14247
454.574	8428
454.595	5918
454.655	3730
454.665	3389
454.734	3898
454.736	3952
454.804	5984
454.817	7656
454.873	14598
454.898	16579
454.943	20180
454.979	13597
455.013	7577
455.060	5410
455.082	4553
455.141	5090
455.152	5186
455.221	10360
455.222	10515
455.291	23523
455.303	23569
455.360	23001
455.384	35741
455.430	58830
455.465	47079
455.499	35890
455.546	23224
455.569	17417
455.627	12680
455.638	11792
455.707	3544
455.708	3542
455.777	2909
455.789	2819
455.846	2403
455.869	2298
455.916	2126
455.950	2287
455.985	2399
456.031	2462
456.054	2508
456.112	2518
456.124	2519
456.193	2219
456.193	2216
456.262	3222
456.274	3269
456.332	3208
456.355	3103
456.401	3043
456.436	2954
456.470	2763
456.516	2298
456.540	2124
456.597	2063
456.609	2018
456.678	2087
456.678	2084
456.747	1659
456.759	1703
456.817	1862
456.840	1979
456.886	2334
456.920	2066
456.955	1784
457.001	2600
457.024	2965
457.082	2757
457.093	2727
457.162	3587
457.163	3593
457.232	4714
457.243	4637
457.301	3601
457.324	3330
457.370	3441
457.405	3522
457.439	3360
457.485	3292
457.508	3274
457.566	3588
457.577	3739
457.646	5348
457.647	5367
457.715	8909
457.727	9850
457.784	15865
457.808	22114
457.853	32613
457.889	44731
457.922	52306
457.969	40207
457.991	37588
458.050	31567
458.060	30831
458.129	48179
458.130	48949
458.198	78075
458.211	74663
458.267	54386
458.292	40613
458.336	22482
458.372	18195
458.405	16673
458.453	19677
458.474	23397
458.533	42397
458.543	44596
458.611	89365
458.614	90372
458.680	95472
458.694	83316
458.749	42961
458.775	31233
458.818	16250
458.855	12327
458.887	9407
458.936	6946
458.955	6069
459.016	5388
459.024	5259
459.093	4496
459.097	4439
459.162	4226
459.177	4285
459.230	4098
459.257	4170
459.299	4716
459.338	5042
459.368	4971
459.418	5086
459.437	5064
459.499	4303
459.505	4261
459.574	3776
459.579	3780
459.643	3546
459.659	3460
459.711	3385
459.740	3600
459.780	4161
459.820	4352
459.849	4295
459.900	4234
459.917	4219
459.981	4432
459.986	4437
460.054	4508
460.061	4457
460.123	4154
460.141	4179
460.191	4724
460.222	5207
460.260	5629
460.302	6557
460.328	6928
460.382	6556
460.397	6554
460.462	6227
460.465	6319
460.534	9859
460.543	10330
460.602	28464
460.623	36210
460.671	57359
460.703	85406
460.739	97541
460.783	101979
460.808	95296
460.864	28611
460.876	20210
460.944	6228
460.945	6082
461.013	4446
461.024	4345
461.081	4045
461.104	4128
461.150	4145
461.184	3732
461.218	3223
461.264	2874
461.286	3009
461.345	3223
461.355	3160
461.423	3133
461.425	3127
461.491	2877
461.505	2874
461.559	4241
461.585	4797
461.628	6320
461.665	8177
461.696	9556
461.745	14605
461.764	14559
461.825	7686
461.832	7335
461.901	3615
461.905	3578
461.969	3503
461.985	3432
462.037	3457
462.065	3449
462.105	3193
462.145	3165
462.173	4039
462.225	5730
462.241	5989
462.305	7682
462.310	7640
462.378	7735
462.385	7284
462.446	3899
462.465	3403
462.514	3498
462.545	3733
462.582	3403
462.625	3003
462.650	3242
462.705	3568
462.718	3373
462.785	2869
462.786	2881
462.854	3200
462.865	3350
462.922	4577
462.945	5148
462.990	4943
463.025	4029
463.058	3416
463.104	2852
463.126	2818
463.184	3016
463.194	2987
463.262	2566
463.264	2579
463.330	3676
463.344	3683
463.398	3535
463.424	3700
463.466	3542
463.504	3508
463.533	3564
463.583	3249
463.601	3338
463.663	3743
463.669	3733
463.737	3960
463.743	3969
463.805	5969
463.823	6580
463.873	8051
463.903	9100
463.940	10668
463.982	13226
464.008	11902
464.062	6787
464.076	6262
464.142	3295
464.144	3256
464.211	3103
464.221	3112
464.279	3333
464.301	3383
464.347	3164
464.381	3151
464.414	3524
464.461	3882
464.482	3999
464.540	4530
464.550	4471
464.617	3617
464.620	3592
464.685	3944
464.699	4058
464.753	5200
464.779	5746
464.820	6166
464.859	6643
464.888	6354
464.938	5795
464.956	6069
465.018	6698
465.023	6599
465.091	5521
465.098	5377
465.158	4514
465.177	4342
465.226	4896
465.257	5223
465.293	4952
465.336	4634
465.361	5020
465.416	5816
465.428	6058
465.495	7543
465.496	7569
465.563	10718
465.575	11323
465.631	13935
465.654	15308
465.698	11752
465.734	7809
465.765	6495
465.813	4657
465.833	4761
465.893	5677
465.900	5669
465.968	5543
465.972	5525
466.035	5621
466.052	5653
466.102	5135
466.131	4907
466.170	5500
466.210	6034
466.237	5869
466.290	5598
466.304	5757
466.369	6312
466.372	6323
466.439	6687
466.449	6719
466.506	7176
466.528	7379
466.573	8156
466.607	8683
466.641	11415
466.687	15319
466.708	17156
466.766	22402
466.775	21280
466.842	12628
466.845	12198
466.909	9205
466.925	8590
466.977	8420
467.004	8380
467.044	8210
467.083	8033
467.111	8511
467.163	9391
467.178	9651
467.242	10759
467.245	10709
467.312	9559
467.321	9407
467.379	8770
467.400	8521
467.446	8608
467.480	8664
467.559	8674
467.638	7456
467.717	6925
467.796	8045
467.875	8630
467.955	8493
468.034	9125
468.113	17914
468.192	24790
468.271	13502
468.350	9642
468.429	12202
468.508	13449
468.588	10830
468.667	8212
468.746	7381
468.825	6864
468.904	6009
468.983	6345
469.062	8615
469.141	10107
469.220	5765
469.299	6179
469.378	6402
469.456	7747
469.535	7289
469.614	6494
469.693	6162
469.772	7844
469.851	8434
469.930	7445
470.009	6305
470.088	5972
470.166	7014
470.245	8155
470.324	10216
470.403	8018
470.482	7150
470.560	6018
470.639	5787
470.718	7146
470.797	6207
470.875	5936
470.954	7178
471.033	8856
471.111	5631
471.190	4882
471.269	4668
471.347	4378
471.426	5413
471.505	5307
471.583	6296
471.662	5379
471.740	5547
471.819	4994
471.898	5289
471.976	5186
472.055	5284
472.133	6280
472.212	8757
472.290	7764
472.369	5383
472.447	4736
472.526	4821
472.604	5319
472.683	5514
472.761	4693
472.839	4593
472.918	4160
472.996	4826
473.075	5389
473.153	5119
473.231	4405
473.310	5520
473.388	5672
473.466	6164
473.545	6088
473.623	6772
473.701	7301
473.780	6908
473.858	4783
473.936	6809
474.014	5788
474.093	5853
474.171	8933
474.249	10131
474.327	7942
474.405	4978
474.484	4722
474.562	4622
474.640	4616
474.718	5381
474.796	4446
474.874	6343
474.952	4973
475.030	5383
475.108	6081
475.187	7431
475.265	6814
475.343	8244
475.421	7877
475.499	6232
475.577	5153
475.655	7124
475.733	8764
475.811	15980
475.889	15434
475.966	12607
476.044	4893
476.122	5273
476.200	6187
476.278	5516
476.356	3872
476.434	4857
476.512	6122
476.590	5901
476.667	5110
476.745	4083
476.823	4078
476.901	4944
476.979	4013
477.056	4319
477.134	5244
477.212	5598
477.290	3983
477.367	4683
477.445	3498
477.523	4939
477.601	3348
477.678	4247
477.756	5389
477.834	5373
477.911	4388
477.989	4535
478.066	3791
478.144	4468
478.222	4782
478.299	6509
478.377	7263
478.454	5917
478.532	3969
478.609	4126
478.687	4940
478.764	3553
478.842	4994
478.919	4271
478.997	5198
479.074	4403
479.152	4378
479.229	5452
479.307	4399
479.384	3963
479.461	3436
479.539	3869
479.616	4977
479.694	4568
479.771	3514
479.848	4658
479.926	4401
480.003	7580
480.080	3417
480.157	3931
480.235	3602
480.312	3523
480.389	3695
480.467	5904
480.544	6830
480.621	4907
480.698	4669
480.775	5387
480.853	5427
480.930	4124
481.007	4940
481.084	7149
481.161	11386
481.238	9958
481.315	4004
481.392	4020
481.470	3795
481.547	4537
481.624	3887
481.701	4254
481.778	3917
481.855	5090
481.932	5782
482.009	8808
482.086	8792
482.163	5712
482.240	5737
482.317	7552
482.393	8841
482.470	5485
482.547	5264
482.624	4579
482.701	4487
482.778	4658
482.855	4198
482.932	4348
483.009	4841
483.085	6180
483.162	9353
483.239	9965
483.316	6429
483.393	6329
483.469	4836
483.546	5719
483.623	5244
483.699	4761
483.776	4502
483.853	5130
483.930	6001
484.006	12588
484.083	23391
484.160	17470
484.236	20674
484.313	19966
484.389	14766
484.466	13750
484.543	12391
484.619	13277
484.696	14015
484.772	13174
484.849	13283
484.925	11760
485.002	10583
485.078	11524
485.155	11191
485.231	10138
485.308	9911
485.384	10681
485.461	11303
485.537	16934
485.614	19752
485.690	12106
485.766	9811
485.843	10055
485.919	11746
485.995	14277
486.072	9748
486.148	9420
486.224	8189
486.301	9643
486.377	10099
486.453	9905
486.530	10470
486.606	14277
486.682	14711
486.758	17039
486.835	18405
486.911	15409
486.987	20479
487.063	24030
487.139	28391
487.215	27137
487.292	18429
487.368	13267
487.444	15407
487.520	18935
487.596	26134
487.672	40434
487.748	103533
487.824	191596
487.900	110272
487.976	32837
488.052	18347
488.128	17538
488.204	14055
488.280	12406
488.356	11086
488.432	17609
488.508	25978
488.584	14906
488.660	9168
488.736	10091
488.812	9356
488.888	11082
488.964	13407
489.039	22628
489.115	35808
489.191	29468
489.267	11485
489.343	9433
489.418	8328
489.494	7756
489.570	7126
489.646	8808
489.722	8147
489.797	8282
489.873	10738
489.949	18727
490.024	21346
490.100	8670
490.176	7838
490.251	8596
490.327	10359
490.403	9447
490.478	6964
490.554	6948
490.629	6388
490.705	6598
490.781	6534
490.856	7231
490.932	7955
491.007	7793
491.083	7318
491.158	7891
491.234	8411
491.309	14584
491.385	18469
491.460	8202
491.536	7362
491.611	7036
491.686	6544
491.762	8832
491.837	14195
491.913	25820
491.988	31101
492.063	46391
492.139	19422
492.214	10943
492.289	6139
492.365	6492
492.440	6914
492.515	7165
492.590	6499
492.666	6403
492.741	5439
492.816	9862
492.891	6758
492.967	6846
493.042	5472
493.117	6457
493.192	7560
493.267	10979
493.342	38136
493.418	71646
493.493	20169
493.568	6406
493.643	5019
493.718	6580
493.793	8102
493.868	9702
493.943	7420
494.018	6402
494.093	4557
494.168	5432
494.243	4979
494.318	5237
494.393	4576
494.468	4655
494.543	5135
494.618	5305
494.693	5116
494.768	5485
494.842	5510
494.917	4977
494.992	4817
495.067	5666
495.142	4926
495.217	5766
495.292	4323
495.366	5635
495.441	6886
495.516	8681
495.591	9650
495.665	25104
495.740	67991
495.815	49782
495.890	9249
495.964	6608
496.039	7968
496.114	7830
496.188	12372
496.263	14145
496.338	7357
496.412	6332
496.487	8167
496.561	9021
496.636	9536
496.710	8674
496.785	8205
496.860	10099
496.934	8565
497.009	8179
497.083	8706
497.158	9508
497.232	10631
497.307	12958
497.381	11970
497.455	12204
497.530	15425
497.604	14071
497.679	14520
497.753	18691
497.827	24032
497.902	26589
497.976	28181
498.050	40954
498.125	127358
498.199	193408
498.273	48584
498.348	32929
498.422	28152
498.496	25101
498.570	22657
498.645	19602
498.719	17423
498.793	17115
498.867	19266
498.941	24248
499.016	46512
499.090	140805
499.164	95839
499.238	12657
499.312	9742
499.386	10966
499.460	10933
499.534	9623
499.609	10152
499.683	13110
499.757	13731
499.831	20191
499.905	78922
499.979	117727
500.053	21458
500.127	14601
500.201	11152
500.275	9000
500.349	7986
500.422	7634
500.496	9940
500.570	19309
500.644	44275
500.718	97261
500.792	41553
500.866	8339
500.940	8563
501.013	7957
501.087	6474
501.161	11291
501.235	14490
501.309	23275
501.382	68950
501.456	91519
501.530	20146
501.603	24570
501.677	15193
501.751	5755
501.825	6399
501.898	10510
501.972	26481
502.046	28044
502.119	6456
502.193	12107
502.266	30367
502.340	25325
502.413	12972
502.487	28522
502.561	19550
502.634	9360
502.708	5431
502.781	5896
502.855	4997
502.928	4381
503.002	3941
503.075	4579
503.149	3723
503.222	4902
503.295	4024
503.369	6685
503.442	6895
503.516	18543
503.589	53592
503.662	50579
503.736	16584
503.809	25766
503.882	30337
503.956	34967
504.029	50687
504.102	58975
504.175	102951
504.249	60278
504.322	22791
504.395	13580
504.468	8783
504.542	7366
504.615	6135
504.688	6324
504.761	3412
504.834	5003
504.907	5101
504.980	8784
505.053	5997
505.127	4305
505.200	7549
505.273	6042
505.346	4263
505.419	3362
505.492	3136
505.565	3711
505.638	3259
505.711	3328
505.784	2296
505.857	2921
505.930	3600
506.003	2523
506.076	4235
506.149	3743
506.221	4279
506.294	5587
506.367	8706
506.440	36938
506.513	34923
506.586	6958
506.659	3416
506.731	3576
506.804	3433
506.877	5005
506.950	3492
507.022	3707
507.095	3322
507.168	5832
507.241	4611
507.313	3212
507.386	2369
507.459	5000
507.531	3748
507.604	1965
507.677	3152
507.749	2165
507.822	3868
507.894	6362
507.967	10367
508.040	6963
508.112	5462
508.185	5714
508.257	4266
508.330	6673
508.402	4667
508.475	4567
508.547	4470
508.620	5010
508.692	7309
508.765	6824
508.837	3432
508.909	4510
508.982	4029
509.054	5671
509.127	3788
509.199	2932
509.271	2528
509.344	3841
509.416	2725
509.488	3930
509.560	4534
509.633	3631
509.705	4308
509.777	4737
509.849	6157
509.922	6297
509.994	5183
510.066	4565
510.138	4085
510.210	8691
510.283	8640
510.355	7674
510.427	5612
510.499	6339
510.571	5295
510.643	5407
510.715	7544
510.787	7211
510.859	5991
510.931	6521
511.003	6771
511.076	6952
511.148	5257
511.219	5178
511.291	7418
511.363	9891
511.435	6512
511.507	5053
511.579	5250
511.651	4808
511.723	4750
511.795	4992
511.867	3755
511.939	5357
512.010	7085
512.082	9711
512.154	4195
512.226	5681
512.298	6509
512.369	11046
512.441	8464
512.513	7697
512.585	6004
512.656	6979
512.728	5934
512.800	5971
512.871	5814
512.943	5538
513.015	4596
513.086	6191
513.158	5493
513.230	5376
513.301	6113
513.373	9602
513.444	6375
513.516	4513
513.588	5229
513.659	5298
513.731	5942
513.802	5946
513.874	8862
513.945	16547
514.016	9695
514.088	5046
514.159	4830
514.231	6693
514.302	8887
514.374	8083
514.445	6531
514.516	11512
514.588	10223
514.659	6135
514.730	9729
514.802	10916
514.873	7538
514.944	13969
515.016	9119
515.087	8408
515.158	8191
515.229	13599
515.301	10247
515.372	16875
515.443	12564
515.514	9645
515.585	7039
515.656	7326
515.728	5955
515.799	5784
515.870	5543
515.941	6485
516.012	5028
516.083	8553
516.154	7504
516.225	9650
516.296	10145
516.367	9523
516.438	8879
516.509	12254
516.580	14369
516.651	36420
516.722	137988
516.793	121024
516.864	19687
516.935	15942
517.006	16711
517.077	22090
517.148	39898
517.219	138442
517.289	349452
517.360	118121
517.431	37231
517.502	11096
517.573	9360
517.643	8842
517.714	9013
517.785	10880
517.856	9000
517.926	14339
517.997	14679
518.068	19247
518.138	25134
518.209	31383
518.280	93774
518.350	423391
518.421	334825
518.492	41994
518.562	21653
518.633	22125
518.703	25988
518.774	48815
518.845	111406
518.915	151537
518.986	59323
519.056	26128
519.127	21787
519.197	25947
519.268	46133
519.338	47500
519.408	12364
519.479	10882
519.549	10029
519.620	8753
519.690	6735
519.760	6118
519.831	6459
519.901	5485
519.971	4882
520.042	6440
520.112	6172
520.182	7088
520.253	7496
520.323	6844
520.393	6703
520.463	12659
520.534	6934
520.604	16604
520.674	11636
520.744	6692
520.814	14675
520.885	19699
520.955	12975
521.025	50675
521.095	38669
521.165	7889
521.235	5917
521.305	4699
521.375	4778
521.445	5724
521.515	5658
521.585	7851
521.655	6893
521.725	6870
521.795	6992
521.865	3802
521.935	7241
522.005	7289
522.075	4364
522.145	5645
522.215	4777
522.285	7314
522.355	7861
522.424	14087
522.494	15767
522.564	9498
522.634	10450
522.704	34546
522.774	24538
522.843	6746
522.913	5381
522.983	7199
523.053	6001
523.122	5139
523.192	5283
523.262	15472
523.331	25151
523.401	8215
523.471	4847
523.540	4721
523.610	3174
523.680	4744
523.749	3936
523.819	6526
523.888	7140
523.958	5068
524.027	4567
524.097	4859
524.166	4197
524.236	4131
524.305	6220
524.375	4104
524.444	3629
524.514	6281
524.583	4661
524.653	4958
524.722	6320
524.791	4757
524.861	4568
524.930	3858
524.999	4089
525.069	6622
525.138	5357
525.207	6435
525.277	5929
525.346	6052
525.415	4960
525.484	6388
525.554	6983
525.623	8481
525.692	11641
525.761	12356
525.830	14527
525.900	17749
525.969	23708
526.038	43725
526.107	77209
526.176	256673
526.245	314717
526.314	102500
526.383	113542
526.452	228582
526.522	258530
526.591	419222
526.660	98421
526.729	41796
526.797	38539
526.867	51433
526.935	161557
527.004	501017
527.073	552095
527.142	79057
527.211	22689
527.280	13743
527.349	10816
527.418	8040
527.487	7170
527.555	5482
527.624	4778
527.693	4357
527.762	5218
527.831	3911
527.899	4679
527.968	4515
528.037	3052
528.106	5190
528.174	7343
528.243	7388
528.312	7081
528.380	12080
528.449	5951
528.518	4552
528.586	2170
528.655	4948
528.723	3674
528.792	3570
528.861	2937
528.929	2931
528.998	4039
529.066	4184
529.135	7918
529.203	7207
529.272	7690
529.340	12059
529.409	11172
529.477	9153
529.545	9169
529.614	12117
529.682	11124
529.751	14442
529.819	14527
529.887	15885
529.956	14097
530.024	13871
530.092	11630
530.161	13073
530.229	14074
530.297	14776
530.365	14903
530.434	14009
530.502	14501
530.570	13281
530.638	10055
530.707	11412
530.775	11110
530.843	10659
530.911	12317
530.979	11571
531.047	13748
531.115	14513
531.183	11589
531.252	12193
531.320	10976
531.388	10247
531.456	12541
531.524	12852
531.592	13319
531.660	16118
531.728	13819
531.796	12956
531.864	13458
531.932	13259
532.000	12167
532.067	14106
532.135	15144
532.203	17225
532.271	16893
532.339	18820
532.407	26361
532.475	26659
532.542	16793
532.610	16592
532.678	17622
532.746	32465
532.814	86283
532.881	47494
532.949	18378
533.017	15922
533.084	14678
533.152	14515
533.220	14893
533.287	14325
533.355	14412
533.423	15056
533.490	14669
533.558	14942
533.625	14051
533.693	15200
533.761	13389
533.828	13938
533.896	13068
533.963	17620
534.031	19581
534.098	22721
534.166	19059
534.233	14418
534.300	14915
534.368	14848
534.435	13705
534.503	15197
534.570	16428
534.637	17407
534.705	19435
534.772	21953
534.840	27457
534.907	98701
534.974	227546
535.041	52436
535.109	17143
535.176	13645
535.243	12489
535.310	12077
535.378	12062
535.445	11469
535.512	10755
535.579	10577
535.646	8995
535.714	10045
535.781	11336
535.848	11803
535.915	11713
535.982	12586
536.049	11172
536.116	13212
536.183	9458
536.250	10483
536.317	9354
536.384	10102
536.451	11311
536.518	12691
536.585	9016
536.652	12241
536.719	13621
536.786	12700
536.853	9997
536.920	12608
536.987	14874
537.053	13977
537.120	32864
537.187	51464
537.254	12027
537.321	9862
537.388	10356
537.454	8382
537.521	7493
537.588	7827
537.654	8616
537.721	8799
537.788	9830
537.855	8204
537.921	8334
537.988	9261
538.055	8284
538.121	8222
538.188	8546
538.254	8340
538.321	13560
538.388	13741
538.454	8552
538.521	8108
538.587	7706
538.654	8004
538.720	7556
538.787	7978
538.853	7186
538.920	8175
538.986	8191
539.053	7849
539.119	7962
539.185	7418
539.252	8603
539.318	10304
539.385	10841
539.451	8935
539.517	8966
539.583	10294
539.650	11903
539.716	30680
539.782	18854
539.849	8037
539.915	8226
539.981	7950
540.047	7699
540.114	8792
540.180	8502
540.246	7354
540.312	8308
540.378	12983
540.444	16073
540.510	13419
540.576	31917
540.643	22031
540.709	6764
540.775	7356
540.841	6363
540.907	8506
540.973	11466
541.039	10597
541.105	10770
541.171	8808
541.237	6570
541.303	8414
541.369	8692
541.435	9814
541.500	12240
541.566	10936
541.632	7366
541.698	6441
541.764	6796
541.830	7467
541.896	5827
541.961	7321
542.027	6850
542.093	7708
542.159	8373
542.224	7651
542.290	9078
542.356	11696
542.421	15906
542.487	10840
542.553	7064
542.618	8224
542.684	7377
542.750	7732
542.815	7302
542.881	9520
542.947	24974
543.012	32236
543.078	8140
543.143	6317
543.209	6968
543.274	6565
543.340	8248
543.405	10445
543.471	20841
543.536	10357
543.602	6910
543.667	6841
543.732	7012
543.798	6763
543.863	7511
543.928	6926
543.994	5940
544.059	7962
544.124	6885
544.190	6644
544.255	7948
544.320	8267
544.386	6788
544.451	10076
544.516	10020
544.581	9589
544.646	15298
544.712	35347
544.777	13483
544.842	8563
544.907	8380
544.972	8077
545.037	8251
545.102	9512
545.168	9005
545.233	9129
545.298	9348
545.363	10244
545.428	9303
545.493	14383
545.558	24413
545.623	19872
545.688	9014
545.753	9160
545.818	8746
545.883	10328
545.947	9465
546.012	9923
546.077	9804
546.142	11131
546.207	10442
546.272	12151
546.337	12407
546.401	13322
546.466	12626
546.531	11510
546.596	12956
546.661	13670
546.725	14094
546.790	13401
546.855	15008
546.919	15393
546.984	17351
547.049	18385
547.113	21021
547.178	22895
547.243	25158
547.307	29900
547.372	34421
547.436	35017
547.501	33926
547.565	36940
547.630	35903
547.695	33903
547.759	33900
547.823	35032
547.888	33695
547.952	34501
548.017	35806
548.081	42340
548.146	42996
548.210	40137
548.274	38662
548.339	40359
548.403	35898
548.468	33509
548.532	32088
548.596	35046
548.660	35001
548.725	36351
548.789	39448
548.853	42877
548.917	37810
548.982	38889
549.046	36786
549.110	31873
549.174	30292
549.238	34221
549.303	37032
549.367	42455
549.431	38918
549.495	36897
549.559	35251
549.623	40443
549.687	46046
549.751	48579
549.815	51347
549.879	56581
549.943	50439
550.007	53576
550.071	55246
550.135	52367
550.199	46794
550.263	46588
550.327	45647
550.391	47595
550.455	52161
550.519	51339
550.582	55371
550.646	61655
550.710	67575
550.774	65433
550.838	64265
550.901	66791
550.965	71332
551.029	75187
551.093	81561
551.156	90952
551.220	109952
551.284	129163
551.347	101498
551.411	86093
551.475	88137
551.538	72962
551.602	66996
551.666	61140
551.729	58284
551.793	56603
551.856	55661
551.920	54394
551.983	54148
552.047	53482
552.110	53406
552.174	55392
552.237	56632
552.301	53066
552.364	50043
552.428	47438
552.491	49736
552.554	52106
552.618	50709
552.681	53222
552.745	51156
552.808	55279
552.871	63444
552.934	60700
552.998	54233
553.061	52817
553.124	49986
553.187	49631
553.251	52613
553.314	52962
553.377	53403
553.440	60399
553.503	82190
553.567	143498
553.630	79644
553.693	56320
553.756	56477
553.819	54398
553.882	51562
553.945	51951
554.008	51959
554.071	51900
554.134	53298
554.197	50106
554.260	49280
554.323	50256
554.386	49992
554.449	50383
554.512	53218
554.575	49650
554.638	48794
554.701	49590
554.764	49564
554.827	47060
554.889	46816
554.952	43999
555.015	41483
555.078	42622
555.141	44433
555.203	43436
555.266	43412
555.329	42800
555.391	41355
555.454	41038
555.517	40725
555.580	39757
555.642	37510
555.705	36314
555.768	37498
555.830	36999
555.893	33706
555.955	33298
556.018	32367
556.080	32364
556.143	33378
556.206	33202
556.268	32556
556.330	32925
556.393	32023
556.455	31504
556.518	31282
556.580	32777
556.643	28392
556.705	28097
556.767	26397
556.830	28934
556.892	27541
556.955	29198
557.017	29560
557.079	25587
557.142	25659
557.204	26083
557.266	30208
557.328	31876
557.391	23410
557.453	21940
557.515	22502
557.577	24463
557.639	25444
557.701	24157
557.764	23363
557.826	25628
557.888	28301
557.950	29158
558.012	32500
558.074	39431
558.136	72774
558.198	238276
558.260	156846
558.322	38709
558.384	35070
558.446	39722
558.508	43635
558.570	53587
558.632	66033
558.694	87679
558.756	118019
558.818	280388
558.880	902102
558.942	544209
559.003	270728
559.065	213275
559.127	65280
559.189	55470
559.251	57876
559.312	74771
559.374	148634
559.436	552082
559.498	520074
559.559	92974
559.621	57941
559.683	58277
559.744	81524
559.806	224964
559.868	549832
559.929	184817
559.991	59879
560.052	72940
560.114	209966
560.176	226845
560.237	110781
560.299	253330
560.360	99482
560.422	24633
560.483	18265
560.545	16348
560.606	14457
560.667	14149
560.729	13284
560.790	12124
560.852	12049
560.913	13096
560.974	11791
561.036	11743
561.097	11206
561.158	11591
561.220	12351
561.281	11375
561.342	11889
561.403	13612
561.465	12339
561.526	19268
561.587	29719
561.648	15902
561.709	10625
561.771	10662
561.832	9743
561.893	10548
561.954	9614
562.015	9868
562.076	10378
562.137	10907
562.198	8882
562.259	10330
562.320	8969
562.381	10642
562.442	11230
562.503	11932
562.564	10030
562.625	9769
562.686	10758
562.747	9599
562.808	9424
562.869	10041
562.930	10541
562.991	9997
563.051	9237
563.112	9709
563.173	9349
563.234	8851
563.294	9250
563.355	8721
563.416	9366
563.477	9607
563.537	9110
563.598	10042
563.659	9452
563.720	10172
563.780	9514
563.841	9117
563.901	9770
563.962	9709
564.023	10040
564.083	9777
564.144	9099
564.204	9345
564.265	8846
564.325	10031
564.386	13190
564.446	16242
564.507	9324
564.567	9016
564.628	9819
564.688	9118
564.749	8297
564.809	9601
564.869	10339
564.930	9950
564.990	9571
565.050	8904
565.111	9966
565.171	9723
565.231	8936
565.292	10183
565.352	9075
565.412	10207
565.472	9240
565.532	10647
565.593	10177
565.653	9614
565.713	9425
565.773	10852
565.833	10735
565.893	14142
565.953	11065
566.013	12254
566.074	11107
566.134	13328
566.194	15687
566.254	17963
566.314	15250
566.374	13271
566.434	13626
566.494	13338
566.554	14948
566.614	15393
566.673	15776
566.733	16653
566.793	17089
566.853	19124
566.913	17214
566.973	19274
567.033	19898
567.092	19295
567.152	18839
567.212	18775
567.272	19393
567.331	21145
567.391	21451
567.451	23567
567.511	24499
567.570	26402
567.630	20980
567.690	20694
567.749	21139
567.809	22400
567.868	24803
567.928	28217
567.988	32234
568.047	38139
568.107	45550
568.166	57770
568.226	79519
568.285	115129
568.345	117654
568.404	103499
568.464	90221
568.523	85019
568.582	82838
568.642	87970
568.701	100172
568.761	128846
568.820	184940
568.879	213285
568.939	184347
568.998	145547
569.057	116427
569.116	95700
569.176	77711
569.235	65348
569.294	55078
569.353	47810
569.413	42023
569.472	38366
569.531	33234
569.590	30713
569.649	28266
569.708	26428
569.767	24038
569.827	23357
569.886	21969
569.945	20557
570.004	18577
570.063	18394
570.122	16622
570.181	17163
570.240	16153
570.299	17167
570.358	15658
570.417	15143
570.475	13210
570.534	15373
570.593	14300
570.652	13561
570.711	13715
570.770	13512
570.829	13838
570.887	13374
570.946	14226
571.005	13606
571.064	11669
571.122	12409
571.181	12029
571.240	12021
571.299	10764
571.357	12721
571.416	11323
571.475	12016
571.533	12911
571.592	11543
571.650	11781
571.709	10948
571.768	11811
571.826	12387
571.885	11845
571.943	11029
572.002	10008
572.060	10986
572.119	9837
572.177	10741
572.236	10276
572.294	10754
572.352	10775
572.411	11169
572.469	10795
572.528	10376
572.586	9281
572.644	10566
572.703	12130
572.761	10644
572.819	9530
572.877	9470
572.936	8871
572.994	9823
573.052	8704
573.110	10398
573.169	9263
573.227	9490
573.285	9605
573.343	9125
573.401	9598
573.459	10179
573.517	8374
573.576	10331
573.634	9996
573.692	10031
573.750	9523
573.808	9355
573.866	9270
573.924	9897
573.982	10900
574.040	10435
574.098	9174
574.155	9132
574.213	8725
574.271	9253
574.329	9728
574.387	9853
574.445	8142
574.503	8828
574.560	8115
574.618	8070
574.676	8244
574.734	8956
574.792	8823
574.849	8921
574.907	8463
574.965	7925
575.022	8228
575.080	8715
575.138	8161
575.195	9444
575.253	8099
575.311	8943
575.368	8943
575.426	7390
575.483	8704
575.541	8273
575.598	8108
575.656	8164
575.713	8459
575.771	9110
575.828	9134
575.886	8456
575.943	9404
576.001	7611
576.058	8435
576.115	9235
576.173	9849
576.230	9872
576.287	10703
576.345	10480
576.402	8778
576.459	10114
576.517	9244
576.574	9680
576.631	8781
576.688	9415
576.746	7767
576.803	8152
576.860	7890
576.917	7954
576.974	7932
577.031	9586
577.089	7934
577.146	7811
577.203	7984
577.260	8693
577.317	9025
577.374	9193
577.431	9374
577.488	9767
577.545	9390
577.602	10033
577.659	9146
577.716	9627
577.773	10618
577.830	9938
577.886	9111
577.943	9575
578.000	9381
578.057	9845
578.114	10731
578.171	11371
578.227	13016
578.284	13554
578.341	12580
578.398	11671
578.454	10576
578.511	10169
578.568	11456
578.625	10093
578.681	10323
578.738	9444
578.794	9535
578.851	9437
578.908	9707
578.964	9611
579.021	10049
579.077	9456
579.134	10292
579.190	9705
579.247	8545
579.303	9106
579.360	9184
579.416	10512
579.473	10411
579.529	9857
579.586	10009
579.642	11111
579.698	9830
579.755	10643
579.811	11543
579.867	11061
579.924	12106
579.980	11176
580.036	13006
580.093	15430
580.149	17981
580.205	21122
580.261	18372
580.317	17525
580.374	14787
580.430	14892
580.486	14529
580.542	13270
580.598	13135
580.619	13254
580.654	13417
580.692	13551
580.710	13562
580.765	12710
580.767	12633
580.823	14351
580.838	14380
580.879	14286
580.911	14417
580.935	14428
580.984	14857
580.991	14871
581.047	15368
581.057	15615
581.103	16396
581.130	16645
581.159	16864
581.203	17903
581.215	18077
581.270	17989
581.276	17970
581.326	17228
581.349	17621
581.382	18034
581.422	18249
581.438	18269
581.494	18495
581.494	18553
581.550	18554
581.567	18676
581.606	18755
581.640	19300
581.661	19504
581.713	21101
581.717	21177
581.773	20268
581.786	20545
581.829	21375
581.859	21782
581.885	21996
581.932	22367
581.940	22360
581.996	24777
582.004	24784
582.052	24446
582.077	24672
582.107	24938
582.150	25991
582.163	26212
582.219	27184
582.223	27323
582.274	28346
582.296	28806
582.330	29520
582.368	30260
582.386	30532
582.441	31524
582.441	31477
582.497	31696
582.514	32525
582.552	34342
582.587	35114
582.608	35524
582.659	36217
582.663	36200
582.719	37175
582.732	37408
582.774	38380
582.805	39909
582.830	41114
582.877	42739
582.885	43202
582.941	47722
582.950	48374
582.996	52556
583.023	55849
583.052	59201
583.095	63397
583.107	63850
583.162	64802
583.168	65045
583.218	66033
583.240	65246
583.273	63556
583.313	62343
583.328	61894
583.384	59809
583.385	59756
583.439	58264
583.458	57906
583.494	57992
583.531	58172
583.549	58284
583.603	58177
583.605	58201
583.660	58564
583.676	58535
583.715	59085
583.748	60110
583.770	60771
583.820	61165
583.825	61309
583.881	63497
583.893	63756
583.936	64053
583.965	64219
583.991	65296
584.038	68218
584.046	68603
584.101	69464
584.110	69651
584.156	72013
584.183	73321
584.211	74260
584.255	74716
584.266	75352
584.321	78807
584.328	79102
584.376	82464
584.400	83800
584.431	84776
584.472	86507
584.486	87781
584.541	90727
584.545	90801
584.596	94061
584.617	95192
584.651	96817
584.689	97772
584.706	99075
584.761	103546
584.762	103396
584.816	106386
584.834	107263
584.871	109151
584.906	110220
584.926	111624
584.978	115626
584.980	115997
585.035	118820
585.051	119774
585.090	123264
585.123	125499
585.145	127422
585.195	130952
585.200	131807
585.254	139728
585.267	141613
585.309	149965
585.340	156180
585.364	162127
585.412	171613
585.419	173463
585.473	186094
585.484	188811
585.528	211385
585.556	229102
585.583	267286
585.628	346289
585.637	385663
585.692	663661
585.700	717766
585.747	1027896
585.772	1092031
585.801	899476
585.845	544496
585.856	482858
585.910	288776
585.917	267498
585.965	236546
585.989	222051
586.019	216861
586.061	211014
586.074	211362
586.128	210613
586.133	210024
586.183	210089
586.205	208961
586.237	209696
586.277	209489
586.292	210533
586.346	212286
586.349	211771
586.401	217342
586.421	218112
586.455	220472
586.493	223103
586.509	227069
586.564	236384
586.565	235912
586.618	253797
586.637	258484
586.672	262023
586.709	261396
586.727	263173
586.781	268980
586.781	269908
586.835	277290
586.853	278861
586.889	281999
586.925	283792
586.944	288608
586.996	297597
586.998	298933
587.052	311677
587.068	313877
587.106	324974
587.140	333102
587.161	340025
587.212	353603
587.215	355818
587.269	375171
587.284	379235
587.323	394920
587.356	405574
587.377	416642
587.427	437892
587.431	441048
587.485	463716
587.499	467631
587.539	491871
587.571	509095
587.593	525230
587.643	553960
587.648	559467
587.702	599329
587.715	606811
587.755	642035
587.786	665242
587.810	689635
587.858	732076
587.864	740836
587.917	802672
587.930	813576
587.971	869953
588.001	906023
588.025	944277
588.073	1011039
588.079	1025507
588.133	1122606
588.145	1140028
588.187	1232032
588.217	1289824
588.241	1354411
588.288	1467606
588.295	1492132
588.348	1654403
588.360	1683072
588.402	1836862
588.431	1932775
588.456	2038412
588.503	2223538
588.510	2259920
588.564	2491586
588.575	2531524
588.617	2708812
588.646	2817312
588.671	2886288
588.718	2993457
588.725	3001829
588.778	2991192
588.789	2978688
588.832	2777006
588.861	2610897
588.886	2379883
588.932	1879975
588.939	1845530
588.993	1516564
589.004	1470791
589.047	1955486
589.075	2278601
589.100	2570982
589.147	3036995
589.154	3072061
589.207	3260188
589.218	3291392
589.261	3319649
589.290	3329918
589.314	3337202
589.361	3331878
589.368	3332311
589.421	3252671
589.433	3225883
589.475	2929222
589.504	2694614
589.528	2428741
589.576	1832206
589.582	1866933
589.635	2194286
589.647	2262628
589.689	2808111
589.718	3146230
589.742	3203767
589.790	3285334
589.795	3280367
589.849	3122081
589.861	3074754
589.902	2883994
589.932	2723440
589.955	2614722
590.004	2352245
590.009	2342122
590.062	2121898
590.075	2058716
590.115	1926545
590.146	1808722
590.168	1754041
590.218	1606158
590.222	1603640
590.275	1475705
590.289	1435632
590.328	1368769
590.360	1302891
590.381	1273714
590.431	1185014
590.435	1186110
590.488	1110300
590.503	1083785
590.541	1045919
590.574	1004012
590.594	987585
590.645	929736
590.647	932433
590.700	884988
590.716	866753
590.753	843315
590.787	813615
590.806	804647
590.859	765020
590.859	768250
590.912	738397
590.930	725210
590.965	711629
591.001	691075
591.018	685700
591.071	658941
591.072	655457
591.124	638333
591.143	627993
591.177	616545
591.214	597809
591.230	596434
591.283	582232
591.285	578789
591.336	565283
591.356	556022
591.389	548271
591.427	532977
591.442	532127
591.495	519266
591.498	515737
591.547	505715
591.569	497583
591.600	495221
591.640	486175
591.653	485883
591.706	474558
591.711	470962
591.759	467372
591.782	462026
591.811	462928
591.853	458625
591.864	459064
591.917	449599
591.924	445949
591.969	440883
591.995	434522
592.022	433943
592.066	427217
592.075	428636
592.127	424065
592.137	421077
592.180	424433
592.208	423065
592.233	420241
592.279	408723
592.285	410370
592.338	406745
592.350	403881
592.390	399790
592.421	393112
592.443	394340
592.491	390654
592.495	392518
592.548	390720
592.562	388228
592.600	387029
592.633	382319
592.653	383099
592.704	377862
592.705	379947
592.775	373876
592.846	371462
592.916	371096
592.987	366019
593.058	361184
593.128	353891
593.199	349170
593.270	346556
593.341	343316
593.411	344305
593.482	344569
593.553	346706
593.623	342479
593.694	342460
593.764	345307
593.835	341647
593.906	335980
593.976	335932
594.047	340216
594.117	348325
594.188	354223
594.258	346007
594.329	340857
594.399	343764
594.470	343917
594.540	349201
594.611	353189
594.681	348573
594.751	351982
594.822	354986
594.892	362516
594.963	368725
595.033	371946
595.103	376408
595.174	376483
595.244	390455
595.314	410916
595.384	392900
595.455	393289
595.525	401475
595.595	411682
595.665	415959
595.736	407542
595.806	411773
595.876	415721
595.946	418557
596.016	427701
596.087	440784
596.157	439846
596.227	439564
596.297	454580
596.367	475153
596.437	494642
596.507	502151
596.577	517751
596.647	510202
596.717	521197
596.787	531297
596.857	535051
596.927	534587
596.997	544513
597.067	554193
597.137	567095
597.207	574092
597.277	571412
597.347	561505
597.417	551581
597.487	551885
597.557	564175
597.626	576801
597.696	587732
597.766	594917
597.836	593799
597.906	568451
597.975	555773
598.045	561935
598.115	576187
598.185	601918
598.254	645929
598.324	691872
598.394	709000
598.464	704414
598.533	700197
598.603	685180
598.672	672221
598.742	682531
598.812	691102
598.881	711810
598.951	719750
599.020	727857
599.090	749081
599.159	767790
599.229	758122
599.299	757620
599.368	775069
599.437	786351
599.507	765601
599.576	753770
599.646	767529
599.715	777715
599.785	776511
599.854	778359
599.924	785151
599.993	789827
600.062	805728
600.132	828230
600.201	849712
600.270	915816
600.340	959399
600.409	969323
600.478	972776
600.547	1001705
600.617	997162
600.686	926592
600.755	911700
600.824	910209
600.894	920830
600.963	936361
601.032	950368
601.101	961275
601.170	970607
601.239	978526
601.308	993196
601.378	1019860
601.447	1041569
601.516	1060454
601.585	1082812
601.654	1112859
601.723	1133536
601.792	1163876
601.861	1202054
601.930	1261695
601.999	1308147
602.068	1297302
602.137	1292998
602.206	1305606
602.275	1312422
602.343	1321019
602.412	1336879
602.481	1338423
602.550	1346596
602.619	1361449
602.688	1357975
602.756	1388148
602.825	1368862
602.894	1395447
602.963	1384912
603.032	1390148
603.100	1426463
603.169	1359406
603.238	1424061
603.307	1383864
603.375	1355004
603.444	1436829
603.513	1348174
603.581	1355102
603.650	1452728
603.719	1268113
603.787	1159525
603.856	1178313
603.924	1190718
603.993	1218715
604.061	1241632
604.130	1268990
604.198	1299271
604.267	1303658
604.335	1340342
604.404	1337292
604.472	1378127
604.541	1382452
604.609	1412623
604.678	1475024
604.746	1479962
604.815	1562967
604.883	1523407
604.951	1439664
605.020	1482913
605.088	1411602
605.156	1292940
605.225	1279961
605.293	1278418
605.361	1279245
605.429	1264960
605.498	1289884
605.566	1273260
605.634	1301576
605.702	1318927
605.771	1292448
605.839	1366087
605.907	1247875
605.975	1291120
606.043	1283308
606.111	1170148
606.180	1302977
606.248	1234097
606.316	1136286
606.384	1258918
606.452	1061220
606.520	770217
606.588	771627
606.656	769731
606.724	760614
606.792	728607
606.860	679153
606.928	625390
606.996	602676
607.064	589546
607.132	604236
607.200	627856
607.267	654772
607.335	662184
607.403	681040
607.471	675465
607.539	644187
607.607	656926
607.674	594731
607.742	586282
607.810	582154
607.878	577868
607.946	582079
608.013	600004
608.081	609943
608.149	615182
608.216	620311
608.284	644151
608.352	633422
608.419	631151
608.487	621111
608.555	594296
608.622	603206
608.690	624103
608.757	657948
608.825	682091
608.893	666338
608.960	641646
609.028	617499
609.095	612953
609.163	609290
609.230	560452
609.298	499756
609.365	517638
609.432	555605
609.500	596327
609.567	667957
609.635	757102
609.702	818311
609.769	806875
609.837	679434
609.904	565221
609.971	578304
610.039	637787
610.106	773301
610.173	1211711
610.241	2398718
610.308	2757984
610.375	1474133
610.442	819751
610.509	648692
610.577	601016
610.644	588932
610.711	598480
610.778	605525
610.845	619719
610.912	655259
610.980	691618
611.047	720315
611.114	700100
611.181	655156
611.248	644529
611.315	669020
611.382	686845
611.449	709539
611.516	724328
611.583	712770
611.650	721954
611.717	726793
611.784	741582
611.851	764770
611.918	802982
611.984	893716
612.051	1111028
612.118	1722237
612.185	3253391
612.252	3559942
612.319	1610994
612.386	1064079
612.452	925266
612.519	851718
612.586	823822
612.653	823648
612.719	839485
612.786	822520
612.853	765546
612.919	735744
612.986	746671
613.053	721171
613.120	677438
613.186	648155
613.253	645371
613.319	644698
613.386	650686
613.453	660816
613.519	668453
613.586	659917
613.652	684948
613.719	672519
613.785	674544
613.852	672298
613.918	672456
613.985	667470
614.051	713312
614.118	759088
614.184	773950
614.250	675310
614.317	684001
614.383	667599
614.449	682866
614.516	679437
614.582	682071
614.648	677592
614.715	663365
614.781	658544
614.847	649244
614.914	653375
614.980	640078
615.046	638391
615.112	654815
615.179	669348
615.245	690136
615.311	721010
615.377	814308
615.443	949184
615.509	873837
615.575	784474
615.642	746149
615.708	742626
615.774	769518
615.840	823221
615.906	888545
615.972	1060362
616.038	1508437
616.104	2406440
616.170	3681026
616.236	4155867
616.302	2323607
616.368	1401604
616.434	1087303
616.500	914275
616.565	888505
616.631	1009662
616.697	1007150
616.763	941365
616.829	1101475
616.895	1662128
616.961	2050132
617.026	1407144
617.092	895630
617.158	760783
617.224	724607
617.289	670588
617.355	631122
617.421	616838
617.487	612331
617.552	586817
617.618	572718
617.684	577142
617.749	579106
617.815	558003
617.880	545047
617.946	542070
618.012	551884
618.077	567801
618.143	545842
618.208	539742
618.274	573384
618.339	599794
618.405	519368
618.470	492139
618.536	500247
618.601	495907
618.667	475866
618.732	444246
618.798	440636
618.863	436917
618.928	431958
618.994	439627
619.059	436929
619.124	455079
619.190	447756
619.255	435025
619.320	430758
619.386	438844
619.451	437266
619.516	426054
619.581	427425
619.647	441724
619.712	448042
619.777	429710
619.842	425969
619.907	441257
619.972	445864
620.038	449255
620.103	431852
620.168	434729
620.233	437538
620.298	442023
620.363	444993
620.428	453321
620.493	469045
620.558	469375
620.623	477462
620.688	481622
620.753	473558
620.818	486168
620.883	488440
620.948	486976
621.013	481476
621.078	480514
621.143	483375
621.207	488325
621.272	485100
621.337	478391
621.402	470253
621.467	476968
621.532	477816
621.596	480669
621.661	467182
621.726	453851
621.791	461947
621.855	464631
621.920	465529
621.985	466932
622.049	475136
622.114	480249
622.179	486970
622.243	492588
622.308	503553
622.373	516370
622.437	520697
622.502	495374
622.566	484508
622.631	481607
622.695	490975
622.760	489468
622.824	489893
622.889	489904
622.953	493170
623.018	521862
623.082	545605
623.147	517237
623.211	509271
623.276	504587
623.340	491431
623.404	473113
623.469	472532
623.533	482312
623.597	474687
623.662	460746
623.726	446821
623.790	420168
623.854	412784
623.919	424303
623.983	419899
624.047	421438
624.111	423968
624.176	433964
624.240	443825
624.304	456633
624.368	436681
624.432	426701
624.496	437594
624.560	451773
624.625	469796
624.689	455342
624.753	472185
624.817	455550
624.881	436956
624.945	416635
625.009	400561
625.073	400706
625.137	407144
625.201	428115
625.265	437231
625.329	414832
625.393	416356
625.456	406748
625.520	413180
625.584	426209
625.648	444036
625.712	465663
625.776	510588
625.839	524136
625.903	417364
625.967	349118
626.031	372306
626.095	449654
626.158	420693
626.222	334988
626.286	304185
626.349	295158
626.413	287108
626.477	274676
626.540	274096
626.604	275624
626.668	270590
626.731	267460
626.795	272462
626.858	269195
626.922	259089
626.986	255501
627.049	254109
627.113	267247
627.176	266826
627.240	257642
627.303	246242
627.366	248280
627.430	250087
627.493	251832
627.557	253120
627.620	257416
627.684	255248
627.747	255415
627.810	242843
627.874	223635
627.937	215525
628.000	224240
628.064	225987
628.127	198398
628.190	189841
628.253	186643
628.317	183646
628.380	177189
628.443	175003
628.506	177700
628.569	167050
628.632	157047
628.696	156056
628.759	157654
628.822	150408
628.885	147786
628.948	145237
629.011	146613
629.074	142901
629.137	141351
629.200	138804
629.263	138689
629.326	134681
629.389	134647
629.452	133597
629.515	134469
629.578	131932
629.641	134398
629.704	134635
629.767	137196
629.830	127855
629.892	129374
629.955	127024
630.018	129674
630.081	132441
630.144	135426
630.207	129880
630.269	129322
630.332	126670
630.395	125769
630.458	122244
630.520	119278
630.583	118462
630.646	117250
630.708	119005
630.771	120755
630.834	124625
630.896	123546
630.959	124064
631.021	121077
631.084	121223
631.146	122018
631.209	126656
631.272	121607
631.334	123167
631.397	125009
631.459	123236
631.522	126360
631.584	128093
631.646	131829
631.709	134731
631.771	138171
631.834	133193
631.896	128190
631.958	122668
632.021	121790
632.083	120796
632.145	121529
632.208	118264
632.270	118319
632.332	118044
632.395	115458
632.457	117528
632.519	116770
632.581	114608
632.643	113644
632.706	115128
632.768	112879
632.830	113714
632.892	115693
632.954	116839
633.016	118827
633.078	114058
633.141	116766
633.203	115021
633.265	115613
633.327	113890
633.389	115049
633.451	119255
633.513	121863
633.575	121961
633.637	120357
633.698	121256
633.760	121944
633.822	124786
633.884	126814
633.946	126555
634.008	130686
634.070	132489
634.132	142711
634.193	143895
634.255	143593
634.317	144775
634.379	145087
634.441	138482
634.502	133801
634.564	125747
634.626	119215
634.687	114547
634.749	114274
634.811	113409
634.873	110709
634.934	111031
634.996	111852
635.057	111826
635.119	112155
635.181	113320
635.242	115220
635.304	112578
635.365	114492
635.427	114790
635.488	114088
635.550	112598
635.611	113804
635.673	113553
635.734	119006
635.796	121494
635.857	125736
635.918	130355
635.980	136827
636.041	141051
636.102	145783
636.164	145607
636.225	142694
636.286	134634
636.348	127105
636.409	119088
636.470	116402
636.531	113507
636.593	113216
636.654	110818
636.715	105768
636.776	104751
636.838	103420
636.899	102539
636.960	102940
637.021	100800
637.082	98926
637.143	98703
637.204	94781
637.265	94234
637.326	96725
637.387	96526
637.448	96830
637.509	95039
637.570	96773
637.631	96078
637.692	95048
637.753	91495
637.814	92444
637.875	91887
637.936	92146
637.997	92951
638.058	95749
638.119	94348
638.179	92296
638.240	91914
638.301	92591
638.362	91465
638.423	88471
638.483	89000
638.544	87799
638.605	88933
638.666	90310
638.726	89434
638.787	89284
638.848	89853
638.908	88117
638.969	84975
639.030	84155
639.090	84729
639.151	83562
639.211	86220
639.272	89629
639.332	99652
639.393	95364
639.453	88187
639.514	90713
639.574	86038
639.635	82485
639.695	80470
639.756	80387
639.816	81244
639.877	81862
639.937	88809
639.997	100300
640.058	85572
640.118	81173
640.178	79244
640.239	79583
640.299	79560
640.359	79878
640.420	82201
640.480	85755
640.540	90054
640.600	94116
640.661	93939
640.721	94660
640.781	109107
640.841	129911
640.901	93651
640.961	83088
641.021	82214
641.082	87135
641.142	89150
641.202	85486
641.262	77635
641.322	77612
641.382	76547
641.442	77646
641.502	76319
641.562	75963
641.622	78026
641.682	79406
641.742	83811
641.802	84657
641.861	79159
641.921	76673
641.981	74899
642.041	74190
642.101	77826
642.161	75818
642.221	71092
642.280	71637
642.340	68024
642.400	71516
642.460	72945
642.519	74526
642.579	75321
642.639	75462
642.698	74200
642.758	76211
642.818	74760
642.877	75542
642.937	76251
642.997	77891
643.056	85117
643.116	80847
643.175	77246
643.235	76942
643.294	79743
643.354	81443
643.414	84744
643.473	92683
643.532	104523
643.592	129061
643.651	175077
643.711	272036
643.770	472469
643.830	968076
643.889	2113994
643.948	1211461
644.008	279841
644.067	149934
644.126	116203
644.186	98290
644.245	87445
644.304	81847
644.363	79714
644.423	76196
644.482	75674
644.541	77957
644.600	80117
644.659	91025
644.719	102963
644.778	132282
644.837	196903
644.896	348001
644.955	857085
645.014	572081
645.073	142057
645.132	98347
645.191	87405
645.250	82666
645.309	82868
645.368	86314
645.427	99167
645.486	134247
645.545	251308
645.604	138072
645.663	79469
645.722	76651
645.781	80256
645.840	83177
645.898	96260
645.957	118187
646.016	161111
646.075	254537
646.134	452349
646.192	975934
646.251	1868348
646.310	697574
646.369	186417
646.427	128198
646.486	107175
646.545	85769
646.603	79252
646.662	74089
646.721	70896
646.779	69937
646.838	71461
646.896	79633
646.955	96997
647.014	134863
647.072	217919
647.131	538436
647.189	506230
647.248	105153
647.306	71921
647.365	65953
647.423	61409
647.481	60749
647.540	56994
647.598	58021
647.657	57318
647.715	58202
647.773	55634
647.832	57406
647.890	52821
647.948	54090
648.007	54704
648.065	52761
648.123	52655
648.181	54393
648.240	57819
648.298	61916
648.356	52843
648.414	51853
648.472	51498
648.531	51312
648.589	49528
648.647	49919
648.705	50217
648.763	50456
648.821	50670
648.879	52108
648.937	55168
648.995	60944
649.053	70220
649.111	90018
649.169	132062
649.227	215956
649.285	396629
649.343	1048880
649.401	984884
649.459	200553
649.516	114459
649.574	83501
649.632	94287
649.690	123464
649.748	97675
649.806	121383
649.863	205152
649.921	380437
649.979	459220
650.037	98282
650.094	55304
650.152	51927
650.210	49619
650.268	50010
650.325	52477
650.383	69684
650.440	52739
650.498	43770
650.556	41942
650.613	40230
650.671	40969
650.728	41652
650.786	42264
650.843	49597
650.901	46927
650.958	39265
651.016	36869
651.073	38426
651.131	37849
651.188	36952
651.246	35638
651.303	35770
651.360	34986
651.418	34821
651.475	35738
651.532	33250
651.590	34743
651.647	35229
651.704	35204
651.762	33465
651.819	35539
651.876	34093
651.933	33562
651.990	34018
652.048	33187
652.105	32694
652.162	33976
652.219	32321
652.276	32837
652.333	33075
652.390	31961
652.448	33351
652.505	34157
652.562	33823
652.619	36737
652.676	44739
652.733	53831
652.790	35572
652.847	29553
652.904	32175
652.961	29853
653.017	30356
653.074	31949
653.131	31901
653.188	30120
653.245	30361
653.302	30037
653.359	30358
653.415	31011
653.472	29918
653.529	30602
653.586	29651
653.642	29615
653.699	30014
653.756	29925
653.813	29998
653.869	30781
653.926	30546
653.983	29233
654.039	30139
654.096	28681
654.152	30666
654.209	28896
654.266	29903
654.322	28815
654.379	30324
654.435	31291
654.492	30948
654.548	32529
654.605	39832
654.661	37397
654.717	31157
654.774	30067
654.830	30564
654.887	31106
654.943	31984
655.000	36379
655.056	36703
655.112	31034
655.168	29973
655.225	29690
655.281	30806
655.337	31670
655.394	36671
655.450	33556
655.506	31254
655.562	34530
655.618	36506
655.675	28047
655.731	30129
655.787	27764
655.843	29587
655.899	27266
655.955	29482
656.011	28968
656.067	27747
656.123	28448
656.179	29063
656.235	29434
656.291	28109
656.347	29319
656.403	28996
656.459	29356
656.515	30106
656.571	29972
656.627	29957
656.683	28565
656.739	30510
656.795	28194
656.850	29038
656.906	31144
656.962	30935
657.018	30243
657.074	31088
657.129	36798
657.185	46034
657.241	77640
657.297	78785
657.352	34249
657.408	28555
657.464	30038
657.519	28673
657.575	26789
657.630	27112
657.686	27652
657.742	28353
657.797	28311
657.853	27625
657.908	29898
657.964	27060
658.019	27712
658.075	27527
658.130	27717
658.186	26741
658.241	27166
658.297	26504
658.352	26726
658.407	27325
658.463	25435
658.518	27351
658.573	26690
658.629	26151
658.684	27654
658.739	26588
658.795	25543
658.850	27410
658.905	26880
658.960	27710
659.016	26170
659.071	26277
659.126	26466
659.181	28007
659.236	30460
659.291	34515
659.346	29764
659.401	31889
659.457	32496
659.512	41209
659.567	33144
659.622	27479
659.677	26500
659.732	26467
659.787	26832
659.842	28026
659.897	28644
659.952	27608
660.007	25771
660.061	26686
660.116	25341
660.171	26177
660.226	25681
660.281	27067
660.336	25947
660.391	27377
660.445	26114
660.500	26279
660.555	25888
660.610	25935
660.664	26380
660.719	26335
660.774	26454
660.828	26727
660.883	26064
660.938	26881
660.992	25156
661.047	26274
661.101	25886
661.156	25194
661.211	25052
661.265	25370
661.320	25926
661.374	26298
661.429	26052
661.483	26782
661.538	25917
661.592	26808
661.647	28676
661.701	36468
661.755	32694
661.810	26857
661.864	25654
661.919	25723
661.973	26594
662.027	25659
662.081	25428
662.136	25047
662.190	25146
662.244	26756
662.299	25616
662.353	24928
662.407	24839
662.461	25454
662.515	25469
662.569	25294
662.624	26031
662.678	24686
662.732	24918
662.786	24488
662.840	25721
662.894	25035
662.948	24737
663.002	23801
663.056	23527
663.110	23757
663.164	25022
663.218	24849
663.272	23348
663.326	24469
663.380	23438
663.434	23958
663.488	22980
663.542	24216
663.595	23186
663.649	23008
663.703	23798
663.757	23019
663.811	22764
663.864	22175
663.918	22919
663.972	22313
664.026	23408
664.079	23159
664.133	23444
664.187	22732
664.240	23269
664.294	24052
664.348	25026
664.401	24688
664.455	22768
664.508	23499
664.562	22458
664.615	23426
664.669	22456
664.722	22676
664.776	21315
664.829	22986
664.883	23135
664.936	23095
664.990	23725
665.043	24177
665.097	23067
665.150	26265
665.203	24148
665.257	23434
665.310	23272
665.363	23500
665.417	23707
665.470	24618
665.523	23377
665.576	23867
665.630	23083
665.683	22979
665.736	23253
665.789	24692
665.842	22208
665.895	23436
665.949	23090
666.002	23596
666.055	23944
666.108	24566
666.161	23310
666.214	23160
666.267	23631
666.320	25078
666.373	24430
666.426	23651
666.479	23056
666.532	24962
666.585	24206
666.638	25914
666.691	24766
666.744	25772
666.796	24404
666.849	24924
666.902	24967
666.955	24301
667.008	23876
667.060	23251
667.113	22755
667.166	24190
667.219	23233
667.271	24888
667.324	23737
667.377	23924
667.430	24110
667.482	26934
667.535	26815
667.587	24716
667.640	23409
667.693	24838
667.745	27188
667.798	32284
667.850	24595
667.903	23610
667.955	23865
668.008	23762
668.060	24808
668.113	25301
668.165	24511
668.218	24882
668.270	24835
668.322	23592
668.375	23447
668.427	23241
668.479	21940
668.532	24789
668.584	24003
668.636	23909
668.689	23008
668.741	23280
668.793	24280
668.845	24271
668.898	24267
668.950	24329
669.002	24618
669.054	24264
669.106	23646
669.158	25797
669.211	24431
669.263	26334
669.315	27782
669.367	31660
669.419	27219
669.471	27577
669.523	27000
669.575	30352
669.627	29933
669.679	28128
669.731	27033
669.783	28907
669.835	28446
669.886	29429
669.938	30020
669.990	30553
670.042	32244
670.094	33551
670.146	36234
670.197	41119
670.249	44858
670.301	52273
670.353	66446
670.404	86764
670.456	115392
670.508	169885
670.560	256348
670.611	399143
670.663	655149
670.715	1132997
670.766	1389821
670.818	1106262
670.869	460268
670.921	205808
670.972	128509
671.024	94294
671.075	71692
671.127	59467
671.178	51146
671.230	46873
671.281	42524
671.333	41035
671.384	40292
671.436	42551
671.487	46464
671.538	51624
671.590	64610
671.641	89889
671.692	128773
671.744	214445
671.795	248559
671.846	150161
671.897	83947
671.949	57783
672.000	44504
672.051	37385
672.102	33526
672.153	29568
672.204	28723
672.256	27734
672.307	25675
672.358	25173
672.409	24398
672.460	23173
672.511	22624
672.562	22279
672.613	21468
672.664	21430
672.715	21986
672.766	21349
672.817	20312
672.868	20357
672.919	19399
672.970	19816
673.021	18939
673.071	19334
673.122	18840
673.173	19730
673.224	20266
673.275	19568
673.326	19237
673.376	18644
673.427	17554
673.478	19258
673.528	19009
673.579	19342
673.630	18464
673.680	19607
673.731	18048
673.782	18102
673.832	18356
673.883	19125
673.934	17573
673.984	18281
674.035	18615
674.085	17796
674.136	18115
674.186	18563
674.237	19253
674.287	21683
674.338	19539
674.388	18598
674.438	18126
674.489	19282
674.539	18615
674.589	18955
674.640	19086
674.690	19340
674.740	18275
674.791	19910
674.841	17953
674.891	19108
674.942	16890
674.992	16895
675.042	15960
675.092	15957
675.142	16225
675.193	16279
675.243	17159
675.293	16880
675.343	17110
675.393	18056
675.443	18201
675.493	17599
675.543	17074
675.593	18407
675.643	16860
675.693	16667
675.743	16059
675.793	16871
675.843	15369
675.893	16770
675.943	15364
675.993	15583
676.043	15621
676.093	16246
676.142	15209
676.192	17067
676.242	15635
676.292	15137
676.341	14977
676.391	15675
676.441	15426
676.491	15189
676.540	15164
676.590	15505
676.640	14653
676.689	15050
676.739	15048
676.789	14967
676.838	14743
676.888	14609
676.937	14671
676.987	14687
677.037	14786
677.086	14186
677.136	14200
677.185	14580
677.235	13877
677.284	14996
677.333	14086
677.383	14804
677.432	14215
677.482	13736
677.531	14290
677.580	15268
677.630	14154
677.679	13591
677.728	13363
677.778	14212
677.827	13584
677.876	14230
677.925	14094
677.975	13941
678.024	14925
678.073	15040
678.122	14580
678.171	15501
678.220	15746
678.269	16754
678.319	16646
678.368	16530
678.417	15537
678.466	15977
678.515	15042
678.564	14914
678.613	14291
678.662	13841
678.711	13975
678.760	14643
678.809	13948
678.857	15248
678.906	15242
678.955	15207
679.004	14909
679.053	16295
679.102	18200
679.151	16910
679.199	13834
679.248	14122
679.297	14073
679.346	13716
679.394	12882
679.443	13816
679.492	13658
679.540	14435
679.589	14969
679.638	14133
679.686	13819
679.735	14061
679.784	14392
679.832	15976
679.881	14050
679.929	14063
679.978	13388
680.026	14007
680.075	14138
680.123	13319
680.172	13204
680.220	12197
680.268	12780
680.317	12192
680.365	12868
680.414	12728
680.462	12815
680.510	14117
680.559	13229
680.607	12697
680.655	13208
680.703	13855
680.752	12585
680.800	12622
680.848	12034
680.896	12839
680.945	12602
680.993	12195
681.041	12135
681.089	12429
681.137	11640
681.185	12135
681.233	12356
681.258	12903
681.281	13385
681.329	12342
681.377	12130
681.380	12179
681.425	12456
681.473	14082
681.502	13559
681.521	13135
681.569	13790
681.617	13067
681.624	13191
681.665	13721
681.713	13605
681.745	12972
681.761	12608
681.809	12445
681.857	13976
681.867	13926
681.904	13630
681.952	13362
681.989	13505
682.000	13498
682.048	13414
682.096	13108
682.111	13455
682.143	14117
682.191	13815
682.233	14010
682.239	14001
682.286	13740
682.334	13122
682.354	13438
682.382	13776
682.430	13969
682.476	13525
682.477	13481
682.525	13889
682.572	13724
682.598	13551
682.620	13396
682.667	14215
682.715	14118
682.720	14132
682.763	13850
682.810	13872
682.841	13687
682.857	13559
682.905	14361
682.952	13987
682.963	14243
683.000	15025
683.047	13721
683.085	14538
683.095	14728
683.142	14490
683.190	14947
683.206	14780
683.237	14301
683.284	14686
683.328	13602
683.332	13485
683.379	14660
683.426	14154
683.449	14149
683.473	14135
683.521	14585
683.568	14884
683.571	14875
683.615	14346
683.662	16124
683.693	15037
683.709	14347
683.757	15364
683.804	14637
683.814	14656
683.851	14634
683.898	15199
683.936	15113
683.945	15091
683.992	14919
684.039	16086
684.057	15758
684.086	15155
684.133	15911
684.179	15153
684.180	15101
684.227	15231
684.274	15617
684.300	15793
684.321	15908
684.368	15186
684.415	15477
684.422	15427
684.462	14985
684.509	15594
684.543	15474
684.556	15391
684.603	15739
684.649	16306
684.665	16354
684.696	16429
684.743	15991
684.786	16730
684.790	16776
684.837	15803
684.883	17149
684.908	17045
684.930	16907
684.977	17980
685.023	17609
685.029	17584
685.070	17116
685.117	17212
685.150	17686
685.164	17874
685.210	17387
685.257	18179
685.272	18122
685.303	17917
685.350	18123
685.393	17433
685.396	17361
685.443	17353
685.490	16916
685.514	17126
685.536	17345
685.583	17597
685.629	17863
685.636	17820
685.675	17316
685.722	17771
685.757	17501
685.768	17420
685.815	17582
685.861	17513
685.878	17691
685.908	18091
685.954	17993
686.000	18269
686.000	18262
686.047	18605
686.093	19790
686.121	19686
686.139	19595
686.185	19778
686.232	19483
686.242	19423
686.278	18914
686.324	18844
686.363	18355
686.370	18296
686.416	17850
686.463	18750
686.484	18738
686.509	18799
686.555	19214
686.601	18107
686.606	18206
686.647	18822
686.693	18469
686.727	18786
686.739	18917
686.785	18672
686.831	19181
686.848	18876
686.877	18268
686.923	18589
686.969	17852
686.969	17849
687.015	18974
687.061	19372
687.090	20074
687.107	20245
687.153	19954
687.199	20267
687.211	19866
687.245	18939
687.291	19249
687.332	19686
687.336	19745
687.382	20489
687.428	20153
687.453	20302
687.474	20326
687.520	20630
687.565	20957
687.574	20929
687.611	21318
687.657	22206
687.695	23375
687.702	23847
687.748	27651
687.794	32620
687.816	33462
687.839	32604
687.885	27556
687.931	25555
687.937	25430
687.976	24403
688.022	22107
688.058	21289
688.067	21395
688.113	21449
688.158	20883
688.179	20853
688.204	20808
688.249	20770
688.295	21217
688.300	21257
688.340	22031
688.386	22226
688.421	21755
688.431	21517
688.477	21985
688.522	21638
688.542	21912
688.567	22524
688.613	22292
688.658	22562
688.663	22546
688.703	22007
688.749	22142
688.784	21613
688.794	21583
688.839	21833
688.884	22008
688.905	22148
688.930	22250
688.975	22173
689.020	22583
689.026	22515
689.065	22210
689.110	22423
689.146	22675
689.155	22882
689.201	24475
689.246	24591
689.267	24619
689.291	23968
689.336	23159
689.381	22553
689.388	22387
689.426	21958
689.471	22535
689.509	21776
689.516	21749
689.561	21959
689.606	22428
689.630	22699
689.651	22731
689.696	22180
689.741	22450
689.750	22460
689.785	22802
689.830	23238
689.871	22407
689.875	22342
689.920	22743
689.965	22769
689.992	22707
690.010	22702
690.054	22950
690.099	23149
690.112	23207
690.144	23415
690.189	23559
690.233	22954
690.233	22974
690.278	23464
690.323	23677
690.354	24054
690.367	24245
690.412	24272
690.457	25038
690.474	24836
690.501	24623
690.546	25270
690.590	25605
690.595	25672
690.635	27045
690.680	27470
690.716	28517
690.724	28987
690.769	30861
690.813	34458
690.836	35308
690.857	37708
690.902	44869
690.946	52130
690.957	54206
690.991	70716
691.035	94603
691.077	121984
691.080	123010
691.124	130559
691.168	128951
691.198	128631
691.213	119171
691.257	93499
691.301	68611
691.318	59455
691.346	54546
691.390	46601
691.434	39348
691.439	38452
691.478	35476
691.522	33096
691.559	30358
691.567	30211
691.611	30136
691.655	29275
691.680	28783
691.699	28508
691.743	28126
691.787	27877
691.800	27639
691.831	27492
691.875	27930
691.919	27643
691.921	27609
691.964	27389
692.008	27189
692.041	26611
692.052	26546
692.096	26389
692.139	26498
692.162	26361
692.183	26182
692.227	26008
692.271	25790
692.282	25704
692.315	25834
692.359	25661
692.402	26143
692.403	26182
692.447	25640
692.490	25717
692.523	25580
692.534	25705
692.578	26127
692.622	26073
692.643	26277
692.666	26397
692.709	26421
692.753	26468
692.763	26424
692.797	26572
692.840	26641
692.884	26486
692.884	26529
692.928	27365
692.971	27281
693.004	27669
693.015	27803
693.059	27754
693.102	28285
693.124	28181
693.146	28287
693.189	28915
693.233	29073
693.245	29260
693.276	30672
693.320	31725
693.363	33456
693.365	33457
693.407	35403
693.450	37845
693.485	39342
693.493	40384
693.537	46176
693.580	52002
693.605	55581
693.624	61496
693.667	75376
693.710	90689
693.725	96305
693.753	126499
693.797	176179
693.840	230000
693.845	235372
693.883	248005
693.926	252024
693.966	256003
693.970	250930
694.013	195625
694.056	142497
694.086	106354
694.099	100622
694.142	82061
694.185	64179
694.206	55705
694.229	52854
694.272	47381
694.315	42200
694.326	40812
694.358	39489
694.401	37525
694.444	35391
694.446	35242
694.487	34336
694.530	33199
694.566	32121
694.573	32068
694.616	31414
694.659	30772
694.686	30348
694.702	30223
694.745	29873
694.787	29168
694.806	28953
694.830	29015
694.873	28809
694.916	28929
694.926	28805
694.959	28865
695.002	29271
695.044	29268
695.046	29231
695.087	29460
695.130	29395
695.166	29322
695.172	29401
695.215	29463
695.258	29662
695.286	29614
695.301	29591
695.343	29461
695.386	29273
695.406	29302
695.428	29661
695.471	29805
695.514	30177
695.526	30218
695.556	31299
695.599	33037
695.641	34262
695.646	34336
695.684	33296
695.726	32245
695.766	31230
695.769	31281
695.811	30965
695.854	30565
695.886	30432
695.896	30533
695.938	30647
695.981	30454
696.005	30538
696.023	30816
696.065	30982
696.108	31549
696.125	31623
696.150	32214
696.192	33054
696.235	33861
696.245	34050
696.277	34260
696.319	34270
696.361	34406
696.365	34347
696.404	34731
696.446	34962
696.485	35040
696.488	35103
696.530	35071
696.572	35075
696.604	35070
696.614	35031
696.656	34264
696.698	33729
696.724	33294
696.740	33241
696.783	32919
696.825	32589
696.844	32364
696.867	32653
696.909	33019
696.951	33590
696.964	33655
696.992	33652
697.034	33482
697.076	33390
697.083	33312
697.118	33988
697.160	34637
697.202	35276
697.203	35219
697.244	34839
697.286	34403
697.323	33864
697.327	33940
697.369	33971
697.411	34037
697.442	33978
697.453	34178
697.494	34757
697.536	35318
697.562	35609
697.578	35491
697.620	34905
697.661	34389
697.682	34067
697.703	34525
697.744	35260
697.786	35966
697.801	36118
697.828	36415
697.869	36822
697.911	37274
697.921	37287
697.952	36741
697.994	35978
698.035	35164
698.040	34988
698.077	35151
698.118	35290
698.160	35355
698.160	35276
698.201	35745
698.243	36121
698.279	36404
698.284	36520
698.325	36823
698.367	37092
698.399	37220
698.408	37350
698.449	37605
698.491	37787
698.518	37848
698.532	37941
698.573	37978
698.614	38022
698.638	37922
698.656	37963
698.697	37919
698.738	37853
698.757	37738
698.779	38001
698.820	38339
698.862	38675
698.877	38709
698.903	38861
698.944	38975
698.985	39082
698.996	39025
699.026	38633
699.067	37966
699.116	37087
699.235	39148
699.354	38606
699.474	37277
699.593	36824
699.713	37154
699.832	37864
699.951	38431
700.070	37920
700.190	36224
700.309	35537
700.428	34402
700.547	34441
700.667	34159
700.786	35205
700.905	34010
701.024	34552
701.143	34116
701.262	34824
701.381	34410
701.500	34938
701.619	35490
701.738	35496
701.857	34078
701.976	34037
702.095	33843
702.214	35855
702.333	34953
702.452	35516
702.571	33940
702.690	34063
702.809	34021
702.928	31931
703.047	32713
703.165	31844
703.284	33365
703.403	30998
703.522	33052
703.640	32028
703.759	32646
703.878	32907
703.997	31119
704.115	31717
704.234	31087
704.353	31653
704.471	30343
704.590	30882
704.708	29774
704.827	29002
704.946	29833
705.064	29482
705.183	29938
705.301	31521
705.420	34088
705.538	33534
705.656	32325
705.775	32538
705.893	46635
706.012	62708
706.130	34415
706.249	32776
706.367	30655
706.485	31392
706.604	30704
706.722	31922
706.840	36701
706.958	53191
707.077	50387
707.195	31090
707.313	29884
707.431	28550
707.549	28680
707.668	29435
707.786	29467
707.904	29143
708.022	27993
708.140	28585
708.258	27525
708.376	29105
708.494	26748
708.612	29672
708.730	34102
708.848	32648
708.966	30960
709.084	31266
709.202	31141
709.320	29936
709.438	29310
709.556	30768
709.674	29220
709.791	30312
709.909	28428
710.027	30550
710.145	28389
710.263	29152
710.380	28520
710.498	28356
710.616	27847
710.733	27633
710.851	27893
710.969	27823
711.086	27392
711.204	28322
711.322	27824
711.439	28193
711.557	27713
711.674	27657
711.792	26548
711.909	28591
712.027	31239
712.144	27052
712.262	26327
712.379	27069
712.497	31453
712.614	32307
712.732	29862
712.849	29293
712.966	29395
713.084	31622
713.201	29826
713.318	29336
713.436	30194
713.553	29435
713.670	30222
713.787	31186
713.905	30974
714.022	30218
714.139	31394
714.256	34720
714.373	44618
714.490	69617
714.608	147191
714.725	592417
714.842	970971
714.959	119435
715.076	44610
715.193	35601
715.310	34070
715.427	28947
715.544	28133
715.661	27923
715.778	27876
715.895	28048
716.011	28253
716.128	27078
716.245	26407
716.362	27583
716.479	26954
716.596	26523
716.713	25473
716.829	25477
716.946	24653
717.063	24300
717.180	24250
717.296	23460
717.413	24329
717.530	24685
717.646	23526
717.763	23549
717.880	22956
717.996	23654
718.113	23149
718.229	23002
718.346	21496
718.462	22950
718.579	23109
718.695	25527
718.812	25800
718.928	24329
719.045	23903
719.161	22295
719.277	23233
719.394	23540
719.510	23563
719.626	25030
719.743	28588
719.859	37908
719.975	60684
720.092	190160
720.208	574863
720.324	134821
720.440	31638
720.557	27675
720.673	27143
720.789	27909
720.905	35677
721.021	28084
721.137	22048
721.253	22120
721.369	21065
721.486	21759
721.602	23345
721.718	20920
721.834	19727
721.950	21396
722.066	20081
722.181	19526
722.297	20799
722.413	20188
722.529	18901
722.645	20359
722.761	19484
722.877	19392
722.993	19749
723.108	23445
723.224	21301
723.340	21428
723.456	18981
723.571	19552
723.687	19292
723.803	19072
723.918	18420
724.034	18666
724.150	19300
724.265	19158
724.381	21929
724.497	25784
724.612	18168
724.728	18360
724.843	17934
724.959	17806
725.074	21706
725.190	23889
725.305	19097
725.421	18610
725.536	18265
725.651	17770
725.767	18190
725.882	17858
725.997	16741
726.113	17644
726.228	17271
726.343	18214
726.459	16785
726.574	17649
726.689	17729
726.804	16997
726.920	17254
727.035	17029
727.150	17699
727.265	17246
727.380	17717
727.495	17673
727.610	16925
727.725	17716
727.841	18440
727.956	28907
728.071	27851
728.186	17758
728.301	15369
728.416	17628
728.531	17394
728.645	16209
728.760	16642
728.875	17196
728.990	16568
729.105	16911
729.220	16426
729.335	16369
729.449	16660
729.564	16477
729.679	16137
729.794	16615
729.908	15915
730.023	16303
730.138	15796
730.253	16694
730.367	16056
730.482	16513
730.596	16080
730.711	17897
730.826	21497
730.940	26400
731.055	19223
731.169	18059
731.284	17549
731.398	18677
731.513	17932
731.627	18792
731.742	20519
731.856	23984
731.970	23244
732.085	27922
732.199	34651
732.313	53702
732.428	111767
732.542	303173
732.656	248938
732.771	60010
732.885	34006
732.999	28312
733.113	28207
733.227	27074
733.342	25437
733.456	24939
733.570	23749
733.684	22777
733.798	22156
733.912	22783
734.026	23296
734.140	22342
734.254	22099
734.368	23769
734.482	25899
734.596	22692
734.710	22042
734.824	21525
734.938	20976
735.052	21811
735.166	21045
735.280	21592
735.393	21174
735.507	20703
735.621	20678
735.735	23617
735.849	21470
735.962	20467
736.076	20980
736.190	20135
736.303	20536
736.417	21871
736.531	19894
736.644	19611
736.758	18227
736.872	19720
736.985	18988
737.099	20502
737.212	18146
737.326	19569
737.439	19055
737.553	19150
737.666	19407
737.780	18671
737.893	19076
738.007	18575
738.120	19181
738.233	18916
738.347	19708
738.460	18138
738.573	18816
738.687	17960
738.800	18276
738.913	18876
739.026	19162
739.140	18810
739.253	18853
739.366	17963
739.479	17054
739.592	18164
739.705	16571
739.818	18866
739.932	17476
740.045	18523
740.158	18519
740.271	16987
740.384	17797
740.497	16841
740.610	17225
740.723	17725
740.836	18422
740.949	17052
741.062	18937
741.174	18413
741.287	17233
741.400	17833
741.513	16371
741.626	18127
741.739	17784
741.851	17486
741.964	16675
742.077	16970
742.189	16339
742.302	17123
742.415	17017
742.527	17165
742.640	17218
742.753	17122
742.865	15753
742.978	16391
743.090	16191
743.203	16837
743.316	16234
743.428	16118
743.541	16979
743.653	15986
743.766	15744
743.878	16407
743.990	15705
744.103	16789
744.215	15724
744.327	15526
744.440	17541
744.552	18027
744.664	15728
744.777	16579
744.889	15958
745.001	15707
745.113	15148
745.226	15646
745.338	15135
745.450	16158
745.562	15382
745.674	14605
745.786	15532
745.898	16504
746.010	14413
746.122	15383
746.234	16463
746.347	16049
746.459	15078
746.570	14836
746.682	15542
746.794	17460
746.906	15379
747.018	15626
747.130	15289
747.242	15761
747.354	14570
747.466	16390
747.577	14268
747.689	15687
747.801	16247
747.913	14907
748.024	14341
748.136	13197
748.248	14401
748.359	14489
748.471	14795
748.583	13988
748.694	14442
748.806	17573
748.918	15492
749.029	15664
749.141	15018
749.252	14861
749.364	13780
749.475	15909
749.587	15832
749.698	14719
749.809	15289
749.921	14682
750.032	14748
750.144	15166
750.255	14052
750.366	13970
750.478	14549
750.589	15003
750.700	14427
750.811	15641
750.923	14549
751.034	16658
751.145	17566
751.256	14645
751.367	14537
751.479	14119
751.590	14478
751.701	14886
751.812	14941
751.923	14238
752.034	15368
752.145	14578
752.256	15163
752.367	14379
752.478	14432
752.589	14974
752.700	14671
752.811	13467
752.922	14428
753.032	13946
753.143	15184
753.254	14525
753.365	15293
753.476	15660
753.586	14900
753.697	14301
753.808	14394
753.919	14192
754.029	14150
754.140	14646
754.251	14401
754.361	14719
754.472	14797
754.582	14272
754.693	15032
754.804	14474
754.914	14427
755.025	14818
755.135	15541
755.246	14816
755.356	15367
755.466	14456
755.577	13950
755.687	15614
755.798	14554
755.908	14693
756.018	15666
756.129	15509
756.239	15659
756.349	15811
756.460	14824
756.570	16475
756.680	14964
756.790	15782
756.900	16526
757.011	15736
757.121	15290
757.231	16178
757.341	16062
757.451	15267
757.561	16316
757.671	16014
757.781	16716
757.891	17170
758.001	16417
758.111	16312
758.221	17675
758.331	18438
758.441	17911
758.551	18216
758.661	18711
758.771	19262
758.880	18038
758.990	18947
759.100	19606
759.210	19401
759.320	19062
759.429	19619
759.539	19717
759.649	20193
759.758	20251
759.868	22122
759.978	21241
760.087	23147
760.197	22492
760.307	23477
760.416	23232
760.526	23921
760.635	23510
760.745	23994
760.854	24244
760.964	26178
761.073	27204
761.182	26872
761.292	26985
761.401	25835
761.511	26327
761.620	25978
761.729	26940
761.839	27086
761.948	27441
762.057	28414
762.166	30105
762.276	28620
762.385	30019
762.494	30619
762.603	31581
762.712	32189
762.822	33612
762.931	34736
763.040	34884
763.149	36201
763.258	38134
763.367	39647
763.476	41625
763.585	42543
763.694	45242
763.803	48110
763.912	49542
764.021	52890
764.130	55624
764.238	58186
764.347	63276
764.456	68251
764.565	74314
764.674	79774
764.783	87862
764.891	97271
765.000	107090
765.109	121125
765.217	138920
765.326	161536
765.435	189720
765.543	229328
765.652	282203
765.761	361004
765.869	473519
765.978	652678
766.086	919224
766.195	1292516
766.303	1597944
766.412	1230649
766.520	1105999
766.629	1567339
766.737	1330865
766.846	954506
766.954	681421
767.062	502533
767.171	384978
767.279	300488
767.387	240701
767.496	200312
767.604	170948
767.712	149613
767.820	133258
767.928	122335
768.037	112522
768.145	105843
768.253	102458
768.361	98916
768.469	98353
768.577	98540
768.685	103575
768.793	110776
768.901	119962
769.009	137404
769.117	163351
769.225	206548
769.333	277523
769.441	402715
769.549	627243
769.657	1020386
769.765	1405597
769.873	1114305
769.981	1321771
770.088	1111867
770.196	701397
770.304	463572
770.412	330626
770.519	251110
770.627	197868
770.735	160133
770.842	136063
770.950	117293
771.058	101142
771.165	91610
771.273	83193
771.380	75552
771.488	68960
771.595	66523
771.703	61600
771.810	57561
771.918	53352
772.025	52438
772.133	50819
772.240	48469
772.348	47906
772.455	45251
772.562	42873
772.670	41042
772.777	38848
772.884	38242
772.991	36505
773.099	35610
773.206	33718
773.313	33832
773.420	32690
773.528	32988
773.635	31737
773.742	30637
773.849	29709
773.956	29207
774.063	28391
774.170	27566
774.277	27766
774.384	26111
774.491	26629
774.598	25618
774.705	25001
774.812	25141
774.919	24805
775.026	25033
775.133	24040
775.239	24710
775.346	23744
775.453	22851
775.560	23185
775.667	21968
775.773	23387
775.880	22003
775.987	21470
776.093	20978
776.200	21850
776.307	19549
776.413	19703
776.520	21068
776.627	20764
776.733	19563
776.840	18506
776.946	21441
777.053	19377
777.159	19421
777.266	18666
777.372	19429
777.478	20016
777.585	18876
777.691	17244
777.798	17984
777.904	18528
778.010	19523
778.117	19321
778.223	17505
778.329	17205
778.435	16778
778.542	17958
778.648	16380
778.754	15610
778.860	16547
778.966	16510
779.072	17665
779.178	16833
779.284	16100
779.391	16635
779.497	19238
779.603	23722
779.708	33761
779.815	63848
779.920	198637
780.026	433632
780.132	125889
780.238	30393
780.344	21322
780.450	19846
780.556	17464
780.661	14903
780.767	15940
780.873	13968
780.979	13936
781.085	14201
781.190	13900
781.296	13063
781.402	13952
781.507	12969
781.613	12905
781.719	13093
781.824	13156
781.930	12443
782.035	13191
782.141	13479
782.246	12228
782.352	11296
782.457	12344
782.563	12569
782.668	12437
782.773	12030
782.879	11818
782.984	12660
783.090	12699
783.195	12069
783.300	12598
783.405	11922
783.511	10421
783.616	11716
783.721	11978
783.826	11920
783.932	11713
784.037	10236
784.142	11174
784.247	10521
784.352	11767
784.457	9474
784.562	10940
784.667	10994
784.772	10430
784.877	9600
784.982	11192
785.087	11009
785.192	10484
785.297	10228
785.402	10874
785.507	11292
785.611	10909
785.716	9764
785.821	10227
785.926	9499
786.031	10139
786.135	10390
786.240	9878
786.345	9099
786.450	9167
786.554	9403
786.659	8850
786.763	9467
786.868	9660
786.973	10472
787.077	9095
787.182	8783
787.286	9957
787.391	9956
787.495	8175
787.600	8797
787.704	8690
787.809	9513
787.913	9468
788.017	8753
788.122	9328
788.226	8787
788.330	8384
788.435	8770
788.539	9052
788.643	8337
788.747	8040
788.852	8324
788.956	8354
789.060	8915
789.164	8856
789.268	8203
789.372	9161
789.476	7602
789.580	7710
789.684	8430
789.788	8739
789.892	7805
789.996	8163
790.100	7913
790.204	8320
790.308	8448
790.412	8468
790.516	7590
790.620	9182
790.724	8679
790.828	7890
790.931	6898
791.035	8241
791.139	8473
791.242	8178
791.346	7590
791.450	7895
791.554	6826
791.657	6101
791.761	9045
791.864	8248
791.968	7132
792.072	8042
792.175	7066
792.279	8588
792.382	8315
792.486	7396
792.589	8076
792.693	8076
792.796	6785
792.899	7861
793.003	7062
793.106	7415
793.209	7623
793.313	8061
793.416	5912
793.519	7441
793.623	9006
793.726	9671
793.829	7669
793.932	6664
794.035	6879
794.138	9233
794.242	9610
794.345	12434
794.448	18053
794.551	36145
794.654	111192
794.757	264699
794.860	80653
794.963	15018
795.066	9560
795.169	9532
795.272	8121
795.375	9443
795.477	7579
795.580	7360
795.683	5682
795.786	7541
795.889	5958
795.991	7168
796.094	7303
796.197	5945
796.300	7091
796.402	6929
796.505	5301
796.608	5808
796.710	6459
796.813	7068
796.915	7015
797.018	6331
797.120	6087
797.223	5811
797.326	7452
797.428	5632
797.530	6004
797.633	6526
797.735	6422
797.838	6484
797.940	7094
798.042	6191
798.145	5919
798.247	6117
798.349	4817
798.452	6364
798.554	5364
798.656	5677
798.758	7049
798.860	6142
798.962	4693
799.065	5794
799.167	5788
799.269	6443
799.371	5462
799.473	5841
799.575	6162
799.677	5722
799.779	6724
799.881	5877
799.983	7065
800.085	5309
800.187	5681
800.289	5268
800.390	4820
800.492	5964
800.594	6463
800.696	5324
800.798	5456
800.899	5503
801.001	5306
801.103	5525
801.205	5073
801.306	5258
801.408	5337
801.509	5253
801.611	5325
801.713	5626
801.814	4770
801.916	4583
802.017	4274
802.119	4794
802.220	4818
802.322	4294
802.423	6053
802.525	5084
802.626	4592
802.727	5258
802.829	5422
802.930	3337
803.031	5203
803.133	5343
803.234	4441
803.335	4636
803.436	4711
803.538	5051
803.639	4309
803.740	4665
803.841	4714
803.942	5566
804.043	5042
804.144	4457
804.245	5315
804.346	4727
804.447	4794
804.548	6071
804.649	5660
804.750	4843
804.851	3819
804.952	4660
805.053	4263
805.154	3736
805.255	5240
805.355	5420
805.456	3757
805.557	4124
805.658	4095
805.758	4769
805.859	4316
805.960	4111
806.061	3986
806.161	4206
806.262	4090
806.362	4460
806.463	4658
806.564	4522
806.664	4672
806.765	4921
806.865	4318
806.966	4156
807.066	2963
807.166	4653
807.267	3893
807.367	5250
807.468	4567
807.568	3592
807.668	4580
807.769	5429
807.869	4708
807.969	4531
808.069	4495
808.170	4397
808.270	4848
808.370	4597
808.470	4910
808.570	4061
808.670	4799
808.770	5021
808.870	3797
808.970	3910
809.070	3975
809.170	3379
809.271	4493
809.370	4552
809.470	4756
809.570	4512
809.670	4127
809.770	4078
809.870	4397
809.970	4185
810.070	5001
810.169	4780
810.269	3445
810.369	4974
810.469	4328
810.568	4305
810.668	3380
810.768	4972
810.867	4031
810.967	4326
811.066	3695
811.166	3860
811.265	4189
811.365	3829
811.464	4334
811.564	4910
811.663	4372
811.763	4318
811.862	4626
811.962	4317
812.061	4114
812.160	5217
812.260	5134
812.359	5748
812.458	7833
812.557	15302
812.657	25525
812.756	14035
812.855	6183
812.954	5263
813.053	4113
813.153	5115
813.252	3894
813.351	5484
813.450	5292
813.549	4955
813.648	4933
813.747	4478
813.846	5260
813.945	5249
814.044	5317
814.143	5206
814.242	5731
814.341	4808
814.439	5752
814.538	5275
814.637	4823
814.736	5393
814.835	6122
814.933	5857
815.032	6592
815.131	7447
815.229	8321
815.328	12229
815.427	10626
815.525	9514
815.624	9682
815.722	9552
815.821	10202
815.919	9589
816.018	11358
816.116	10873
816.215	10658
816.313	11329
816.412	12313
816.510	13610
816.609	13955
816.707	14775
816.805	14948
816.904	15638
817.002	17104
817.100	18593
817.198	18600
817.296	20416
817.395	22115
817.493	25380
817.591	29006
817.689	35856
817.787	44820
817.885	63979
817.983	100979
818.081	181258
818.179	352595
818.277	680548
818.375	710452
818.473	408198
818.571	203425
818.669	123521
818.767	97971
818.865	91153
818.963	98261
819.061	126824
819.158	187616
819.256	313742
819.354	557525
819.452	873887
819.549	757117
819.647	491377
819.745	274871
819.842	162458
819.940	109059
820.038	80266
820.135	61322
820.233	50527
820.330	40787
820.428	34768
820.525	30687
820.623	26064
820.720	23522
820.818	22396
820.915	20696
821.012	19339
821.110	17249
821.207	16832
821.304	14600
821.402	14876
821.499	13690
821.596	13324
821.693	12506
821.791	13801
821.888	11607
821.985	13688
822.082	12495
822.179	11278
822.276	10683
822.373	9811
822.470	9866
822.567	9817
822.664	8581
822.761	8618
822.858	8983
822.955	9102
823.052	7945
823.149	8406
823.246	8866
823.343	7253
823.440	7414
823.536	7910
823.633	8271
823.730	6675
823.827	8267
823.923	7304
824.020	7874
824.117	7755
824.213	7853
824.310	7432
824.407	6706
824.503	7733
824.600	6827
824.696	6761
824.793	7515
824.889	6971
824.986	5927
825.082	5888
825.179	5654
825.275	6680
825.371	7847
825.468	6343
825.564	4551
825.660	5149
825.757	7479
825.853	5810
825.949	4808
826.045	5116
826.142	5396
826.238	6023
826.334	5736
826.430	5945
826.526	6028
826.622	3737
826.718	5598
826.814	6562
826.910	6235
827.006	4201
827.102	4005
827.198	5980
827.294	6458
827.390	6138
827.486	4978
827.582	4206
827.678	3782
827.774	6109
827.869	4009
827.965	4880
828.061	4658
828.157	5068
828.252	6427
828.348	4524
828.444	5487
828.539	4340
828.635	4602
828.731	5744
828.826	4300
828.922	4515
829.017	5691
829.113	5976
829.208	3968
829.304	4266
829.399	6034
829.495	4746
829.590	4935
829.685	4383
829.781	5243
829.876	5842
829.971	4164
830.066	3175
830.162	4428
830.257	5190
830.352	4972
830.447	4287
830.543	4414
830.638	3850
830.733	6147
830.828	4090
830.923	4209
831.018	4294
831.113	4926
831.208	4375
831.303	2804
831.398	4004
831.493	4189
831.588	6087
831.683	3872
831.778	4120
831.873	3228
831.967	4468
832.062	4548
832.157	4893
832.252	4251
832.346	4143
832.441	4658
832.536	4228
832.631	6605
832.725	5461
832.820	3163
832.914	4661
833.009	3664
833.104	2916
833.198	2885
833.293	3343
833.387	4209
833.482	3225
833.576	4023
833.670	4242
833.765	4319
833.859	4326
833.954	4264
834.048	3743
834.142	3277
834.237	2786
834.331	3098
834.425	4042
834.519	3418
834.613	2620
834.708	3385
834.802	2994
834.896	3742
834.990	3645
835.084	3472
835.178	2904
835.272	3223
835.366	3416
835.460	3810
835.554	4127
835.648	2895
835.742	3126
835.836	3305
835.930	2392
836.024	3585
836.117	3859
836.211	3020
836.305	3881
836.399	3762
836.493	3288
836.586	3701
836.680	2935
836.774	2554
836.867	3575
836.961	2283
837.055	2537
837.148	1983
837.242	3345
837.335	2765
837.429	2803
837.522	2409
837.616	2755
837.709	3416
837.803	3227
837.896	3853
837.989	3272
838.083	3094
838.176	3645
838.269	4017
838.363	3783
838.456	2480
838.549	3975
838.642	4295
838.735	5140
838.829	4785
838.922	2875
839.015	2831
839.108	2300
839.201	3015
839.294	3545
839.387	3417
839.480	2031
839.573	2583
839.666	2979
839.759	2136
839.852	2619
839.945	3505
840.038	2563
840.131	1712
840.223	2521
840.316	3104
840.409	3806
840.502	3052
840.594	3551
840.687	1935
840.780	2491
840.873	2333
840.965	2591
841.058	2328
841.150	3092
841.243	3029
841.336	2587
841.428	2284
841.521	1729
841.613	1989
841.706	3117
841.798	2306
841.890	3201
841.983	2073
842.075	2544
842.167	1684
842.260	2411
842.352	3130
842.444	2583
842.537	2916
842.629	4846
842.721	2910
842.813	2218
842.905	1829
842.997	3377
843.090	2284
843.182	3814
843.274	2209
843.366	4998
843.458	8049
843.550	6705
843.642	2933
843.734	3394
843.826	2196
843.918	2473
844.009	2695
844.101	2267
844.193	1986
844.285	2669
844.377	2839
844.469	3014
844.560	2146
844.652	2655
844.744	2190
844.835	2697
844.927	1974
845.019	2334
845.110	2559
845.202	2074
845.293	2491
845.385	2491
845.476	2626
845.568	3259
845.659	1642
845.751	2628
845.842	2422
845.934	2135
846.025	2268
846.116	2152
846.208	2212
846.299	1547
846.390	1637
846.482	2485
846.573	2466
846.664	2999
846.755	2713
846.846	3342
846.937	1986
847.029	1797
847.120	1821
847.211	2487
847.302	2552
847.393	1263
847.484	2315
847.575	2059
847.666	1708
847.757	2743
847.847	1488
847.938	2968
848.029	2065
848.120	3177
848.211	1984
848.302	1468
848.392	1768
848.483	2670
848.574	2018
848.664	2081
848.755	2259
848.846	2089
848.936	1838
849.027	2707
849.118	1964
849.208	2224
849.299	3130
849.389	4605
849.480	6709
849.570	11408
849.661	19376
849.751	33207
849.841	19658
849.932	4625
850.022	2129
850.112	3774
850.203	2775
850.293	2242
850.383	2610
850.474	2765
850.564	2207
850.654	2072
850.744	1412
850.834	1924
850.924	2218
851.014	3053
851.104	1872
851.194	2571
851.284	2462
851.374	2610
851.464	1816
851.554	2445
851.644	2642
851.734	4059
851.824	4879
851.914	8112
852.004	13737
852.094	19733
852.183	6497
852.273	2240
852.363	2137
852.452	2503
852.542	2194
852.632	2267
852.721	2592
852.811	1458
852.901	2229
852.990	2590
853.080	2891
853.169	2386
853.259	1932
853.348	3041
853.438	3250
853.527	4766
853.617	4963
853.706	8946
853.795	15649
853.885	30175
853.974	57981
854.063	96333
854.152	166726
854.242	100564
854.331	23567
854.420	9119
854.509	5193
854.598	5035
854.687	4084
854.777	4005
854.866	3075
854.955	3017
855.044	1796
855.133	2296
855.222	2927
855.311	1997
855.400	2207
855.488	1759
855.577	2929
855.666	2585
855.755	2848
855.844	2631
855.933	3324
856.021	2343
856.110	1856
856.199	956
856.288	1645
856.376	2040
856.465	1368
856.554	881
856.642	1762
856.731	1653
856.819	2533
856.908	1560
856.996	1802
857.085	860
857.173	1285
857.262	1488
857.350	2224
857.438	1053
857.527	1587
857.615	1771
857.703	2454
857.792	1665
857.880	1584
857.968	1572
858.056	1310
858.145	1825
858.233	1745
858.321	1153
858.409	2129
858.497	1513
858.585	1523
858.673	2102
858.761	1809
858.849	1053
858.937	940
859.025	1836
859.113	2146
859.201	2285
859.289	1753
859.377	1227
859.465	1952
859.552	1876
859.640	1562
859.728	1655
859.816	1754
859.903	1737
859.991	750
860.079	1434
860.166	2012
860.254	1906
860.342	1229
860.429	911
860.517	1199
860.604	1828
860.692	1665
860.779	1381
860.867	1325
860.954	2118
861.042	2110
861.129	2452
861.216	2364
861.304	1158
861.391	1694
861.478	1634
861.565	2104
861.653	1738
861.740	809
861.827	1704
861.914	2244
862.001	937
862.089	1712
862.176	2201
862.263	742
862.350	1660
862.437	854
862.524	1110
862.611	1709
862.698	2185
862.785	1420
862.871	2196
862.958	1906
863.045	2270
863.132	2715
863.219	1351
863.306	645
863.392	1731
863.479	2061
863.566	2037
863.652	1530
863.739	1483
863.826	2083
863.912	2125
863.999	1327
864.086	2158
864.172	1948
864.259	2177
864.345	3020
864.432	2789
864.518	1590
864.604	2182
864.691	1771
864.777	2976
864.863	2944
864.950	3951
865.036	3632
865.122	6824
865.209	7556
865.295	7317
865.381	6517
865.467	6227
865.553	7394
865.639	8457
865.726	11981
865.812	18742
865.898	31349
865.984	46636
866.070	74464
866.156	102399
866.242	45563
866.328	13728
866.414	7724
866.499	6939
866.585	6931
866.671	5935
866.757	5939
866.843	6329
866.928	5177
867.014	4839
867.100	6284
867.186	5840
867.271	5430
867.357	6268
867.442	5474
867.528	5509
867.614	4793
867.699	4971
867.785	5439
867.870	5170
867.956	5433
868.041	4973
868.127	4844
868.212	5143
868.297	4692
868.383	5053
868.468	5160
868.553	5984
868.639	5259
868.724	7209
868.809	8227
868.894	5613
868.979	4698
869.065	5264
869.150	2632
869.235	4427
869.320	4929
869.405	3818
869.490	3712
869.575	4722
869.660	2989
869.745	4672
869.830	5083
869.915	3969
870.000	4013
870.085	3991
870.169	3790
870.254	5284
870.339	3248
870.424	3457
870.509	2749
870.593	5082
870.678	4648
870.763	3717
870.847	2592
870.932	4230
871.016	4358
871.101	3470
871.186	3446
871.270	4743
871.355	3978
871.439	3824
871.523	4012
871.608	4411
871.692	2856
871.777	3861
871.861	4182
871.945	3271
872.030	4976
872.114	4902
872.198	3536
872.282	2968
872.367	3620
872.451	2999
872.535	3662
872.619	3765
872.703	3269
872.787	4111
872.871	3456
872.955	2569
873.039	2397
873.123	3274
873.207	4099
873.291	2867
873.375	2696
873.459	3568
873.543	3299
873.627	2950
873.711	2578
873.794	3998
873.878	3040
873.962	3281
874.045	1996
874.129	2933
874.137	2971
874.213	3349
874.245	3157
874.296	2851
874.352	2889
874.380	2910
874.460	3458
874.464	3480
874.547	2899
874.568	2974
874.631	3212
874.676	3149
874.714	3084
874.784	3226
874.798	3263
874.881	3069
874.892	2948
874.965	2092
874.999	2196
875.048	2340
875.107	3143
875.131	3475
875.215	3353
875.215	3352
875.298	2326
875.323	2423
875.381	2649
875.430	3050
875.465	3382
875.538	3598
875.548	3602
875.631	1552
875.646	1621
875.714	2132
875.753	2121
875.798	2058
875.861	2210
875.881	2269
875.964	2504
875.968	2489
876.047	2168
876.076	2263
876.130	2429
876.183	2742
876.213	2981
876.291	2813
876.296	2788
876.379	2330
876.398	2305
876.462	2184
876.506	2109
876.545	2134
876.613	1647
876.628	1544
876.711	2644
876.721	2597
876.794	2162
876.828	2413
876.877	2708
876.935	2407
876.960	2361
877.043	1571
877.043	1578
877.125	2980
877.150	2878
877.208	2685
877.258	2290
877.291	2066
877.365	1947
877.374	1921
877.456	2293
877.472	2210
877.539	1932
877.579	2149
877.622	2337
877.687	2610
877.704	2709
877.787	2401
877.794	2377
877.869	1900
877.901	2118
877.952	2670
878.008	2108
878.034	1760
878.115	1962
878.117	1965
878.199	1569
878.222	1741
878.282	2289
878.329	2091
878.364	1936
878.437	2589
878.447	2667
878.529	1538
878.544	1637
878.611	2092
878.651	1954
878.694	1972
878.758	1928
878.776	1815
878.858	1906
878.865	1896
878.941	1785
878.972	1556
879.023	1361
879.078	1309
879.105	1325
879.185	2297
879.187	2308
879.269	1997
879.292	2128
879.351	2558
879.399	2423
879.433	2348
879.506	1665
879.516	1560
879.598	1851
879.613	1764
879.680	1479
879.720	1815
879.762	1971
879.827	1254
879.844	1171
879.926	1564
879.933	1570
880.007	1407
880.040	1332
880.089	1202
880.147	1399
880.171	1598
880.253	2561
880.254	2566
880.335	2650
880.360	2782
880.417	3306
880.467	3805
880.499	4079
880.574	5335
880.580	5386
880.662	3510
880.680	3157
880.744	1914
880.787	1474
880.825	1299
880.893	1262
880.907	1242
880.989	1346
881.000	1347
881.070	1342
881.106	1428
881.152	1550
881.213	1221
881.233	1125
881.315	1264
881.319	1288
881.396	1746
881.426	1603
881.478	1270
881.532	1562
881.559	1678
881.639	1254
881.641	1248
881.722	1228
881.745	1285
881.803	1206
881.852	1094
881.885	1084
881.958	1097
881.966	1098
882.047	1520
882.064	1505
882.129	1641
882.171	1764
882.210	1625
882.277	1581
882.291	1649
882.372	1831
882.383	1866
882.454	1820
882.489	1531
882.535	1247
882.596	1586
882.616	1706
882.697	1651
882.702	1643
882.778	1540
882.808	1485
882.859	1007
882.914	946
882.940	1138
883.020	1420
883.021	1420
883.102	1436
883.127	1464
883.183	1259
883.233	1068
883.264	1051
883.339	957
883.345	948
883.426	874
883.445	888
883.507	781
883.551	775
883.587	1215
883.657	1987
883.668	1964
883.749	1691
883.763	1591
883.830	847
883.869	456
883.910	499
883.975	1165
883.991	1308
884.072	1294
884.081	1319
884.152	1107
884.187	1171
884.233	1450
884.292	1268
884.314	1167
884.394	990
884.398	968
884.475	411
884.504	518
884.555	858
884.610	813
884.636	634
884.716	416
884.716	415
884.797	618
884.821	689
884.877	651
884.927	724
884.958	801
885.033	926
885.038	943
885.118	1040
885.139	1099
885.199	771
885.244	601
885.279	786
885.350	1081
885.359	1074
885.439	1459
885.456	1414
885.520	1278
885.561	1232
885.600	977
885.667	707
885.680	809
885.760	1416
885.773	1495
885.840	1385
885.878	1351
885.920	1211
885.984	1010
886.000	973
886.080	908
886.089	872
886.160	556
886.195	552
886.240	895
886.300	1270
886.320	1201
886.400	764
886.406	751
886.480	454
886.511	299
886.560	750
886.616	1204
886.640	1095
886.720	859
886.722	851
886.800	990
886.827	1065
886.879	865
886.932	747
886.959	922
887.038	1223
887.039	1221
887.119	1324
887.143	1274
887.198	687
887.248	282
887.278	466
887.354	879
887.358	866
887.437	590
887.459	565
887.517	855
887.564	1008
887.596	860
887.669	523
887.676	501
887.755	386
887.774	347
887.835	555
887.880	710
887.914	987
887.985	1550
887.994	1497
888.073	1069
888.090	989
888.153	1067
888.195	1002
888.232	806
888.300	672
888.311	771
888.391	1394
888.405	1504
888.470	1545
888.510	1592
888.549	1081
888.615	274
888.628	387
888.708	988
888.720	1094
888.787	1048
888.825	1050
888.866	978
888.930	780
888.945	735
889.024	569
889.035	554
889.103	1113
889.140	1395
889.182	898
889.245	215
889.261	258
889.340	452
889.349	482
889.419	737
889.454	871
889.498	947
889.559	1064
889.577	1126
889.656	1415
889.664	1447
889.735	987
889.768	767
889.814	869
889.873	1009
889.978	812
890.083	282
890.187	60
890.292	162
890.397	-179
890.501	488
890.606	8
890.710	847
890.815	1221
890.919	753
891.024	652
891.128	510
891.233	1111
891.337	460
891.442	644
891.546	-186
891.650	541
891.755	1056
891.859	2230
891.963	1209
892.068	570
892.172	1048
892.276	694
892.380	310
892.484	1208
892.589	682
892.693	936
892.797	580
892.901	919
893.005	776
893.109	934
893.213	1701
893.317	378
893.421	1149
893.525	151
893.629	1286
893.733	1191
893.837	625
893.941	1138
894.045	1280
894.148	1247
894.252	1312
894.356	1667
894.460	436
894.564	948
894.667	-124
894.771	637
894.875	624
894.978	613
895.082	-30
895.186	1136
895.289	924
895.393	529
895.496	1026
895.600	521
895.703	321
895.807	161
895.910	718
896.014	753
896.117	120
896.221	823
896.324	701
896.427	513
896.531	12
896.634	-86
896.737	-215
896.840	1039
896.944	1001
897.047	562
897.150	-148
897.253	512
897.356	1059
897.460	1293
897.563	339
897.666	1132
897.769	414
897.872	-56
897.975	826
898.078	812
898.181	385
898.284	519
898.387	371
898.490	1202
898.593	596
898.695	678
898.798	987
898.901	800
899.004	748
899.107	574
899.209	129
899.312	724
899.415	321
899.518	362
899.620	249
899.723	956
899.826	981
899.928	132
900.031	245
900.133	538
900.236	400
900.338	627
900.441	-233
900.543	-450
900.646	169
900.748	1232
900.851	671
900.953	32
901.055	301
901.158	823
901.260	750
901.362	1004
901.465	621
901.567	1085
901.669	1491
901.771	350
901.873	217
901.976	908
902.078	667
902.180	-38
902.282	553
902.384	778
902.486	436
902.588	493
902.690	843
902.792	833
902.894	1194
902.996	1204
903.098	87
903.200	350
903.302	175
903.404	609
903.505	-8
903.607	280
903.709	598
903.811	292
903.913	497
904.014	114
904.116	236
904.218	-344
904.319	433
904.421	422
904.523	227
904.624	990
904.726	122
904.827	53
904.929	-515
905.030	542
905.132	933
905.233	716
905.335	218
905.436	-237
905.537	-461
905.639	483
905.740	220
905.841	606
905.943	137
906.044	467
906.145	99
906.247	-483
906.348	236
906.449	460
906.550	-491
906.651	35
906.752	199
906.854	542
906.955	272
907.056	-231
907.157	143
907.258	-211
907.359	-498
907.460	-638
907.561	-720
907.662	133
907.762	205
907.863	374
907.964	-41
908.065	1294
908.166	-68
908.267	230
908.367	-351
908.468	-67
908.569	-15
908.670	238
908.770	714
908.871	550
908.971	-103
909.072	466
909.173	-365
909.273	-417
909.374	457
909.474	276
909.575	219
909.675	-116
909.776	-131
909.876	370
909.977	137
910.077	231
910.177	632
910.278	198
910.378	462
910.478	-194
910.579	25
910.679	758
910.779	-195
910.879	758
910.980	275
911.080	372
911.180	-455
911.280	437
911.380	461
911.480	289
911.580	173
911.680	-62
911.780	146
911.880	-188
911.980	-773
912.080	-374
912.180	649
912.280	243
912.380	38
912.480	-120
912.580	-5
912.679	-243
912.779	-237
912.879	831
912.979	77
913.078	-404
913.178	-159
913.278	514
913.377	107
913.477	131
913.577	-207
913.676	713
913.776	50
913.875	350
913.975	321
914.074	-118
914.174	637
914.273	343
914.373	365
914.472	461
914.572	196
914.671	202
914.770	266
914.870	-766
914.969	275
915.068	281
915.167	352
915.267	226
915.366	-142
915.465	812
915.564	195
915.663	913
915.763	119
915.862	529
915.961	369
916.060	174
916.159	-188
916.258	129
916.357	733
916.456	291
916.555	45
916.654	777
916.752	149
916.851	276
916.950	-331
917.049	95
917.148	-651
917.247	398
917.345	-100
917.444	-540
917.543	931
917.642	151
917.740	-295
917.839	468
917.937	297
918.036	423
918.135	-322
918.233	258
918.332	383
918.430	-27
918.529	7
918.627	348
918.726	366
918.824	409
918.923	16
919.021	258
919.119	88
919.218	-331
919.316	-27
919.414	1576
919.512	119
919.611	546
919.709	-341
919.807	552
919.905	1085
920.003	-54
920.102	60
920.200	1131
920.298	-46
920.396	214
920.494	-58
920.592	424
920.690	239
920.788	1004
920.886	133
920.984	475
921.082	-962
921.180	1749
921.277	799
921.375	142
921.473	673
921.571	803
921.669	1036
921.766	678
921.864	743
921.962	1074
922.060	1227
922.157	298
922.255	384
922.352	331
922.450	1082
922.548	917
922.645	-175
922.743	681
922.840	1857
922.938	1689
923.035	1857
923.133	1997
923.230	1482
923.327	1361
923.425	1394
923.522	1779
923.619	1328
923.717	1371
923.814	1462
923.911	1470
924.008	1664
924.106	529
924.203	1645
924.300	1542
924.397	1114
924.494	1309
924.591	1370
924.688	1682
924.786	1400
924.883	2102
924.979	1034
925.077	1863
925.173	1626
925.270	1049
925.367	1183
925.464	2047
925.561	1597
925.658	1524
925.755	1331
925.852	2198
925.948	1551
926.045	1707
926.142	1751
926.239	1894
926.335	1485
926.432	2237
926.529	2087
926.625	827
926.722	1394
926.818	1059
926.915	1479
927.011	1099
927.108	1506
927.204	1028
927.301	988
927.397	1980
927.494	1982
927.590	1510
927.687	1786
927.783	1652
927.879	1588
927.976	1288
928.072	497
928.168	1827
928.264	1407
928.361	974
928.457	924
928.553	999
928.649	801
928.745	1323
928.841	2081
928.937	2121
929.033	1174
929.129	1032
929.225	1207
929.321	640
929.417	1035
929.513	1377
929.609	1240
929.705	1161
929.801	1394
929.897	1361
929.993	1284
930.089	1131
930.184	1447
930.280	1526
930.376	1649
930.471	1456
930.567	1491
930.663	1505
930.758	215
930.854	1194
930.950	540
931.045	1867
931.141	1333
931.236	1690
931.332	1720
931.427	759
931.523	1147
931.618	1369
931.714	1494
931.809	1601
931.905	1445
932.000	1950
932.095	653
932.191	1354
932.286	1346
932.381	1665
932.476	998
932.572	814
932.667	609
932.762	1043
932.857	1243
932.952	882
933.047	453
933.142	1345
933.237	1431
933.332	385
933.427	1329
933.522	1425
933.617	697
933.712	1790
933.807	1383
933.902	1715
933.997	1050
934.092	335
934.187	778
934.282	1764
934.376	614
934.471	1459
934.566	976
934.661	1011
934.755	1784
934.850	1622
934.945	1399
935.039	770
935.134	52
935.228	1435
935.323	1881
935.417	703
935.512	618
935.606	1077
935.701	1052
935.795	1432
935.890	892
935.984	887
936.079	494
936.173	1785
936.267	1109
936.362	1147
936.456	953
936.550	1066
936.644	942
936.738	1816
936.833	1193
936.927	1553
937.021	522
937.115	1161
937.209	462
937.303	1235
937.397	899
937.491	1550
937.585	1367
937.679	857
937.773	525
937.867	1041
937.961	261
938.055	1892
938.149	678
938.243	908
938.337	714
938.430	540
938.524	836
938.618	1456
938.712	97
938.805	1560
938.899	217
938.993	1384
939.086	586
939.180	1189
939.274	535
939.367	1010
939.461	1442
939.554	467
939.648	650
939.741	1097
939.835	-105
939.928	1595
940.022	1204
940.115	302
940.208	645
940.302	896
940.395	1170
940.488	871
940.582	416
940.675	447
940.768	235
940.861	1119
940.954	805
941.048	830
941.141	580
941.234	667
941.327	777
941.420	1261
941.513	1097
941.606	509
941.699	1152
941.792	208
941.885	1042
941.978	1308
942.071	721
942.164	594
942.257	-638
942.349	669
942.442	328
942.535	377
942.628	868
942.721	1302
942.813	298
942.906	966
942.999	656
943.091	396
943.184	683
943.277	549
943.369	523
943.462	1742
943.554	110
943.647	953
943.739	889
943.832	1182
943.924	343
944.017	421
944.109	525
944.201	905
944.294	34
944.386	361
944.478	578
944.571	1212
944.663	149
944.755	1449
944.847	911
944.940	619
945.032	380
945.124	317
945.216	593
945.308	494
945.400	723
945.492	524
945.584	1561
945.676	1869
945.768	-439
945.860	371
945.952	596
946.044	1495
946.136	717
946.228	325
946.320	555
946.412	807
946.503	631
946.595	915
946.687	736
946.779	394
946.870	247
946.962	841
947.054	313
947.145	721
947.237	-12
947.329	1009
947.420	934
947.512	360
947.603	13
947.695	877
947.786	299
947.878	-115
947.969	-51
948.061	473
948.152	412
948.243	688
948.335	250
948.426	-201
948.517	308
948.609	519
948.700	1153
948.791	1370
948.882	22
948.973	358
949.065	699
949.156	671
949.247	81
949.338	1013
949.429	839
949.520	491
949.611	434
949.702	762
949.793	489
949.884	631
949.975	192
950.066	-743
950.157	-545
950.247	344
950.338	-57
950.429	688
950.520	270
950.611	310
950.701	-142
950.792	53
950.883	59
950.973	738
951.064	419
951.155	816
951.245	347
951.336	201
951.427	450
951.517	1093
951.608	507
951.698	330
951.788	364
951.879	416
951.969	-144
952.060	787
952.150	46
952.240	309
952.331	-820
952.421	848
952.511	-96
952.602	-186
952.692	6
952.782	108
952.872	-693
952.962	219
953.052	848
953.143	418
953.233	397
953.323	433
953.413	82
953.503	259
953.593	96
953.683	707
953.773	-537
953.863	-10
953.953	-344
954.042	494
954.132	72
954.222	298
954.312	289
954.402	187
954.492	561
954.581	1131
954.671	-88
954.761	-131
954.850	587
954.940	-438
955.030	-474
955.119	-58
955.209	0
955.298	740
955.388	24
955.477	1193
955.567	-9
955.656	592
955.746	704
955.835	99
955.925	-63
956.014	-166
956.103	32
956.193	847
956.282	1
956.371	952
956.461	-209
956.550	133
956.639	701
956.728	-249
956.817	132
956.906	419
956.995	795
957.085	130
957.174	416
957.263	-45
957.352	58
957.441	-104
957.530	363
957.619	371
957.708	209
957.796	-143
957.885	-131
957.974	-31
958.063	813
958.152	139
958.241	333
958.329	245
958.418	398
958.507	-599
958.596	491
958.684	-189
958.773	187
958.861	191
958.950	-246
959.039	-21
959.127	421
959.216	843
959.304	72
959.393	773
959.481	136
959.570	-274
959.658	-243
959.746	193
959.835	-730
959.923	521
960.011	-66
960.100	585
960.188	558
960.276	39
960.365	469
960.453	753
960.541	-224
960.629	812
960.717	62
960.805	423
960.893	689
960.981	-51
961.069	444
961.158	86
961.245	503
961.333	-601
961.421	129
961.509	85
961.597	268
961.685	822
961.773	-110
961.861	695
961.949	-73
962.036	-174
962.124	455
962.212	656
962.299	118
962.387	-318
962.475	-201
962.562	444
962.650	-599
962.738	486
962.825	-621
962.913	-798
963.000	461
963.088	800
963.175	-556
963.263	54
963.350	-71
963.438	749
963.525	183
963.612	770
963.700	865
963.787	1544
963.874	1093
963.962	593
964.049	-872
964.136	-430
964.223	-18
964.310	596
964.398	-153
964.485	17
964.572	317
964.659	512
964.746	785
964.833	-128
964.920	-1343
965.007	140
965.094	820
965.181	188
965.268	151
965.355	116
965.441	-649
965.528	-12
965.615	576
965.702	220
965.789	389
965.875	-145
965.962	28
966.049	-1382
966.136	21
966.222	-93
966.309	-55
966.395	140
966.482	-83
966.569	928
966.655	-410
966.742	704
966.828	-177
966.915	-98
967.001	-58
967.087	780
967.174	-387
967.260	161
967.347	-507
967.433	660
967.519	590
967.605	172
967.692	339
967.778	-590
967.864	376
967.950	8
968.036	128
968.123	26
968.209	-963
968.295	10
968.381	-10
968.467	-538
968.553	-1048
968.639	880
968.725	-443
968.811	565
968.897	-16
968.983	56
969.069	39
969.154	242
969.240	-315
969.326	188
969.412	-679
969.497	-414
969.583	-509
969.669	-179
969.755	-56
969.840	-194
969.926	110
970.012	171
970.097	1169
970.183	243
970.268	472
970.354	114
970.439	66
970.525	343
970.610	857
970.696	480
970.781	1376
970.866	-418
970.952	338
971.037	-991
971.122	-655
971.208	478
971.293	161
971.378	-880
971.463	-87
971.549	79
971.634	282
971.719	-272
971.804	-101
971.889	258
971.974	-613
972.059	120
972.144	813
972.229	598
972.314	-617
972.399	544
972.484	-657
972.569	-227
972.654	-305
972.739	932
972.824	-494
972.908	-150
972.993	-383
973.078	-633
973.163	-484
973.247	918
973.332	-719
973.417	177
973.501	-576
973.586	342
973.671	28
973.755	-155
973.840	507
973.924	140
974.009	109
974.093	38
974.178	529
974.262	-618
974.346	-433
974.431	-273
974.515	-235
974.600	-64
974.684	125
974.768	-990
974.852	-371
974.937	-142
975.021	180
975.105	156
975.189	-280
975.273	496
975.358	-404
975.442	-958
975.526	549
975.610	-670
975.694	-525
975.778	-123
975.862	110
975.946	-1044
976.030	915
976.114	-698
976.198	-511
976.281	179
976.365	333
976.449	552
976.533	-464
976.617	186
976.700	-967
976.784	262
976.868	-238
976.951	-342
977.035	-306
977.119	-101
977.202	-492
977.286	-195
977.369	-167
977.453	469
977.536	173
977.620	-49
977.703	-198
977.787	-542
977.870	108
977.953	67
978.037	-573
978.120	251
978.203	-275
978.287	590
978.370	-1157
978.453	-752
978.536	-1333
978.620	123
978.703	92
978.786	-426
978.869	-304
978.952	-328
979.035	928
979.118	512
979.201	-30
979.284	-66
979.367	-790
979.450	93
979.533	-121
979.616	-192
979.699	-783
979.782	-50
979.865	-375
979.948	-988
980.030	-884
980.113	-400
980.196	-1052
980.279	-134
980.361	-191
980.444	-667
980.526	370
980.609	-104
980.692	-595
980.774	-179
980.857	-648
980.939	917
981.022	-490
981.104	-449
981.187	-706
981.269	398
981.352	-69
981.434	-437
981.516	-360
981.599	74
981.681	-765
981.763	-706
981.846	-164
981.928	-116
982.010	-58
982.092	-289
982.174	407
982.256	-238
982.339	174
982.421	-52
982.503	-170
982.585	-540
982.667	-8
982.749	317
982.831	-83
982.913	-652
982.995	87
983.077	39
983.158	-358
983.240	-874
983.322	692
983.404	-214
983.486	-412
983.568	-153
983.649	-280
983.731	524
983.813	-952
983.894	838
983.976	-731
984.058	275
984.139	-1071
984.221	-450
984.302	-102
984.384	-751
984.465	-318
984.547	218
984.628	-483
984.710	21
984.791	-730
984.872	-27
984.954	-346
985.035	-24
985.116	3
985.198	21
985.279	392
985.360	-526
985.441	-328
985.522	265
985.604	-357
985.685	-1285
985.766	-123
985.847	292
985.928	-1009
986.009	-506
986.090	-473
986.171	-91
986.252	-480
986.333	357
986.414	-640
986.495	-504
986.576	-448
986.656	233
986.737	-1363
986.818	-69
986.899	-856
986.980	14
987.060	-50
987.141	-236
987.222	-801
987.302	-896
987.383	-211
987.464	-230
987.544	-542
987.625	-324
987.705	-276
987.786	104
987.866	-163
987.947	427
988.027	-290
988.108	-245
988.188	-479
988.268	335
988.349	-285
988.429	-1094
988.509	-741
988.589	-56
988.670	-747
988.750	698
988.830	-103
988.910	-57
988.990	-983
989.070	237
989.151	-335
989.231	-920
989.311	-412
989.391	-250
989.471	228
989.551	-513
989.631	-479
989.711	2
989.791	-154
989.870	-863
989.950	-404
990.030	-1346
990.110	-584
990.190	-248
990.269	-490
990.349	-380
990.429	401
990.509	484
990.588	-375
990.668	127
990.747	-609
990.827	-757
990.907	-592
990.986	-754
991.066	255
991.145	-1158
991.225	-546
991.304	-618
991.383	-183
991.463	-409
991.542	561
991.622	-823
991.701	-746
991.780	173
991.859	-771
991.939	-173
992.018	-938
992.097	347
992.176	-181
992.256	-923
992.335	-901
992.414	403
992.493	-899
992.572	-545
992.651	221
992.730	-24
992.809	-210
992.888	-1655
992.967	-1268
993.046	376
993.125	-821
993.203	-976
993.282	-249
993.361	73
993.440	-559
993.519	-999
993.597	-230
993.676	-344
993.755	-923
993.834	-1303
993.912	-810
993.991	302
994.069	-1296
994.148	-91
994.226	-680
994.305	-895
994.384	-998
994.462	342
994.540	-877
994.619	-729
994.697	-148
994.776	-309
994.854	-676
994.932	-951
995.011	-557
995.089	-991
995.167	-279
995.245	-243
995.324	-1415
995.402	-662
995.480	-340
995.558	-310
995.636	-1064
995.714	-454
995.792	-3
995.870	-350
995.948	-886
996.026	-462
996.104	-1713
996.182	-109
996.260	-1086
996.338	-1176
996.416	-1416
996.494	-777
996.572	307
996.649	-652
996.727	-982
996.805	-1082
996.883	-2066
996.960	-1115
997.038	-586
997.116	-398
997.193	-1253
997.271	-202
997.348	-690
997.426	-735
997.504	-1345
997.581	-925
997.658	-288
997.736	-1464
997.813	-715
997.891	-518
997.968	-1414
998.046	-870
998.123	-1257
998.200	-244
998.277	-1051
998.355	-501
998.432	-1809
998.509	304
998.586	-1018
998.663	-366
998.741	-326
998.818	-529
998.895	-1638
998.972	-543
999.049	-540
999.126	-719
999.203	-651
999.280	-1226
999.357	-905
999.434	-1312
999.511	-672
999.587	-1069
999.664	-1834
999.741	-656
999.818	-1593
999.895	-1113
999.971	-1285
1000.048	-749
1000.125	-753
1000.202	-632
1000.278	-803
1000.355	-1006
1000.431	-982
1000.508	-736
1000.584	-854
1000.661	-780
1000.738	-1089
1000.814	-258
1000.890	194
1000.967	-609
1001.043	-932
1001.120	-1398
1001.196	-1336
1001.272	-1085
1001.349	-72
1001.425	-819
1001.501	-908
1001.577	-650
1001.654	-1053
1001.730	-1245
1001.806	-1212
1001.882	-494
1001.958	-944
1002.034	-74
1002.110	-1004
1002.186	-1288
1002.262	-786
1002.338	-1193
1002.414	-709
1002.490	-427
1002.566	-784
1002.642	-635
1002.718	-1100
1002.794	-1307
1002.870	-1111
1002.945	-1322
1003.021	-988
1003.097	-1178
1003.173	-313
1003.248	-881
1003.324	-770
1003.400	-348
1003.475	-850
1003.551	-568
1003.626	-687
1003.702	-1411
1003.777	-674
1003.853	-425
1003.928	-1002
1004.004	-762
1004.079	-877
1004.155	-856
1004.230	-1295
1004.305	-293
1004.381	-1217
1004.456	-768
1004.531	-1054
1004.607	-555
1004.682	-841
1004.757	100
1004.832	-975
1004.907	-1098
1004.982	-548
1005.057	-772
1005.133	-1319
1005.208	-829
1005.283	-625
1005.358	-214
1005.433	-2498
1005.508	-571
1005.583	-1519
1005.657	-397
1005.732	-788
1005.807	-793
1005.882	-1485
1005.957	-1205
1006.032	-475
1006.106	-506
1006.181	-463
1006.256	-943
1006.331	-1389
1006.405	-1185
1006.480	-1354
1006.554	-1144
1006.629	-2082
1006.704	-1508
1006.778	-1051
1006.853	-880
1006.927	-1369
1007.002	-260
1007.076	-699
1007.150	-1079
1007.225	-1093
1007.299	-760
1007.373	-1625
1007.448	-353
1007.522	-584
1007.596	-332
1007.671	-1034
1007.745	-658
1007.819	-1532
1007.893	-1953
1007.967	-1175
1008.041	-1887
1008.115	-403
1008.190	-1022
1008.264	-651
1008.338	-1759
1008.412	-1461
1008.486	43
1008.560	-849
1008.633	-962
1008.707	-879
1008.781	-1011
1008.855	-1049
1008.929	-1262
1009.003	-1370
1009.076	-1795
1009.150	-1626
1009.224	-1144
1009.298	-777
1009.371	-843
1009.445	-370
1009.519	-1276
1009.592	-2023
1009.666	-574
1009.739	-1666
1009.813	-1494
1009.886	-868
1009.960	-2059
1010.033	-1223
1010.107	-285
1010.180	-1794
1010.253	-680
1010.327	-2082
1010.400	-1355
1010.473	-949
1010.547	22
1010.620	-1445
1010.693	-865
1010.766	-924
1010.840	-539
1010.913	-1458
1010.986	-1242
1011.059	-1070
1011.132	-864
1011.205	-882
1011.278	-805
1011.351	-82
1011.424	-1124
1011.497	-1922
1011.570	-1250
1011.643	-983
1011.716	-494
1011.789	-1085
1011.862	-730
1011.934	-1319
1012.007	-2120
1012.080	-1085
1012.153	-881
1012.225	-964
1012.298	-1707
1012.371	-1308
1012.443	-387
1012.516	-1213
1012.588	-967
1012.661	-985
1012.733	-1341
1012.806	-900
1012.879	-1186
1012.951	-950
1013.023	-997
1013.096	-587
1013.168	-1701
1013.241	-545
1013.313	-609
1013.385	-1579
1013.458	-948
1013.530	-879
1013.602	-1002
1013.674	-1357
1013.746	-1455
1013.819	-1730
1013.891	-1011
1013.963	-1673
1014.035	-1018
1014.107	-578
1014.179	-794
1014.251	-1180
1014.323	-1217
1014.395	-1513
1014.467	-394
1014.539	-81
1014.611	-620
1014.683	-561
1014.754	-568
1014.826	-1672
1014.898	-1529
1014.970	-1498
1015.042	-270
1015.113	-678
1015.185	-1198
1015.257	-1359
1015.328	-627
1015.400	-1540
1015.471	-823
1015.543	-1462
1015.615	-941
1015.686	-1587
1015.757	-1604
1015.829	-1202
1015.901	-1282
1015.972	-1257
1016.043	-775
1016.115	-1324
1016.186	-1464
1016.257	-2003
1016.328	-1146
1016.400	-1620
1016.471	-1553
1016.542	-1128
1016.613	-1511
1016.685	-769
1016.756	-699
1016.827	-1763
1016.898	-2580
1016.969	-540
1017.040	-465
1017.111	-2053
1017.182	-2242
1017.253	-738
1017.324	-1059
1017.395	-1531
1017.466	-848
1017.537	-517
1017.608	-1250
1017.678	-1140
1017.749	-1324
1017.820	-1584
1017.891	-891
1017.961	-934
1018.032	-1343
1018.103	-1308
1018.173	-1248
1018.244	-1710
1018.315	-1808
1018.385	-1430
1018.456	-1510
1018.526	-1385
1018.597	-821
1018.667	-1555
1018.738	-2435
1018.808	-967
1018.878	-1823
1018.949	-1211
1019.019	-899
1019.089	-1346
1019.160	-806
1019.230	-2150
1019.300	-1158
1019.371	-1930
1019.441	-1044
1019.511	-1038
1019.581	-1610
1019.651	-1321
1019.721	-1413
1019.791	-1385
1019.861	-1151
1019.931	-588
1020.001	-981
1020.071	-1287
1020.141	-1534
1020.211	-1295
1020.281	-1261
1020.351	-2020
1020.421	-1451
1020.491	-1336
1020.560	-1811
1020.630	-1261
1020.700	-1364
1020.770	-1609
1020.839	-1115
1020.909	-310
1020.979	-1421
1021.048	-1830
1021.118	-797
1021.187	-1357
1021.257	-1092
1021.326	-1293
1021.396	-2007
1021.465	-2533
1021.535	-745
1021.604	-1266
1021.674	-627
1021.743	-832
1021.812	-1217
1021.882	-850
1021.951	-1067
1022.020	-2265
1022.089	-530
1022.159	-1964
1022.228	-1007
1022.297	-2236
1022.366	-1259
1022.435	-1562
1022.504	-1147
1022.573	-1585
1022.642	-1382
1022.711	-1548
1022.781	-549
1022.849	-1482
1022.918	-1449
1022.987	-741
1023.056	-1195
1023.125	-977
1023.194	-1261
1023.263	-1703
1023.331	-1404
1023.400	-1453
1023.469	-1466
1023.538	-948
1023.606	-1667
1023.675	-2513
1023.744	-765
1023.812	-1878
1023.881	-1464
1023.949	-1109
1024.018	-1386
1024.086	-1504
1024.155	-1561
1024.223	-1365
1024.292	-1571
1024.360	-934
1024.429	-1350
1024.497	-2820
1024.565	-1772
1024.634	-1194
1024.702	-881
1024.770	-1184
1024.838	-2438
1024.907	-1440
1024.975	-1296
1025.043	-856
1025.111	-1797
1025.179	-1481
1025.247	-820
1025.315	-1423
1025.383	-1592
1025.451	-1100
1025.519	-1815
1025.587	-2064
1025.655	-1061
1025.723	-1037
1025.791	-1270
1025.859	-1589
1025.927	-1318
1025.995	-1653
1026.062	-1527
1026.130	-1446
1026.198	-2034
1026.266	-1546
1026.333	-727
1026.401	-1305
1026.469	-2187
1026.536	-2172
1026.604	-1392
1026.671	-1925
1026.739	-1769
1026.806	-1334
1026.874	-644
1026.941	-1216
1027.009	-1285
1027.076	-1870
1027.144	-1144
1027.211	-1470
1027.278	-2039
1027.345	-1682
1027.413	-1268
1027.480	-1871
1027.547	-1561
1027.614	-1664
1027.682	-1650
1027.749	-2169
1027.816	-1604
1027.883	-1425
1027.950	-1558
1028.017	-2565
1028.084	-898
1028.151	-1480
1028.218	-2038
1028.285	-882
1028.352	-1276
1028.419	-1739
1028.486	-2074
1028.553	-1888
1028.619	-1685
1028.686	-1591
1028.753	-1554
1028.820	-2084
1028.886	-1817
1028.953	-1836
1029.020	-1008
1029.086	-1724
1029.153	-1018
1029.220	-1706
1029.286	-789
1029.353	-1237
1029.419	-1102
1029.486	-1599
1029.552	-1672
1029.619	-1746
1029.685	-976
1029.751	-2186
1029.818	-697
1029.884	-1839
1029.951	-737
1030.017	-1930
1030.083	-749
1030.149	-2211
1030.216	-1565
1030.282	-1187
1030.348	-1329
1030.414	-1216
1030.480	-1039
1030.546	-1473
1030.612	-1397
1030.678	-1636
1030.744	-1304
1030.810	-1415
1030.876	-759
1030.942	-1684
1031.008	-1656
1031.074	-1584
1031.140	-762
1031.206	-952
1031.272	-1050
1031.337	-1313
1031.403	-1526
1031.469	-2285
1031.534	-1235
1031.600	-2020
1031.666	-1852
1031.731	-1978
1031.797	-1543
1031.863	-1987
1031.928	-1639
1031.994	-1582
1032.059	-1578
1032.125	-2087
1032.190	-1244
1032.256	-2292
1032.321	-1536
1032.386	-1282
1032.452	-852
1032.517	-1003
1032.582	-1435
1032.647	-1524
1032.713	-1563
1032.778	-1763
1032.843	-1301
1032.908	-1585
1032.974	-1375
1033.039	-1852
1033.104	-1366
1033.169	-483
1033.234	-1404
1033.299	-739
1033.364	-1186
1033.429	-1539
1033.494	-1174
1033.559	-776
1033.624	-877
1033.688	-1332
1033.753	-782
1033.818	-912
1033.883	-1305
1033.948	-2041
1034.013	-806
1034.077	-1118
1034.142	-83
1034.207	-1142
1034.271	-730
1034.336	-372
1034.400	-1327
1034.465	-1267
1034.530	-1038
1034.594	-1440
1034.658	-1117
1034.723	-2441
1034.787	-1280
1034.852	-1261
1034.916	-1326
1034.981	-1850
1035.045	-1211
1035.109	-2190
1035.173	-1463
1035.238	-2837
1035.302	-844
1035.366	-1775
1035.430	-1427
1035.495	-2023
1035.559	-893
1035.623	-1460
1035.687	-1981
1035.751	-1463
1035.815	-1246
1035.879	-1501
1035.943	-1137
1036.007	-1715
1036.071	-1279
1036.135	-1639
1036.198	-1065
1036.262	-2558
1036.326	-1822
1036.390	-1796
1036.454	-1943
1036.517	-1614
1036.581	-1020
1036.645	-1504
1036.709	-1329
1036.772	-1788
1036.836	-981
1036.900	-1055
1036.963	-1527
1037.026	-883
1037.090	-1183
1037.154	-1524
1037.217	-433
1037.280	-1358
1037.344	-1075
1037.407	-1553
1037.471	-1021
1037.534	-1636
1037.597	-1815
1037.661	-2075
1037.724	-1974
1037.787	-2415
1037.850	-1036
1037.913	-1112
1037.977	-409
1038.040	-1691
1038.103	-1172
1038.166	-1080
1038.229	-2052
1038.292	-1464
1038.355	-1472
1038.418	-1754
1038.481	-859
1038.544	-1505
1038.607	-1481
1038.670	-1009
1038.732	-1582
1038.795	-1742
1038.858	-1252
1038.921	-1553
1038.984	-1533
1039.046	-2164
1039.109	-1647
1039.172	-1492
1039.234	-1266
1039.297	-1272
1039.360	-1063
1039.422	-1605
1039.485	-717
1039.547	-1641
1039.610	-1536
1039.672	-1016
1039.734	-1599
1039.797	-2264
1039.859	-1022
1039.922	-1859
1039.984	-1112
1040.046	-1438
1040.109	-1512
1040.171	-1533
1040.233	-1510
1040.295	-1553
1040.358	-1166
1040.420	-1782
1040.482	-887
1040.544	-1791
1040.606	-1145
1040.668	-1183
1040.730	-1780
1040.792	-1855
1040.854	-1722
1040.916	-2006
1040.978	-1714
1041.040	-1231
1041.102	-1247
1041.164	-1398
1041.225	-1749
1041.287	-1562
1041.349	-1985
1041.411	-1986
1041.472	-768
1041.534	-1109
1041.596	-1501
1041.657	-2235
1041.719	-1104
1041.781	-1460
1041.842	-1885
1041.904	-1425
1041.965	-934
1042.027	-864
1042.088	-972
1042.150	-1366
1042.211	-1510
1042.272	-1772
1042.334	-1498
1042.395	-1483
1042.456	-1212
1042.518	-1934
1042.579	-537
1042.640	-1645
1042.701	-1770
1042.763	-1801
1042.824	-1243
1042.885	-1886
1042.946	-1876
1043.007	-1671
1043.068	-1972
1043.129	-2091
1043.190	-1659
1043.251	-961
1043.312	-1459
1043.373	-345
1043.434	-944
1043.495	-1506
1043.556	-1469
1043.616	-1170
1043.677	-1435
1043.738	-1285
1043.799	-1337
1043.859	-1362
1043.920	-1937
1043.981	-1143
1044.041	-587
1044.102	-1062
1044.162	-1049
1044.223	-1252
1044.284	-1272
1044.344	-2338
1044.405	-1841
1044.465	-1555
1044.525	-1319
1044.586	-1147
1044.646	-1287
1044.707	-1374
1044.767	-1432
1044.827	-1615
1044.887	-1601
1044.948	-910
1045.008	-952
1045.068	-752
1045.128	-1104
1045.188	-1033
1045.249	-1397
1045.309	-1846
1045.369	-726
1045.429	-1993
1045.489	-1303
1045.549	-661
1045.609	-1107
1045.669	-1625
1045.729	-1682
1045.789	-1207
1045.848	-798
1045.908	-1082
1045.968	-1651
1046.028	-1021
1046.088	-1676
1046.147	-1174
1046.207	-954
1046.267	-1238
1046.326	-1552
1046.386	-1579
1046.446	-895
1046.505	-681
1046.565	-836
1046.624	316
1046.684	22
1046.743	-52
1046.803	-274
1046.862	-183
1046.922	0
