'Start Wavelength	183.907
'End Wavelength	1046.922
'Gate Delay	5.000
'Gate Width (ms)	1.050
'Laser Output Level	0.000
'X Position	0.000
'Y Position	0.000
'Z Position	0.000
'Grid Point Number	1.000
'Shot Number	100.000
183.907	638.000
183.977	-807.000
184.047	-69
184.116	682
184.186	445
184.256	65
184.325	165
184.395	-212
184.465	1225
184.534	63
184.604	-1132
184.674	417
184.743	316
184.813	-178
184.883	-25
184.952	174
185.022	101
185.092	292
185.161	296
185.231	-420
185.301	-36
185.370	619
185.440	467
185.509	-817
185.579	817
185.649	573
185.718	418
185.788	347
185.857	-97
185.927	-620
185.996	234
186.066	-85
186.136	-476
186.205	351
186.275	911
186.344	-459
186.414	-454
186.483	-33
186.553	277
186.622	-232
186.692	598
186.761	522
186.831	104
186.900	-482
186.970	-263
187.039	-56
187.109	462
187.178	617
187.248	9
187.317	-631
187.387	280
187.456	421
187.526	493
187.595	543
187.664	40
187.734	-36
187.803	-248
187.873	2
187.942	325
188.012	337
188.081	26
188.150	821
188.220	319
188.289	356
188.358	130
188.428	283
188.497	-515
188.567	-403
188.636	-712
188.705	-583
188.775	175
188.844	-1352
188.913	63
188.983	143
189.052	-38
189.121	-342
189.191	-685
189.260	944
189.329	175
189.399	73
189.468	-245
189.537	20
189.606	-258
189.676	101
189.745	452
189.814	671
189.883	-39
189.953	-147
190.022	275
190.091	238
190.161	95
190.230	-255
190.299	530
190.368	43
190.437	-260
190.507	-605
190.576	18
190.645	276
190.714	-734
190.783	-247
190.853	103
190.922	627
190.991	129
191.060	-486
191.129	-791
191.198	251
191.268	220
191.337	272
191.406	826
191.475	-230
191.544	-132
191.613	-244
191.682	-530
191.752	219
191.821	436
191.890	717
191.959	351
192.028	720
192.097	-483
192.166	-101
192.235	59
192.304	624
192.373	-91
192.442	-126
192.511	-280
192.580	772
192.650	246
192.719	-1
192.788	788
192.857	288
192.926	-315
192.995	139
193.064	-2
193.133	305
193.202	-98
193.271	220
193.340	-152
193.409	-236
193.478	716
193.547	749
193.615	-170
193.684	-153
193.753	323
193.822	1184
193.891	194
193.960	608
194.029	664
194.098	436
194.167	318
194.236	1594
194.305	208
194.374	-411
194.443	328
194.512	424
194.580	224
194.649	373
194.718	-127
194.787	-309
194.856	-181
194.925	861
194.994	-420
195.062	958
195.131	428
195.200	938
195.269	428
195.338	135
195.407	321
195.475	288
195.544	-118
195.613	-295
195.682	-116
195.751	153
195.819	-334
195.888	660
195.957	930
196.026	-391
196.094	107
196.163	866
196.232	413
196.301	344
196.369	122
196.438	111
196.507	295
196.576	82
196.644	-343
196.713	311
196.782	460
196.850	222
196.919	-355
196.988	585
197.056	-411
197.125	373
197.194	106
197.262	426
197.331	-129
197.400	-43
197.468	465
197.537	230
197.606	115
197.674	749
197.743	582
197.812	-594
197.880	548
197.949	-1
198.017	249
198.086	95
198.155	136
198.223	83
198.292	810
198.360	246
198.429	-162
198.497	334
198.566	183
198.635	169
198.703	611
198.772	402
198.840	580
198.909	352
198.977	17
199.046	-246
199.114	-4
199.183	-15
199.251	-120
199.320	-850
199.388	143
199.457	-186
199.525	1
199.594	170
199.662	-49
199.731	249
199.799	799
199.867	1033
199.936	-347
200.004	599
200.073	611
200.141	-300
200.210	-481
200.278	6
200.346	325
200.415	602
200.483	379
200.552	-13
200.620	450
200.688	-361
200.757	346
200.825	-617
200.893	-102
200.962	93
201.030	251
201.098	84
201.167	587
201.235	363
201.303	-425
201.372	-267
201.440	912
201.508	49
201.577	-30
201.645	-314
201.713	558
201.781	268
201.850	231
201.918	664
201.986	-223
202.055	393
202.123	-146
202.191	221
202.259	273
202.327	190
202.396	111
202.464	-198
202.532	526
202.600	873
202.669	-66
202.737	-243
202.805	11
202.873	583
202.941	17
203.009	863
203.078	415
203.146	313
203.214	165
203.282	-87
203.350	185
203.418	-177
203.487	173
203.555	-345
203.623	90
203.691	-129
203.759	-164
203.827	-393
203.895	-280
203.963	-426
204.031	-286
204.099	-67
204.168	-22
204.236	728
204.304	-132
204.372	-598
204.440	72
204.508	-47
204.576	-528
204.644	-245
204.712	18
204.780	41
204.848	94
204.916	-105
204.984	16
205.052	-341
205.120	979
205.188	239
205.256	-125
205.324	378
205.392	223
205.460	815
205.528	325
205.596	78
205.664	442
205.732	575
205.799	561
205.867	475
205.935	-194
206.003	434
206.071	340
206.139	136
206.207	55
206.275	880
206.343	61
206.411	-214
206.478	-93
206.546	128
206.614	250
206.682	-54
206.750	232
206.818	-426
206.885	124
206.953	-499
207.021	577
207.089	732
207.157	197
207.225	653
207.292	-19
207.360	-144
207.428	221
207.496	164
207.563	349
207.631	455
207.699	317
207.767	45
207.834	65
207.902	468
207.970	351
208.038	124
208.105	280
208.173	-10
208.241	142
208.309	975
208.376	-122
208.444	34
208.512	-361
208.579	-121
208.647	-306
208.715	661
208.782	185
208.850	184
208.918	-238
208.985	46
209.053	321
209.120	213
209.188	21
209.256	-95
209.323	-522
209.391	106
209.459	642
209.526	200
209.594	86
209.661	542
209.729	-220
209.796	354
209.864	432
209.932	-935
209.999	852
210.067	-14
210.134	722
210.202	445
210.269	376
210.337	359
210.404	527
210.472	840
210.539	473
210.607	-212
210.674	451
210.742	983
210.809	397
210.877	-20
210.944	1375
211.012	-1133
211.079	1084
211.146	115
211.214	540
211.281	-525
211.349	314
211.416	116
211.484	574
211.551	-241
211.618	795
211.686	442
211.753	140
211.821	646
211.888	28
211.955	207
212.023	944
212.090	492
212.157	133
212.225	745
212.292	1205
212.359	1102
212.427	3750
212.494	847
212.561	860
212.629	515
212.696	385
212.763	536
212.831	-369
212.898	1151
212.965	771
213.032	1506
213.100	-173
213.167	-11
213.234	901
213.301	888
213.369	170
213.436	-262
213.503	-272
213.570	383
213.638	-184
213.705	-202
213.772	-245
213.839	202
213.906	859
213.973	317
214.041	-100
214.108	-2
214.175	-290
214.242	87
214.309	674
214.376	-475
214.444	-669
214.511	432
214.578	700
214.645	815
214.712	707
214.779	914
214.846	-173
214.913	1156
214.980	842
215.048	-144
215.115	1244
215.182	-439
215.249	-16
215.316	273
215.383	367
215.450	441
215.517	-148
215.584	144
215.651	137
215.718	200
215.785	638
215.852	154
215.919	944
215.986	915
216.053	105
216.120	347
216.187	793
216.254	379
216.321	252
216.388	94
216.455	210
216.522	-266
216.589	-52
216.656	1102
216.722	830
216.789	346
216.856	480
216.923	502
216.990	477
217.057	590
217.124	276
217.191	421
217.258	1232
217.324	872
217.391	982
217.458	780
217.525	689
217.592	610
217.659	-394
217.725	907
217.792	71
217.859	706
217.926	395
217.993	455
218.059	402
218.126	467
218.193	-50
218.260	-191
218.327	-422
218.393	709
218.460	423
218.527	-77
218.594	736
218.660	767
218.727	542
218.794	-321
218.860	281
218.927	101
218.994	-87
219.061	-371
219.127	372
219.194	433
219.261	355
219.327	31
219.394	574
219.461	-255
219.527	400
219.594	83
219.661	-161
219.727	-1056
219.794	697
219.860	-498
219.927	864
219.994	1404
220.060	833
220.127	537
220.193	701
220.260	356
220.326	400
220.393	1680
220.460	1672
220.526	1399
220.593	899
220.659	2107
220.726	900
220.792	2082
220.859	1545
220.925	2693
220.992	3899
221.058	3544
221.125	3434
221.191	1503
221.258	318
221.324	424
221.391	138
221.457	198
221.524	521
221.590	792
221.657	3333
221.723	1724
221.789	1269
221.856	1162
221.922	-328
221.989	826
222.055	325
222.121	-214
222.188	1465
222.254	726
222.321	98
222.387	58
222.453	-463
222.520	924
222.586	-109
222.652	-5
222.719	-518
222.785	707
222.851	-287
222.918	473
222.984	3
223.050	-77
223.116	-991
223.183	920
223.249	-379
223.315	-266
223.382	328
223.448	110
223.514	19
223.580	-319
223.647	-171
223.713	-28
223.779	-82
223.845	176
223.911	197
223.978	127
224.044	33
224.110	-953
224.176	506
224.242	153
224.309	-706
224.375	354
224.441	62
224.507	-373
224.573	-1116
224.639	708
224.705	-422
224.772	-182
224.838	-692
224.904	434
224.970	495
225.036	46
225.102	-587
225.168	608
225.234	617
225.300	-844
225.366	-319
225.432	1066
225.499	-143
225.565	-581
225.631	81
225.697	943
225.763	785
225.829	503
225.895	1035
225.961	776
226.027	1442
226.093	563
226.159	1007
226.225	1073
226.291	3188
226.357	6967
226.423	2681
226.489	1753
226.554	753
226.620	1158
226.686	1107
226.752	1700
226.818	2827
226.884	6702
226.950	5147
227.016	2107
227.082	1403
227.148	2137
227.214	522
227.279	831
227.345	392
227.411	142
227.477	351
227.543	387
227.609	163
227.674	706
227.740	-47
227.806	905
227.872	-430
227.938	-28
228.003	260
228.069	-26
228.135	16
228.201	-50
228.267	-619
228.332	66
228.398	-601
228.464	399
228.530	-145
228.595	145
228.661	-689
228.727	313
228.792	1167
228.858	289
228.924	-910
228.990	1616
229.055	-767
229.121	336
229.187	-634
229.252	153
229.318	-430
229.384	748
229.449	-147
229.515	-805
229.581	-936
229.646	863
229.712	-581
229.777	829
229.843	35
229.909	429
229.974	713
230.040	497
230.105	376
230.171	-401
230.236	348
230.302	647
230.368	211
230.433	-444
230.499	198
230.564	1233
230.630	-146
230.695	-901
230.761	736
230.826	-445
230.892	1536
230.957	-268
231.023	-240
231.088	-113
231.154	122
231.219	964
231.284	-32
231.350	1029
231.415	-474
231.481	175
231.546	69
231.612	699
231.677	-453
231.742	-60
231.808	1444
231.873	-87
231.939	-929
232.004	937
232.069	568
232.135	-34
232.200	53
232.265	538
232.331	-581
232.396	393
232.461	-189
232.527	-198
232.592	-712
232.657	539
232.723	705
232.788	18
232.853	106
232.918	406
232.984	-308
233.049	-250
233.114	-936
233.179	730
233.245	689
233.310	1065
233.375	-73
233.440	270
233.506	-953
233.571	42
233.636	-56
233.701	-137
233.766	473
233.832	501
233.897	585
233.962	-836
234.027	1393
234.092	211
234.157	-21
234.222	-305
234.288	153
234.353	2480
234.418	2322
234.483	1149
234.548	496
234.613	325
234.678	221
234.743	456
234.808	3051
234.873	-48
234.938	122
235.004	514
235.069	-632
235.134	-311
235.199	555
235.264	480
235.329	-692
235.394	224
235.459	990
235.524	-311
235.589	525
235.654	391
235.719	-1556
235.784	584
235.849	-73
235.913	315
235.978	684
236.043	1284
236.108	80
236.173	5
236.238	1152
236.303	182
236.368	-410
236.433	1110
236.498	1110
236.563	592
236.627	2125
236.692	9313
236.757	7407
236.822	2366
236.887	624
236.952	1766
237.017	39
237.081	1352
237.146	977
237.211	3574
237.276	8546
237.341	14400
237.405	5444
237.470	2124
237.535	967
237.600	398
237.664	1142
237.729	-223
237.794	717
237.859	2623
237.923	652
237.988	599
238.053	479
238.118	634
238.182	4997
238.247	3804
238.312	17
238.376	476
238.441	-955
238.506	1149
238.570	-647
238.635	2012
238.700	476
238.764	-496
238.829	908
238.893	1315
238.958	1437
239.023	723
239.087	304
239.152	731
239.216	-309
239.281	96
239.346	601
239.410	-175
239.475	-244
239.539	3751
239.604	2282
239.668	2030
239.733	-65
239.797	682
239.862	675
239.926	1641
239.991	531
240.055	826
240.120	53
240.184	-60
240.249	-684
240.313	-268
240.378	-383
240.442	1970
240.507	3393
240.571	911
240.635	830
240.700	593
240.764	106
240.829	399
240.893	-704
240.957	49
241.022	1231
241.086	3293
241.151	-88
241.215	-665
241.279	141
241.344	259
241.408	489
241.472	-372
241.537	1578
241.601	444
241.665	-868
241.730	4
241.794	1459
241.858	-593
241.922	-475
241.987	499
242.051	-230
242.115	-433
242.179	401
242.244	186
242.308	1065
242.372	278
242.436	-558
242.501	202
242.565	-251
242.629	-59
242.693	854
242.757	-380
242.822	24
242.886	416
242.950	449
243.014	-376
243.078	-116
243.142	575
243.206	-421
243.271	1142
243.335	-299
243.399	909
243.463	3329
243.527	11113
243.591	2230
243.655	115
243.719	238
243.783	944
243.847	1054
243.911	1156
243.975	1365
244.040	-790
244.104	738
244.168	752
244.232	-105
244.296	623
244.360	1543
244.424	123
244.488	108
244.552	817
244.615	-747
244.679	197
244.743	52
244.807	-345
244.871	209
244.935	887
244.999	-1331
245.063	-235
245.127	455
245.191	803
245.255	631
245.319	767
245.383	-509
245.446	1429
245.510	-340
245.574	50
245.638	107
245.702	-578
245.766	1031
245.829	1081
245.893	-1237
245.957	-923
246.021	1146
246.085	62
246.149	211
246.212	3147
246.276	3456
246.340	536
246.404	-74
246.467	1099
246.531	-366
246.595	919
246.659	1398
246.722	113
246.786	614
246.850	595
246.913	1137
246.977	-588
247.041	252
247.104	599
247.168	517
247.232	2091
247.295	4537
247.359	2321
247.423	237
247.486	1420
247.550	1006
247.614	166
247.677	536
247.741	-274
247.804	465
247.868	440
247.932	1160
247.995	5370
248.059	883
248.122	-220
248.186	1095
248.249	2056
248.313	8950
248.376	9357
248.440	4259
248.503	37
248.567	1873
248.630	844
248.694	2290
248.757	4279
248.821	11186
248.884	5648
248.948	3189
249.011	6268
249.075	11866
249.138	8865
249.202	2753
249.265	291
249.328	1598
249.392	708
249.455	1663
249.519	725
249.582	935
249.645	1838
249.709	1338
249.772	909
249.835	767
249.899	602
249.962	1158
250.025	108
250.089	2801
250.152	4397
250.215	1836
250.279	1211
250.342	1434
250.405	1311
250.468	506
250.532	1193
250.595	3525
250.658	11446
250.721	20671
250.785	5630
250.848	3044
250.911	1028
250.974	1493
251.038	1822
251.101	5275
251.164	2001
251.227	2015
251.290	1739
251.354	3219
251.417	18670
251.480	15663
251.543	9684
251.606	36698
251.669	21971
251.732	7481
251.795	7060
251.859	7413
251.922	20004
251.985	9132
252.048	3769
252.111	1660
252.174	1872
252.237	4530
252.300	11644
252.363	10639
252.426	27799
252.489	8439
252.552	3309
252.615	1995
252.678	3381
252.741	7822
252.804	10084
252.867	26552
252.930	13254
252.993	6560
253.056	3619
253.119	1489
253.182	1623
253.245	3098
253.308	3508
253.371	1196
253.434	1653
253.497	1700
253.559	4203
253.622	1845
253.685	2511
253.748	1931
253.811	962
253.874	1965
253.937	671
254.000	814
254.062	2889
254.125	4279
254.188	4114
254.251	2015
254.314	155
254.376	1874
254.439	2420
254.502	1675
254.565	2216
254.628	5975
254.690	1746
254.753	627
254.816	874
254.878	714
254.941	2856
255.004	2958
255.067	1156
255.129	-436
255.192	112
255.255	-940
255.317	515
255.380	-340
255.443	-5
255.505	-878
255.568	-415
255.631	-190
255.693	723
255.756	-882
255.819	346
255.881	-234
255.944	47
256.006	-253
256.069	-614
256.132	-185
256.194	192
256.257	1804
256.319	244
256.382	514
256.444	1051
256.507	382
256.569	175
256.632	296
256.694	500
256.757	4688
256.819	14396
256.882	3371
256.944	2046
257.007	1201
257.069	504
257.132	31
257.194	1011
257.257	-19
257.319	-820
257.381	-259
257.444	4141
257.506	16024
257.569	17022
257.631	6310
257.693	2972
257.756	1026
257.818	510
257.880	-184
257.943	452
258.005	-283
258.067	85
258.130	7
258.192	527
258.254	1003
258.317	417
258.379	63
258.441	1790
258.503	2545
258.566	2619
258.628	4377
258.690	-324
258.753	1542
258.815	1463
258.877	-44
258.939	818
259.001	463
259.064	59
259.126	-454
259.188	539
259.250	628
259.312	713
259.375	2109
259.437	1080
259.499	503
259.561	-59
259.623	180
259.685	-111
259.747	138
259.809	3306
259.872	5256
259.934	11631
259.996	8321
260.058	1294
260.120	-211
260.182	-263
260.244	98
260.306	-189
260.368	162
260.430	-878
260.492	1228
260.554	2497
260.616	1031
260.678	3604
260.740	4990
260.802	403
260.864	102
260.926	75
260.988	1230
261.050	-151
261.112	1725
261.174	7679
261.236	3561
261.298	590
261.359	1975
261.421	3357
261.483	-354
261.545	833
261.607	-1710
261.669	295
261.731	1161
261.793	2091
261.854	-141
261.916	830
261.978	-39
262.040	65
262.102	-335
262.164	39
262.225	-130
262.287	256
262.349	751
262.411	592
262.472	780
262.534	178
262.596	2528
262.658	686
262.719	-26
262.781	745
262.843	1482
262.904	1381
262.966	493
263.028	956
263.090	5606
263.151	15994
263.213	3464
263.275	1746
263.336	234
263.398	691
263.459	-591
263.521	-749
263.583	1319
263.644	398
263.706	-582
263.767	-913
263.829	-180
263.891	-846
263.952	-396
264.014	89
264.075	324
264.137	1340
264.198	726
264.260	-838
264.321	404
264.383	351
264.444	3179
264.506	-226
264.567	140
264.629	1271
264.690	1482
264.752	458
264.813	-457
264.875	-164
264.936	422
264.998	-362
265.059	-235
265.120	95
265.182	-102
265.243	7063
265.305	5477
265.366	710
265.427	-30
265.489	713
265.550	-1329
265.611	153
265.673	-1104
265.734	-320
265.795	-151
265.857	-399
265.918	-1323
265.979	1535
266.040	12168
266.102	8873
266.163	1410
266.224	127
266.286	-36
266.347	-414
266.408	-179
266.469	90
266.530	-670
266.592	-219
266.653	614
266.714	251
266.775	-153
266.836	-407
266.898	-1241
266.959	-72
267.020	-17
267.081	520
267.142	-726
267.203	-1042
267.264	-1129
267.326	-367
267.387	-971
267.448	-1451
267.509	-69
267.570	-202
267.631	-717
267.692	-1225
267.753	122
267.814	-1125
267.875	-58
267.936	1621
267.997	462
268.058	-44
268.119	-274
268.180	-732
268.241	-1370
268.302	310
268.363	-570
268.424	-238
268.485	-498
268.546	-956
268.607	-1083
268.668	-548
268.729	-1077
268.790	-479
268.851	34
268.912	976
268.972	1120
269.033	-29
269.094	-1512
269.155	-21
269.216	-405
269.277	-512
269.338	-57
269.398	-313
269.459	-535
269.520	-425
269.581	-274
269.642	589
269.702	-568
269.763	595
269.824	68
269.885	139
269.945	893
270.006	77
270.067	-1117
270.128	-763
270.188	-518
270.249	-1144
270.310	-743
270.370	-430
270.431	-784
270.492	-1192
270.553	-612
270.613	-125
270.674	2490
270.734	-171
270.795	-375
270.856	-725
270.916	-583
270.977	-509
271.038	627
271.098	-516
271.159	-39
271.219	88
271.280	48
271.340	-552
271.401	-912
271.462	1157
271.522	-453
271.583	-256
271.643	-620
271.704	-547
271.764	-98
271.825	1652
271.885	8110
271.946	10940
272.006	1842
272.066	4902
272.127	7580
272.187	1664
272.248	-48
272.308	633
272.369	5936
272.429	2196
272.489	1104
272.550	668
272.610	918
272.671	-162
272.731	776
272.791	276
272.852	-303
272.912	65
272.972	-149
273.033	3
273.093	-210
273.153	873
273.214	55
273.274	-83
273.334	2766
273.394	7015
273.455	1852
273.515	997
273.575	5632
273.635	1510
273.696	2140
273.756	7161
273.816	1113
273.876	543
273.936	2590
273.997	4109
274.057	190
274.117	499
274.177	537
274.237	8960
274.297	8623
274.358	3559
274.418	5345
274.478	3057
274.538	964
274.598	814
274.658	3401
274.718	4271
274.778	1031
274.838	-346
274.898	2169
274.958	6603
275.018	6315
275.078	3826
275.138	509
275.198	848
275.258	-709
275.318	1001
275.378	215
275.438	1108
275.498	528
275.558	3593
275.618	5936
275.678	4535
275.738	1469
275.798	1053
275.858	-223
275.918	-276
275.978	-216
276.038	-34
276.098	651
276.157	328
276.217	3146
276.277	807
276.337	-197
276.397	-244
276.457	-760
276.517	-190
276.576	-331
276.636	-433
276.696	-171
276.756	2004
276.815	829
276.875	-897
276.935	-724
276.995	62
277.055	278
277.114	-568
277.174	-290
277.234	3902
277.293	633
277.353	-392
277.413	-611
277.472	-727
277.532	-328
277.592	-567
277.651	1281
277.711	3031
277.771	459
277.830	4214
277.890	3005
277.950	1770
278.009	9329
278.069	2556
278.128	2224
278.188	2511
278.248	412
278.307	2890
278.367	1719
278.426	-225
278.486	-298
278.545	-789
278.605	253
278.664	-1131
278.724	-263
278.783	1511
278.843	8230
278.902	1085
278.962	592
279.021	216
279.081	506
279.140	168
279.199	-500
279.259	-232
279.318	1063
279.378	1084
279.437	2570
279.496	13199
279.556	43340
279.615	23553
279.675	4574
279.734	2452
279.793	3820
279.853	8775
279.912	3072
279.971	1288
280.031	1048
280.090	3583
280.149	6723
280.208	4291
280.268	27593
280.327	21269
280.386	2911
280.445	2777
280.505	1844
280.564	1049
280.623	145
280.682	911
280.742	2684
280.801	9
280.860	-434
280.919	2
280.978	-73
281.037	-1265
281.097	-501
281.156	-340
281.215	-962
281.274	-289
281.333	4713
281.392	3208
281.451	-407
281.510	-574
281.569	-1152
281.628	-1093
281.688	-316
281.747	795
281.806	31
281.865	-9
281.924	-1204
281.983	-1154
282.042	-821
282.101	-535
282.160	-889
282.219	-1107
282.278	-648
282.337	300
282.396	233
282.454	-64
282.513	-695
282.572	2833
282.631	775
282.690	-521
282.749	-940
282.808	-120
282.867	-1054
282.926	-205
282.985	-1180
283.043	-590
283.102	-1054
283.161	-372
283.220	695
283.279	3682
283.338	1168
283.396	-658
283.455	-499
283.514	-855
283.573	389
283.631	-812
283.690	-854
283.749	-759
283.808	363
283.866	-415
283.925	-1177
283.984	-145
284.043	-553
284.101	46
284.160	-943
284.219	304
284.277	194
284.336	377
284.395	4229
284.453	3175
284.512	-215
284.570	-195
284.629	290
284.688	-684
284.746	-985
284.805	-668
284.863	303
284.922	1554
284.981	911
285.039	2611
285.098	4885
285.156	16380
285.215	53496
285.273	47449
285.332	17088
285.390	7356
285.449	3436
285.507	2096
285.566	1094
285.624	1245
285.683	625
285.741	-6
285.799	360
285.858	-423
285.916	-199
285.975	-666
286.033	-674
286.091	-735
286.150	-967
286.208	-652
286.267	-775
286.325	-477
286.383	321
286.442	-606
286.500	-1235
286.558	-1027
286.616	-1734
286.675	-69
286.733	-323
286.791	-663
286.850	-618
286.908	-340
286.966	383
287.024	-565
287.083	-505
287.141	-1299
287.199	-1211
287.257	357
287.315	-411
287.374	-1133
287.432	1269
287.490	651
287.548	134
287.606	-245
287.664	-351
287.723	-266
287.781	-46
287.839	-193
287.897	-620
287.955	387
288.013	1138
288.071	3660
288.129	22405
288.187	65082
288.245	23624
288.303	6002
288.361	2773
288.419	1129
288.477	446
288.535	311
288.593	118
288.651	-147
288.709	-914
288.767	297
288.825	-683
288.883	-1185
288.941	-1284
288.999	-853
289.057	-491
289.115	-1109
289.173	-1520
289.231	-388
289.289	-1179
289.346	-941
289.404	-502
289.462	-451
289.520	-692
289.578	-948
289.636	-869
289.694	-886
289.751	-836
289.809	-453
289.867	-797
289.925	-554
289.983	-901
290.040	-932
290.098	-502
290.156	-1032
290.214	-965
290.271	-1091
290.329	-990
290.387	-1066
290.444	-843
290.502	-978
290.560	-1222
290.617	-564
290.675	-1412
290.733	-949
290.790	-773
290.848	-831
290.906	-1356
290.963	-1119
291.021	-476
291.078	-931
291.136	-1267
291.194	1307
291.251	4028
291.309	-846
291.366	-1742
291.424	-782
291.481	-963
291.539	-1296
291.596	-1334
291.654	-1024
291.711	-1002
291.769	-625
291.826	-582
291.884	-518
291.941	-984
291.999	-468
292.056	-507
292.114	-1218
292.171	-1175
292.228	-1845
292.286	-247
292.343	-430
292.401	374
292.458	-1030
292.515	-1469
292.573	-752
292.630	-523
292.687	-953
292.745	-1353
292.802	-911
292.859	1052
292.917	3996
292.974	1276
293.031	-338
293.089	-1478
293.146	-1173
293.203	-1471
293.260	-899
293.318	-1263
293.375	-579
293.432	-1171
293.489	-141
293.546	-1141
293.604	-54
293.661	1043
293.718	8506
293.775	2953
293.832	-77
293.889	-237
293.947	-423
294.004	-237
294.061	-223
294.118	233
294.175	3032
294.232	4249
294.289	999
294.346	-548
294.403	-24
294.460	-709
294.517	-554
294.574	-836
294.631	-1389
294.688	-290
294.745	1085
294.802	9498
294.859	9584
294.916	2560
294.973	294
295.030	-477
295.087	875
295.144	-723
295.201	-269
295.258	-328
295.315	-937
295.372	3032
295.429	7536
295.486	2078
295.542	933
295.599	2954
295.656	6070
295.713	3502
295.770	5863
295.827	804
295.883	31
295.940	414
295.997	170
296.054	89
296.111	-511
296.167	101
296.224	-663
296.281	-1491
296.338	-1410
296.394	-601
296.451	185
296.508	1711
296.564	4949
296.621	2347
296.678	7375
296.734	10837
296.791	2652
296.848	584
296.904	619
296.961	1975
297.018	7888
297.074	4668
297.131	1138
297.187	289
297.244	473
297.301	8366
297.357	15570
297.414	3947
297.470	205
297.527	58
297.583	-128
297.640	-608
297.696	-935
297.753	-543
297.809	-833
297.866	-996
297.922	-835
297.979	-814
298.035	-752
298.092	-421
298.148	3945
298.204	3813
298.261	373
298.317	2721
298.374	9898
298.430	4873
298.486	1002
298.543	-598
298.599	274
298.656	324
298.712	808
298.768	4882
298.824	4168
298.881	-345
298.937	-892
298.993	-943
299.050	-286
299.106	-1071
299.162	179
299.218	-735
299.275	-373
299.331	-1094
299.387	308
299.443	7569
299.500	8345
299.556	1348
299.612	-60
299.668	-654
299.724	-834
299.780	-320
299.837	-498
299.893	-290
299.949	5373
300.005	5740
300.061	4425
300.117	11501
300.173	4193
300.229	865
300.285	350
300.341	757
300.397	267
300.453	-1091
300.510	-453
300.566	-625
300.622	76
300.678	-482
300.734	2896
300.790	5508
300.845	7806
300.901	2393
300.957	4007
301.013	3182
301.069	267
301.125	-828
301.181	-234
301.237	-366
301.293	-606
301.349	-1034
301.405	-844
301.461	-904
301.516	-146
301.572	-640
301.628	501
301.684	171
301.740	1523
301.796	3640
301.851	1692
301.907	3223
301.963	3298
302.019	7992
302.074	26961
302.130	25771
302.186	9524
302.242	3206
302.297	1461
302.353	1159
302.409	3851
302.464	2803
302.520	1961
302.576	7560
302.631	9177
302.687	3854
302.743	685
302.798	-192
302.854	-424
302.910	-415
302.965	-88
303.021	1847
303.076	480
303.132	1166
303.187	1487
303.243	358
303.299	-159
303.354	-865
303.410	-583
303.465	-1291
303.521	-135
303.576	-253
303.632	-852
303.687	1348
303.743	7063
303.798	6333
303.853	1223
303.909	-251
303.964	-294
304.020	-31
304.075	1551
304.130	256
304.186	1753
304.241	3473
304.297	1656
304.352	-640
304.358	-546
304.407	213
304.449	250
304.463	264
304.518	-465
304.539	-287
304.573	-14
304.629	-272
304.630	-256
304.684	560
304.720	3730
304.739	5279
304.794	9927
304.811	8096
304.850	3661
304.902	987
304.905	823
304.960	185
304.992	-213
305.015	-504
305.071	261
305.083	126
305.126	-353
305.173	-809
305.181	-886
305.236	-1114
305.264	-787
305.292	-395
305.347	125
305.354	158
305.402	259
305.445	-39
305.457	-136
305.512	674
305.535	360
305.567	19
305.622	263
305.626	353
305.678	2722
305.716	6285
305.733	7296
305.788	9520
305.807	7788
305.843	5353
305.897	8261
305.898	8281
305.953	8183
305.988	5102
306.008	3679
306.063	1972
306.078	1557
306.118	460
306.168	515
306.173	535
306.228	349
306.259	164
306.283	67
306.338	-179
306.349	-21
306.393	503
306.440	149
306.448	68
306.503	197
306.530	103
306.558	640
306.613	3103
306.620	3406
306.668	5542
306.711	8295
306.723	8432
306.778	6397
306.801	4454
306.833	2463
306.888	1090
306.892	1001
306.943	483
306.982	611
306.997	643
307.052	255
307.072	260
307.107	565
307.162	1398
307.163	1397
307.217	1651
307.253	2024
307.272	2097
307.327	2208
307.343	2009
307.381	1713
307.434	1719
307.436	1816
307.491	4483
307.524	6870
307.546	7217
307.600	7239
307.614	6348
307.655	3689
307.704	1878
307.710	1855
307.765	2066
307.795	2748
307.819	3404
307.874	5286
307.885	5405
307.929	5097
307.975	4613
307.984	4992
308.038	8227
308.065	10160
308.093	19268
308.148	41191
308.156	45916
308.202	65323
308.246	76135
308.257	73180
308.312	39162
308.336	26022
308.366	19445
308.421	11641
308.426	10922
308.475	7116
308.517	4265
308.530	3795
308.585	3564
308.607	3318
308.639	3231
308.694	3885
308.697	3889
308.748	5759
308.787	7950
308.803	7954
308.857	6547
308.877	5832
308.912	5588
308.967	6108
308.967	6101
309.021	8777
309.058	11070
309.076	14684
309.130	26634
309.148	30913
309.185	56115
309.238	100422
309.239	100683
309.293	102161
309.328	90250
309.348	77127
309.402	37012
309.418	26973
309.457	18735
309.508	10548
309.511	10365
309.566	8352
309.598	7332
309.620	7294
309.674	8031
309.688	8169
309.729	7497
309.778	6062
309.783	6015
309.837	5501
309.868	5299
309.892	6983
309.946	11505
309.959	12678
310.001	15528
310.049	18270
310.055	17611
310.109	10064
310.139	5749
310.163	4722
310.218	3234
310.229	2928
310.272	2379
310.319	2156
310.326	2162
310.381	1677
310.409	1736
310.435	1900
310.489	1861
310.499	1869
310.543	1761
310.589	1577
310.598	1624
310.652	2026
310.679	2123
310.706	2155
310.760	2248
310.769	2230
310.814	1672
310.859	1217
310.868	1287
310.923	1598
310.948	1754
310.977	2002
311.031	2431
311.038	2493
311.085	2380
311.128	1986
311.139	1961
311.193	2078
311.218	2025
311.247	2082
311.301	2223
311.308	2232
311.356	2366
311.398	2508
311.410	2594
311.464	2761
311.488	2855
311.518	2489
311.572	1756
311.578	1673
311.626	2522
311.668	3224
311.680	3326
311.734	3624
311.758	3777
311.788	3626
311.842	3270
311.847	3220
311.896	4054
311.937	4753
311.950	4654
312.004	4131
312.027	3870
312.058	3665
312.112	3300
312.117	3252
312.165	3305
312.207	3332
312.297	4130
312.386	3798
312.476	3477
312.566	4996
312.656	2939
312.745	2701
312.835	2622
312.925	3184
313.015	2713
313.104	3062
313.194	2795
313.284	2805
313.374	2854
313.463	2665
313.553	2257
313.643	2450
313.732	2866
313.822	1425
313.912	2828
314.001	3048
314.091	3356
314.180	4215
314.270	3619
314.360	3876
314.449	2889
314.539	1853
314.628	2549
314.718	2965
314.808	2932
314.897	2064
314.987	2792
315.076	3051
315.166	2823
315.255	2733
315.345	3404
315.434	2319
315.524	2598
315.613	2545
315.703	3533
315.792	3501
315.881	2524
315.971	2085
316.060	3445
316.150	5206
316.239	4625
316.328	2667
316.418	2126
316.507	2039
316.597	2349
316.686	1945
316.775	3095
316.865	5476
316.954	2375
317.043	1746
317.133	2459
317.222	1780
317.311	2129
317.400	1165
317.490	3137
317.579	2324
317.668	2558
317.757	2966
317.847	2983
317.936	3963
318.025	4492
318.114	2583
318.203	2778
318.293	6233
318.382	11584
318.471	8497
318.560	13512
318.649	28808
318.738	4816
318.828	3742
318.917	2614
319.006	4068
319.095	9497
319.184	35102
319.273	13607
319.362	6259
319.451	1387
319.540	2974
319.629	5341
319.718	6924
319.807	4519
319.896	11358
319.985	41534
320.074	10333
320.163	4251
320.252	3848
320.341	5927
320.430	4626
320.519	4463
320.608	2765
320.697	2787
320.786	2463
320.875	2920
320.964	3213
321.053	4837
321.142	6027
321.230	6657
321.319	6383
321.408	13953
321.497	5430
321.586	5632
321.675	5390
321.764	6375
321.852	4792
321.941	7220
322.030	4421
322.119	6561
322.207	12235
322.296	8452
322.385	4684
322.474	4947
322.562	14487
322.651	7233
322.740	5977
322.829	6899
322.917	7105
323.006	4422
323.095	3642
323.183	3664
323.272	4893
323.361	8330
323.449	18880
323.538	6535
323.626	15602
323.715	7493
323.804	4321
323.892	12548
323.981	5917
324.069	3451
324.158	7492
324.246	6163
324.335	3684
324.424	4494
324.512	2886
324.601	3279
324.689	3065
324.778	4614
324.866	5155
324.954	2957
325.043	2514
325.131	2903
325.220	6124
325.308	4560
325.397	4507
325.485	3252
325.574	1589
325.662	2045
325.750	1543
325.839	2422
325.927	2483
326.015	2042
326.104	2713
326.192	3218
326.280	1580
326.369	1978
326.457	2378
326.545	4695
326.634	1680
326.722	1804
326.810	1379
326.898	1576
326.987	2021
327.075	3708
327.163	3806
327.251	2188
327.340	1959
327.428	3152
327.516	1176
327.604	1500
327.692	1386
327.781	1967
327.869	2301
327.957	1195
328.045	2390
328.133	1915
328.221	905
328.309	1943
328.397	1635
328.485	2367
328.574	2079
328.662	7768
328.750	3665
328.838	1780
328.926	1824
329.014	1839
329.102	2989
329.190	8089
329.278	4226
329.366	1646
329.454	671
329.542	1909
329.630	1319
329.718	1721
329.806	1874
329.893	2629
329.981	2560
330.069	3224
330.157	12473
330.245	33831
330.333	13965
330.421	3040
330.509	2567
330.597	10295
330.684	6621
330.772	3747
330.860	5033
330.948	8092
331.036	2696
331.123	1173
331.211	2388
331.299	1861
331.387	6837
331.475	9829
331.562	2356
331.650	1898
331.738	1256
331.825	3028
331.913	1644
332.001	1022
332.089	2661
332.176	3281
332.264	6070
332.352	4733
332.439	1537
332.527	1936
332.614	918
332.702	2112
332.790	1447
332.877	2929
332.965	5930
333.052	1628
333.140	1809
333.228	3633
333.315	935
333.403	1453
333.490	4172
333.578	2749
333.665	4100
333.753	1996
333.840	1009
333.928	2596
334.015	4490
334.103	11441
334.190	37895
334.278	8034
334.365	2493
334.452	1542
334.540	1492
334.627	1043
334.715	2372
334.802	3895
334.889	21873
334.977	18071
335.064	2023
335.151	1461
335.239	3154
335.326	4612
335.413	23420
335.501	26430
335.588	2698
335.675	1996
335.762	3207
335.850	6224
335.937	2707
336.024	7302
336.111	28698
336.199	9354
336.286	2571
336.373	1217
336.460	625
336.547	1462
336.635	1321
336.722	1969
336.809	1939
336.896	2069
336.983	13345
337.070	31434
337.157	40458
337.245	16869
337.332	9326
337.419	2544
337.506	2137
337.593	2476
337.680	12030
337.767	33148
337.854	7672
337.941	8287
338.028	4745
338.115	1463
338.202	4278
338.289	4747
338.376	13958
338.463	4909
338.550	20329
338.637	17244
338.724	4650
338.811	5580
338.898	1973
338.984	1763
339.071	1984
339.158	2236
339.245	5193
339.332	4096
339.419	4215
339.506	3020
339.593	777
339.679	1765
339.766	781
339.853	2057
339.940	3886
340.027	1713
340.113	1910
340.200	2490
340.287	1790
340.374	2445
340.460	3305
340.547	1324
340.634	3166
340.720	9967
340.807	4156
340.894	2071
340.980	589
341.067	889
341.154	2433
341.240	2174
341.327	4124
341.414	1821
341.500	1202
341.587	1904
341.674	1196
341.760	3572
341.847	3366
341.933	556
342.020	42
342.106	892
342.193	1556
342.279	2351
342.366	2212
342.452	3366
342.539	1636
342.625	4668
342.712	9431
342.798	3927
342.885	1553
342.971	947
343.058	1033
343.144	509
343.230	414
343.317	1376
343.403	851
343.490	1462
343.576	792
343.662	758
343.749	1727
343.835	2414
343.921	4359
344.008	30658
344.094	61099
344.180	11465
344.267	4807
344.353	16764
344.439	14448
344.525	5276
344.612	7570
344.698	7349
344.784	3786
344.870	1304
344.957	1459
345.043	3176
345.129	842
345.215	3501
345.301	2305
345.387	954
345.474	1327
345.560	1045
345.646	966
345.732	1158
345.818	1232
345.904	1097
345.990	966
346.076	726
346.162	1652
346.249	2077
346.335	1786
346.421	1485
346.507	7829
346.593	23791
346.679	3861
346.765	2106
346.851	731
346.937	638
347.023	995
347.108	1626
347.194	1288
347.280	1110
347.366	1549
347.452	6640
347.538	28735
347.624	21339
347.710	14098
347.796	2047
347.882	1867
347.967	1608
348.053	2708
348.139	1377
348.225	109
348.311	1269
348.397	927
348.482	1685
348.568	2079
348.654	389
348.740	315
348.825	-231
348.911	3016
348.997	14075
349.083	26085
349.168	3203
349.254	1622
349.340	1774
349.425	554
349.511	1934
349.597	2223
349.682	3786
349.768	16923
349.854	7240
349.939	1842
350.025	726
350.110	1784
350.196	799
350.282	-105
350.367	636
350.453	1657
350.538	1102
350.624	1301
350.709	1694
350.795	1248
350.880	1192
350.966	2253
351.051	1501
351.137	1240
351.222	1463
351.308	4688
351.393	11834
351.479	2356
351.564	766
351.649	1536
351.735	597
351.820	251
351.906	721
351.991	1587
352.076	8997
352.162	11976
352.247	1840
352.332	1805
352.418	3291
352.503	4634
352.588	19901
352.673	11213
352.759	2569
352.844	48
352.929	1155
353.014	1557
353.100	1236
353.185	1744
353.270	2590
353.355	2830
353.441	1080
353.526	851
353.611	3021
353.696	2500
353.781	2267
353.866	401
353.952	1158
354.037	2388
354.122	6263
354.207	4999
354.292	2011
354.377	1047
354.462	1504
354.547	817
354.632	1413
354.717	2792
354.802	1690
354.887	1027
354.972	510
355.057	608
355.142	635
355.227	1465
355.312	1962
355.397	3058
355.482	9621
355.567	3841
355.652	4384
355.737	4873
355.822	18348
355.907	11948
355.991	2040
356.076	676
356.161	989
356.246	701
356.331	2085
356.416	3959
356.501	30676
356.585	26479
356.670	2543
356.755	2185
356.840	2978
356.924	20055
357.009	63520
357.094	20866
357.179	3802
357.263	1860
357.348	2702
357.433	3080
357.517	2530
357.602	1681
357.687	1257
357.771	4417
357.856	16841
357.941	9203
358.025	17393
358.110	69206
358.195	28671
358.279	3597
358.364	2361
358.448	10277
358.533	30316
358.617	21370
358.702	20879
358.787	6503
358.871	3411
358.956	3227
359.040	961
359.125	1309
359.209	1414
359.294	7901
359.378	12318
359.462	3076
359.547	2281
359.631	930
359.716	510
359.800	1353
359.885	3526
359.969	-90
360.053	1568
360.138	975
360.222	1365
360.306	3229
360.391	2745
360.475	8178
360.559	15198
360.644	9286
360.728	5633
360.812	17389
360.896	42294
360.981	16471
361.065	7453
361.149	2831
361.233	1477
361.318	927
361.402	1126
361.486	2469
361.570	956
361.654	1901
361.739	4318
361.823	28253
361.907	41927
361.991	5690
362.075	3067
362.159	3850
362.243	4440
362.327	1204
362.411	3229
362.495	1226
362.580	1363
362.664	1312
362.748	304
362.832	615
362.916	22
363.000	4116
363.084	25008
363.168	45423
363.252	8845
363.336	3671
363.420	5167
363.503	30578
363.587	32831
363.671	3840
363.755	1224
363.839	3939
363.923	1110
364.007	3228
364.091	3676
364.175	8848
364.258	45413
364.342	16787
364.426	5035
364.510	1922
364.594	5036
364.677	9179
364.761	38498
364.845	25325
364.929	6397
365.013	4138
365.096	3603
365.180	4710
365.264	13388
365.347	47790
365.431	19736
365.515	4152
365.598	1154
365.682	2769
365.766	3990
365.849	6513
365.933	1387
366.017	4407
366.100	2391
366.184	102
366.267	1557
366.351	1342
366.435	551
366.518	467
366.602	656
366.685	980
366.769	1106
366.852	3847
366.936	6038
367.019	2408
367.103	2862
367.186	8192
367.270	1676
367.353	495
367.436	946
367.520	254
367.603	918
367.687	500
367.770	3124
367.853	2368
367.937	13514
368.020	19750
368.104	3010
368.187	2932
368.270	4991
368.353	4251
368.437	4778
368.520	8514
368.603	5429
368.687	12930
368.770	23848
368.853	4971
368.936	5405
369.020	6415
369.103	1100
369.186	904
369.269	658
369.352	2153
369.436	3405
369.519	2585
369.602	262
369.685	2023
369.768	406
369.851	1783
369.934	-228
370.018	1017
370.101	2173
370.184	4214
370.267	2780
370.350	4272
370.433	7602
370.516	21041
370.599	23008
370.682	3611
370.765	12113
370.848	17104
370.931	29423
371.014	11750
371.097	575
371.180	1064
371.263	1061
371.346	58
371.429	1125
371.511	81
371.594	1975
371.677	5426
371.760	8561
371.843	4294
371.926	30848
372.009	62503
372.091	20087
372.174	12454
372.257	31686
372.340	10892
372.423	8778
372.505	10738
372.588	2824
372.671	9727
372.754	27218
372.836	13474
372.919	14363
373.002	27454
373.085	6295
373.167	4546
373.250	12573
373.332	29913
373.415	41487
373.498	74840
373.580	26612
373.663	36114
373.746	47826
373.828	8917
373.911	4421
373.993	5041
374.076	26879
374.159	22958
374.241	7956
374.324	22639
374.406	15398
374.489	25428
374.571	68262
374.654	26187
374.736	13668
374.819	41917
374.901	58419
374.983	54214
375.066	8203
375.148	4013
375.231	21977
375.313	41412
375.395	13359
375.478	1950
375.560	1550
375.643	1434
375.725	10303
375.807	47386
375.890	32484
375.972	8408
376.054	5397
376.136	6337
376.219	3010
376.301	14867
376.383	39067
376.465	14572
376.548	4940
376.630	11086
376.712	34098
376.794	15187
376.877	1020
376.959	773
377.041	2015
377.123	5880
377.205	7454
377.287	280
377.369	764
377.452	182
377.534	853
377.616	563
377.698	688
377.780	-560
377.862	-63
377.944	1546
378.026	-912
378.108	79
378.190	160
378.272	203
378.354	643
378.436	-36
378.518	1664
378.600	10530
378.682	8190
378.764	15454
378.846	11852
378.928	3563
379.010	3845
379.091	1882
379.173	720
379.255	213
379.337	1293
379.419	7838
379.501	24170
379.583	8678
379.664	2388
379.746	3537
379.828	16058
379.910	22973
379.991	18784
380.073	1972
380.155	1412
380.237	1373
380.318	299
380.400	934
380.482	1964
380.564	2495
380.645	3414
380.727	2790
380.809	1947
380.890	1133
380.972	205
381.053	667
381.135	1873
381.217	5565
381.298	16567
381.380	6828
381.461	6270
381.543	32714
381.624	38618
381.706	5910
381.787	3467
381.869	4107
381.951	16621
382.032	56752
382.113	34543
382.195	4993
382.276	4731
382.358	10995
382.439	32674
382.521	37407
382.602	52446
382.684	22566
382.765	36379
382.846	32069
382.928	24630
383.009	12989
383.090	10706
383.172	38736
383.253	55009
383.334	26410
383.416	42978
383.497	21059
383.578	5561
383.659	9336
383.741	38345
383.822	87870
383.903	42914
383.984	26173
384.066	54405
384.147	30655
384.228	5461
384.309	2945
384.390	2019
384.471	1549
384.553	2364
384.634	2626
384.715	2664
384.796	633
384.877	1135
384.958	14435
385.039	17028
385.120	5171
385.201	2584
385.282	2861
385.363	3211
385.444	1987
385.525	7048
385.606	27048
385.687	22842
385.768	4813
385.849	5571
385.930	31420
386.011	52538
386.092	12517
386.173	1304
386.254	1265
386.335	2369
386.416	2448
386.496	10461
386.577	16028
386.658	5449
386.739	2340
386.820	3503
386.901	1497
386.981	1807
387.062	314
387.143	2092
387.224	14658
387.304	14259
387.385	4554
387.466	2157
387.547	3916
387.627	911
387.708	6119
387.789	31417
387.869	37943
387.950	9552
388.031	1296
388.111	78
388.192	6077
388.273	9726
388.353	4550
388.434	1593
388.514	5992
388.595	32197
388.676	38693
388.756	15717
388.837	13114
388.917	7155
388.998	400
389.078	1705
389.159	1441
389.239	-45
389.320	2702
389.400	527
389.480	7677
389.561	18643
389.641	9589
389.722	1697
389.802	3382
389.883	9461
389.963	24184
390.043	13984
390.124	3377
390.204	6276
390.284	16983
390.365	9619
390.445	18611
390.525	34075
390.605	27352
390.686	8646
390.766	2092
390.846	1365
390.927	-495
391.007	-193
391.087	1704
391.167	432
391.247	-531
391.328	2361
391.408	5235
391.488	3620
391.568	-448
391.648	906
391.728	3410
391.808	1866
391.888	2363
391.969	10166
392.049	16398
392.129	7446
392.209	8204
392.289	23200
392.369	12266
392.449	11899
392.529	5426
392.609	3227
392.689	5600
392.769	19829
392.849	16064
392.929	12633
393.009	30121
393.089	17605
393.169	2954
393.248	5693
393.328	31062
393.408	29531
393.488	5903
393.568	1990
393.648	1516
393.728	548
393.807	741
393.887	1729
393.967	2053
394.047	2986
394.127	4471
394.206	12103
394.286	49105
394.366	179779
394.446	186580
394.525	50425
394.605	12580
394.685	9081
394.764	19387
394.844	30319
394.924	18612
395.003	4512
395.083	2044
395.163	2063
395.242	1489
395.322	2568
395.402	542
395.481	4953
395.561	11938
395.640	30871
395.720	21534
395.799	35861
395.879	30651
395.958	21090
396.038	74914
396.117	232510
396.197	246728
396.276	87604
396.356	28674
396.435	18421
396.515	9129
396.594	4935
396.673	5300
396.753	9937
396.832	28392
396.912	32199
396.991	11874
397.070	2876
397.150	66
397.229	1972
397.308	267
397.388	73
397.467	1108
397.546	89
397.625	-2057
397.705	1436
397.784	870
397.863	77
397.942	167
398.022	410
398.101	10067
398.180	31105
398.259	16480
398.338	3701
398.417	1228
398.497	4
398.576	440
398.655	-659
398.734	616
398.813	1216
398.892	10132
398.971	34102
399.050	16336
399.129	341
399.208	881
399.287	848
399.366	-175
399.445	224
399.524	238
399.603	-544
399.682	1312
399.761	8132
399.840	35659
399.919	27126
399.998	2099
400.077	-1006
400.156	-406
400.235	2786
400.313	-202
400.392	105
400.471	8241
400.550	11870
400.629	1398
400.708	1472
400.786	901
400.865	7455
400.944	7478
401.023	3296
401.102	5
401.180	-373
401.259	-465
401.338	1027
401.416	921
401.495	-188
401.574	1596
401.652	-168
401.731	1566
401.810	323
401.888	-189
401.967	-1161
402.046	499
402.124	1029
402.203	886
402.281	1436
402.360	1660
402.438	9881
402.517	4708
402.596	1917
402.674	451
402.753	-173
402.831	225
402.910	1231
402.988	5502
403.066	21000
403.145	12491
403.223	7387
403.302	17908
403.380	14201
403.459	11781
403.537	3571
403.615	878
403.694	-617
403.772	609
403.850	80
403.929	-318
404.007	-697
404.085	1756
404.164	1391
404.242	1615
404.320	14493
404.398	51173
404.477	48461
404.555	50235
404.633	44622
404.711	35364
404.789	23589
404.868	3359
404.946	255
405.024	135
405.102	386
405.180	-481
405.258	-791
405.336	90
405.415	-724
405.493	1933
405.571	2150
405.649	-556
405.727	-228
405.805	707
405.883	683
405.961	1339
406.039	1339
406.117	-123
406.195	752
406.273	9141
406.351	33701
406.429	21346
406.507	2500
406.585	-286
406.663	723
406.740	297
406.818	-195
406.896	-903
406.974	1300
407.052	1421
407.130	20813
407.208	26883
407.285	5188
407.363	-861
407.441	11
407.519	-20
407.596	-275
407.674	630
407.752	3538
407.830	7539
407.907	3903
407.985	515
408.063	420
408.141	-1449
408.218	1301
408.296	-202
408.373	369
408.451	246
408.529	253
408.606	-289
408.684	-299
408.762	-611
408.839	-730
408.917	-720
408.994	-319
409.072	-733
409.149	-866
409.227	439
409.304	246
409.382	-64
409.459	-1354
409.537	35
409.614	-131
409.692	-550
409.769	-463
409.846	-455
409.924	502
410.001	-1069
410.079	-766
410.156	760
410.233	219
410.311	-553
410.388	-635
410.465	-535
410.543	-1223
410.620	190
410.697	538
410.775	80
410.852	-1928
410.929	453
411.006	1771
411.083	-451
411.161	1893
411.238	3500
411.315	709
411.392	-537
411.469	434
411.547	823
411.624	-980
411.701	-407
411.778	611
411.855	635
411.932	-62
412.009	-608
412.086	-373
412.163	-195
412.240	-140
412.317	1358
412.394	-137
412.471	-4
412.548	20
412.625	-600
412.702	-99
412.779	1526
412.856	708
412.933	-882
413.010	6
413.087	583
413.164	6560
413.241	9745
413.318	979
413.395	1260
413.471	622
413.548	576
413.625	-181
413.702	-664
413.779	-750
413.855	-762
413.932	-1278
414.009	-1134
414.086	-660
414.162	125
414.239	1132
414.316	5788
414.393	15071
414.469	4063
414.546	-584
414.623	-490
414.699	-584
414.776	68
414.853	-1014
414.929	-372
415.006	-126
415.082	167
415.159	-171
415.236	-266
415.312	465
415.389	169
415.465	-478
415.542	250
415.618	-1392
415.695	327
415.771	-1074
415.848	-1272
415.924	-436
416.000	-583
416.077	116
416.153	-1898
416.230	-1646
416.306	-930
416.383	-1265
416.459	221
416.535	-752
416.612	-1193
416.688	-364
416.764	118
416.841	-1689
416.917	-1265
416.993	-26
417.069	-539
417.146	402
417.222	1378
417.298	359
417.374	-634
417.451	4
417.527	-253
417.603	191
417.679	-252
417.755	-2
417.831	-2109
417.908	-443
417.984	-973
418.060	-1411
418.136	422
418.212	748
418.288	-725
418.364	-301
418.440	-815
418.516	970
418.592	1976
418.668	2066
418.744	2879
418.820	1345
418.896	-185
418.972	-622
419.048	-791
419.124	1026
419.200	-265
419.276	-449
419.352	-713
419.428	-1093
419.504	-1157
419.579	-741
419.655	-900
419.731	-548
419.807	1570
419.883	2785
419.959	2165
420.034	-123
420.110	2362
420.186	9541
420.262	8044
420.337	27
420.413	-324
420.489	-639
420.565	322
420.640	-1095
420.716	195
420.792	-2097
420.867	-12
420.943	-1138
421.019	348
421.094	-630
421.170	-283
421.245	-1764
421.321	-746
421.397	-1865
421.472	1028
421.548	-461
421.623	598
421.699	47
421.774	-126
421.850	-1040
421.925	482
422.001	93
422.076	-874
422.152	-695
422.227	22
422.302	-875
422.378	-299
422.453	207
422.529	3216
422.604	24301
422.679	58396
422.755	27168
422.830	3240
422.905	454
422.981	-401
423.056	-1104
423.131	-581
423.207	-493
423.282	-736
423.357	609
423.432	-24
423.508	500
423.583	2416
423.658	1151
423.733	-343
423.808	533
423.883	176
423.959	-419
424.034	-379
424.109	-367
424.184	-1346
424.259	-670
424.334	-360
424.409	-1296
424.484	-268
424.559	-656
424.634	-898
424.709	74
424.784	-4
424.859	-432
424.934	-3
425.009	5320
425.084	9750
425.159	2964
425.234	-428
425.309	-365
425.384	3918
425.459	5971
425.534	1418
425.609	-746
425.683	-729
425.758	-351
425.833	-306
425.908	283
425.983	2156
426.058	9160
426.132	3307
426.207	226
426.282	1743
426.357	294
426.431	83
426.506	-384
426.581	294
426.655	-152
426.730	-161
426.805	-917
426.879	599
426.954	-389
427.029	285
427.103	11885
427.178	28758
427.253	12440
427.327	1183
427.402	1793
427.476	8293
427.551	2756
427.625	128
427.700	536
427.774	-903
427.849	252
427.923	-928
427.998	-1195
428.072	-296
428.147	749
428.221	2403
428.296	4187
428.370	478
428.444	-279
428.519	1926
428.593	5964
428.667	6161
428.742	6404
428.816	4634
428.890	8879
428.965	10779
429.039	6361
429.113	7016
429.188	1383
429.262	-220
429.336	883
429.410	3886
429.485	3130
429.559	5289
429.633	2738
429.707	175
429.781	807
429.855	12959
429.930	15219
430.004	15138
430.078	30876
430.152	21222
430.226	4640
430.300	2821
430.374	-894
430.448	489
430.522	10470
430.596	29150
430.670	15203
430.744	17164
430.818	27770
430.892	6276
430.966	-231
431.040	-366
431.114	-1700
431.188	-1153
431.262	-642
431.336	-1576
431.410	2390
431.484	7004
431.557	3936
431.631	-636
431.705	-595
431.779	-606
431.853	2132
431.927	1350
432.000	-952
432.074	-214
432.148	-337
432.222	-841
432.295	-164
432.369	-213
432.443	394
432.516	11980
432.590	29737
432.664	10755
432.737	-48
432.811	-2023
432.885	-256
432.958	-223
433.032	-1411
433.106	-797
433.179	-1044
433.253	-679
433.326	-945
433.400	-1653
433.473	-956
433.547	-1254
433.620	-1126
433.694	-717
433.767	379
433.841	-896
433.914	-298
433.988	-305
434.061	-639
434.134	-1147
434.208	-1072
434.281	-1146
434.355	-1678
434.428	-371
434.501	-511
434.575	-48
434.648	-1464
434.721	-840
434.795	-915
434.868	-1103
434.941	-1334
435.014	-1838
435.088	-923
435.161	-516
435.234	-15
435.307	-612
435.381	-1081
435.454	-1437
435.527	-1209
435.600	-941
435.673	-921
435.746	-1274
435.819	-1079
435.892	-1212
435.966	-1319
436.039	-952
436.112	-529
436.185	-797
436.258	-1131
436.331	-1352
436.404	-1761
436.477	-970
436.550	-548
436.623	-558
436.696	-768
436.769	-147
436.842	-787
436.915	-1152
436.987	-271
437.060	-1223
437.133	-889
437.206	-1117
437.279	-628
437.352	-728
437.425	-1174
437.498	-540
437.570	1739
437.643	310
437.716	-395
437.789	-565
437.861	865
437.934	3348
438.007	-42
438.080	-846
438.152	-574
438.225	1204
438.298	16752
438.370	43662
438.443	16895
438.516	3899
438.588	-70
438.661	-939
438.734	-1047
438.806	-611
438.879	-7
438.951	176
439.024	1489
439.096	-905
439.169	-207
439.241	-1463
439.314	-1569
439.386	421
439.459	1035
439.531	292
439.604	-39
439.676	-218
439.749	-1208
439.821	-631
439.893	-318
439.966	-575
440.038	-475
440.110	-814
440.183	-1502
440.255	-1837
440.327	380
440.400	6842
440.472	26158
440.544	15740
440.617	244
440.689	819
440.761	1451
440.833	2397
440.905	1114
440.978	-1667
441.050	-950
441.122	496
441.194	-810
441.266	-438
441.338	-1362
441.411	-451
441.483	6524
441.555	10042
441.627	668
441.699	633
441.771	1257
441.843	-1319
441.915	-412
441.987	-991
442.059	-1073
442.131	-507
442.203	96
442.275	8
442.347	87
442.419	-926
442.491	-469
442.563	699
442.635	2357
442.706	6313
442.778	4465
442.850	-561
442.922	-626
442.994	-184
443.066	468
443.137	7
443.209	-1469
443.281	-112
443.353	51
443.425	1140
443.496	1099
443.568	1025
443.640	62
443.711	-316
443.783	-847
443.855	-882
443.926	-816
443.998	-1173
444.070	263
444.141	237
444.213	-45
444.285	285
444.356	266
444.428	-141
444.499	-955
444.571	-258
444.642	-991
444.714	-1130
444.785	-9
444.857	1149
444.928	4268
445.000	1722
445.071	2145
445.143	2879
445.214	186
445.285	1596
445.357	6306
445.428	4705
445.500	6824
445.571	6875
445.642	1889
445.714	4452
445.785	7516
445.856	707
445.928	245
445.999	-479
446.070	74
446.141	657
446.213	1056
446.284	-382
446.355	127
446.426	-19
446.497	-316
446.569	412
446.640	892
446.711	76
446.782	-684
446.853	-158
446.924	-43
446.995	-716
447.066	-666
447.138	1124
447.209	412
447.280	-423
447.351	-969
447.422	-1293
447.493	-303
447.564	134
447.635	-403
447.706	-1001
447.777	-945
447.847	-1559
447.918	-796
447.989	-262
448.060	104
448.131	3516
448.202	2305
448.273	513
448.344	218
448.414	-837
448.485	-1383
448.556	-383
448.627	-742
448.698	372
448.768	-1334
448.839	-592
448.910	353
448.981	388
449.051	-542
449.122	-558
449.193	-520
449.263	-585
449.334	-1131
449.405	-349
449.475	1035
449.546	274
449.616	1437
449.687	71
449.758	-331
449.828	-1286
449.899	-686
449.969	-1153
450.040	-1232
450.110	-450
450.181	-213
450.251	-888
450.322	-343
450.392	255
450.463	-529
450.533	-741
450.604	-408
450.674	-346
450.744	-756
450.815	-1020
450.885	-729
450.955	-736
451.026	-1058
451.096	-760
451.166	-316
451.237	1181
451.307	5739
451.377	1002
451.447	-271
451.518	-297
451.588	-1346
451.658	-203
451.728	796
451.799	5781
451.869	6075
451.939	-199
452.009	-745
452.079	-865
452.149	-233
452.219	860
452.289	7635
452.360	4829
452.430	-807
452.500	-755
452.570	-226
452.640	572
452.710	3982
452.780	5260
452.850	2775
452.920	1385
452.990	-144
453.060	-259
453.129	10
453.199	1497
453.269	9201
453.339	17371
453.409	25576
453.479	29598
453.549	42342
453.619	43751
453.688	13156
453.758	1414
453.828	-172
453.898	-731
453.968	-1445
454.037	-151
454.087	-492
454.107	-638
454.168	-1043
454.177	-1117
454.247	-595
454.249	-590
454.316	-609
454.330	-520
454.386	-194
454.411	1235
454.456	3641
454.492	4647
454.525	5565
454.574	1766
454.595	106
454.655	-289
454.665	-354
454.734	143
454.736	166
454.804	509
454.817	1699
454.873	6692
454.898	6551
454.943	6336
454.979	3494
455.013	945
455.060	183
455.082	-185
455.141	302
455.152	401
455.221	4893
455.222	4946
455.291	8671
455.303	8324
455.360	6557
455.384	9559
455.430	14579
455.465	10740
455.499	7356
455.546	6163
455.569	5555
455.627	2985
455.638	2535
455.707	-539
455.708	-532
455.777	-395
455.789	-334
455.846	-316
455.869	-382
455.916	-386
455.950	-246
455.985	-181
456.031	-112
456.054	-69
456.112	-208
456.124	-234
456.193	-551
456.193	-560
456.262	-349
456.274	-166
456.332	676
456.355	206
456.401	-556
456.436	-317
456.470	-374
456.516	-620
456.540	-600
456.597	-863
456.609	-943
456.678	-527
456.678	-532
456.747	-1329
456.759	-1303
456.817	-1220
456.840	-1058
456.886	-823
456.920	-841
456.955	-857
457.001	-211
457.024	189
457.082	280
457.093	257
457.162	889
457.163	893
457.232	-112
457.243	-42
457.301	332
457.324	102
457.370	-229
457.405	-76
457.439	-152
457.485	-275
457.508	-227
457.566	-214
457.577	-218
457.646	-481
457.647	-473
457.715	64
457.727	26
457.784	-442
457.808	-657
457.853	-680
457.889	-27
457.922	248
457.969	-85
457.991	-189
458.050	-466
458.060	-467
458.129	217
458.130	227
458.198	55
458.211	-73
458.267	-482
458.292	-353
458.336	-86
458.372	-297
458.405	-427
458.453	-8
458.474	63
458.533	-57
458.543	-33
458.611	798
458.614	801
458.680	433
458.694	317
458.749	45
458.775	253
458.818	260
458.855	-147
458.887	-247
458.936	-241
458.955	-200
459.016	40
459.024	29
459.093	813
459.097	795
459.162	459
459.177	385
459.230	172
459.257	412
459.299	578
459.338	179
459.368	269
459.418	1059
459.437	1014
459.499	334
459.505	282
459.574	386
459.579	351
459.643	-25
459.659	-108
459.711	197
459.740	545
459.780	604
459.820	491
459.849	382
459.900	-21
459.917	38
459.981	691
459.986	677
460.054	595
460.061	525
460.123	159
460.141	222
460.191	423
460.222	569
460.260	742
460.302	807
460.328	730
460.382	930
460.397	1157
460.462	879
460.465	830
460.534	1329
460.543	1322
460.602	2268
460.623	2664
460.671	3748
460.703	5468
460.739	5864
460.783	4618
460.808	4074
460.864	1228
460.876	773
460.944	173
460.945	170
461.013	321
461.024	392
461.081	528
461.104	501
461.150	384
461.184	345
461.218	395
461.264	535
461.286	539
461.345	407
461.355	507
461.423	762
461.425	788
461.491	703
461.505	674
461.559	1788
461.585	2256
461.628	2654
461.665	3301
461.696	3549
461.745	5017
461.764	5113
461.825	1895
461.832	1768
461.901	1320
461.905	1371
461.969	590
461.985	300
462.037	629
462.065	1003
462.105	866
462.145	771
462.173	1168
462.225	1709
462.241	1898
462.305	3003
462.310	2948
462.378	2139
462.385	1889
462.446	680
462.465	565
462.514	789
462.545	982
462.582	1007
462.625	1077
462.650	1037
462.705	804
462.718	792
462.785	843
462.786	852
462.854	1291
462.865	1368
462.922	1688
462.945	1893
462.990	1412
463.025	859
463.058	1141
463.104	1313
463.126	947
463.184	391
463.194	503
463.262	1010
463.264	1040
463.330	1246
463.344	1219
463.398	1470
463.424	1560
463.466	947
463.504	600
463.533	991
463.583	1336
463.601	1341
463.663	1445
463.669	1408
463.737	1157
463.743	1120
463.805	2062
463.823	2418
463.873	4069
463.903	5128
463.940	4899
463.982	4747
464.008	4109
464.062	1818
464.076	1769
464.142	1472
464.144	1464
464.211	1632
464.221	1662
464.279	1320
464.301	1218
464.347	1626
464.381	1781
464.414	1531
464.461	1534
464.482	1489
464.540	1119
464.550	1181
464.617	1560
464.620	1571
464.685	2005
464.699	2073
464.753	2721
464.779	3096
464.820	3118
464.859	3150
464.888	2978
464.938	2600
464.956	2841
465.018	3749
465.023	3703
465.091	2833
465.098	2756
465.158	2522
465.177	2466
465.226	2803
465.257	2913
465.293	2606
465.336	2362
465.361	2450
465.416	2491
465.428	2733
465.495	4191
465.496	4204
465.563	4935
465.575	5133
465.631	5735
465.654	6039
465.698	4673
465.734	2945
465.765	2537
465.813	2203
465.833	2161
465.893	2217
465.900	2123
465.968	1275
465.972	1208
466.035	2420
466.052	2766
466.102	2323
466.131	2035
466.170	2360
466.210	2707
466.237	2500
466.290	2019
466.304	1953
466.369	1680
466.372	1704
466.439	2348
466.449	2423
466.506	3155
466.528	3447
466.573	4466
466.607	5215
466.641	6328
466.687	7863
466.708	8206
466.766	9324
466.775	8810
466.842	4637
466.845	4433
466.909	2460
466.925	2023
466.977	2748
467.004	3166
467.044	3463
467.083	3731
467.111	3990
467.163	4464
467.178	4574
467.242	5001
467.245	4981
467.312	4421
467.321	4340
467.379	3834
467.400	3643
467.446	4345
467.480	4844
467.559	3844
467.638	3784
467.717	3658
467.796	3696
467.875	3547
467.955	3830
468.034	6058
468.113	9270
468.192	11734
468.271	3460
468.350	3102
468.429	3678
468.508	3232
468.588	3728
468.667	3505
468.746	3153
468.825	3364
468.904	3518
468.983	3558
469.062	4802
469.141	5006
469.220	3368
469.299	3988
469.378	4643
469.456	5616
469.535	4420
469.614	3325
469.693	3894
469.772	4600
469.851	5321
469.930	3426
470.009	2984
470.088	3042
470.166	3838
470.245	3856
470.324	3930
470.403	2929
470.482	3763
470.560	3322
470.639	3457
470.718	4263
470.797	3646
470.875	3504
470.954	3762
471.033	4082
471.111	3217
471.190	3322
471.269	2298
471.347	2202
471.426	3110
471.505	2768
471.583	4558
471.662	4176
471.740	3532
471.819	3657
471.898	3928
471.976	3108
472.055	2958
472.133	3423
472.212	5303
472.290	3488
472.369	3728
472.447	3536
472.526	2768
472.604	2811
472.683	3217
472.761	2414
472.839	3395
472.918	2858
472.996	3070
473.075	3481
473.153	2940
473.231	2664
473.310	3512
473.388	3302
473.466	2934
473.545	3867
473.623	4546
473.701	2490
473.780	2991
473.858	1729
473.936	4945
474.014	2356
474.093	3983
474.171	3953
474.249	5076
474.327	3531
474.405	2735
474.484	2726
474.562	2842
474.640	2935
474.718	2608
474.796	2568
474.874	3310
474.952	2196
475.030	2849
475.108	2372
475.187	2302
475.265	2399
475.343	4196
475.421	4556
475.499	3358
475.577	2547
475.655	4053
475.733	5815
475.811	7634
475.889	6220
475.966	4592
476.044	3122
476.122	4162
476.200	3950
476.278	2913
476.356	2126
476.434	2872
476.512	2870
476.590	3289
476.667	2978
476.745	2823
476.823	3012
476.901	2730
476.979	2664
477.056	2996
477.134	2710
477.212	3509
477.290	2113
477.367	2689
477.445	2191
477.523	1769
477.601	2255
477.678	2867
477.756	3238
477.834	2850
477.911	2798
477.989	2987
478.066	2120
478.144	2474
478.222	3207
478.299	3961
478.377	3706
478.454	2897
478.532	2447
478.609	2104
478.687	3305
478.764	1314
478.842	2096
478.919	2147
478.997	2013
479.074	2117
479.152	2696
479.229	2966
479.307	1556
479.384	2266
479.461	2195
479.539	2173
479.616	2209
479.694	2065
479.771	2562
479.848	2322
479.926	1788
480.003	3909
480.080	2162
480.157	2256
480.235	1518
480.312	2508
480.389	2432
480.467	3245
480.544	2396
480.621	2648
480.698	2781
480.775	2585
480.853	1921
480.930	1779
481.007	1861
481.084	2170
481.161	2925
481.238	2293
481.315	2115
481.392	2674
481.470	1967
481.547	1989
481.624	1031
481.701	2303
481.778	1932
481.855	2292
481.932	2785
482.009	4934
482.086	2444
482.163	2545
482.240	3556
482.317	5366
482.393	3516
482.470	2917
482.547	2345
482.624	1648
482.701	1906
482.778	2095
482.855	1726
482.932	1568
483.009	1683
483.085	2317
483.162	1818
483.239	2130
483.316	699
483.393	2336
483.469	2007
483.546	2233
483.623	1442
483.699	2894
483.776	1704
483.853	2372
483.930	3524
484.006	7434
484.083	13157
484.160	11469
484.236	15865
484.313	10868
484.389	7951
484.466	9024
484.543	6126
484.619	7464
484.696	9084
484.772	8375
484.849	7604
484.925	7093
485.002	7208
485.078	7874
485.155	6445
485.231	7360
485.308	6590
485.384	7629
485.461	7933
485.537	9594
485.614	11130
485.690	7166
485.766	5457
485.843	7927
485.919	7075
485.995	7389
486.072	5760
486.148	5507
486.224	6286
486.301	6669
486.377	7628
486.453	6413
486.530	7122
486.606	10811
486.682	10531
486.758	9988
486.835	9986
486.911	8602
486.987	12380
487.063	11326
487.139	11983
487.215	8848
487.292	7561
487.368	6719
487.444	5973
487.520	7911
487.596	5777
487.672	6568
487.748	7361
487.824	7266
487.900	6341
487.976	5961
488.052	6209
488.128	7377
488.204	5509
488.280	7427
488.356	6726
488.432	10470
488.508	12451
488.584	5545
488.660	5696
488.736	5542
488.812	5735
488.888	7786
488.964	8633
489.039	11512
489.115	15269
489.191	8678
489.267	6146
489.343	5437
489.418	4984
489.494	5745
489.570	4293
489.646	5678
489.722	4559
489.797	4706
489.873	7080
489.949	10438
490.024	7809
490.100	4589
490.176	4964
490.251	5379
490.327	5930
490.403	4073
490.478	4546
490.554	4164
490.629	3271
490.705	3277
490.781	4831
490.856	3507
490.932	4632
491.007	4492
491.083	3882
491.158	4271
491.234	5896
491.309	8632
491.385	6758
491.460	3247
491.536	4384
491.611	3831
491.686	4235
491.762	5029
491.837	7576
491.913	11916
491.988	15385
492.063	14775
492.139	5487
492.214	4448
492.289	3432
492.365	3103
492.440	2731
492.515	3006
492.590	3845
492.666	3433
492.741	4279
492.816	4973
492.891	3610
492.967	3918
493.042	2277
493.117	2837
493.192	4076
493.267	7877
493.342	19468
493.418	21943
493.493	3855
493.568	2713
493.643	3602
493.718	3945
493.793	4103
493.868	4943
493.943	3533
494.018	3532
494.093	2769
494.168	3282
494.243	2800
494.318	2562
494.393	2789
494.468	1390
494.543	1453
494.618	2755
494.693	1940
494.768	2851
494.842	2216
494.917	2904
494.992	2219
495.067	2009
495.142	1830
495.217	2451
495.292	2313
495.366	2874
495.441	2674
495.516	5929
495.591	4752
495.665	14717
495.740	26560
495.815	8553
495.890	3192
495.964	1501
496.039	4739
496.114	3092
496.188	2867
496.263	3098
496.338	2752
496.412	2952
496.487	4509
496.561	3890
496.636	3156
496.710	4059
496.785	3020
496.860	3544
496.934	2150
497.009	3914
497.083	3013
497.158	3552
497.232	3574
497.307	4475
497.381	3171
497.455	3871
497.530	5799
497.604	3399
497.679	3528
497.753	5728
497.827	5112
497.902	4057
497.976	7314
498.050	23037
498.125	64131
498.199	50386
498.273	6020
498.348	5582
498.422	4164
498.496	4450
498.570	4029
498.645	3412
498.719	2645
498.793	4932
498.867	6198
498.941	9922
499.016	30867
499.090	63029
499.164	16094
499.238	3584
499.312	4093
499.386	4295
499.460	3121
499.534	3025
499.609	3748
499.683	4305
499.757	5340
499.831	16622
499.905	45299
499.979	33911
500.053	5940
500.127	5754
500.201	2987
500.275	3838
500.349	3375
500.422	3961
500.496	4928
500.570	10391
500.644	27759
500.718	39879
500.792	7134
500.866	5141
500.940	4732
501.013	3747
501.087	3355
501.161	5648
501.235	6167
501.309	19424
501.382	40659
501.456	29840
501.530	8612
501.603	11941
501.677	5620
501.751	1671
501.825	4710
501.898	7748
501.972	15529
502.046	7374
502.119	3084
502.193	8790
502.266	16058
502.340	7213
502.413	8493
502.487	13630
502.561	6229
502.634	2973
502.708	3118
502.781	1734
502.855	3244
502.928	2455
503.002	2963
503.075	1901
503.149	2550
503.222	2864
503.295	2026
503.369	3743
503.442	3813
503.516	14394
503.589	26614
503.662	14574
503.736	6042
503.809	13111
503.882	9398
503.956	16605
504.029	10603
504.102	3786
504.175	3642
504.249	1510
504.322	2562
504.395	2753
504.468	1853
504.542	2205
504.615	831
504.688	2703
504.761	371
504.834	3281
504.907	3375
504.980	3759
505.053	2153
505.127	1350
505.200	5539
505.273	3015
505.346	2680
505.419	1509
505.492	2286
505.565	745
505.638	1454
505.711	1240
505.784	823
505.857	1263
505.930	3356
506.003	911
506.076	3873
506.149	1929
506.221	1314
506.294	5098
506.367	7594
506.440	21804
506.513	9602
506.586	2758
506.659	390
506.731	2497
506.804	1492
506.877	1780
506.950	1888
507.022	1394
507.095	883
507.168	3105
507.241	1383
507.313	1664
507.386	1442
507.459	3015
507.531	1132
507.604	1294
507.677	2284
507.749	637
507.822	2853
507.894	4719
507.967	6333
508.040	2844
508.112	3948
508.185	3228
508.257	1734
508.330	5619
508.402	2150
508.475	2674
508.547	2133
508.620	2764
508.692	3743
508.765	3741
508.837	1671
508.909	2005
508.982	1869
509.054	3464
509.127	1692
509.199	1932
509.271	1477
509.344	1951
509.416	2901
509.488	2799
509.560	2272
509.633	2321
509.705	2183
509.777	2639
509.849	4398
509.922	2557
509.994	1954
510.066	3848
510.138	2272
510.210	8404
510.283	4727
510.355	5130
510.427	4045
510.499	3392
510.571	3846
510.643	2735
510.715	5951
510.787	2771
510.859	4527
510.931	3727
511.003	4087
511.076	4356
511.148	3285
511.219	3242
511.291	4884
511.363	5311
511.435	3139
511.507	2428
511.579	3229
511.651	4416
511.723	2301
511.795	2734
511.867	2503
511.939	3816
512.010	5209
512.082	3923
512.154	1688
512.226	3692
512.298	6127
512.369	6647
512.441	5630
512.513	4596
512.585	1796
512.656	4775
512.728	4002
512.800	3043
512.871	3710
512.943	3168
513.015	2125
513.086	4292
513.158	2734
513.230	3647
513.301	3121
513.373	4245
513.444	2553
513.516	3043
513.588	2399
513.659	3290
513.731	2944
513.802	2091
513.874	5536
513.945	6471
514.016	1680
514.088	3295
514.159	2277
514.231	4403
514.302	5276
514.374	4549
514.445	2897
514.516	8134
514.588	4162
514.659	3916
514.730	5312
514.802	5638
514.873	1157
514.944	4719
515.016	3940
515.087	3552
515.158	4442
515.229	5675
515.301	2109
515.372	3532
515.443	2196
515.514	2413
515.585	291
515.656	3317
515.728	2728
515.799	2829
515.870	3201
515.941	3206
516.012	1940
516.083	5250
516.154	3237
516.225	4279
516.296	4616
516.367	3708
516.438	2665
516.509	3327
516.580	5656
516.651	17585
516.722	37561
516.793	14255
516.864	5457
516.935	5602
517.006	6331
517.077	7486
517.148	16049
517.219	46715
517.289	48461
517.360	23462
517.431	8892
517.502	2634
517.573	4441
517.643	4229
517.714	3881
517.785	5127
517.856	3748
517.926	5561
517.997	5114
518.068	3733
518.138	7772
518.209	8504
518.280	36166
518.350	89145
518.421	20622
518.492	4807
518.562	3186
518.633	3973
518.703	847
518.774	5696
518.845	3369
518.915	3973
518.986	2979
519.056	4999
519.127	7323
519.197	12423
519.268	25765
519.338	13922
519.408	4495
519.479	4958
519.549	3297
519.620	5143
519.690	3277
519.760	2806
519.831	2693
519.901	3303
519.971	2606
520.042	2411
520.112	2291
520.182	3797
520.253	3898
520.323	2934
520.393	3424
520.463	6578
520.534	2553
520.604	8564
520.674	4296
520.744	4074
520.814	7140
520.885	6789
520.955	10436
521.025	27957
521.095	7721
521.165	3682
521.235	1597
521.305	1893
521.375	2458
521.445	3610
521.515	2776
521.585	4784
521.655	1174
521.725	3951
521.795	3889
521.865	659
521.935	5057
522.005	1916
522.075	1599
522.145	3300
522.215	1690
522.285	4809
522.355	4410
522.424	7293
522.494	3808
522.564	3873
522.634	6728
522.704	15186
522.774	4058
522.843	2634
522.913	1642
522.983	2533
523.053	1449
523.122	3554
523.192	2316
523.262	8431
523.331	4827
523.401	3399
523.471	2460
523.540	1769
523.610	774
523.680	2799
523.749	1938
523.819	2538
523.888	1316
523.958	2193
524.027	573
524.097	2359
524.166	1511
524.236	1008
524.305	4333
524.375	1506
524.444	130
524.514	3477
524.583	657
524.653	1660
524.722	2311
524.791	488
524.861	3925
524.930	707
524.999	701
525.069	3722
525.138	1575
525.207	1653
525.277	1811
525.346	2756
525.415	1729
525.484	1241
525.554	957
525.623	2419
525.692	1002
525.761	663
525.830	1308
525.900	1705
525.969	2000
526.038	2798
526.107	101
526.176	4114
526.245	872
526.314	3825
526.383	3123
526.452	506
526.522	5111
526.591	6517
526.660	5132
526.729	1752
526.797	5181
526.867	12489
526.935	46238
527.004	22336
527.073	4803
527.142	2012
527.211	1453
527.280	3090
527.349	2339
527.418	161
527.487	2153
527.555	544
527.624	498
527.693	282
527.762	1474
527.831	182
527.899	1633
527.968	916
528.037	-16
528.106	2746
528.174	2050
528.243	2075
528.312	3410
528.380	2639
528.449	414
528.518	2343
528.586	-132
528.655	2504
528.723	1377
528.792	1087
528.861	-893
528.929	-552
528.998	2503
529.066	1147
529.135	61
529.203	385
529.272	130
529.340	2098
529.409	1629
529.477	442
529.545	102
529.614	3223
529.682	-174
529.751	2427
529.819	3506
529.887	1989
529.956	467
530.024	2089
530.092	-523
530.161	2110
530.229	1144
530.297	291
530.365	1491
530.434	923
530.502	52
530.570	1054
530.638	-797
530.707	994
530.775	2631
530.843	675
530.911	806
530.979	854
531.047	588
531.115	1406
531.183	1188
531.252	1273
531.320	613
531.388	445
531.456	1058
531.524	-685
531.592	1920
531.660	2913
531.728	-797
531.796	712
531.864	459
531.932	1093
532.000	-77
532.067	1279
532.135	1288
532.203	1636
532.271	775
532.339	3976
532.407	5790
532.475	3137
532.542	2003
532.610	3088
532.678	2136
532.746	19723
532.814	28625
532.881	4657
532.949	1119
533.017	874
533.084	547
533.152	1237
533.220	368
533.287	1172
533.355	962
533.423	1380
533.490	665
533.558	874
533.625	1441
533.693	1329
533.761	2000
533.828	1884
533.896	440
533.963	4882
534.031	4469
534.098	5174
534.166	1735
534.233	1436
534.300	1209
534.368	1707
534.435	1390
534.503	1911
534.570	1644
534.637	534
534.705	952
534.772	1353
534.840	269
534.907	3520
534.974	1219
535.041	982
535.109	935
535.176	-178
535.243	950
535.310	1307
535.378	-545
535.445	1292
535.512	639
535.579	1922
535.646	929
535.714	1171
535.781	2123
535.848	2720
535.915	2958
535.982	2942
536.049	991
536.116	3060
536.183	747
536.250	1569
536.317	685
536.384	1944
536.451	2120
536.518	2275
536.585	-761
536.652	3045
536.719	2704
536.786	192
536.853	1217
536.920	3724
536.987	4114
537.053	4319
537.120	19713
537.187	10428
537.254	769
537.321	989
537.388	1865
537.454	575
537.521	339
537.588	764
537.654	2307
537.721	978
537.788	2223
537.855	587
537.921	553
537.988	1434
538.055	2017
538.121	217
538.188	1189
538.254	2547
538.321	3212
538.388	2102
538.454	1050
538.521	766
538.587	409
538.654	1484
538.720	684
538.787	1292
538.853	1579
538.920	1090
538.986	1102
539.053	1593
539.119	1630
539.185	1683
539.252	2705
539.318	1596
539.385	2651
539.451	1647
539.517	2692
539.583	3704
539.650	6251
539.716	10802
539.782	2477
539.849	1525
539.915	2089
539.981	702
540.047	511
540.114	1616
540.180	2840
540.246	1017
540.312	1695
540.378	3740
540.444	4426
540.510	6920
540.576	11854
540.643	2975
540.709	214
540.775	1112
540.841	904
540.907	3510
540.973	3438
541.039	2811
541.105	1778
541.171	1336
541.237	127
541.303	2428
541.369	3521
541.435	3027
541.500	2606
541.566	1319
541.632	1610
541.698	1348
541.764	2511
541.830	1314
541.896	21
541.961	2331
542.027	594
542.093	927
542.159	1550
542.224	940
542.290	2777
542.356	3232
542.421	3510
542.487	2331
542.553	1694
542.618	2538
542.684	410
542.750	1192
542.815	1947
542.881	4208
542.947	12074
543.012	6682
543.078	999
543.143	844
543.209	2026
543.274	1834
543.340	2713
543.405	6464
543.471	5038
543.536	1576
543.602	1735
543.667	886
543.732	2172
543.798	640
543.863	1434
543.928	1026
543.994	638
544.059	1668
544.124	1559
544.190	1050
544.255	1465
544.320	2174
544.386	558
544.451	2601
544.516	2329
544.581	3114
544.646	9300
544.712	9891
544.777	1653
544.842	2952
544.907	2122
544.972	2669
545.037	2863
545.102	2758
545.168	1990
545.233	2881
545.298	2928
545.363	2416
545.428	2850
545.493	6414
545.558	8371
545.623	3066
545.688	1417
545.753	2501
545.818	980
545.883	3428
545.947	1365
546.012	2796
546.077	2289
546.142	2530
546.207	1281
546.272	3444
546.337	2101
546.401	2596
546.466	2375
546.531	1348
546.596	2711
546.661	2462
546.725	3458
546.790	1404
546.855	1901
546.919	1668
546.984	1773
547.049	1398
547.113	2199
547.178	1308
547.243	2286
547.307	2351
547.372	2698
547.436	2366
547.501	1433
547.565	1759
547.630	2543
547.695	2475
547.759	1717
547.823	2101
547.888	1831
547.952	2173
548.017	937
548.081	2607
548.146	2002
548.210	2433
548.274	1325
548.339	2924
548.403	2145
548.468	1345
548.532	1213
548.596	2137
548.660	1024
548.725	2716
548.789	1324
548.853	3262
548.917	2128
548.982	3653
549.046	2909
549.110	1590
549.174	1342
549.238	1228
549.303	318
549.367	2794
549.431	742
549.495	2304
549.559	1677
549.623	2490
549.687	1874
549.751	3460
549.815	1132
549.879	3416
549.943	97
550.007	2984
550.071	1953
550.135	2487
550.199	695
550.263	2540
550.327	3120
550.391	3233
550.455	1849
550.519	1668
550.582	2063
550.646	2991
550.710	2258
550.774	1966
550.838	1086
550.901	2256
550.965	2039
551.029	1550
551.093	2100
551.156	3631
551.220	6542
551.284	4852
551.347	3453
551.411	9440
551.475	6641
551.538	2290
551.602	1781
551.666	741
551.729	637
551.793	2352
551.856	2407
551.920	1364
551.983	1712
552.047	1714
552.110	2256
552.174	2117
552.237	487
552.301	1396
552.364	1571
552.428	1774
552.491	1230
552.554	1590
552.618	1516
552.681	2614
552.745	2186
552.808	3878
552.871	3233
552.934	2101
552.998	2233
553.061	2652
553.124	1295
553.187	2317
553.251	2340
553.314	3081
553.377	2438
553.440	6803
553.503	24520
553.567	27217
553.630	3327
553.693	2736
553.756	1488
553.819	1633
553.882	1000
553.945	2141
554.008	464
554.071	1330
554.134	1934
554.197	1688
554.260	1107
554.323	2717
554.386	1607
554.449	1417
554.512	1644
554.575	1180
554.638	2006
554.701	2442
554.764	2273
554.827	1331
554.889	1361
554.952	1509
555.015	-120
555.078	710
555.141	1793
555.203	1046
555.266	1980
555.329	2517
555.391	1187
555.454	1838
555.517	1095
555.580	2292
555.642	1205
555.705	1299
555.768	1521
555.830	1488
555.893	235
555.955	1517
556.018	1241
556.080	1274
556.143	657
556.206	1813
556.268	1411
556.330	956
556.393	1537
556.455	2039
556.518	2690
556.580	2020
556.643	1248
556.705	1794
556.767	-73
556.830	2234
556.892	1222
556.955	2337
557.017	1063
557.079	1476
557.142	1139
557.204	1883
557.266	4214
557.328	2892
557.391	897
557.453	683
557.515	1974
557.577	2368
557.639	1703
557.701	1769
557.764	632
557.826	1172
557.888	1718
557.950	1539
558.012	2263
558.074	1478
558.136	1097
558.198	2536
558.260	2126
558.322	792
558.384	1359
558.446	2402
558.508	1528
558.570	2538
558.632	4310
558.694	4195
558.756	2128
558.818	4697
558.880	5892
558.942	1625
559.003	1986
559.065	2219
559.127	284
559.189	1549
559.251	449
559.312	1513
559.374	2279
559.436	4694
559.498	2780
559.559	1425
559.621	1420
559.683	2077
559.744	3773
559.806	5168
559.868	4466
559.929	1857
559.991	2334
560.052	1675
560.114	2642
560.176	2501
560.237	3251
560.299	2745
560.360	1433
560.422	1711
560.483	1307
560.545	2331
560.606	2218
560.667	1617
560.729	1168
560.790	1979
560.852	2543
560.913	2750
560.974	1230
561.036	1723
561.097	2034
561.158	2120
561.220	2135
561.281	1980
561.342	2206
561.403	2853
561.465	2569
561.526	7647
561.587	6048
561.648	1441
561.709	2406
561.771	2092
561.832	2338
561.893	2504
561.954	2421
562.015	3328
562.076	2433
562.137	1917
562.198	1308
562.259	3232
562.320	1719
562.381	2360
562.442	2966
562.503	3314
562.564	1470
562.625	1500
562.686	1896
562.747	2484
562.808	1587
562.869	2375
562.930	3989
562.991	3238
563.051	2275
563.112	1678
563.173	2139
563.234	2280
563.294	2357
563.355	2644
563.416	2425
563.477	2514
563.537	2702
563.598	3109
563.659	2316
563.720	1280
563.780	2288
563.841	2663
563.901	2532
563.962	2842
564.023	2530
564.083	3288
564.144	1997
564.204	2079
564.265	2587
564.325	3879
564.386	5206
564.446	3709
564.507	1663
564.567	1769
564.628	2159
564.688	1941
564.749	2223
564.809	3267
564.869	3432
564.930	2478
564.990	1888
565.050	2118
565.111	2107
565.171	2483
565.231	1452
565.292	4004
565.352	1067
565.412	2672
565.472	1779
565.532	2577
565.593	1895
565.653	2534
565.713	1981
565.773	2668
565.833	2310
565.893	3641
565.953	1462
566.013	2252
566.074	2326
566.134	4028
566.194	5515
566.254	5489
566.314	2885
566.374	2106
566.434	1755
566.494	2887
566.554	3436
566.614	2327
566.673	2362
566.733	2726
566.793	2475
566.853	2796
566.913	2639
566.973	3015
567.033	3358
567.092	2323
567.152	2148
567.212	3026
567.272	2976
567.331	3272
567.391	2823
567.451	3656
567.511	3763
567.570	3521
567.630	2227
567.690	2735
567.749	2598
567.809	2796
567.868	3134
567.928	3426
567.988	2711
568.047	3192
568.107	3428
568.166	4416
568.226	5777
568.285	6706
568.345	6160
568.404	5382
568.464	4385
568.523	3794
568.582	3833
568.642	4514
568.701	5297
568.761	7338
568.820	10847
568.879	9978
568.939	8061
568.998	5156
569.057	4669
569.116	3407
569.176	3485
569.235	3188
569.294	3655
569.353	2784
569.413	2976
569.472	3045
569.531	2375
569.590	1896
569.649	1890
569.708	1777
569.767	3485
569.827	3608
569.886	1501
569.945	2499
570.004	2355
570.063	2523
570.122	2191
570.181	2591
570.240	2769
570.299	2503
570.358	2763
570.417	1790
570.475	2711
570.534	3003
570.593	2354
570.652	2595
570.711	1934
570.770	2682
570.829	2067
570.887	2872
570.946	2485
571.005	1974
571.064	1393
571.122	3110
571.181	2092
571.240	2534
571.299	1675
571.357	1998
571.416	2390
571.475	2984
571.533	2546
571.592	1946
571.650	1546
571.709	1943
571.768	1604
571.826	2598
571.885	1898
571.943	1948
572.002	2177
572.060	2048
572.119	1208
572.177	2452
572.236	1545
572.294	901
572.352	2475
572.411	2503
572.469	1698
572.528	2047
572.586	1925
572.644	2950
572.703	3070
572.761	2431
572.819	1508
572.877	1474
572.936	1828
572.994	1673
573.052	1764
573.110	2102
573.169	1277
573.227	1488
573.285	1337
573.343	1558
573.401	1472
573.459	3661
573.517	1837
573.576	1009
573.634	2173
573.692	1890
573.750	2411
573.808	1672
573.866	1812
573.924	2680
573.982	2177
574.040	2274
574.098	1722
574.155	1870
574.213	1839
574.271	1307
574.329	1208
574.387	1002
574.445	1264
574.503	1290
574.560	1419
574.618	1275
574.676	964
574.734	1258
574.792	1071
574.849	1667
574.907	310
574.965	1537
575.022	62
575.080	1495
575.138	2510
575.195	2337
575.253	925
575.311	1468
575.368	1846
575.426	1009
575.483	1543
575.541	2147
575.598	1614
575.656	1687
575.713	1607
575.771	1866
575.828	715
575.886	2273
575.943	1600
576.001	1901
576.058	632
576.115	1901
576.173	2352
576.230	2332
576.287	2851
576.345	2023
576.402	1935
576.459	2391
576.517	1728
576.574	2804
576.631	2123
576.688	2464
576.746	1267
576.803	2565
576.860	1363
576.917	2228
576.974	2394
577.031	1620
577.089	1848
577.146	2150
577.203	1616
577.260	1776
577.317	2789
577.374	2295
577.431	2321
577.488	1786
577.545	1738
577.602	1901
577.659	2109
577.716	2650
577.773	2715
577.830	2647
577.886	1600
577.943	1288
578.000	2047
578.057	2378
578.114	2805
578.171	3907
578.227	4511
578.284	3409
578.341	3368
578.398	2526
578.454	1832
578.511	2650
578.568	2619
578.625	2239
578.681	1151
578.738	2097
578.794	2093
578.851	2160
578.908	1005
578.964	2428
579.021	2750
579.077	1306
579.134	1574
579.190	1455
579.247	1568
579.303	2286
579.360	941
579.416	2186
579.473	1939
579.529	1646
579.586	1935
579.642	2637
579.698	1963
579.755	2588
579.811	2263
579.867	3035
579.924	2113
579.980	2482
580.036	3804
580.093	4615
580.149	6234
580.205	6267
580.261	5052
580.317	4227
580.374	3180
580.430	3771
580.486	2512
580.542	2252
580.598	2608
580.619	2372
580.654	1954
580.692	2322
580.710	2493
580.765	2066
580.767	2045
580.823	1956
580.838	1982
580.879	2025
580.911	2215
580.935	2340
580.984	2037
580.991	1992
581.047	2953
581.057	3088
581.103	3675
581.130	3562
581.159	3400
581.203	4110
581.215	4281
581.270	3251
581.276	3249
581.326	3166
581.349	3012
581.382	2743
581.422	2770
581.438	2767
581.494	2780
581.494	2786
581.550	2594
581.567	2876
581.606	3397
581.640	3231
581.661	3119
581.713	3085
581.717	3079
581.773	3378
581.786	3268
581.829	2820
581.859	2897
581.885	3013
581.932	3338
581.940	3370
581.996	3663
582.004	3621
582.052	3338
582.077	3319
582.107	3320
582.150	2925
582.163	2786
582.219	3321
582.223	3320
582.274	3250
582.296	3359
582.330	3520
582.368	3538
582.386	3559
582.441	4250
582.441	4244
582.497	3618
582.514	3911
582.552	4750
582.587	4774
582.608	4663
582.659	4403
582.663	4375
582.719	3748
582.732	3894
582.774	4328
582.805	4309
582.830	4416
582.877	4831
582.885	4882
582.941	4423
582.950	4521
582.996	5034
583.023	5392
583.052	6043
583.095	6693
583.107	6877
583.162	8019
583.168	8186
583.218	9283
583.240	8373
583.273	6732
583.313	7156
583.328	7337
583.384	6166
583.385	6160
583.439	5690
583.458	5536
583.494	5637
583.531	6077
583.549	6314
583.603	5891
583.605	5872
583.660	5939
583.676	5902
583.715	6050
583.748	6149
583.770	6226
583.820	6007
583.825	5976
583.881	6326
583.893	6220
583.936	6010
583.965	6035
583.991	5916
584.038	6412
584.046	6548
584.101	6941
584.110	6805
584.156	6175
584.183	6385
584.211	6653
584.255	7052
584.266	7073
584.321	6855
584.328	6764
584.376	6674
584.400	7190
584.431	7742
584.472	7384
584.486	7270
584.541	7508
584.545	7475
584.596	6938
584.617	6981
584.651	7628
584.689	8497
584.706	8687
584.761	8625
584.762	8610
584.816	8746
584.834	8839
584.871	9192
584.906	9459
584.926	9486
584.978	8690
584.980	8698
585.035	9434
585.051	9649
585.090	10297
585.123	10386
585.145	10258
585.195	10244
585.200	10335
585.254	10707
585.267	10974
585.309	11937
585.340	12463
585.364	12478
585.412	11630
585.419	11533
585.473	11466
585.484	11384
585.528	11712
585.556	11990
585.583	12283
585.628	12465
585.637	12653
585.692	13417
585.700	13600
585.747	14622
585.772	14653
585.801	13751
585.845	12638
585.856	12619
585.910	12369
585.917	12318
585.965	12377
585.989	12563
586.019	13176
586.061	13343
586.074	13389
586.128	13803
586.133	13805
586.183	14402
586.205	14580
586.237	14966
586.277	15379
586.292	15535
586.346	15482
586.349	15486
586.401	16306
586.421	16123
586.455	16611
586.493	18142
586.509	20197
586.564	26388
586.565	26491
586.618	38072
586.637	40129
586.672	31058
586.709	22901
586.727	21531
586.781	18026
586.781	18086
586.835	18051
586.853	17982
586.889	18576
586.925	18707
586.944	18572
586.996	18872
586.998	18984
587.052	20270
587.068	20423
587.106	20480
587.140	20868
587.161	21237
587.212	21780
587.215	21926
587.269	22769
587.284	23026
587.323	23053
587.356	23048
587.377	23626
587.427	25221
587.431	25403
587.485	26016
587.499	26051
587.539	26597
587.571	27123
587.593	27986
587.643	29465
587.648	29685
587.702	30713
587.715	30874
587.755	31969
587.786	32885
587.810	33788
587.858	34796
587.864	35227
587.917	38693
587.930	39341
587.971	42622
588.001	44647
588.025	46589
588.073	50017
588.079	50750
588.133	55717
588.145	56693
588.187	62125
588.217	65745
588.241	70400
588.288	78104
588.295	79588
588.348	90437
588.360	92540
588.402	106503
588.431	115494
588.456	124715
588.503	141350
588.510	145346
588.564	173471
588.575	178987
588.617	213263
588.646	236469
588.671	273648
588.718	344089
588.725	367420
588.778	546962
588.789	583500
588.832	896262
588.861	1113880
588.886	1346131
588.932	1783588
588.939	1795131
588.993	1771736
589.004	1748764
589.047	1459677
589.075	1264990
589.100	1032354
589.147	603186
589.154	583482
589.207	415215
589.218	379119
589.261	350786
589.290	330412
589.314	349462
589.361	385157
589.368	408859
589.421	598816
589.433	638486
589.475	1011071
589.504	1276274
589.528	1447390
589.576	1739876
589.582	1709849
589.635	1322930
589.647	1236649
589.689	793742
589.718	482555
589.742	403508
589.790	241093
589.795	236135
589.849	180998
589.861	167453
589.902	150364
589.932	136084
589.955	124103
590.004	97530
590.009	96840
590.062	84944
590.075	81616
590.115	76060
590.146	71156
590.168	69076
590.218	63380
590.222	63394
590.275	60181
590.289	58928
590.328	57443
590.360	55804
590.381	54748
590.431	51652
590.435	51800
590.488	50181
590.503	49450
590.541	48254
590.574	46937
590.594	46711
590.645	45133
590.647	45292
590.700	43982
590.716	43346
590.753	42562
590.787	41614
590.806	41481
590.859	40108
590.859	40281
590.912	39000
590.930	38540
590.965	39320
591.001	39526
591.018	39337
591.071	38290
591.072	38096
591.124	38487
591.143	38350
591.177	38552
591.214	38580
591.230	38878
591.283	39005
591.285	38826
591.336	39159
591.356	38998
591.389	38378
591.427	37306
591.442	37380
591.495	36965
591.498	36748
591.547	36667
591.569	36459
591.600	36351
591.640	35655
591.653	35888
591.706	36183
591.711	36042
591.759	37375
591.782	37782
591.811	39726
591.853	42073
591.864	41389
591.917	36885
591.924	36058
591.969	36576
591.995	36576
592.022	36547
592.066	36057
592.075	37004
592.127	41696
592.137	42375
592.180	45607
592.208	47302
592.233	44233
592.279	37848
592.285	37839
592.338	36197
592.350	35647
592.390	35495
592.421	35078
592.443	35097
592.491	34622
592.495	34904
592.548	36457
592.562	36715
592.600	36371
592.633	35740
592.653	35546
592.704	34401
592.705	34604
592.775	34735
592.846	35512
592.916	34628
592.987	35006
593.058	35176
593.128	33714
593.199	33936
593.270	32928
593.341	32993
593.411	31939
593.482	31865
593.553	32539
593.623	31054
593.694	31588
593.764	34261
593.835	32049
593.906	31043
593.976	30945
594.047	33010
594.117	37984
594.188	37649
594.258	30846
594.329	30091
594.399	29751
594.470	29320
594.540	28990
594.611	29147
594.681	29075
594.751	30121
594.822	32367
594.892	32912
594.963	33298
595.033	32728
595.103	32887
595.174	35068
595.244	46358
595.314	57167
595.384	32200
595.455	31074
595.525	32273
595.595	31150
595.665	32004
595.736	31379
595.806	30863
595.876	31070
595.946	30205
596.016	28627
596.087	30972
596.157	29709
596.227	30136
596.297	31024
596.367	31857
596.437	33774
596.507	43888
596.577	52458
596.647	32984
596.717	30479
596.787	29045
596.857	29433
596.927	28979
596.997	31203
597.067	30339
597.137	34779
597.207	32431
597.277	29995
597.347	30288
597.417	30289
597.487	30647
597.557	31717
597.626	30741
597.696	32171
597.766	39712
597.836	49733
597.906	34539
597.975	29323
598.045	28143
598.115	28906
598.185	28775
598.254	30356
598.324	29742
598.394	28394
598.464	28863
598.533	29599
598.603	27413
598.672	28783
598.742	27819
598.812	27415
598.881	27702
598.951	28341
599.020	26675
599.090	25744
599.159	27005
599.229	26497
599.299	25832
599.368	25829
599.437	25315
599.507	26556
599.576	27497
599.646	29138
599.715	31073
599.785	26920
599.854	30323
599.924	32340
599.993	30256
600.062	28302
600.132	28302
600.201	27757
600.270	28137
600.340	26941
600.409	26262
600.478	27127
600.547	26543
600.617	27905
600.686	28377
600.755	26501
600.824	26779
600.894	27855
600.963	26047
601.032	26489
601.101	26543
601.170	26392
601.239	25988
601.308	27680
601.378	26420
601.447	26018
601.516	25043
601.585	26666
601.654	26933
601.723	26510
601.792	25004
601.861	27132
601.930	30702
601.999	27727
602.068	24787
602.137	26432
602.206	26433
602.275	24707
602.343	26239
602.412	26743
602.481	24341
602.550	24809
602.619	24215
602.688	25436
602.756	25034
602.825	23914
602.894	23987
602.963	24577
603.032	25080
603.100	23663
603.169	23704
603.238	24210
603.307	23683
603.375	23602
603.444	23703
603.513	23576
603.581	22258
603.650	22915
603.719	23465
603.787	23559
603.856	22782
603.924	23195
603.993	24049
604.061	22527
604.130	22057
604.198	22600
604.267	22864
604.335	22158
604.404	21092
604.472	21344
604.541	23251
604.609	21341
604.678	21874
604.746	21243
604.815	21151
604.883	22275
604.951	21968
605.020	20932
605.088	21817
605.156	22909
605.225	21164
605.293	22108
605.361	23006
605.429	21267
605.498	21367
605.566	21588
605.634	22843
605.702	21714
605.771	22766
605.839	22672
605.907	21321
605.975	22375
606.043	22818
606.111	21760
606.180	23329
606.248	28139
606.316	31155
606.384	23634
606.452	28792
606.520	26678
606.588	22915
606.656	19912
606.724	20469
606.792	20220
606.860	19576
606.928	19728
606.996	20984
607.064	19083
607.132	19497
607.200	19518
607.267	19585
607.335	18014
607.403	18898
607.471	19180
607.539	19969
607.607	18886
607.674	18865
607.742	20008
607.810	19610
607.878	18622
607.946	18984
608.013	19290
608.081	19796
608.149	19279
608.216	17508
608.284	20218
608.352	19113
608.419	21188
608.487	31803
608.555	23418
608.622	18810
608.690	18851
608.757	18619
608.825	18722
608.893	19581
608.960	22142
609.028	26570
609.095	32101
609.163	21162
609.230	19878
609.298	20465
609.365	18070
609.432	19047
609.500	18677
609.567	20057
609.635	19750
609.702	20523
609.769	20577
609.837	23665
609.904	21587
609.971	20580
610.039	24628
610.106	30685
610.173	44393
610.241	85996
610.308	146673
610.375	102797
610.442	35630
610.509	24289
610.577	22367
610.644	20101
610.711	19185
610.778	19211
610.845	19379
610.912	21042
610.980	23677
611.047	34098
611.114	25506
611.181	18703
611.248	16961
611.315	19372
611.382	17161
611.449	17778
611.516	17992
611.583	18275
611.650	18332
611.717	18585
611.784	17783
611.851	17845
611.918	19449
611.984	18889
612.051	22377
612.118	27748
612.185	43835
612.252	34579
612.319	19261
612.386	18698
612.452	17753
612.519	22558
612.586	33395
612.653	24417
612.719	17752
612.786	16517
612.853	16925
612.919	16028
612.986	17411
613.053	16813
613.120	15755
613.186	16636
613.253	18717
613.319	17204
613.386	16887
613.453	16893
613.519	17653
613.586	19832
613.652	26135
613.719	22553
613.785	21310
613.852	17406
613.918	17287
613.985	19736
614.051	24732
614.118	45569
614.184	44941
614.250	18577
614.317	16217
614.383	16165
614.449	14865
614.516	15297
614.582	17372
614.648	16080
614.715	15251
614.781	15496
614.847	19200
614.914	20207
614.980	18062
615.046	18324
615.112	16265
615.179	16301
615.245	17231
615.311	21180
615.377	25015
615.443	29169
615.509	22205
615.575	20747
615.642	18842
615.708	20144
615.774	22137
615.840	25491
615.906	28971
615.972	32413
616.038	45522
616.104	60064
616.170	70685
616.236	60723
616.302	32693
616.368	26705
616.434	25273
616.500	26103
616.565	25479
616.631	23978
616.697	24002
616.763	24184
616.829	25807
616.895	28233
616.961	29102
617.026	25651
617.092	22074
617.158	23470
617.224	23209
617.289	24018
617.355	25120
617.421	27219
617.487	26192
617.552	24898
617.618	23333
617.684	22984
617.749	25452
617.815	23307
617.880	22953
617.946	22533
618.012	23653
618.077	22368
618.143	21858
618.208	23736
618.274	24016
618.339	26482
618.405	24789
618.470	25509
618.536	25236
618.601	31391
618.667	29987
618.732	27767
618.798	26155
618.863	27325
618.928	26023
618.994	29721
619.059	30871
619.124	34455
619.190	29303
619.255	26335
619.320	28250
619.386	28596
619.451	25595
619.516	26728
619.581	27634
619.647	26584
619.712	26345
619.777	27335
619.842	26948
619.907	28616
619.972	26725
620.038	26983
620.103	26867
620.168	25644
620.233	26147
620.298	25561
620.363	26537
620.428	25245
620.493	26507
620.558	24905
620.623	25345
620.688	24989
620.753	24822
620.818	24476
620.883	25715
620.948	25833
621.013	26677
621.078	26258
621.143	26984
621.207	28608
621.272	27501
621.337	29740
621.402	33609
621.467	43912
621.532	45970
621.596	37196
621.661	33781
621.726	31543
621.791	31692
621.855	32215
621.920	33507
621.985	34887
622.049	38533
622.114	36889
622.179	35688
622.243	39224
622.308	36499
622.373	37276
622.437	37342
622.502	34150
622.566	35822
622.631	36132
622.695	36286
622.760	36555
622.824	33786
622.889	34374
622.953	35623
623.018	41636
623.082	40152
623.147	33984
623.211	32291
623.276	33119
623.340	31581
623.404	32292
623.469	32251
623.533	31471
623.597	31156
623.662	32172
623.726	31721
623.790	29913
623.854	31721
623.919	32808
623.983	30731
624.047	32161
624.111	30857
624.176	31910
624.240	32609
624.304	35629
624.368	31861
624.432	30991
624.496	31653
624.560	31668
624.625	31064
624.689	31364
624.753	29306
624.817	29614
624.881	28879
624.945	30413
625.009	29863
625.073	28588
625.137	30441
625.201	34086
625.265	31754
625.329	29404
625.393	30121
625.456	30089
625.520	29030
625.584	33370
625.648	38777
625.712	58169
625.776	128742
625.839	146899
625.903	58881
625.967	36160
626.031	57444
626.095	85042
626.158	35629
626.222	26431
626.286	26338
626.349	26396
626.413	26144
626.477	26858
626.540	25393
626.604	25512
626.668	27527
626.731	25304
626.795	28878
626.858	28658
626.922	27251
626.986	26394
627.049	23685
627.113	26258
627.176	24833
627.240	24447
627.303	26217
627.366	25701
627.430	24588
627.493	26226
627.557	27236
627.620	27088
627.684	26145
627.747	24870
627.810	23970
627.874	24813
627.937	24180
628.000	26455
628.064	24694
628.127	23194
628.190	24877
628.253	24938
628.317	23194
628.380	25089
628.443	24024
628.506	24612
628.569	24264
628.632	22385
628.696	23506
628.759	22901
628.822	22074
628.885	21468
628.948	21966
629.011	23171
629.074	22614
629.137	22243
629.200	21741
629.263	25747
629.326	20555
629.389	21926
629.452	22930
629.515	23901
629.578	21771
629.641	23447
629.704	22619
629.767	23309
629.830	21173
629.892	21825
629.955	20316
630.018	22750
630.081	19647
630.144	23614
630.207	20946
630.269	23771
630.332	24376
630.395	21830
630.458	20565
630.520	19490
630.583	20815
630.646	19722
630.708	18835
630.771	19598
630.834	20348
630.896	18787
630.959	18418
631.021	18480
631.084	19665
631.146	21257
631.209	22371
631.272	18941
631.334	17714
631.397	18184
631.459	16865
631.522	17733
631.584	17457
631.646	18827
631.709	18899
631.771	21323
631.834	19105
631.896	17895
631.958	15888
632.021	18396
632.083	17330
632.145	19322
632.208	17907
632.270	18563
632.332	16307
632.395	16945
632.457	18003
632.519	17066
632.581	17408
632.643	16241
632.706	17004
632.768	16538
632.830	17885
632.892	16708
632.954	17170
633.016	17407
633.078	16459
633.141	16477
633.203	16207
633.265	18009
633.327	16304
633.389	16062
633.451	17790
633.513	18191
633.575	20020
633.637	17798
633.698	17770
633.760	17053
633.822	16771
633.884	15784
633.946	15772
634.008	15901
634.070	17027
634.132	20015
634.193	16421
634.255	16509
634.317	13637
634.379	16673
634.441	14842
634.502	15190
634.564	15575
634.626	14379
634.687	14670
634.749	15336
634.811	15134
634.873	14022
634.934	14993
634.996	15619
635.057	14752
635.119	14810
635.181	15230
635.242	15765
635.304	12738
635.365	15939
635.427	14020
635.488	13820
635.550	13563
635.611	14631
635.673	13475
635.734	16373
635.796	15530
635.857	15932
635.918	13627
635.980	15428
636.041	13329
636.102	14760
636.164	14038
636.225	14073
636.286	13072
636.348	14284
636.409	13539
636.470	13074
636.531	14862
636.593	16054
636.654	15389
636.715	12944
636.776	13040
636.838	12775
636.899	14289
636.960	12640
637.021	13660
637.082	12731
637.143	12918
637.204	12552
637.265	12441
637.326	13041
637.387	13372
637.448	11654
637.509	12883
637.570	12545
637.631	14213
637.692	10815
637.753	10897
637.814	11963
637.875	12115
637.936	13670
637.997	11246
638.058	12667
638.119	13065
638.179	12527
638.240	12556
638.301	12855
638.362	11028
638.423	12995
638.483	13677
638.544	10941
638.605	12871
638.666	11868
638.726	12767
638.787	12286
638.848	11179
638.908	12608
638.969	11898
639.030	12187
639.090	10997
639.151	11363
639.211	12225
639.272	12828
639.332	18132
639.393	13327
639.453	11452
639.514	11400
639.574	10768
639.635	11001
639.695	11758
639.756	10542
639.816	11215
639.877	11284
639.937	15469
639.997	16642
640.058	10343
640.118	10510
640.178	11594
640.239	10648
640.299	10843
640.359	10343
640.420	10532
640.480	11654
640.540	9997
640.600	10036
640.661	11304
640.721	10943
640.781	13763
640.841	10321
640.901	11158
640.961	10926
641.021	11037
641.082	9747
641.142	12169
641.202	12409
641.262	9340
641.322	11178
641.382	9746
641.442	10744
641.502	10265
641.562	11828
641.622	9800
641.682	10816
641.742	10597
641.802	10234
641.861	11403
641.921	11545
641.981	11657
642.041	11865
642.101	12996
642.161	9222
642.221	9732
642.280	11000
642.340	9135
642.400	8666
642.460	10736
642.519	10487
642.579	10526
642.639	11242
642.698	7718
642.758	11179
642.818	9974
642.877	9819
642.937	11215
642.997	12076
643.056	12868
643.116	9395
643.175	11168
643.235	9323
643.294	9934
643.354	9871
643.414	10186
643.473	9760
643.532	9110
643.592	9007
643.651	10466
643.711	12229
643.770	13601
643.830	21361
643.889	38275
643.948	15323
644.008	8932
644.067	9370
644.126	8365
644.186	9206
644.245	9363
644.304	8049
644.363	10630
644.423	7819
644.482	9145
644.541	9740
644.600	7002
644.659	9698
644.719	9120
644.778	11037
644.837	8672
644.896	11196
644.955	13811
645.014	11416
645.073	11955
645.132	9614
645.191	9637
645.250	8017
645.309	10428
645.368	9206
645.427	9759
645.486	8375
645.545	9436
645.604	8591
645.663	9507
645.722	9033
645.781	7747
645.840	8515
645.898	8660
645.957	10142
646.016	7925
646.075	10184
646.134	12123
646.192	20095
646.251	26549
646.310	9555
646.369	8024
646.427	8302
646.486	6634
646.545	7769
646.603	7921
646.662	8574
646.721	8693
646.779	7220
646.838	7325
646.896	8257
646.955	7453
647.014	8972
647.072	7533
647.131	9773
647.189	8436
647.248	8162
647.306	8175
647.365	8901
647.423	6302
647.481	9365
647.540	6646
647.598	7165
647.657	6444
647.715	8068
647.773	6542
647.832	8848
647.890	6294
647.948	7871
648.007	8841
648.065	7514
648.123	7984
648.181	10111
648.240	11638
648.298	9954
648.356	9453
648.414	9139
648.472	8293
648.531	9174
648.589	7791
648.647	7922
648.705	8047
648.763	8065
648.821	7796
648.879	7558
648.937	8470
648.995	8093
649.053	7900
649.111	7837
649.169	8745
649.227	9904
649.285	10572
649.343	18019
649.401	14216
649.459	17633
649.516	15715
649.574	12169
649.632	22807
649.690	25998
649.748	14642
649.806	15950
649.863	23059
649.921	11554
649.979	8382
650.037	8439
650.094	6383
650.152	8116
650.210	6450
650.268	7814
650.325	7283
650.383	7998
650.440	6339
650.498	8371
650.556	7140
650.613	5919
650.671	7467
650.728	7908
650.786	7923
650.843	7452
650.901	5447
650.958	7134
651.016	7326
651.073	6914
651.131	6660
651.188	6495
651.246	7803
651.303	5917
651.360	7068
651.418	7351
651.475	7630
651.532	5982
651.590	6986
651.647	6133
651.704	7588
651.762	7003
651.819	6611
651.876	6601
651.933	7177
651.990	7065
652.048	5073
652.105	7344
652.162	7064
652.219	6720
652.276	6747
652.333	7452
652.390	5241
652.448	6598
652.505	6906
652.562	6926
652.619	7134
652.676	12581
652.733	12244
652.790	6295
652.847	4626
652.904	6650
652.961	5035
653.017	5098
653.074	6797
653.131	6792
653.188	5103
653.245	6053
653.302	6033
653.359	6104
653.415	5938
653.472	6250
653.529	6012
653.586	5745
653.642	6216
653.699	5902
653.756	5441
653.813	5940
653.869	6359
653.926	5166
653.983	6103
654.039	5906
654.096	5676
654.152	7029
654.209	4381
654.266	6437
654.322	5634
654.379	7296
654.435	7326
654.492	7717
654.548	9432
654.605	12660
654.661	9108
654.717	6598
654.774	6657
654.830	6041
654.887	5461
654.943	7459
655.000	6645
655.056	6901
655.112	6352
655.168	6284
655.225	6120
655.281	8484
655.337	10051
655.394	14591
655.450	10456
655.506	9586
655.562	15390
655.618	12572
655.675	6052
655.731	7164
655.787	6797
655.843	7205
655.899	5504
655.955	7053
656.011	6940
656.067	5117
656.123	6810
656.179	6673
656.235	7436
656.291	5171
656.347	7676
656.403	6448
656.459	6426
656.515	6625
656.571	6984
656.627	7184
656.683	6797
656.739	7568
656.795	5892
656.850	6757
656.906	7137
656.962	7351
657.018	5396
657.074	5942
657.129	6647
657.185	6015
657.241	6206
657.297	5318
657.352	6220
657.408	6196
657.464	7246
657.519	5908
657.575	5020
657.630	5923
657.686	6018
657.742	6242
657.797	6355
657.853	5943
657.908	7565
657.964	5973
658.019	5705
658.075	6621
658.130	6692
658.186	5784
658.241	6432
658.297	5166
658.352	5895
658.407	6210
658.463	4585
658.518	6324
658.573	6732
658.629	5555
658.684	5073
658.739	6197
658.795	4649
658.850	5356
658.905	5443
658.960	5833
659.016	5389
659.071	5724
659.126	6308
659.181	7081
659.236	7965
659.291	8107
659.346	6762
659.401	8462
659.457	8226
659.512	9639
659.567	8072
659.622	6715
659.677	6070
659.732	5590
659.787	6341
659.842	6369
659.897	7946
659.952	6044
660.007	6123
660.061	5208
660.116	5211
660.171	6325
660.226	4904
660.281	7072
660.336	4756
660.391	6117
660.445	5592
660.500	6014
660.555	5750
660.610	5778
660.664	6282
660.719	5532
660.774	5909
660.828	6600
660.883	5466
660.938	6313
660.992	4255
661.047	5860
661.101	5651
661.156	5968
661.211	5241
661.265	6273
661.320	6100
661.374	6347
661.429	5485
661.483	6684
661.538	5768
661.592	5764
661.647	5649
661.701	5955
661.755	6630
661.810	6309
661.864	5165
661.919	6139
661.973	5894
662.027	5555
662.081	5137
662.136	6313
662.190	6624
662.244	6869
662.299	5961
662.353	6498
662.407	5688
662.461	6375
662.515	6571
662.569	7259
662.624	7609
662.678	6469
662.732	6340
662.786	6582
662.840	6724
662.894	6528
662.948	5157
663.002	5981
663.056	5521
663.110	4938
663.164	5032
663.218	5929
663.272	5707
663.326	5440
663.380	6316
663.434	6741
663.488	6231
663.542	7205
663.595	7342
663.649	7151
663.703	6314
663.757	6316
663.811	5797
663.864	6501
663.918	6304
663.972	5660
664.026	6218
664.079	6473
664.133	6282
664.187	5178
664.240	5382
664.294	6090
664.348	7038
664.401	6261
664.455	5298
664.508	6789
664.562	6016
664.615	6075
664.669	5390
664.722	5964
664.776	5636
664.829	5049
664.883	6068
664.936	5995
664.990	6881
665.043	7144
665.097	8079
665.150	7440
665.203	7306
665.257	6894
665.310	7039
665.363	6079
665.417	6528
665.470	7403
665.523	6297
665.576	6740
665.630	6119
665.683	6862
665.736	6708
665.789	7022
665.842	6016
665.895	7637
665.949	6392
666.002	6268
666.055	6519
666.108	7458
666.161	6657
666.214	7353
666.267	7251
666.320	7508
666.373	6887
666.426	6494
666.479	6998
666.532	7596
666.585	7833
666.638	7747
666.691	6363
666.744	8173
666.796	7523
666.849	7470
666.902	6151
666.955	6316
667.008	5473
667.060	6908
667.113	5259
667.166	6149
667.219	6375
667.271	6041
667.324	5628
667.377	7081
667.430	6872
667.482	7960
667.535	6841
667.587	6508
667.640	7621
667.693	7624
667.745	8632
667.798	9062
667.850	7320
667.903	6885
667.955	6445
668.008	6626
668.060	8973
668.113	8396
668.165	8364
668.218	8548
668.270	8058
668.322	7689
668.375	7916
668.427	7829
668.479	6766
668.532	7179
668.584	7440
668.636	7045
668.689	7001
668.741	7675
668.793	7336
668.845	6738
668.898	7819
668.950	7708
669.002	7397
669.054	7530
669.106	7784
669.158	8621
669.211	7219
669.263	7922
669.315	8941
669.367	9634
669.419	7815
669.471	9164
669.523	8275
669.575	9506
669.627	9434
669.679	7560
669.731	8288
669.783	8028
669.835	8323
669.886	7926
669.938	8826
669.990	7890
670.042	7435
670.094	8851
670.146	8534
670.197	9986
670.249	11375
670.301	11829
670.353	17126
670.404	22227
670.456	31435
670.508	48210
670.560	79014
670.611	137120
670.663	243558
670.715	547442
670.766	774257
670.818	259252
670.869	56773
670.921	30917
670.972	21538
671.024	16875
671.075	14103
671.127	12194
671.178	10624
671.230	10280
671.281	8995
671.333	9512
671.384	9019
671.436	8704
671.487	9377
671.538	10371
671.590	9265
671.641	8961
671.692	9220
671.744	10162
671.795	9479
671.846	8423
671.897	7958
671.949	8525
672.000	7462
672.051	8167
672.102	8247
672.153	6539
672.204	8427
672.256	8053
672.307	8006
672.358	8202
672.409	8454
672.460	7605
672.511	8046
672.562	7866
672.613	7192
672.664	7243
672.715	7146
672.766	7605
672.817	7616
672.868	6958
672.919	7249
672.970	6516
673.021	6917
673.071	6697
673.122	7118
673.173	6724
673.224	7291
673.275	6550
673.326	6857
673.376	7229
673.427	6272
673.478	7094
673.528	6244
673.579	5912
673.630	5749
673.680	7671
673.731	6584
673.782	5492
673.832	8033
673.883	6416
673.934	6488
673.984	6519
674.035	6813
674.085	6059
674.136	7354
674.186	7579
674.237	8091
674.287	11014
674.338	6613
674.388	6307
674.438	5726
674.489	5827
674.539	6455
674.589	7092
674.640	6050
674.690	7445
674.740	6866
674.791	7806
674.841	7551
674.891	7176
674.942	6071
674.992	6425
675.042	4971
675.092	5809
675.142	5796
675.193	5920
675.243	5328
675.293	6769
675.343	5861
675.393	6931
675.443	6743
675.493	5725
675.543	5775
675.593	6299
675.643	6175
675.693	6221
675.743	6332
675.793	6943
675.843	5689
675.893	6685
675.943	6081
675.993	6417
676.043	6524
676.093	5559
676.142	5524
676.192	6797
676.242	5898
676.292	5950
676.341	5808
676.391	5558
676.441	5516
676.491	5426
676.540	4733
676.590	5507
676.640	5371
676.689	5189
676.739	5327
676.789	5161
676.838	4850
676.888	5063
676.937	5233
676.987	5126
677.037	4581
677.086	5369
677.136	5490
677.185	5005
677.235	3746
677.284	5142
677.333	4684
677.383	4683
677.432	5324
677.482	5577
677.531	5253
677.580	5023
677.630	4720
677.679	3822
677.728	5274
677.778	4573
677.827	4657
677.876	5135
677.925	4652
677.975	5835
678.024	4771
678.073	5017
678.122	5607
678.171	5647
678.220	6163
678.269	5423
678.319	6020
678.368	5513
678.417	6064
678.466	5580
678.515	6285
678.564	6436
678.613	5317
678.662	4990
678.711	5372
678.760	5828
678.809	5372
678.857	5792
678.906	5170
678.955	6146
679.004	5790
679.053	5473
679.102	5215
679.151	5918
679.199	4595
679.248	4161
679.297	6211
679.346	5929
679.394	5204
679.443	4609
679.492	5762
679.540	4981
679.589	5515
679.638	5905
679.686	4022
679.735	4804
679.784	5333
679.832	5224
679.881	4641
679.929	4481
679.978	3987
680.026	4617
680.075	4557
680.123	5110
680.172	4200
680.220	5159
680.268	4889
680.317	4589
680.365	4482
680.414	4057
680.462	4548
680.510	4353
680.559	4940
680.607	4128
680.655	4151
680.703	4414
680.752	4890
680.800	4516
680.848	4407
680.896	4065
680.945	3666
680.993	3825
681.041	4760
681.089	3961
681.137	3223
681.185	4162
681.233	3846
681.258	4541
681.281	5185
681.329	4063
681.377	4331
681.380	4391
681.425	5182
681.473	5264
681.502	4784
681.521	4421
681.569	5113
681.617	4813
681.624	4836
681.665	4872
681.713	4763
681.745	4731
681.761	4681
681.809	4585
681.857	5487
681.867	5172
681.904	4038
681.952	4927
681.989	4632
682.000	4523
682.048	4568
682.096	3966
682.111	4503
682.143	5584
682.191	4159
682.233	5455
682.239	5637
682.286	4534
682.334	4485
682.354	4337
682.382	4092
682.430	4920
682.476	4686
682.477	4666
682.525	5131
682.572	4144
682.598	4184
682.620	4208
682.667	4460
682.715	4895
682.720	4946
682.763	5229
682.810	4712
682.841	4509
682.857	4398
682.905	4525
682.952	5419
682.963	5336
683.000	4992
683.047	4197
683.085	5252
683.095	5519
683.142	4584
683.190	5018
683.206	4833
683.237	4439
683.284	5130
683.328	4736
683.332	4691
683.379	5471
683.426	4890
683.449	4784
683.473	4664
683.521	4598
683.568	4605
683.571	4639
683.615	4919
683.662	5086
683.693	4690
683.709	4449
683.757	4890
683.804	5112
683.814	4916
683.851	4192
683.898	4822
683.936	4434
683.945	4320
683.992	4750
684.039	5250
684.057	5157
684.086	5040
684.133	5421
684.179	5452
684.180	5438
684.227	5641
684.274	5414
684.300	5430
684.321	5462
684.368	4598
684.415	5534
684.422	5322
684.462	3938
684.509	4997
684.543	4952
684.556	4948
684.603	4318
684.649	5342
684.665	5163
684.696	4803
684.743	5589
684.786	5213
684.790	5177
684.837	5464
684.883	6727
684.908	6451
684.930	6142
684.977	7031
685.023	6484
685.029	6404
685.070	5551
685.117	5870
685.150	6607
685.164	6949
685.210	7217
685.257	7099
685.272	7040
685.303	6784
685.350	6503
685.393	6319
685.396	6307
685.443	6917
685.490	6846
685.514	6625
685.536	6453
685.583	7061
685.629	6564
685.636	6589
685.675	6436
685.722	6803
685.757	6292
685.768	6191
685.815	6646
685.861	6789
685.878	6782
685.908	6733
685.954	6795
686.000	7436
686.000	7444
686.047	7625
686.093	8347
686.121	8333
686.139	8151
686.185	7869
686.232	6939
686.242	7079
686.278	7550
686.324	7212
686.363	6846
686.370	6777
686.416	6463
686.463	6966
686.484	6842
686.509	6878
686.555	6871
686.601	6776
686.606	6831
686.647	7031
686.693	6913
686.727	7132
686.739	7252
686.785	6523
686.831	6684
686.848	7095
686.877	7737
686.923	6256
686.969	6306
686.969	6306
687.015	6330
687.061	6993
687.090	7248
687.107	7238
687.153	6357
687.199	6464
687.211	6246
687.245	5936
687.291	6382
687.332	6891
687.336	6949
687.382	7489
687.428	7053
687.453	7143
687.474	7019
687.520	6515
687.565	7051
687.574	6880
687.611	6300
687.657	6800
687.695	6616
687.702	6645
687.748	6898
687.794	7253
687.816	7486
687.839	7461
687.885	7146
687.931	6557
687.937	6494
687.976	6499
688.022	6640
688.058	7019
688.067	7077
688.113	7159
688.158	6833
688.179	7063
688.204	7398
688.249	7197
688.295	7848
688.300	7843
688.340	7861
688.386	8530
688.421	7726
688.431	7458
688.477	7109
688.522	7518
688.542	7591
688.567	7645
688.613	7172
688.658	6219
688.663	6258
688.703	7065
688.749	7543
688.784	7921
688.794	7915
688.839	7260
688.884	7170
688.905	7105
688.930	7216
688.975	7110
689.020	7536
689.026	7546
689.065	7573
689.110	7616
689.146	7364
689.155	7283
689.201	7309
689.246	7181
689.267	7208
689.291	7345
689.336	7266
689.381	7601
689.388	7572
689.426	7359
689.471	6816
689.509	7040
689.516	7081
689.561	6976
689.606	7113
689.630	6923
689.651	6881
689.696	7102
689.741	7452
689.750	7461
689.785	7441
689.830	7500
689.871	7292
689.875	7276
689.920	7738
689.965	7690
689.992	7679
690.010	7617
690.054	7143
690.099	6732
690.112	6687
690.144	6817
690.189	7282
690.233	7141
690.233	7148
690.278	7183
690.323	7654
690.354	7397
690.367	7337
690.412	7657
690.457	8070
690.474	7991
690.501	7944
690.546	8384
690.590	8176
690.595	8210
690.635	8562
690.680	8904
690.716	9178
690.724	9335
690.769	10141
690.813	11269
690.836	11486
690.857	12481
690.902	14891
690.946	18056
690.957	19101
690.991	25962
691.035	35916
691.077	45117
691.080	45185
691.124	40467
691.168	34535
691.198	31425
691.213	28810
691.257	22184
691.301	15616
691.318	13252
691.346	12416
691.390	10814
691.434	9341
691.439	9191
691.478	8977
691.522	9082
691.559	8551
691.567	8505
691.611	9032
691.655	8702
691.680	8539
691.699	8401
691.743	8747
691.787	8212
691.800	8258
691.831	8582
691.875	8958
691.919	8821
691.921	8812
691.964	8826
692.008	9137
692.041	8803
692.052	8720
692.096	8904
692.139	8719
692.162	8623
692.183	8553
692.227	8985
692.271	9055
692.282	9051
692.315	9115
692.359	9019
692.402	9051
692.403	9064
692.447	8850
692.490	8294
692.523	8254
692.534	8389
692.578	8887
692.622	8981
692.643	9104
692.666	8965
692.709	8935
692.753	8682
692.763	8498
692.797	8217
692.840	8685
692.884	8598
692.884	8615
692.928	8970
692.971	9408
693.004	9507
693.015	9410
693.059	9368
693.102	9112
693.124	8900
693.146	8977
693.189	9216
693.233	9349
693.245	9475
693.276	10175
693.320	10927
693.363	11219
693.365	11226
693.407	11618
693.450	12281
693.485	12252
693.493	12579
693.537	15088
693.580	17195
693.605	18563
693.624	21077
693.667	26810
693.710	33360
693.725	35783
693.753	47071
693.797	66504
693.840	85759
693.845	87371
693.883	79969
693.926	69423
693.966	61313
693.970	59867
694.013	44538
694.056	29770
694.086	19962
694.099	19209
694.142	16639
694.185	14072
694.206	12940
694.229	12711
694.272	12114
694.315	11711
694.326	11579
694.358	11252
694.401	10773
694.444	9957
694.446	9918
694.487	9940
694.530	9914
694.566	9665
694.573	9616
694.616	9032
694.659	8970
694.686	8700
694.702	8624
694.745	8478
694.787	8180
694.806	8186
694.830	8342
694.873	8267
694.916	8302
694.926	8248
694.959	8194
695.002	8268
695.044	8254
695.046	8249
695.087	8586
695.130	8592
695.166	8568
695.172	8618
695.215	8904
695.258	9024
695.286	9267
695.301	9235
695.343	8893
695.386	8677
695.406	8421
695.428	8329
695.471	8329
695.514	8420
695.526	8354
695.556	8389
695.599	8839
695.641	8870
695.646	8856
695.684	8481
695.726	8126
695.766	7950
695.769	7998
695.811	8209
695.854	8489
695.886	8673
695.896	8680
695.938	8468
695.981	8569
696.005	8353
696.023	8268
696.065	8470
696.108	8587
696.125	8518
696.150	8686
696.192	9179
696.235	9404
696.245	9490
696.277	9170
696.319	8658
696.361	8125
696.365	8062
696.404	8426
696.446	8856
696.485	9015
696.488	9038
696.530	9267
696.572	9316
696.604	9508
696.614	9505
696.656	9165
696.698	8851
696.724	8741
696.740	8707
696.783	8442
696.825	8158
696.844	8063
696.867	8264
696.909	8442
696.951	8682
696.964	8760
696.992	8707
697.034	8380
697.076	8242
697.083	8195
697.118	8319
697.160	8385
697.202	8553
697.203	8532
697.244	8492
697.286	8737
697.323	8679
697.327	8646
697.369	8216
697.411	7839
697.442	7531
697.453	7599
697.494	7774
697.536	7944
697.562	8089
697.578	8224
697.620	8350
697.661	8587
697.682	8674
697.703	8640
697.744	8537
697.786	8538
697.801	8438
697.828	8635
697.869	9045
697.911	9371
697.921	9447
697.952	9077
697.994	8529
698.035	7993
698.040	7902
698.077	8100
698.118	8348
698.160	8570
698.160	8549
698.201	8154
698.243	7683
698.279	7316
698.284	7377
698.325	7727
698.367	8080
698.399	8322
698.408	8269
698.449	7916
698.491	7576
698.518	7325
698.532	7534
698.573	8135
698.614	8738
698.638	9038
698.656	8876
698.697	8460
698.738	8026
698.757	7809
698.779	8047
698.820	8451
698.862	8855
698.877	8987
698.903	9074
698.944	9167
698.985	9260
698.996	9264
699.026	9314
699.067	9354
699.116	9379
699.235	8438
699.354	8558
699.474	8370
699.593	9679
699.713	9008
699.832	9056
699.951	8027
700.070	8992
700.190	8157
700.309	8924
700.428	8978
700.547	8902
700.667	8574
700.786	9398
700.905	7807
701.024	8802
701.143	8260
701.262	7259
701.381	7510
701.500	7527
701.619	7555
701.738	7758
701.857	7912
701.976	7477
702.095	6648
702.214	8105
702.333	7511
702.452	7054
702.571	6503
702.690	7568
702.809	7262
702.928	7223
703.047	7147
703.165	7815
703.284	6743
703.403	7582
703.522	8568
703.640	7518
703.759	8559
703.878	12138
703.997	8237
704.115	7533
704.234	7029
704.353	5972
704.471	5964
704.590	6180
704.708	6651
704.827	6739
704.946	6897
705.064	8330
705.183	6965
705.301	9069
705.420	14779
705.538	13028
705.656	9720
705.775	10711
705.893	16079
706.012	20139
706.130	10898
706.249	10805
706.367	10546
706.485	12038
706.604	10614
706.722	10738
706.840	11916
706.958	11975
707.077	10228
707.195	9969
707.313	9398
707.431	9475
707.549	8992
707.668	9397
707.786	9011
707.904	8512
708.022	8092
708.140	9231
708.258	8530
708.376	8818
708.494	9056
708.612	9859
708.730	15656
708.848	15442
708.966	13258
709.084	12328
709.202	11398
709.320	13146
709.438	12101
709.556	12859
709.674	12225
709.791	13185
709.909	12220
710.027	12265
710.145	11688
710.263	11967
710.380	11609
710.498	12274
710.616	11868
710.733	11624
710.851	11009
710.969	12642
711.086	10620
711.204	11219
711.322	10839
711.439	11054
711.557	10350
711.674	10872
711.792	10383
711.909	11582
712.027	11792
712.144	10365
712.262	10596
712.379	11784
712.497	17858
712.614	18852
712.732	14720
712.849	14013
712.966	14167
713.084	16620
713.201	14430
713.318	14809
713.436	12848
713.553	14994
713.670	13141
713.787	16260
713.905	14890
714.022	13210
714.139	12638
714.256	15065
714.373	13170
714.490	12278
714.608	13227
714.725	16768
714.842	17163
714.959	12668
715.076	11860
715.193	11694
715.310	10719
715.427	11935
715.544	11164
715.661	12238
715.778	10938
715.895	13240
716.011	12319
716.128	12422
716.245	11933
716.362	11888
716.479	12441
716.596	10893
716.713	11611
716.829	11307
716.946	10801
717.063	11506
717.180	10511
717.296	10790
717.413	10426
717.530	11413
717.646	10399
717.763	11827
717.880	9050
717.996	10027
718.113	10383
718.229	10205
718.346	9280
718.462	9604
718.579	11214
718.695	13422
718.812	12602
718.928	12939
719.045	10208
719.161	9752
719.277	8532
719.394	9646
719.510	9665
719.626	9513
719.743	10739
719.859	9937
719.975	9595
720.092	10030
720.208	11556
720.324	10155
720.440	9076
720.557	9968
720.673	12007
720.789	17847
720.905	36650
721.021	15527
721.137	9406
721.253	9222
721.369	9241
721.486	10531
721.602	13381
721.718	9424
721.834	7006
721.950	8528
722.066	7816
722.181	8259
722.297	8054
722.413	8520
722.529	7327
722.645	8293
722.761	8250
722.877	8026
722.993	6699
723.108	8130
723.224	7901
723.340	7619
723.456	7325
723.571	8270
723.687	7080
723.803	8068
723.918	6805
724.034	7191
724.150	7402
724.265	8219
724.381	13634
724.497	19247
724.612	6641
724.728	7171
724.843	7295
724.959	7778
725.074	13677
725.190	16809
725.305	7627
725.421	7539
725.536	5549
725.651	6364
725.767	6314
725.882	6114
725.997	5500
726.113	6211
726.228	6394
726.343	5923
726.459	5298
726.574	6399
726.689	5667
726.804	5904
726.920	6068
727.035	6263
727.150	6341
727.265	5619
727.380	5899
727.495	6049
727.610	5357
727.725	6240
727.841	6072
727.956	10636
728.071	9397
728.186	5787
728.301	4724
728.416	5131
728.531	4605
728.645	4961
728.760	5169
728.875	6071
728.990	5528
729.105	4975
729.220	5035
729.335	5764
729.449	4624
729.564	5116
729.679	4788
729.794	5677
729.908	5311
730.023	4384
730.138	4613
730.253	4367
730.367	4110
730.482	4921
730.596	4120
730.711	5261
730.826	3631
730.940	4742
731.055	3749
731.169	3573
731.284	3621
731.398	4516
731.513	5214
731.627	5608
731.742	5345
731.856	5624
731.970	3596
732.085	4241
732.199	3555
732.313	3577
732.428	4234
732.542	5426
732.656	4665
732.771	4304
732.885	3781
732.999	4162
733.113	4688
733.227	5083
733.342	3345
733.456	4232
733.570	3801
733.684	3964
733.798	3432
733.912	4093
734.026	2932
734.140	4163
734.254	4054
734.368	7368
734.482	10171
734.596	3538
734.710	3738
734.824	3639
734.938	3346
735.052	4491
735.166	4105
735.280	3798
735.393	3070
735.507	3847
735.621	5715
735.735	8946
735.849	5026
735.962	3466
736.076	3323
736.190	4009
736.303	4627
736.417	7604
736.531	3197
736.644	4483
736.758	2274
736.872	3750
736.985	2855
737.099	3816
737.212	2937
737.326	3594
737.439	3393
737.553	3259
737.666	4177
737.780	3184
737.893	3538
738.007	3498
738.120	2520
738.233	3836
738.347	2828
738.460	3717
738.573	2868
738.687	3057
738.800	3182
738.913	3697
739.026	3607
739.140	3632
739.253	2091
739.366	3889
739.479	2503
739.592	2718
739.705	2800
739.818	3451
739.932	2126
740.045	3538
740.158	3178
740.271	3277
740.384	3046
740.497	3583
740.610	3025
740.723	3132
740.836	2861
740.949	3809
741.062	3913
741.174	4311
741.287	2690
741.400	2951
741.513	3275
741.626	3670
741.739	3427
741.851	2964
741.964	2178
742.077	2851
742.189	2998
742.302	4132
742.415	3059
742.527	4274
742.640	2544
742.753	2597
742.865	2171
742.978	3163
743.090	2447
743.203	4194
743.316	2837
743.428	3504
743.541	2274
743.653	2610
743.766	2496
743.878	3342
743.990	3873
744.103	3844
744.215	2721
744.327	2585
744.440	3055
744.552	4456
744.664	3035
744.777	2946
744.889	2093
745.001	2874
745.113	2461
745.226	2360
745.338	2516
745.450	2603
745.562	3201
745.674	3337
745.786	2397
745.898	2823
746.010	2763
746.122	2369
746.234	3195
746.347	2586
746.459	2472
746.570	2462
746.682	2736
746.794	3786
746.906	1750
747.018	3175
747.130	2753
747.242	2741
747.354	2284
747.466	3089
747.577	2158
747.689	3263
747.801	2353
747.913	2504
748.024	1376
748.136	2275
748.248	2109
748.359	2532
748.471	2585
748.583	3478
748.694	3477
748.806	4345
748.918	3470
749.029	2037
749.141	1165
749.252	2842
749.364	3057
749.475	4659
749.587	3838
749.698	2791
749.809	1718
749.921	2888
750.032	1748
750.144	2105
750.255	1797
750.366	3060
750.478	1902
750.589	2450
750.700	2760
750.811	2978
750.923	2963
751.034	4543
751.145	4802
751.256	3606
751.367	2607
751.479	2506
751.590	2121
751.701	2930
751.812	2491
751.923	3420
752.034	3101
752.145	2364
752.256	2630
752.367	2172
752.478	2756
752.589	2689
752.700	2800
752.811	2742
752.922	2158
753.032	3659
753.143	3273
753.254	2910
753.365	2532
753.476	2777
753.586	2577
753.697	2877
753.808	2697
753.919	3066
754.029	1824
754.140	3183
754.251	2488
754.361	2287
754.472	3032
754.582	2995
754.693	2577
754.804	2501
754.914	2507
755.025	2919
755.135	2781
755.246	2764
755.356	2018
755.466	3969
755.577	2188
755.687	3018
755.798	2440
755.908	3530
756.018	2646
756.129	2737
756.239	2963
756.349	3091
756.460	2718
756.570	2770
756.680	2879
756.790	3393
756.900	2868
757.011	3557
757.121	2799
757.231	3301
757.341	2377
757.451	2422
757.561	2829
757.671	2323
757.781	2986
757.891	3962
758.001	3401
758.111	2920
758.221	3790
758.331	3942
758.441	3297
758.551	3821
758.661	2998
758.771	3877
758.880	3572
758.990	4047
759.100	3039
759.210	4315
759.320	4295
759.429	3886
759.539	3781
759.649	3439
759.758	4761
759.868	4395
759.978	3507
760.087	5182
760.197	4431
760.307	5057
760.416	4069
760.526	4264
760.635	5161
760.745	4907
760.854	5116
760.964	5883
761.073	4989
761.182	4950
761.292	5402
761.401	6227
761.511	5491
761.620	6221
761.729	6023
761.839	6681
761.948	6661
762.057	6480
762.166	6444
762.276	6088
762.385	6517
762.494	7905
762.603	7597
762.712	7924
762.822	7718
762.931	9001
763.040	9087
763.149	9866
763.258	9063
763.367	11116
763.476	10499
763.585	11494
763.694	12050
763.803	12534
763.912	12988
764.021	14361
764.130	14355
764.238	16120
764.347	17127
764.456	18349
764.565	20084
764.674	21659
764.783	23338
764.891	24717
765.000	28888
765.109	33749
765.217	39014
765.326	46906
765.435	55274
765.543	67368
765.652	84345
765.761	112271
765.869	155112
765.978	227843
766.086	349679
766.195	568395
766.303	852049
766.412	809195
766.520	826930
766.629	746000
766.737	441401
766.846	276256
766.954	184939
767.062	134632
767.171	101480
767.279	79557
767.387	63044
767.496	53585
767.604	45576
767.712	39738
767.820	34740
767.928	32920
768.037	30410
768.145	28793
768.253	27761
768.361	27416
768.469	26909
768.577	28475
768.685	30021
768.793	31438
768.901	34298
769.009	40171
769.117	48509
769.225	63546
769.333	91752
769.441	142325
769.549	242377
769.657	458214
769.765	755167
769.873	744177
769.981	658130
770.088	344838
770.196	188216
770.304	120708
770.412	85849
770.519	64181
770.627	50148
770.735	40516
770.842	34363
770.950	30324
771.058	25130
771.165	23953
771.273	21082
771.380	19202
771.488	16908
771.595	15916
771.703	13936
771.810	13706
771.918	12638
772.025	11578
772.133	11317
772.240	9954
772.348	10407
772.455	10415
772.562	8372
772.670	9386
772.777	8092
772.884	7931
772.991	7547
773.099	7279
773.206	6569
773.313	7026
773.420	6125
773.528	6210
773.635	5481
773.742	6596
773.849	6520
773.956	5858
774.063	4899
774.170	5478
774.277	6061
774.384	5428
774.491	4404
774.598	5520
774.705	3654
774.812	5186
774.919	5757
775.026	5653
775.133	4382
775.239	4977
775.346	4286
775.453	5053
775.560	4065
775.667	3925
775.773	3383
775.880	4755
775.987	4366
776.093	4297
776.200	4437
776.307	3507
776.413	3854
776.520	3222
776.627	4786
776.733	3785
776.840	2379
776.946	4823
777.053	4227
777.159	5242
777.266	2582
777.372	5489
777.478	4013
777.585	4162
777.691	2592
777.798	3155
777.904	3313
778.010	3977
778.117	3131
778.223	2754
778.329	3058
778.435	3118
778.542	3071
778.648	2915
778.754	2372
778.860	2977
778.966	3028
779.072	3181
779.178	2892
779.284	3159
779.391	3157
779.497	3711
779.603	6978
779.708	8982
779.815	24458
779.920	95258
780.026	128910
780.132	15998
780.238	4780
780.344	3889
780.450	3333
780.556	3209
780.661	2042
780.767	2929
780.873	2600
780.979	2505
781.085	1167
781.190	2940
781.296	2006
781.402	2451
781.507	1640
781.613	2139
781.719	1511
781.824	2307
781.930	1970
782.035	1763
782.141	2104
782.246	2314
782.352	1025
782.457	2480
782.563	941
782.668	2181
782.773	1802
782.879	1225
782.984	2530
783.090	2136
783.195	2518
783.300	2259
783.405	1851
783.511	2062
783.616	2360
783.721	2456
783.826	1395
783.932	2485
784.037	659
784.142	1749
784.247	1748
784.352	2532
784.457	1286
784.562	1146
784.667	949
784.772	1346
784.877	832
784.982	1620
785.087	1625
785.192	2666
785.297	1746
785.402	1646
785.507	364
785.611	1739
785.716	1362
785.821	1004
785.926	1130
786.031	1987
786.135	1062
786.240	1327
786.345	-132
786.450	1974
786.554	1368
786.659	597
786.763	446
786.868	2580
786.973	1854
787.077	1416
787.182	791
787.286	1449
787.391	568
787.495	732
787.600	951
787.704	553
787.809	1057
787.913	837
788.017	379
788.122	1718
788.226	990
788.330	399
788.435	1373
788.539	951
788.643	606
788.747	798
788.852	718
788.956	1389
789.060	1379
789.164	1336
789.268	-478
789.372	1494
789.476	324
789.580	995
789.684	-47
789.788	1119
789.892	257
789.996	2183
790.100	-28
790.204	952
790.308	767
790.412	1131
790.516	654
790.620	380
790.724	992
790.828	1141
790.931	-274
791.035	2879
791.139	1024
791.242	819
791.346	1368
791.450	802
791.554	430
791.657	77
791.761	1059
791.864	1579
791.968	520
792.072	-59
792.175	585
792.279	152
792.382	610
792.486	1179
792.589	531
792.693	1193
792.796	143
792.899	1527
793.003	1092
793.106	-365
793.209	457
793.313	2305
793.416	-784
793.519	1915
793.623	784
793.726	1734
793.829	932
793.932	1697
794.035	-744
794.138	1745
794.242	1486
794.345	2290
794.448	4793
794.551	12776
794.654	48834
794.757	71968
794.860	9634
794.963	1593
795.066	951
795.169	1470
795.272	84
795.375	864
795.477	-97
795.580	1205
795.683	-852
795.786	562
795.889	-118
795.991	1762
796.094	1362
796.197	91
796.300	589
796.402	401
796.505	24
796.608	604
796.710	1241
796.813	184
796.915	-653
797.018	281
797.120	449
797.223	-1181
797.326	824
797.428	790
797.530	-372
797.633	1019
797.735	1248
797.838	1183
797.940	2761
798.042	765
798.145	102
798.247	828
798.349	-623
798.452	1283
798.554	-684
798.656	-139
798.758	1148
798.860	-19
798.962	65
799.065	148
799.167	-522
799.269	1512
799.371	458
799.473	112
799.575	-734
799.677	801
799.779	1370
799.881	-493
799.983	479
800.085	51
800.187	-493
800.289	291
800.390	482
800.492	393
800.594	721
800.696	-473
800.798	305
800.899	-68
801.001	-300
801.103	103
801.205	167
801.306	-430
801.408	-1172
801.509	175
801.611	-683
801.713	174
801.814	-483
801.916	719
802.017	-429
802.119	643
802.220	89
802.322	-1619
802.423	1183
802.525	-362
802.626	-434
802.727	448
802.829	317
802.930	-1261
803.031	765
803.133	511
803.234	-330
803.335	446
803.436	-556
803.538	186
803.639	-1054
803.740	464
803.841	-960
803.942	808
804.043	-57
804.144	-836
804.245	492
804.346	-488
804.447	195
804.548	-294
804.649	445
804.750	-337
804.851	-562
804.952	-311
805.053	-800
805.154	-1417
805.255	326
805.355	-904
805.456	44
805.557	-801
805.658	-1020
805.758	222
805.859	-539
805.960	-328
806.061	-487
806.161	-924
806.262	-816
806.362	-200
806.463	-453
806.564	293
806.664	-268
806.765	186
806.865	532
806.966	-712
807.066	-1139
807.166	120
807.267	-504
807.367	-281
807.468	84
807.568	-980
807.668	12
807.769	303
807.869	-873
807.969	-84
808.069	-289
808.170	256
808.270	-814
808.370	497
808.470	-423
808.570	-1067
808.670	-1212
808.770	-367
808.870	-1321
808.970	611
809.070	-940
809.170	-1136
809.271	-178
809.370	418
809.470	-687
809.570	-808
809.670	-675
809.770	-610
809.870	-774
809.970	251
810.070	-786
810.169	-174
810.269	-2051
810.369	825
810.469	-1205
810.568	-136
810.668	-446
810.768	-271
810.867	-840
810.967	-214
811.066	-1007
811.166	-1219
811.265	-762
811.365	-1437
811.464	-1310
811.564	-346
811.663	-168
811.763	-1410
811.862	-736
811.962	967
812.061	-1201
812.160	-836
812.260	-525
812.359	-100
812.458	-425
812.557	1995
812.657	2338
812.756	691
812.855	-654
812.954	-396
813.053	-543
813.153	-374
813.252	-491
813.351	89
813.450	511
813.549	-1380
813.648	-776
813.747	-1282
813.846	-256
813.945	-900
814.044	-697
814.143	-1253
814.242	-988
814.341	-724
814.439	-729
814.538	-825
814.637	-1360
814.736	-750
814.835	-523
814.933	-908
815.032	-674
815.131	-354
815.229	-1993
815.328	260
815.427	-1646
815.525	-1080
815.624	-978
815.722	-1137
815.821	-1012
815.919	-395
816.018	-1603
816.116	-48
816.215	-910
816.313	-539
816.412	-187
816.510	-857
816.609	51
816.707	-637
816.805	-911
816.904	-1549
817.002	-745
817.100	780
817.198	-209
817.296	-1353
817.395	-316
817.493	236
817.591	-303
817.689	-301
817.787	-461
817.885	913
817.983	2567
818.081	10287
818.179	26487
818.277	73096
818.375	61276
818.473	11368
818.571	3018
818.669	2447
818.767	859
818.865	1784
818.963	1667
819.061	4216
819.158	8505
819.256	22937
819.354	57363
819.452	140464
819.549	84015
819.647	17047
819.745	5001
819.842	3595
819.940	1348
820.038	1412
820.135	451
820.233	1160
820.330	-709
820.428	-943
820.525	510
820.623	265
820.720	-1289
820.818	205
820.915	496
821.012	-368
821.110	-1693
821.207	435
821.304	-1552
821.402	-672
821.499	-220
821.596	1255
821.693	-721
821.791	814
821.888	-748
821.985	100
822.082	-398
822.179	-987
822.276	-1779
822.373	-206
822.470	-1306
822.567	-166
822.664	-1355
822.761	854
822.858	-1991
822.955	-97
823.052	-1390
823.149	-817
823.246	-1269
823.343	-1057
823.440	-743
823.536	-735
823.633	-1718
823.730	-545
823.827	-870
823.923	-1082
824.020	-258
824.117	-775
824.213	-2363
824.310	159
824.407	-1064
824.503	-378
824.600	-926
824.696	-291
824.793	-246
824.889	-1156
824.986	-602
825.082	-1136
825.179	-271
825.275	-1212
825.371	-1249
825.468	-69
825.564	-1707
825.660	310
825.757	-994
825.853	-452
825.949	-1760
826.045	-34
826.142	-1240
826.238	-661
826.334	-312
826.430	-1679
826.526	-472
826.622	-881
826.718	-1144
826.814	-705
826.910	-121
827.006	-456
827.102	-1238
827.198	-156
827.294	-1356
827.390	-926
827.486	-1062
827.582	-1360
827.678	-1192
827.774	-245
827.869	-1110
827.965	375
828.061	-2093
828.157	-1282
828.252	-1249
828.348	-1473
828.444	-101
828.539	-939
828.635	-1502
828.731	55
828.826	-2164
828.922	-765
829.017	-1325
829.113	-772
829.208	-1016
829.304	-1431
829.399	-607
829.495	-1796
829.590	-341
829.685	-1178
829.781	-1285
829.876	-1201
829.971	-1861
830.066	-655
830.162	-1155
830.257	-1654
830.352	-2337
830.447	-348
830.543	-1924
830.638	-2054
830.733	-600
830.828	-1040
830.923	-524
831.018	-353
831.113	-1659
831.208	-1506
831.303	-1390
831.398	-718
831.493	-1618
831.588	-1494
831.683	-2303
831.778	-1127
831.873	-800
831.967	-214
832.062	-1386
832.157	-1160
832.252	-1087
832.346	-705
832.441	-1029
832.536	-591
832.631	443
832.725	-245
832.820	-1613
832.914	-948
833.009	-1477
833.104	-1087
833.198	-1004
833.293	-1540
833.387	-664
833.482	-995
833.576	-1597
833.670	-690
833.765	-310
833.859	-1669
833.954	-1053
834.048	-489
834.142	-1870
834.237	-466
834.331	-2540
834.425	-1393
834.519	-1910
834.613	-264
834.708	-921
834.802	-1126
834.896	-1547
834.990	-863
835.084	-1377
835.178	-1032
835.272	-1231
835.366	-1131
835.460	-894
835.554	-591
835.648	-1740
835.742	-1636
835.836	-870
835.930	-1310
836.024	-352
836.117	-193
836.211	-1308
836.305	-167
836.399	-142
836.493	-1693
836.586	-1165
836.680	-1560
836.774	-1067
836.867	238
836.961	-1818
837.055	-1554
837.148	-1576
837.242	-329
837.335	-1867
837.429	-976
837.522	-1553
837.616	-594
837.709	560
837.803	-292
837.896	-634
837.989	-1378
838.083	-597
838.176	667
838.269	357
838.363	-141
838.456	-2054
838.549	-731
838.642	-763
838.735	1106
838.829	-79
838.922	-931
839.015	-993
839.108	-1651
839.201	-1109
839.294	-1
839.387	-842
839.480	-1228
839.573	-1239
839.666	205
839.759	-869
839.852	-1793
839.945	-1203
840.038	-786
840.131	-1674
840.223	-1155
840.316	-1462
840.409	-1092
840.502	-1722
840.594	466
840.687	-2107
840.780	-722
840.873	-2183
840.965	-1532
841.058	-214
841.150	686
841.243	-919
841.336	-174
841.428	-984
841.521	-433
841.613	-2057
841.706	-805
841.798	-876
841.890	-662
841.983	-1923
842.075	-415
842.167	-1760
842.260	-690
842.352	-883
842.444	-392
842.537	604
842.629	2492
842.721	-672
842.813	-882
842.905	-1988
842.997	-1689
843.090	-1371
843.182	167
843.274	234
843.366	4036
843.458	9241
843.550	6868
843.642	-80
843.734	69
843.826	-1668
843.918	619
844.009	-663
844.101	-1201
844.193	-2013
844.285	-1213
844.377	-1591
844.469	-692
844.560	-1409
844.652	-569
844.744	-315
844.835	-750
844.927	-1001
845.019	-1015
845.110	-1214
845.202	-1423
845.293	-1308
845.385	-1621
845.476	-583
845.568	-234
845.659	-939
845.751	-918
845.842	-1333
845.934	-1619
846.025	-1489
846.116	-585
846.208	-1339
846.299	-1342
846.390	-613
846.482	339
846.573	-1167
846.664	-1070
846.755	-816
846.846	441
846.937	-1967
847.029	-1656
847.120	-677
847.211	-1386
847.302	344
847.393	-2073
847.484	-1025
847.575	-748
847.666	-1779
847.757	-775
847.847	-682
847.938	-386
848.029	-1556
848.120	-1204
848.211	-2227
848.302	-1625
848.392	-1283
848.483	-348
848.574	-1380
848.664	-1669
848.755	-660
848.846	-528
848.936	-1234
849.027	-1720
849.118	-1169
849.208	-1605
849.299	-2411
849.389	-800
849.480	-1604
849.570	-632
849.661	-821
849.751	-602
849.841	-1619
849.932	-1469
850.022	-1648
850.112	-116
850.203	-1334
850.293	-1967
850.383	-1274
850.474	-1321
850.564	-1604
850.654	-610
850.744	-1043
850.834	-834
850.924	-1680
851.014	-1704
851.104	-1368
851.194	-779
851.284	-1584
851.374	-1181
851.464	-1570
851.554	-1403
851.644	-1898
851.734	-54
851.824	540
851.914	-290
852.004	853
852.094	-103
852.183	-1186
852.273	-1223
852.363	-1289
852.452	-1141
852.542	-1522
852.632	-1790
852.721	-1511
852.811	-2128
852.901	-1119
852.990	-1049
853.080	-1215
853.169	-893
853.259	-1289
853.348	-1749
853.438	-1208
853.527	-993
853.617	-2226
853.706	-684
853.795	-1134
853.885	-754
853.974	-1482
854.063	-217
854.152	457
854.242	86
854.331	-1305
854.420	-1399
854.509	-1904
854.598	-713
854.687	-1641
854.777	-262
854.866	-2138
854.955	-1208
855.044	-1106
855.133	-1898
855.222	-1839
855.311	-1410
855.400	-796
855.488	-998
855.577	-2020
855.666	-1050
855.755	-296
855.844	-702
855.933	-1801
856.021	-885
856.110	-2040
856.199	-1004
856.288	-1719
856.376	-1538
856.465	-2235
856.554	-1034
856.642	-1921
856.731	-1408
856.819	-1708
856.908	-1515
856.996	-1091
857.085	-794
857.173	-1660
857.262	-308
857.350	-489
857.438	-1483
857.527	-1617
857.615	-410
857.703	-1233
857.792	-1298
857.880	-970
857.968	-1143
858.056	-1185
858.145	-727
858.233	-1773
858.321	-1212
858.409	-1548
858.497	-1691
858.585	-1384
858.673	-1001
858.761	-1803
858.849	-1920
858.937	-1202
859.025	-1224
859.113	-802
859.201	-1371
859.289	-1294
859.377	-1353
859.465	-1954
859.552	-1405
859.640	-1581
859.728	-913
859.816	-1133
859.903	-1648
859.991	-1918
860.079	-1171
860.166	-1799
860.254	-465
860.342	-1264
860.429	-1790
860.517	-1773
860.604	-1541
860.692	-1089
860.779	-942
860.867	-1698
860.954	-593
861.042	-1971
861.129	-1423
861.216	-707
861.304	-1969
861.391	-1122
861.478	-1257
861.565	-1549
861.653	-479
861.740	-1837
861.827	-729
861.914	-1610
862.001	-1442
862.089	-1534
862.176	-1379
862.263	-1808
862.350	-1433
862.437	-2053
862.524	-2183
862.611	-1138
862.698	-923
862.785	-1430
862.871	-1108
862.958	-1350
863.045	-1727
863.132	-1967
863.219	-1410
863.306	-2366
863.392	-960
863.479	-1829
863.566	-1231
863.652	-1455
863.739	-2128
863.826	-1804
863.912	-1639
863.999	-2990
864.086	-1205
864.172	-1779
864.259	-1817
864.345	-1513
864.432	-1419
864.518	-1374
864.604	-1398
864.691	-2148
864.777	-1436
864.863	-1064
864.950	-1253
865.036	-1242
865.122	-1826
865.209	-1450
865.295	-1473
865.381	-2250
865.467	-1057
865.553	-868
865.639	-1515
865.726	-1608
865.812	-826
865.898	-845
865.984	-1605
866.070	525
866.156	313
866.242	-1399
866.328	-1354
866.414	-2194
866.499	-1587
866.585	-1326
866.671	-1756
866.757	-1145
866.843	-1509
866.928	-1965
867.014	-1016
867.100	-1784
867.186	-1583
867.271	-927
867.357	-785
867.442	-1454
867.528	-1161
867.614	-1252
867.699	-1616
867.785	-1451
867.870	-1171
867.956	-1054
868.041	-1288
868.127	-1381
868.212	-1217
868.297	-2026
868.383	-1480
868.468	-501
868.553	-1090
868.639	-685
868.724	133
868.809	348
868.894	-831
868.979	-1386
869.065	-946
869.150	-1840
869.235	-1123
869.320	-1828
869.405	-1710
869.490	-2158
869.575	-1380
869.660	-1597
869.745	-1181
869.830	-2335
869.915	-1665
870.000	-1381
870.085	-1119
870.169	-2111
870.254	-1147
870.339	-2111
870.424	-1304
870.509	-1822
870.593	-1386
870.678	-2223
870.763	-1588
870.847	-2134
870.932	-1994
871.016	-1614
871.101	-1381
871.186	-1535
871.270	-1394
871.355	-2206
871.439	-1422
871.523	-1242
871.608	-1241
871.692	-1728
871.777	-1176
871.861	-1377
871.945	-1984
872.030	-1137
872.114	-1020
872.198	-2125
872.282	-1931
872.367	-2176
872.451	-2177
872.535	-2052
872.619	-1012
872.703	-2049
872.787	-1225
872.871	-2631
872.955	-1289
873.039	-2152
873.123	-1406
873.207	-1538
873.291	-959
873.375	-2115
873.459	-259
873.543	-2651
873.627	-1312
873.711	-2535
873.794	-578
873.878	-1910
873.962	-1679
874.045	-1736
874.129	-1216
874.137	-1267
874.213	-1775
874.245	-1689
874.296	-1554
874.352	-2204
874.380	-2527
874.460	-1633
874.464	-1597
874.547	-1784
874.568	-1535
874.631	-812
874.676	-1354
874.714	-1800
874.784	-797
874.798	-605
874.881	-833
874.892	-954
874.965	-1777
874.999	-1992
875.048	-2277
875.107	-1548
875.131	-1262
875.215	-624
875.215	-624
875.298	-640
875.323	-1098
875.381	-2289
875.430	-1443
875.465	-774
875.538	-1784
875.548	-1933
875.631	-2250
875.646	-2140
875.714	-1569
875.753	-1424
875.798	-1309
875.861	-1296
875.881	-1271
875.964	-1675
875.968	-1688
876.047	-1998
876.076	-1760
876.130	-1255
876.183	-1638
876.213	-1870
876.291	-1277
876.296	-1239
876.379	-2029
876.398	-1814
876.462	-1008
876.506	-1337
876.545	-1678
876.613	-1307
876.628	-1240
876.711	-1103
876.721	-1064
876.794	-607
876.828	-1093
876.877	-1834
876.935	-1082
876.960	-760
877.043	-1243
877.043	-1242
877.125	-976
877.150	-1016
877.208	-1011
877.258	-521
877.291	-197
877.365	-953
877.374	-1030
877.456	-499
877.472	-566
877.539	-945
877.579	-909
877.622	-894
877.687	-959
877.704	-952
877.787	-633
877.794	-673
877.869	-1278
877.901	-1207
877.952	-926
878.008	-1252
878.034	-1448
878.115	-1146
878.117	-1141
878.199	-1597
878.222	-1424
878.282	-744
878.329	-903
878.364	-1105
878.437	-1194
878.447	-1206
878.529	-1686
878.544	-1582
878.611	-1015
878.651	-1371
878.694	-1813
878.758	-1479
878.776	-1369
878.858	-1150
878.865	-1122
878.941	-687
878.972	-774
879.023	-879
879.078	-667
879.105	-598
879.185	-1230
879.187	-1247
879.269	-1079
879.292	-1394
879.351	-1893
879.399	-1336
879.433	-997
879.506	-796
879.516	-769
879.598	-1787
879.613	-1804
879.680	-1675
879.720	-1039
879.762	-531
879.827	-1059
879.844	-1181
879.926	-998
879.933	-1028
880.007	-1137
880.040	-955
880.089	-917
880.147	-1149
880.171	-1054
880.253	-16
880.254	-21
880.335	-1531
880.360	-1429
880.417	-786
880.467	-351
880.499	-122
880.574	610
880.580	659
880.662	-788
880.680	-793
880.744	-877
880.787	-1034
880.825	-1132
880.893	-965
880.907	-962
880.989	-1566
881.000	-1533
881.070	-670
881.106	-653
881.152	-1138
881.213	-1299
881.233	-1151
881.315	-1347
881.319	-1305
881.396	-939
881.426	-999
881.478	-1025
881.532	-780
881.559	-655
881.639	-755
881.641	-760
881.722	-1049
881.745	-1116
881.803	-999
881.852	-1038
881.885	-996
881.958	-200
881.966	-161
882.047	-391
882.064	-494
882.129	-719
882.171	-399
882.210	-96
882.277	-245
882.291	-244
882.372	-536
882.383	-526
882.454	-952
882.489	-1163
882.535	-856
882.596	-386
882.616	-491
882.697	-916
882.702	-951
882.778	-604
882.808	-465
882.859	-852
882.914	-1146
882.940	-874
883.020	-305
883.021	-302
883.102	-676
883.127	-669
883.183	-626
883.233	-556
883.264	-414
883.339	-17
883.345	-30
883.426	-840
883.445	-853
883.507	-248
883.551	-195
883.587	-480
883.657	-871
883.668	-863
883.749	-815
883.763	-774
883.830	-611
883.869	-577
883.910	-465
883.975	-340
883.991	-449
884.072	-1312
884.081	-1324
884.152	-608
884.187	-532
884.233	-636
884.292	-583
884.314	-603
884.394	-975
884.398	-991
884.475	-610
884.504	-455
884.555	-462
884.610	-484
884.636	-351
884.716	-113
884.716	-111
884.797	-668
884.821	-1010
884.877	-864
884.927	-819
884.958	-755
885.033	-682
885.038	-722
885.118	-996
885.139	-1135
885.199	-1051
885.244	-918
885.279	-504
885.350	-11
885.359	-119
885.439	-771
885.456	-957
885.520	-598
885.561	-350
885.600	-510
885.667	-815
885.680	-769
885.760	-374
885.773	-300
885.840	-173
885.878	-101
885.920	-106
885.984	-422
886.000	-525
886.080	-959
886.089	-999
886.160	-691
886.195	-523
886.240	-485
886.300	-604
886.320	-462
886.400	389
886.406	418
886.480	-57
886.511	-82
886.560	204
886.616	32
886.640	-101
886.720	-75
886.722	-84
886.800	-520
886.827	-694
886.879	-445
886.932	-161
886.959	41
887.038	574
887.039	575
887.119	-14
887.143	-182
887.198	-405
887.248	-717
887.278	-773
887.354	-873
887.358	-866
887.437	-804
887.459	-779
887.517	-103
887.564	433
887.596	348
887.669	190
887.676	140
887.755	-744
887.774	-901
887.835	-299
887.880	81
887.914	-275
887.985	-1057
887.994	-932
888.073	165
888.090	392
888.153	11
888.195	-231
888.232	-219
888.300	-223
888.311	-216
888.391	-301
888.405	-294
888.470	-225
888.510	-258
888.549	-201
888.615	-4
888.628	50
888.708	247
888.720	285
888.787	209
888.825	111
888.866	-163
888.930	-526
888.945	-364
889.024	423
889.035	532
889.103	-5
889.140	-325
889.182	-255
889.245	-125
889.261	-166
889.340	-408
889.349	-435
889.419	-59
889.454	127
889.498	166
889.559	216
889.577	48
889.656	-714
889.664	-789
889.735	544
889.768	1174
889.814	733
889.873	138
889.978	-447
890.083	245
890.187	71
890.292	-67
890.397	-94
890.501	-136
890.606	83
890.710	-61
890.815	-43
890.919	28
891.024	-116
891.128	-110
891.233	311
891.337	219
891.442	-1331
891.546	-293
891.650	162
891.755	-265
891.859	357
891.963	-8
892.068	65
892.172	29
892.276	-749
892.380	-532
892.484	-22
892.589	-846
892.693	42
892.797	-423
892.901	23
893.005	-325
893.109	88
893.213	-503
893.317	-172
893.421	595
893.525	-388
893.629	-399
893.733	-402
893.837	226
893.941	-298
894.045	366
894.148	-543
894.252	-12
894.356	163
894.460	-506
894.564	-158
894.667	35
894.771	-386
894.875	-31
894.978	-197
895.082	-419
895.186	324
895.289	371
895.393	144
895.496	-282
895.600	-1016
895.703	-335
895.807	-230
895.910	-517
896.014	-590
896.117	-1028
896.221	-84
896.324	-214
896.427	114
896.531	-684
896.634	-306
896.737	-433
896.840	337
896.944	-752
897.047	-443
897.150	-401
897.253	261
897.356	51
897.460	-90
897.563	-748
897.666	-522
897.769	-588
897.872	-262
897.975	-903
898.078	-1455
898.181	-349
898.284	-440
898.387	-842
898.490	-158
898.593	-656
898.695	501
898.798	-528
898.901	-203
899.004	-263
899.107	-308
899.209	-62
899.312	-255
899.415	-520
899.518	-346
899.620	-458
899.723	-128
899.826	-653
899.928	-222
900.031	-984
900.133	757
900.236	-945
900.338	-420
900.441	-523
900.543	110
900.646	-717
900.748	42
900.851	-386
900.953	-56
901.055	146
901.158	-358
901.260	-954
901.362	-457
901.465	-517
901.567	-371
901.669	-1206
901.771	-407
901.873	-897
901.976	-289
902.078	-31
902.180	-433
902.282	-776
902.384	-873
902.486	149
902.588	-249
902.690	-730
902.792	344
902.894	-1069
902.996	-130
903.098	-392
903.200	-122
903.302	-362
903.404	-195
903.505	-852
903.607	444
903.709	-151
903.811	-242
903.913	-1077
904.014	13
904.116	-1148
904.218	-28
904.319	-286
904.421	35
904.523	-665
904.624	-231
904.726	-598
904.827	-888
904.929	-59
905.030	-740
905.132	-460
905.233	-1011
905.335	-428
905.436	-756
905.537	-606
905.639	-290
905.740	-360
905.841	107
905.943	-1032
906.044	-865
906.145	-953
906.247	-905
906.348	424
906.449	-1202
906.550	-827
906.651	780
906.752	-159
906.854	-992
906.955	-657
907.056	-352
907.157	-1034
907.258	-727
907.359	-544
907.460	-927
907.561	-1360
907.662	695
907.762	-325
907.863	-825
907.964	28
908.065	-740
908.166	-564
908.267	-1004
908.367	-364
908.468	-542
908.569	-435
908.670	-36
908.770	-622
908.871	-105
908.971	-975
909.072	-254
909.173	-1209
909.273	-760
909.374	-552
909.474	57
909.575	-254
909.675	-890
909.776	-579
909.876	178
909.977	-1224
910.077	-1064
910.177	-1025
910.278	-746
910.378	-645
910.478	-435
910.579	-1008
910.679	-709
910.779	-621
910.879	171
910.980	-712
911.080	-9
911.180	-813
911.280	-867
911.380	-974
911.480	188
911.580	-1870
911.680	-371
911.780	-1170
911.880	-805
911.980	-922
912.080	91
912.180	-792
912.280	-730
912.380	-625
912.480	-221
912.580	-1491
912.679	-163
912.779	-970
912.879	-137
912.979	-442
913.078	-1228
913.178	-1191
913.278	-1159
913.377	-1236
913.477	-134
913.577	-641
913.676	-530
913.776	-89
913.875	-132
913.975	-142
914.074	-524
914.174	-1165
914.273	-962
914.373	-481
914.472	187
914.572	-1268
914.671	-608
914.770	-717
914.870	-511
914.969	-853
915.068	65
915.167	-1165
915.267	-991
915.366	-858
915.465	-498
915.564	-508
915.663	-488
915.763	-836
915.862	-323
915.961	259
916.060	-422
916.159	-586
916.258	-1244
916.357	-919
916.456	-51
916.555	-1169
916.654	-889
916.752	-1356
916.851	-554
916.950	-182
917.049	-912
917.148	-1169
917.247	-329
917.345	-862
917.444	-313
917.543	-335
917.642	-936
917.740	-1381
917.839	-1017
917.937	-560
918.036	-570
918.135	-23
918.233	-261
918.332	-973
918.430	-756
918.529	-957
918.627	-1066
918.726	-669
918.824	-431
918.923	-1199
919.021	-338
919.119	-287
919.218	-775
919.316	-1157
919.414	-748
919.512	-540
919.611	-403
919.709	-374
919.807	-191
919.905	-1012
920.003	-997
920.102	-758
920.200	-898
920.298	-740
920.396	-698
920.494	-611
920.592	-1478
920.690	-530
920.788	-858
920.886	-1415
920.984	-1137
921.082	-913
921.180	118
921.277	-1106
921.375	-1009
921.473	-777
921.571	-648
921.669	-689
921.766	-1483
921.864	-974
921.962	-494
922.060	-1731
922.157	-666
922.255	-533
922.352	455
922.450	-929
922.548	-839
922.645	-645
922.743	-929
922.840	-1596
922.938	-1138
923.035	-1727
923.133	-750
923.230	-1123
923.327	-764
923.425	-677
923.522	-481
923.619	-1049
923.717	-1101
923.814	-934
923.911	-1213
924.008	-528
924.106	-1820
924.203	-1144
924.300	-967
924.397	-601
924.494	231
924.591	-811
924.688	-1049
924.786	-594
924.883	-497
924.979	-1007
925.077	-408
925.173	-1208
925.270	-99
925.367	-933
925.464	-844
925.561	-1263
925.658	-1053
925.755	-1289
925.852	-1067
925.948	-1695
926.045	-745
926.142	-1041
926.239	-1567
926.335	-1515
926.432	134
926.529	-1311
926.625	-984
926.722	-994
926.818	-1063
926.915	-1169
927.011	-679
927.108	-294
927.204	-567
927.301	-915
927.397	-1083
927.494	-1545
927.590	-1033
927.687	-840
927.783	-985
927.879	-2317
927.976	-1103
928.072	-810
928.168	-287
928.264	-1310
928.361	-927
928.457	-1044
928.553	-1254
928.649	-838
928.745	-496
928.841	-1124
928.937	-231
929.033	-1457
929.129	-1396
929.225	-619
929.321	-331
929.417	-1856
929.513	-1180
929.609	-1564
929.705	-757
929.801	-1859
929.897	-1471
929.993	-242
930.089	-734
930.184	-1475
930.280	-1223
930.376	-693
930.471	-908
930.567	-1019
930.663	-357
930.758	-1227
930.854	-1523
930.950	-2266
931.045	-1116
931.141	-1883
931.236	-1307
931.332	-1308
931.427	-725
931.523	-946
931.618	-846
931.714	-1335
931.809	-956
931.905	-1093
932.000	-454
932.095	-2075
932.191	-602
932.286	-1420
932.381	-1608
932.476	-963
932.572	-1028
932.667	-1768
932.762	-1325
932.857	-679
932.952	-345
933.047	-1143
933.142	-1224
933.237	-1376
933.332	-1212
933.427	-618
933.522	-715
933.617	-1473
933.712	-703
933.807	-1208
933.902	-2175
933.997	-1517
934.092	-740
934.187	-1385
934.282	-1592
934.376	-1544
934.471	-770
934.566	-1327
934.661	-1073
934.755	-1288
934.850	-1299
934.945	-1451
935.039	-1538
935.134	-1050
935.228	-1102
935.323	-1605
935.417	-294
935.512	-1118
935.606	-1410
935.701	-1747
935.795	-918
935.890	-1577
935.984	-847
936.079	-720
936.173	-1289
936.267	-1862
936.362	-1614
936.456	-1768
936.550	-1402
936.644	-1217
936.738	-1326
936.833	-766
936.927	-1081
937.021	-1742
937.115	-1111
937.209	-1809
937.303	48
937.397	-1445
937.491	-1529
937.585	-1652
937.679	-888
937.773	-1363
937.867	-947
937.961	-455
938.055	-613
938.149	-820
938.243	-1311
938.337	-1475
938.430	-921
938.524	-1059
938.618	-1593
938.712	-917
938.805	-1773
938.899	-1370
938.993	-1471
939.086	-1220
939.180	-1062
939.274	-942
939.367	-593
939.461	-940
939.554	-1403
939.648	-1874
939.741	-842
939.835	-1530
939.928	-974
940.022	-1909
940.115	-1017
940.208	-1319
940.302	-1109
940.395	-2224
940.488	-2106
940.582	-530
940.675	-1505
940.768	-292
940.861	-2377
940.954	-1235
941.048	-1061
941.141	-1325
941.234	-777
941.327	-913
941.420	-926
941.513	-1686
941.606	-1666
941.699	-915
941.792	-941
941.885	-1619
941.978	-115
942.071	-1685
942.164	-818
942.257	-1569
942.349	-959
942.442	-843
942.535	-1138
942.628	-2007
942.721	-782
942.813	-1616
942.906	-178
942.999	-1798
943.091	-1256
943.184	-1540
943.277	-1013
943.369	-846
943.462	-1572
943.554	-1307
943.647	-1712
943.739	-1141
943.832	-1066
943.924	-2005
944.017	-1049
944.109	-1914
944.201	-1128
944.294	-970
944.386	-657
944.478	-1295
944.571	-2068
944.663	-958
944.755	-1210
944.847	-1928
944.940	-1616
945.032	-2026
945.124	-1685
945.216	-644
945.308	-902
945.400	-448
945.492	-635
945.584	-2174
945.676	-621
945.768	-1221
945.860	-492
945.952	-1797
946.044	-541
946.136	-918
946.228	-786
946.320	-967
946.412	-1192
946.503	-1153
946.595	-89
946.687	-1753
946.779	-1542
946.870	-1112
946.962	-1703
947.054	-1024
947.145	-1430
947.237	-956
947.329	-1591
947.420	-1501
947.512	-1148
947.603	-1432
947.695	-828
947.786	-1730
947.878	-911
947.969	-872
948.061	-1515
948.152	-1556
948.243	-730
948.335	-940
948.426	-1157
948.517	-635
948.609	-1197
948.700	-715
948.791	-1194
948.882	-1483
948.973	-1815
949.065	-1676
949.156	-1393
949.247	-1793
949.338	-278
949.429	-1921
949.520	-2007
949.611	-1597
949.702	-622
949.793	-1116
949.884	-1024
949.975	-1330
950.066	-1096
950.157	-1327
950.247	-715
950.338	-1789
950.429	-1296
950.520	-1243
950.611	-1444
950.701	-1658
950.792	-1484
950.883	-1304
950.973	-1351
951.064	-1348
951.155	-1547
951.245	-564
951.336	-1567
951.427	-2102
951.517	-775
951.608	-347
951.698	-1174
951.788	-945
951.879	-1490
951.969	-1674
952.060	-803
952.150	-1477
952.240	-1244
952.331	-3043
952.421	-34
952.511	-2058
952.602	-586
952.692	-1252
952.782	-848
952.872	-2052
952.962	-490
953.052	-906
953.143	-1892
953.233	-1209
953.323	-1128
953.413	-1637
953.503	-1154
953.593	-734
953.683	-1209
953.773	-1720
953.863	-890
953.953	-1124
954.042	-1125
954.132	-1377
954.222	447
954.312	-948
954.402	-1802
954.492	-1704
954.581	-914
954.671	-2056
954.761	-1667
954.850	-346
954.940	-711
955.030	-1188
955.119	-1255
955.209	-1131
955.298	-969
955.388	-1991
955.477	-662
955.567	-1550
955.656	-851
955.746	-1288
955.835	-1501
955.925	-1473
956.014	-938
956.103	-2003
956.193	-968
956.282	-1339
956.371	-1514
956.461	-1969
956.550	-1731
956.639	-426
956.728	-668
956.817	-1830
956.906	-1172
956.995	-1109
957.085	-1614
957.174	-1402
957.263	-824
957.352	-800
957.441	-1846
957.530	-2033
957.619	-1151
957.708	-1266
957.796	-546
957.885	-1806
957.974	-1581
958.063	-1328
958.152	-1528
958.241	79
958.329	-1052
958.418	-963
958.507	-771
958.596	-384
958.684	-1454
958.773	-1069
958.861	-1509
958.950	-1743
959.039	-603
959.127	-1114
959.216	-314
959.304	-848
959.393	-1415
959.481	-1481
959.570	-976
959.658	-1142
959.746	-1404
959.835	-1169
959.923	-1598
960.011	-1550
960.100	-395
960.188	-890
960.276	-1489
960.365	-1759
960.453	-1413
960.541	-1852
960.629	-1580
960.717	-1850
960.805	-1446
960.893	-1871
960.981	-2209
961.069	-1025
961.158	-1416
961.245	-1587
961.333	-1148
961.421	-1531
961.509	-473
961.597	-2027
961.685	-1258
961.773	-1671
961.861	-1611
961.949	-1518
962.036	-1595
962.124	-1286
962.212	-602
962.299	-1786
962.387	-1488
962.475	-1653
962.562	-1134
962.650	-1213
962.738	-985
962.825	-1275
962.913	-714
963.000	-1691
963.088	-1450
963.175	-1582
963.263	-1246
963.350	-1051
963.438	-1583
963.525	-1667
963.612	-726
963.700	-1180
963.787	-585
963.874	-988
963.962	-689
964.049	-1373
964.136	-1277
964.223	-1691
964.310	-933
964.398	-1737
964.485	-1053
964.572	-1285
964.659	-475
964.746	-1581
964.833	-1336
964.920	-1364
965.007	-1642
965.094	-1670
965.181	-1714
965.268	-1461
965.355	-1088
965.441	-1031
965.528	-1158
965.615	-419
965.702	-1621
965.789	-1714
965.875	-916
965.962	-1702
966.049	-1606
966.136	-1266
966.222	-1395
966.309	-914
966.395	-1517
966.482	-1298
966.569	-1479
966.655	-2106
966.742	-1342
966.828	-679
966.915	-1572
967.001	-1532
967.087	-1133
967.174	-1877
967.260	-1541
967.347	-1665
967.433	-1112
967.519	-1325
967.605	-1469
967.692	-1280
967.778	-1494
967.864	-1663
967.950	-1773
968.036	-1938
968.123	-1522
968.209	-2254
968.295	-2220
968.381	-941
968.467	-1402
968.553	-2755
968.639	-1155
968.725	-3058
968.811	-1355
968.897	-1552
968.983	-1493
969.069	-2285
969.154	-520
969.240	-1674
969.326	-1080
969.412	-1810
969.497	-1101
969.583	-2426
969.669	-766
969.755	-1584
969.840	-1782
969.926	-1508
970.012	-2688
970.097	-1551
970.183	-2331
970.268	-1673
970.354	-993
970.439	-2109
970.525	-611
970.610	-2112
970.696	-793
970.781	-857
970.866	-2144
970.952	-1744
971.037	-1809
971.122	-2055
971.208	-910
971.293	-1138
971.378	-2198
971.463	-1968
971.549	-761
971.634	-2351
971.719	-1535
971.804	-1610
971.889	-737
971.974	-1959
972.059	-1494
972.144	-1707
972.229	-1485
972.314	-1924
972.399	-997
972.484	-2507
972.569	-1421
972.654	-2478
972.739	-1365
972.824	-1899
972.908	-1811
972.993	-1849
973.078	-1759
973.163	-1487
973.247	-614
973.332	-3172
973.417	-1002
973.501	-2977
973.586	-1182
973.671	-1223
973.755	-1895
973.840	-944
973.924	-851
974.009	-1732
974.093	-1691
974.178	-346
974.262	-1837
974.346	-2640
974.431	-1988
974.515	-1343
974.600	-1205
974.684	-1466
974.768	-1858
974.852	-932
974.937	-2203
975.021	-1436
975.105	-1606
975.189	-2035
975.273	-2030
975.358	-2611
975.442	-2339
975.526	-1481
975.610	-2389
975.694	-2078
975.778	-1169
975.862	-1575
975.946	-3734
976.030	-877
976.114	-1486
976.198	-2017
976.281	-1877
976.365	-1240
976.449	-2150
976.533	-1648
976.617	-2036
976.700	-1863
976.784	-1988
976.868	-2584
976.951	-1751
977.035	-2316
977.119	-723
977.202	-1971
977.286	-1663
977.369	-1557
977.453	-1509
977.536	-2147
977.620	-2493
977.703	-1542
977.787	-2661
977.870	-2018
977.953	-712
978.037	-2693
978.120	-821
978.203	-1574
978.287	-1990
978.370	-1657
978.453	-2149
978.536	-2249
978.620	-1021
978.703	-1256
978.786	-1745
978.869	-2444
978.952	-2882
979.035	-1182
979.118	-930
979.201	-3026
979.284	-777
979.367	-2268
979.450	-1815
979.533	-2153
979.616	-2317
979.699	-2899
979.782	-1943
979.865	-2134
979.948	-2340
980.030	-2288
980.113	-1552
980.196	-2964
980.279	-2358
980.361	-1921
980.444	-2057
980.526	-1731
980.609	-1709
980.692	-2013
980.774	-1739
980.857	-2835
980.939	-1171
981.022	-2162
981.104	-1540
981.187	-2444
981.269	-1310
981.352	-2424
981.434	-2680
981.516	-3430
981.599	-779
981.681	-1931
981.763	-1020
981.846	-2237
981.928	-1803
982.010	-3060
982.092	-2661
982.174	-1327
982.256	-2208
982.339	-1761
982.421	-1897
982.503	-1172
982.585	-2583
982.667	-1866
982.749	-2025
982.831	-2109
982.913	-2474
982.995	-2015
983.077	-2421
983.158	-1518
983.240	-2715
983.322	-1790
983.404	-1360
983.486	-2815
983.568	-1999
983.649	-2592
983.731	-1761
983.813	-2474
983.894	-1259
983.976	-1986
984.058	-1823
984.139	-1738
984.221	-2867
984.302	-1700
984.384	-2087
984.465	-1937
984.547	-2414
984.628	-3126
984.710	-2191
984.791	-2774
984.872	-2275
984.954	-2606
985.035	-1971
985.116	-2287
985.198	-2823
985.279	-1208
985.360	-2700
985.441	-2244
985.522	-2033
985.604	-2185
985.685	-3422
985.766	-1357
985.847	-806
985.928	-3395
986.009	-2382
986.090	-1805
986.171	-1514
986.252	-2228
986.333	-1701
986.414	-2469
986.495	-2061
986.576	-2562
986.656	-2022
986.737	-2751
986.818	-1636
986.899	-2826
986.980	-1620
987.060	-1925
987.141	-2562
987.222	-2091
987.302	-1452
987.383	-547
987.464	-2283
987.544	-1978
987.625	-2200
987.705	-609
987.786	-1790
987.866	-2101
987.947	-2020
988.027	-2594
988.108	-2631
988.188	-1689
988.268	-2172
988.349	-2495
988.429	-2172
988.509	-1528
988.589	-2277
988.670	-4250
988.750	-1170
988.830	-2201
988.910	-2165
988.990	-2843
989.070	-2678
989.151	-2691
989.231	-2805
989.311	-2270
989.391	-2178
989.471	-2208
989.551	-2449
989.631	-2053
989.711	-1828
989.791	-3024
989.870	-2759
989.950	-1229
990.030	-2453
990.110	-2462
990.190	-1876
990.269	-1924
990.349	-2417
990.429	-1758
990.509	-1617
990.588	-2758
990.668	-1330
990.747	-2499
990.827	-2504
990.907	-2204
990.986	-2541
991.066	-2896
991.145	-1812
991.225	-2247
991.304	-3112
991.383	-1775
991.463	-2437
991.542	-1541
991.622	-2287
991.701	-2681
991.780	-2376
991.859	-3007
991.939	-1584
992.018	-2675
992.097	-2128
992.176	-1434
992.256	-2250
992.335	-2239
992.414	-1703
992.493	-2956
992.572	-1915
992.651	-1592
992.730	-2059
992.809	-2362
992.888	-3015
992.967	-2042
993.046	-1705
993.125	-2793
993.203	-1703
993.282	-2605
993.361	-2021
993.440	-1644
993.519	-2478
993.597	-2252
993.676	-2498
993.755	-1321
993.834	-1500
993.912	-2820
993.991	-1372
994.069	-3855
994.148	-2190
994.226	-2214
994.305	-1833
994.384	-3117
994.462	-1476
994.540	-2385
994.619	-2496
994.697	-1971
994.776	-2420
994.854	-932
994.932	-2504
995.011	-2446
995.089	-2563
995.167	-1115
995.245	-1268
995.324	-2595
995.402	-1557
995.480	-2231
995.558	-1629
995.636	-2868
995.714	-2082
995.792	-2167
995.870	-2547
995.948	-2336
996.026	-1847
996.104	-2723
996.182	-1411
996.260	-3026
996.338	-1350
996.416	-2899
996.494	-1792
996.572	-1746
996.649	-2162
996.727	-2148
996.805	-2564
996.883	-2643
996.960	-2409
997.038	-1378
997.116	-1333
997.193	-2871
997.271	-1263
997.348	-2247
997.426	-1490
997.504	-2700
997.581	-1576
997.658	-1912
997.736	-2773
997.813	-2656
997.891	-862
997.968	-1975
998.046	-2236
998.123	-2438
998.200	-1897
998.277	-2298
998.355	-1464
998.432	-3030
998.509	-1575
998.586	-1683
998.663	-2004
998.741	-1380
998.818	-1599
998.895	-2704
998.972	-2018
999.049	-1708
999.126	-2308
999.203	-1659
999.280	-2440
999.357	-2882
999.434	-1862
999.511	-2596
999.587	-2523
999.664	-3042
999.741	-1915
999.818	-1848
999.895	-2501
999.971	-1824
1000.048	-1845
1000.125	-1969
1000.202	-2418
1000.278	-2071
1000.355	-2121
1000.431	-2741
1000.508	-2783
1000.584	-1384
1000.661	-1549
1000.738	-2595
1000.814	-1971
1000.890	-2273
1000.967	-1939
1001.043	-2260
1001.120	-2784
1001.196	-2390
1001.272	-2782
1001.349	-2312
1001.425	-2140
1001.501	-2443
1001.577	-2458
1001.654	-2345
1001.730	-2944
1001.806	-2044
1001.882	-2267
1001.958	-2104
1002.034	-1577
1002.110	-2539
1002.186	-1769
1002.262	-2201
1002.338	-2527
1002.414	-1828
1002.490	-1086
1002.566	-2480
1002.642	-2259
1002.718	-2345
1002.794	-2526
1002.870	-1575
1002.945	-2027
1003.021	-1804
1003.097	-2065
1003.173	-875
1003.248	-1949
1003.324	-1917
1003.400	-2066
1003.475	-2434
1003.551	-1697
1003.626	-2088
1003.702	-2232
1003.777	-2058
1003.853	-2024
1003.928	-2398
1004.004	-2429
1004.079	-993
1004.155	-1726
1004.230	-3011
1004.305	-1466
1004.381	-2887
1004.456	-1631
1004.531	-2162
1004.607	-1691
1004.682	-1888
1004.757	-2067
1004.832	-1858
1004.907	-2416
1004.982	-1928
1005.057	-2274
1005.133	-2819
1005.208	-1315
1005.283	-2430
1005.358	-1201
1005.433	-2705
1005.508	-1467
1005.583	-1982
1005.657	-1940
1005.732	-1693
1005.807	-2019
1005.882	-2054
1005.957	-2312
1006.032	-1703
1006.106	-2615
1006.181	-2516
1006.256	-2243
1006.331	-3025
1006.405	-1726
1006.480	-2115
1006.554	-1663
1006.629	-1581
1006.704	-1957
1006.778	-2169
1006.853	-874
1006.927	-2458
1007.002	-1873
1007.076	-2038
1007.150	-1908
1007.225	-2157
1007.299	-2464
1007.373	-2442
1007.448	-2210
1007.522	-1560
1007.596	-1566
1007.671	-2418
1007.745	-1142
1007.819	-2668
1007.893	-2461
1007.967	-2246
1008.041	-3237
1008.115	-1822
1008.190	-2511
1008.264	-1905
1008.338	-2269
1008.412	-2234
1008.486	-1482
1008.560	-2337
1008.633	-2293
1008.707	-2624
1008.781	-1495
1008.855	-2426
1008.929	-2219
1009.003	-2686
1009.076	-2654
1009.150	-1354
1009.224	-1687
1009.298	-1630
1009.371	-1989
1009.445	-1428
1009.519	-1970
1009.592	-2670
1009.666	-1846
1009.739	-1795
1009.813	-2480
1009.886	-2226
1009.960	-1960
1010.033	-2171
1010.107	-1212
1010.180	-2690
1010.253	-2090
1010.327	-2042
1010.400	-2353
1010.473	-1375
1010.547	-962
1010.620	-2397
1010.693	-1939
1010.766	-2445
1010.840	-488
1010.913	-1888
1010.986	-2796
1011.059	-2167
1011.132	-1891
1011.205	-1387
1011.278	-2209
1011.351	-2333
1011.424	-1523
1011.497	-2962
1011.570	-1802
1011.643	-2435
1011.716	-2689
1011.789	-2504
1011.862	-1644
1011.934	-1604
1012.007	-2294
1012.080	-1737
1012.153	-1397
1012.225	-1234
1012.298	-2187
1012.371	-2735
1012.443	-1648
1012.516	-3337
1012.588	-1966
1012.661	-2335
1012.733	-2500
1012.806	-2039
1012.879	-2423
1012.951	-2812
1013.023	-1535
1013.096	-2033
1013.168	-2008
1013.241	-934
1013.313	-1716
1013.385	-2708
1013.458	-1472
1013.530	-1487
1013.602	-2599
1013.674	-1741
1013.746	-2584
1013.819	-3012
1013.891	-2093
1013.963	-2088
1014.035	-1555
1014.107	-2564
1014.179	-1704
1014.251	-1945
1014.323	-2300
1014.395	-2645
1014.467	-2307
1014.539	-2040
1014.611	-2581
1014.683	-1826
1014.754	-1615
1014.826	-2303
1014.898	-2198
1014.970	-2848
1015.042	-1413
1015.113	-1923
1015.185	-2146
1015.257	-1753
1015.328	-2906
1015.400	-2307
1015.471	-2543
1015.543	-2876
1015.615	-1628
1015.686	-2337
1015.757	-2125
1015.829	-3110
1015.901	-1779
1015.972	-2167
1016.043	-1967
1016.115	-1608
1016.186	-2249
1016.257	-1963
1016.328	-2128
1016.400	-1196
1016.471	-2471
1016.542	-2841
1016.613	-1931
1016.685	-1869
1016.756	-1523
1016.827	-3004
1016.898	-2138
1016.969	-1775
1017.040	-1751
1017.111	-1962
1017.182	-2438
1017.253	-1958
1017.324	-1828
1017.395	-2520
1017.466	-1399
1017.537	-1838
1017.608	-2284
1017.678	-2885
1017.749	-2431
1017.820	-2252
1017.891	-2099
1017.961	-2167
1018.032	-2663
1018.103	-2177
1018.173	-1852
1018.244	-1792
1018.315	-1775
1018.385	-709
1018.456	-2822
1018.526	-1912
1018.597	-2198
1018.667	-1916
1018.738	-1584
1018.808	-2149
1018.878	-1927
1018.949	-1830
1019.019	-2096
1019.089	-2588
1019.160	-1411
1019.230	-2388
1019.300	-1796
1019.371	-2716
1019.441	-1517
1019.511	-2378
1019.581	-1662
1019.651	-2170
1019.721	-1616
1019.791	-3089
1019.861	-1519
1019.931	-2145
1020.001	-2711
1020.071	-2645
1020.141	-1684
1020.211	-2582
1020.281	-1411
1020.351	-2183
1020.421	-2328
1020.491	-1970
1020.560	-2454
1020.630	-2131
1020.700	-2156
1020.770	-2126
1020.839	-2569
1020.909	-2965
1020.979	-1930
1021.048	-1916
1021.118	-2665
1021.187	-2655
1021.257	-1927
1021.326	-3001
1021.396	-2322
1021.465	-2187
1021.535	-2581
1021.604	-2480
1021.674	-1798
1021.743	-2257
1021.812	-1967
1021.882	-1707
1021.951	-2417
1022.020	-2731
1022.089	-2218
1022.159	-2489
1022.228	-1349
1022.297	-2332
1022.366	-1125
1022.435	-2745
1022.504	-1747
1022.573	-2713
1022.642	-1707
1022.711	-2471
1022.781	-2482
1022.849	-2326
1022.918	-2114
1022.987	-2670
1023.056	-1823
1023.125	-2334
1023.194	-2692
1023.263	-2124
1023.331	-902
1023.400	-1867
1023.469	-1759
1023.538	-2072
1023.606	-2554
1023.675	-1744
1023.744	-2361
1023.812	-2978
1023.881	-2093
1023.949	-1892
1024.018	-2186
1024.086	-2642
1024.155	-1303
1024.223	-2388
1024.292	-1826
1024.360	-2621
1024.429	-2108
1024.497	-3078
1024.565	-2174
1024.634	-2258
1024.702	-2105
1024.770	-1827
1024.838	-2223
1024.907	-2531
1024.975	-1902
1025.043	-2390
1025.111	-2014
1025.179	-1743
1025.247	-1596
1025.315	-2742
1025.383	-2924
1025.451	-2965
1025.519	-1835
1025.587	-2167
1025.655	-2112
1025.723	-3040
1025.791	-1653
1025.859	-1902
1025.927	-1191
1025.995	-2814
1026.062	-2194
1026.130	-2452
1026.198	-2398
1026.266	-2347
1026.333	-1786
1026.401	-2692
1026.469	-2124
1026.536	-1601
1026.604	-1898
1026.671	-2573
1026.739	-891
1026.806	-1644
1026.874	-2596
1026.941	-2233
1027.009	-2018
1027.076	-1931
1027.144	-2046
1027.211	-2427
1027.278	-1657
1027.345	-3084
1027.413	-2248
1027.480	-2031
1027.547	-2341
1027.614	-2667
1027.682	-1551
1027.749	-2511
1027.816	-1635
1027.883	-2666
1027.950	-2480
1028.017	-3115
1028.084	-1687
1028.151	-2803
1028.218	-2011
1028.285	-2568
1028.352	-2278
1028.419	-2682
1028.486	-2399
1028.553	-2545
1028.619	-2446
1028.686	-2687
1028.753	-2061
1028.820	-2486
1028.886	-2492
1028.953	-2166
1029.020	-1912
1029.086	-2261
1029.153	-2049
1029.220	-2350
1029.286	-1459
1029.353	-2079
1029.419	-2094
1029.486	-2698
1029.552	-2426
1029.619	-3061
1029.685	-2489
1029.751	-2461
1029.818	-1730
1029.884	-1959
1029.951	-1968
1030.017	-3099
1030.083	-1793
1030.149	-2970
1030.216	-2967
1030.282	-2100
1030.348	-1916
1030.414	-3125
1030.480	-2525
1030.546	-1941
1030.612	-2078
1030.678	-2740
1030.744	-2181
1030.810	-1836
1030.876	-1941
1030.942	-1967
1031.008	-2430
1031.074	-2347
1031.140	-2512
1031.206	-1173
1031.272	-2222
1031.337	-2264
1031.403	-2152
1031.469	-2991
1031.534	-2513
1031.600	-2470
1031.666	-2455
1031.731	-1933
1031.797	-1917
1031.863	-1952
1031.928	-1862
1031.994	-2449
1032.059	-2068
1032.125	-2649
1032.190	-1933
1032.256	-2348
1032.321	-2430
1032.386	-2520
1032.452	-2293
1032.517	-2016
1032.582	-2274
1032.647	-2201
1032.713	-2318
1032.778	-2892
1032.843	-2010
1032.908	-2293
1032.974	-1790
1033.039	-2958
1033.104	-2153
1033.169	-1976
1033.234	-1626
1033.299	-1989
1033.364	-1312
1033.429	-2502
1033.494	-2041
1033.559	-2059
1033.624	-1817
1033.688	-2460
1033.753	-2514
1033.818	-2537
1033.883	-2636
1033.948	-2398
1034.013	-2119
1034.077	-2798
1034.142	-1887
1034.207	-3322
1034.271	-2382
1034.336	-2445
1034.400	-2325
1034.465	-2166
1034.530	-2173
1034.594	-2164
1034.658	-2145
1034.723	-2240
1034.787	-2009
1034.852	-2606
1034.916	-2223
1034.981	-2901
1035.045	-1790
1035.109	-3027
1035.173	-2298
1035.238	-3020
1035.302	-2593
1035.366	-3030
1035.430	-2159
1035.495	-3132
1035.559	-1798
1035.623	-2365
1035.687	-2357
1035.751	-2686
1035.815	-2116
1035.879	-2250
1035.943	-2079
1036.007	-2309
1036.071	-1464
1036.135	-2389
1036.198	-2478
1036.262	-3051
1036.326	-2120
1036.390	-2092
1036.454	-2063
1036.517	-2460
1036.581	-2696
1036.645	-1654
1036.709	-2719
1036.772	-2382
1036.836	-2266
1036.900	-2551
1036.963	-2833
1037.026	-2378
1037.090	-2672
1037.154	-2126
1037.217	-1978
1037.280	-3171
1037.344	-2148
1037.407	-2233
1037.471	-1903
1037.534	-3634
1037.597	-2444
1037.661	-2679
1037.724	-2184
1037.787	-2778
1037.850	-2979
1037.913	-2594
1037.977	-2001
1038.040	-2669
1038.103	-2572
1038.166	-2706
1038.229	-2085
1038.292	-2128
1038.355	-2006
1038.418	-2536
1038.481	-2706
1038.544	-3643
1038.607	-1799
1038.670	-1819
1038.732	-2509
1038.795	-3135
1038.858	-1835
1038.921	-2398
1038.984	-1838
1039.046	-2578
1039.109	-2605
1039.172	-2374
1039.234	-3473
1039.297	-2628
1039.360	-2290
1039.422	-2178
1039.485	-2115
1039.547	-3387
1039.610	-1999
1039.672	-2900
1039.734	-1995
1039.797	-2363
1039.859	-2877
1039.922	-3337
1039.984	-2876
1040.046	-2811
1040.109	-2653
1040.171	-3162
1040.233	-2321
1040.295	-3053
1040.358	-2180
1040.420	-2795
1040.482	-1794
1040.544	-2338
1040.606	-1968
1040.668	-2073
1040.730	-2823
1040.792	-2477
1040.854	-2290
1040.916	-2551
1040.978	-2530
1041.040	-2133
1041.102	-2365
1041.164	-3142
1041.225	-2332
1041.287	-3200
1041.349	-1760
1041.411	-2670
1041.472	-2605
1041.534	-2790
1041.596	-2381
1041.657	-2578
1041.719	-2555
1041.781	-3172
1041.842	-1684
1041.904	-2902
1041.965	-2306
1042.027	-2889
1042.088	-2032
1042.150	-2547
1042.211	-2236
1042.272	-1894
1042.334	-2236
1042.395	-2859
1042.456	-2511
1042.518	-2232
1042.579	-2604
1042.640	-2727
1042.701	-2327
1042.763	-2694
1042.824	-2736
1042.885	-2306
1042.946	-1852
1043.007	-2679
1043.068	-1744
1043.129	-2411
1043.190	-2433
1043.251	-2343
1043.312	-2429
1043.373	-2579
1043.434	-2329
1043.495	-2681
1043.556	-1606
1043.616	-2556
1043.677	-2112
1043.738	-2953
1043.799	-2866
1043.859	-2428
1043.920	-1928
1043.981	-2426
1044.041	-2710
1044.102	-1830
1044.162	-2206
1044.223	-2337
1044.284	-2917
1044.344	-2879
1044.405	-3331
1044.465	-2397
1044.525	-2347
1044.586	-2477
1044.646	-2387
1044.707	-2744
1044.767	-2473
1044.827	-2826
1044.887	-2186
1044.948	-1655
1045.008	-2340
1045.068	-2611
1045.128	-1693
1045.188	-2844
1045.249	-2544
1045.309	-2308
1045.369	-2603
1045.429	-2848
1045.489	-2625
1045.549	-3219
1045.609	-2102
1045.669	-2861
1045.729	-2299
1045.789	-2106
1045.848	-2237
1045.908	-1610
1045.968	-2359
1046.028	-2765
1046.088	-1639
1046.147	-1769
1046.207	-2053
1046.267	-2354
1046.326	-1891
1046.386	-2369
1046.446	-1937
1046.505	-2798
1046.565	-1490
1046.624	-2161
1046.684	-1450
1046.743	-1438
1046.803	-640
1046.862	-1288
1046.922	0
