'Start Wavelength	183.907
'End Wavelength	1046.922
'Gate Delay	5.000
'Gate Width (ms)	1.050
'Laser Output Level	0.000
'X Position	0.000
'Y Position	0.000
'Z Position	0.000
'Grid Point Number	1.000
'Shot Number	100.000
183.907	-126.000
183.977	-396.000
184.047	266
184.116	-190
184.186	-353
184.256	630
184.325	281
184.395	-338
184.465	709
184.534	109
184.604	-874
184.674	-27
184.743	-475
184.813	-588
184.883	-92
184.952	617
185.022	-11
185.092	145
185.161	-387
185.231	362
185.301	129
185.370	651
185.440	-199
185.509	-68
185.579	-138
185.649	618
185.718	-31
185.788	152
185.857	-287
185.927	-285
185.996	-123
186.066	-520
186.136	-696
186.205	232
186.275	-28
186.344	-474
186.414	197
186.483	-884
186.553	661
186.622	589
186.692	584
186.761	-325
186.831	-496
186.900	-104
186.970	35
187.039	755
187.109	581
187.178	251
187.248	891
187.317	396
187.387	1003
187.456	670
187.526	-421
187.595	987
187.664	-197
187.734	617
187.803	286
187.873	642
187.942	125
188.012	612
188.081	-235
188.150	258
188.220	-98
188.289	1064
188.358	-63
188.428	742
188.497	-988
188.567	799
188.636	73
188.705	348
188.775	346
188.844	237
188.913	380
188.983	203
189.052	-453
189.121	122
189.191	181
189.260	1238
189.329	735
189.399	743
189.468	0
189.537	-160
189.606	587
189.676	-45
189.745	892
189.814	1285
189.883	585
189.953	792
190.022	1204
190.091	3946
190.161	4221
190.230	1470
190.299	-209
190.368	34
190.437	90
190.507	363
190.576	250
190.645	-100
190.714	472
190.783	87
190.853	209
190.922	360
190.991	230
191.060	963
191.129	-570
191.198	775
191.268	-228
191.337	568
191.406	392
191.475	622
191.544	577
191.613	193
191.682	329
191.752	408
191.821	-277
191.890	249
191.959	-936
192.028	282
192.097	122
192.166	316
192.235	-99
192.304	897
192.373	-519
192.442	852
192.511	-359
192.580	368
192.650	302
192.719	1129
192.788	749
192.857	758
192.926	141
192.995	84
193.064	329
193.133	1057
193.202	985
193.271	933
193.340	32
193.409	882
193.478	2242
193.547	1269
193.615	1855
193.684	2098
193.753	591
193.822	1657
193.891	-245
193.960	1175
194.029	216
194.098	753
194.167	482
194.236	1030
194.305	143
194.374	542
194.443	-300
194.512	1149
194.580	871
194.649	1138
194.718	405
194.787	58
194.856	-251
194.925	841
194.994	701
195.062	379
195.131	723
195.200	990
195.269	84
195.338	526
195.407	255
195.475	340
195.544	643
195.613	1304
195.682	139
195.751	660
195.819	930
195.888	890
195.957	1402
196.026	1260
196.094	791
196.163	944
196.232	998
196.301	1501
196.369	951
196.438	340
196.507	251
196.576	356
196.644	974
196.713	1251
196.782	-379
196.850	1143
196.919	825
196.988	646
197.056	571
197.125	1161
197.194	299
197.262	1109
197.331	-84
197.400	897
197.468	534
197.537	504
197.606	859
197.674	1914
197.743	5420
197.812	2014
197.880	4911
197.949	2718
198.017	4312
198.086	3337
198.155	1880
198.223	2062
198.292	5649
198.360	2693
198.429	1172
198.497	1059
198.566	3698
198.635	5406
198.703	1741
198.772	2870
198.840	5963
198.909	6832
198.977	2065
199.046	1160
199.114	1274
199.183	1836
199.251	254
199.320	1719
199.388	685
199.457	1842
199.525	1110
199.594	678
199.662	-462
199.731	772
199.799	88
199.867	727
199.936	588
200.004	1062
200.073	1023
200.141	1742
200.210	606
200.278	928
200.346	721
200.415	1211
200.483	705
200.552	403
200.620	164
200.688	93
200.757	1258
200.825	767
200.893	661
200.962	772
201.030	569
201.098	421
201.167	1354
201.235	524
201.303	212
201.372	971
201.440	752
201.508	1318
201.577	898
201.645	734
201.713	394
201.781	1283
201.850	615
201.918	1281
201.986	645
202.055	1156
202.123	295
202.191	840
202.259	611
202.327	789
202.396	564
202.464	1326
202.532	938
202.600	3490
202.669	1598
202.737	923
202.805	587
202.873	567
202.941	1296
203.009	1388
203.078	1167
203.146	1202
203.214	1052
203.282	621
203.350	977
203.418	807
203.487	1564
203.555	799
203.623	1368
203.691	1295
203.759	455
203.827	944
203.895	1008
203.963	1255
204.031	609
204.099	1210
204.168	-92
204.236	1381
204.304	1131
204.372	1387
204.440	1369
204.508	733
204.576	760
204.644	1116
204.712	718
204.780	1086
204.848	659
204.916	803
204.984	331
205.052	1282
205.120	1091
205.188	965
205.256	1514
205.324	1148
205.392	1209
205.460	1856
205.528	1849
205.596	1628
205.664	493
205.732	1642
205.799	6765
205.867	11241
205.935	2290
206.003	2818
206.071	1437
206.139	1301
206.207	1171
206.275	1620
206.343	1351
206.411	1585
206.478	1421
206.546	1553
206.614	1386
206.682	1680
206.750	1670
206.818	1187
206.885	1740
206.953	62
207.021	1623
207.089	1751
207.157	1191
207.225	1931
207.292	931
207.360	1558
207.428	1894
207.496	971
207.563	1642
207.631	1443
207.699	897
207.767	2255
207.834	1160
207.902	1560
207.970	1555
208.038	1320
208.105	559
208.173	2411
208.241	3327
208.309	3489
208.376	2470
208.444	4610
208.512	2286
208.579	995
208.647	1591
208.715	2808
208.782	600
208.850	1661
208.918	1555
208.985	1706
209.053	1696
209.120	2293
209.188	1192
209.256	2467
209.323	1569
209.391	1243
209.459	2960
209.526	1802
209.594	2343
209.661	2218
209.729	1823
209.796	1698
209.864	1763
209.932	1267
209.999	2495
210.067	2499
210.134	2929
210.202	1940
210.269	3023
210.337	2228
210.404	1651
210.472	1880
210.539	2789
210.607	2352
210.674	2296
210.742	2215
210.809	1630
210.877	2327
210.944	2661
211.012	1661
211.079	3036
211.146	2362
211.214	1529
211.281	2139
211.349	2523
211.416	2824
211.484	2655
211.551	2714
211.618	2542
211.686	2855
211.753	1528
211.821	1987
211.888	2015
211.955	2841
212.023	2557
212.090	3011
212.157	2814
212.225	3870
212.292	7212
212.359	13999
212.427	35112
212.494	15191
212.561	5419
212.629	4257
212.696	2398
212.763	3301
212.831	2399
212.898	3371
212.965	2084
213.032	3447
213.100	2990
213.167	3502
213.234	2500
213.301	3197
213.369	2732
213.436	2659
213.503	2120
213.570	3768
213.638	2379
213.705	2055
213.772	975
213.839	3903
213.906	4136
213.973	3385
214.041	2238
214.108	2799
214.175	3015
214.242	3314
214.309	2434
214.376	2761
214.444	3461
214.511	3160
214.578	2813
214.645	3310
214.712	3367
214.779	2409
214.846	2334
214.913	3605
214.980	3569
215.048	4114
215.115	4466
215.182	2539
215.249	3043
215.316	2024
215.383	3189
215.450	2884
215.517	2543
215.584	2665
215.651	1726
215.718	2746
215.785	3313
215.852	2602
215.919	2991
215.986	2798
216.053	1952
216.120	2397
216.187	2331
216.254	2966
216.321	2870
216.388	3202
216.455	3140
216.522	2850
216.589	3343
216.656	5862
216.722	5919
216.789	4724
216.856	5076
216.923	4597
216.990	3379
217.057	3626
217.124	4332
217.191	4023
217.258	5586
217.324	6368
217.391	7301
217.458	5699
217.525	3172
217.592	3518
217.659	2691
217.725	5204
217.792	6493
217.859	5953
217.926	2510
217.993	2688
218.059	3631
218.126	3072
218.193	2465
218.260	2285
218.327	2172
218.393	2020
218.460	2781
218.527	2130
218.594	3011
218.660	4838
218.727	6144
218.794	2778
218.860	2514
218.927	2551
218.994	2422
219.061	1703
219.127	3266
219.194	4948
219.261	3359
219.327	2288
219.394	2310
219.461	1703
219.527	2210
219.594	4780
219.661	3299
219.727	1914
219.794	2774
219.860	2577
219.927	3224
219.994	3700
220.060	5585
220.127	4399
220.193	3940
220.260	3733
220.326	5086
220.393	7651
220.460	10976
220.526	7427
220.593	4723
220.659	6662
220.726	5618
220.792	15860
220.859	11624
220.925	13254
220.992	19128
221.058	19766
221.125	21806
221.191	17078
221.258	5650
221.324	4786
221.391	4068
221.457	3694
221.524	3688
221.590	6095
221.657	21902
221.723	15014
221.789	13429
221.856	12243
221.922	6711
221.989	4997
222.055	4338
222.121	2944
222.188	5091
222.254	3841
222.321	3104
222.387	2800
222.453	2550
222.520	2478
222.586	1810
222.652	3012
222.719	2092
222.785	3048
222.851	2204
222.918	2546
222.984	2736
223.050	2329
223.116	704
223.183	2970
223.249	2446
223.315	1399
223.382	2103
223.448	2450
223.514	1953
223.580	2607
223.647	1620
223.713	2889
223.779	2312
223.845	2053
223.911	3239
223.978	2114
224.044	3104
224.110	2548
224.176	2650
224.242	2898
224.309	1962
224.375	2202
224.441	2726
224.507	1587
224.573	2012
224.639	3812
224.705	2307
224.772	2205
224.838	2107
224.904	3056
224.970	1226
225.036	2364
225.102	1996
225.168	2636
225.234	2749
225.300	2765
225.366	446
225.432	2462
225.499	2407
225.565	3053
225.631	3114
225.697	2902
225.763	4576
225.829	5118
225.895	4160
225.961	7503
226.027	5900
226.093	5084
226.159	5826
226.225	7621
226.291	15487
226.357	27979
226.423	12763
226.489	7107
226.554	5786
226.620	5918
226.686	6773
226.752	8173
226.818	12034
226.884	36555
226.950	31416
227.016	11413
227.082	5766
227.148	4973
227.214	5399
227.279	3974
227.345	4522
227.411	3737
227.477	3144
227.543	4462
227.609	5705
227.674	4577
227.740	2763
227.806	3385
227.872	3074
227.938	2778
228.003	4679
228.069	3129
228.135	3066
228.201	2799
228.267	2426
228.332	3298
228.398	4217
228.464	4287
228.530	2861
228.595	2519
228.661	3416
228.727	4464
228.792	5133
228.858	3064
228.924	2192
228.990	5754
229.055	3404
229.121	5109
229.187	2787
229.252	2798
229.318	2933
229.384	3075
229.449	3262
229.515	1129
229.581	990
229.646	4118
229.712	2441
229.777	6816
229.843	6904
229.909	5919
229.974	5727
230.040	5958
230.105	5073
230.171	5317
230.236	7000
230.302	12714
230.368	8114
230.433	6063
230.499	4436
230.564	5633
230.630	3691
230.695	4574
230.761	4544
230.826	2380
230.892	5622
230.957	3940
231.023	2705
231.088	3792
231.154	2838
231.219	3398
231.284	5210
231.350	5742
231.415	2801
231.481	3784
231.546	2978
231.612	3508
231.677	2706
231.742	2677
231.808	3853
231.873	2867
231.939	1326
232.004	5879
232.069	5798
232.135	3564
232.200	2863
232.265	3281
232.331	3164
232.396	2300
232.461	2329
232.527	2060
232.592	2400
232.657	3253
232.723	4306
232.788	3804
232.853	3647
232.918	2996
232.984	1960
233.049	2537
233.114	3538
233.179	3871
233.245	6413
233.310	7479
233.375	2331
233.440	4214
233.506	2719
233.571	3072
233.636	2854
233.701	3159
233.766	5460
233.832	5975
233.897	3386
233.962	1882
234.027	4288
234.092	2546
234.157	3016
234.222	3224
234.288	4702
234.353	15596
234.418	12666
234.483	7706
234.548	6518
234.613	6065
234.678	4976
234.743	5973
234.808	15084
234.873	9179
234.938	5288
235.004	4899
235.069	4340
235.134	4306
235.199	4264
235.264	4897
235.329	3199
235.394	4858
235.459	4801
235.524	3200
235.589	4030
235.654	4340
235.719	3422
235.784	4454
235.849	4302
235.913	8134
235.978	8200
236.043	9459
236.108	4512
236.173	4609
236.238	4443
236.303	3493
236.368	4065
236.433	6497
236.498	9889
236.563	7902
236.627	11851
236.692	48227
236.757	35423
236.822	13880
236.887	10498
236.952	8779
237.017	7080
237.081	8929
237.146	10168
237.211	19364
237.276	47666
237.341	81458
237.405	31182
237.470	12933
237.535	9608
237.600	7099
237.664	7190
237.729	5047
237.794	6014
237.859	12608
237.923	8914
237.988	5779
238.053	7712
238.118	8524
238.182	20523
238.247	18769
238.312	8123
238.376	7314
238.441	3370
238.506	5509
238.570	3291
238.635	5178
238.700	4279
238.764	3882
238.829	9634
238.893	10795
238.958	6188
239.023	6431
239.087	4121
239.152	5217
239.216	3165
239.281	4110
239.346	4147
239.410	4727
239.475	4366
239.539	20000
239.604	15612
239.668	6781
239.733	4189
239.797	4399
239.862	6383
239.926	14806
239.991	7011
240.055	4178
240.120	3972
240.184	3743
240.249	2950
240.313	4130
240.378	3862
240.442	10661
240.507	18962
240.571	6563
240.635	8544
240.700	11131
240.764	4374
240.829	4146
240.893	1600
240.957	4391
241.022	11093
241.086	19237
241.151	7423
241.215	3273
241.279	4876
241.344	9129
241.408	6636
241.472	4457
241.537	6354
241.601	5622
241.665	4456
241.730	4802
241.794	6223
241.858	4991
241.922	5444
241.987	5861
242.051	4533
242.115	3507
242.179	4941
242.244	4232
242.308	5683
242.372	5229
242.436	4699
242.501	5263
242.565	4534
242.629	4506
242.693	4519
242.757	3580
242.822	3801
242.886	5213
242.950	4975
243.014	4884
243.078	5175
243.142	5150
243.206	4869
243.271	6645
243.335	6300
243.399	10652
243.463	38102
243.527	103559
243.591	32134
243.655	11931
243.719	7484
243.783	8352
243.847	13227
243.911	16812
243.975	12651
244.040	8539
244.104	6648
244.168	5768
244.232	5905
244.296	10498
244.360	14471
244.424	7397
244.488	5408
244.552	5285
244.615	2557
244.679	4810
244.743	4384
244.807	4587
244.871	3919
244.935	4531
244.999	2690
245.063	3845
245.127	4855
245.191	11358
245.255	9488
245.319	5084
245.383	3803
245.446	5546
245.510	3228
245.574	4369
245.638	4738
245.702	3682
245.766	10369
245.829	7216
245.893	4478
245.957	4458
246.021	4948
246.085	5240
246.149	6273
246.212	14216
246.276	22513
246.340	10003
246.404	6999
246.467	7646
246.531	8878
246.595	7778
246.659	6689
246.722	5097
246.786	6321
246.850	7822
246.913	9790
246.977	4718
247.041	4916
247.104	5446
247.168	5734
247.232	12056
247.295	31512
247.359	13739
247.423	6172
247.486	10872
247.550	7963
247.614	4614
247.677	7257
247.741	5562
247.804	4851
247.868	6265
247.932	12049
247.995	28085
248.059	9741
248.122	5689
248.186	7465
248.249	11935
248.313	46727
248.376	45297
248.440	29076
248.503	9768
248.567	9602
248.630	11246
248.694	15838
248.757	21671
248.821	51748
248.884	26910
248.948	25754
249.011	37048
249.075	58749
249.138	48069
249.202	16747
249.265	12038
249.328	15199
249.392	11330
249.455	9812
249.519	8350
249.582	10102
249.645	14680
249.709	11734
249.772	10304
249.835	9275
249.899	10087
249.962	8747
250.025	8868
250.089	20724
250.152	25631
250.215	11550
250.279	9492
250.342	10363
250.405	11340
250.468	10507
250.532	14903
250.595	23689
250.658	100121
250.721	157556
250.785	48879
250.848	23548
250.911	15425
250.974	13768
251.038	19116
251.101	35872
251.164	19388
251.227	20239
251.290	19833
251.354	32941
251.417	141041
251.480	132037
251.543	89368
251.606	258692
251.669	180098
251.732	63696
251.795	55104
251.859	59553
251.922	156704
251.985	82701
252.048	29284
252.111	20861
252.174	18440
252.237	31235
252.300	65023
252.363	81633
252.426	192502
252.489	72631
252.552	32000
252.615	21081
252.678	23007
252.741	53117
252.804	83450
252.867	197714
252.930	96567
252.993	43535
253.056	24605
253.119	17084
253.182	15908
253.245	35189
253.308	22336
253.371	14863
253.434	13305
253.497	12801
253.559	28193
253.622	16743
253.685	17882
253.748	17277
253.811	9691
253.874	12382
253.937	10731
254.000	8607
254.062	17472
254.125	28577
254.188	20405
254.251	15901
254.314	9098
254.376	14775
254.439	16615
254.502	13357
254.565	17405
254.628	31318
254.690	14878
254.753	8461
254.816	7552
254.878	7895
254.941	20878
255.004	20190
255.067	8139
255.129	7558
255.192	5150
255.255	3766
255.317	5212
255.380	4490
255.443	3162
255.505	3062
255.568	4046
255.631	3733
255.693	4143
255.756	3204
255.819	4736
255.881	4055
255.944	3934
256.006	3477
256.069	4113
256.132	2926
256.194	5654
256.257	14151
256.319	10337
256.382	9272
256.444	6684
256.507	5000
256.569	5080
256.632	5547
256.694	9282
256.757	24270
256.819	70866
256.882	25924
256.944	10020
257.007	9213
257.069	8511
257.132	6460
257.194	6675
257.257	6672
257.319	6976
257.381	7137
257.444	17592
257.506	87592
257.569	81599
257.631	40686
257.693	20247
257.756	11210
257.818	8733
257.880	5843
257.943	6154
258.005	5217
258.067	4876
258.130	5034
258.192	6283
258.254	10842
258.317	7524
258.379	6119
258.441	17739
258.503	15798
258.566	19680
258.628	24849
258.690	7070
258.753	6900
258.815	10670
258.877	6088
258.939	6208
259.001	6334
259.064	5533
259.126	6057
259.188	8785
259.250	6578
259.312	8646
259.375	21488
259.437	13355
259.499	5834
259.561	6492
259.623	6598
259.685	5594
259.747	6744
259.809	19379
259.872	34564
259.934	54711
259.996	40644
260.058	10786
260.120	5768
260.182	5467
260.244	4470
260.306	4668
260.368	5092
260.430	4299
260.492	7101
260.554	17207
260.616	15113
260.678	24961
260.740	34639
260.802	9133
260.864	6684
260.926	5074
260.988	6489
261.050	5536
261.112	8382
261.174	31529
261.236	27158
261.298	9005
261.359	14841
261.421	21662
261.483	6127
261.545	5933
261.607	3064
261.669	4992
261.731	9093
261.793	21263
261.854	7877
261.916	6393
261.978	4396
262.040	5866
262.102	4716
262.164	8918
262.225	6391
262.287	4723
262.349	11148
262.411	8748
262.472	5374
262.534	10106
262.596	20452
262.658	6865
262.719	3998
262.781	7108
262.843	19388
262.904	9238
262.966	8398
263.028	10663
263.090	54172
263.151	142173
263.213	38921
263.275	14944
263.336	7953
263.398	5527
263.459	3855
263.521	5642
263.583	10063
263.644	7135
263.706	3940
263.767	2815
263.829	3817
263.891	3216
263.952	2484
264.014	2055
264.075	3228
264.137	6680
264.198	5073
264.260	2138
264.321	2428
264.383	6513
264.444	11292
264.506	4383
264.567	3792
264.629	5888
264.690	6964
264.752	4788
264.813	2925
264.875	2467
264.936	3722
264.998	2584
265.059	3368
265.120	4194
265.182	6042
265.243	34134
265.305	29365
265.366	6774
265.427	4154
265.489	3504
265.550	1682
265.611	3412
265.673	3408
265.734	3404
265.795	2904
265.857	2819
265.918	3617
265.979	9508
266.040	59155
266.102	40038
266.163	10241
266.224	7473
266.286	4398
266.347	2317
266.408	3123
266.469	3426
266.530	3150
266.592	2628
266.653	5863
266.714	9440
266.775	3558
266.836	2843
266.898	2122
266.959	4556
267.020	2848
267.081	3948
267.142	2358
267.203	2185
267.264	2311
267.326	3944
267.387	2770
267.448	1463
267.509	2591
267.570	3712
267.631	1836
267.692	2260
267.753	3394
267.814	2392
267.875	6655
267.936	13871
267.997	5719
268.058	3314
268.119	2652
268.180	3796
268.241	2156
268.302	3528
268.363	2467
268.424	2388
268.485	3720
268.546	1789
268.607	1695
268.668	3070
268.729	1357
268.790	2634
268.851	3203
268.912	7944
268.972	8603
269.033	4149
269.094	2366
269.155	2786
269.216	3003
269.277	3497
269.338	2689
269.398	3501
269.459	2873
269.520	4867
269.581	5606
269.642	6464
269.702	3567
269.763	3980
269.824	3328
269.885	4198
269.945	6379
270.006	3980
270.067	2720
270.128	2611
270.188	2629
270.249	2403
270.310	1673
270.370	3246
270.431	3480
270.492	2875
270.553	2726
270.613	6433
270.674	12525
270.734	5394
270.795	3382
270.856	4564
270.916	3293
270.977	3481
271.038	3782
271.098	3900
271.159	6060
271.219	5755
271.280	2811
271.340	3188
271.401	3722
271.462	8900
271.522	5115
271.583	4383
271.643	3608
271.704	4195
271.764	4605
271.825	9942
271.885	38272
271.946	54075
272.006	14414
272.066	24188
272.127	44355
272.187	11573
272.248	6391
272.308	7679
272.369	32412
272.429	16573
272.489	9525
272.550	8005
272.610	9075
272.671	6664
272.731	7293
272.791	11905
272.852	5761
272.912	5025
272.972	3014
273.033	3972
273.093	5720
273.153	5424
273.214	4343
273.274	4680
273.334	18096
273.394	39400
273.455	12918
273.515	12441
273.575	29959
273.635	10908
273.696	17407
273.756	40990
273.816	14142
273.876	7637
273.936	17954
273.997	31653
274.057	7480
274.117	5884
274.177	9041
274.237	47912
274.297	39669
274.358	25229
274.418	32113
274.478	20714
274.538	7683
274.598	6738
274.658	25168
274.718	31175
274.778	12278
274.838	6975
274.898	14523
274.958	44504
275.018	45346
275.078	25753
275.138	8698
275.198	5176
275.258	4274
275.318	5551
275.378	8255
275.438	9656
275.498	7366
275.558	22000
275.618	45419
275.678	25912
275.738	13305
275.798	9059
275.858	4608
275.918	3405
275.978	4100
276.038	4422
276.098	3626
276.157	7077
276.217	19646
276.277	8548
276.337	6133
276.397	4680
276.457	4430
276.517	3458
276.576	2471
276.636	2791
276.696	5057
276.756	12406
276.815	9201
276.875	4037
276.935	4539
276.995	4532
277.055	1753
277.114	2808
277.174	4722
277.234	17724
277.293	6975
277.353	4032
277.413	3065
277.472	3147
277.532	3640
277.592	3618
277.651	11104
277.711	17192
277.771	6858
277.830	23989
277.890	17921
277.950	15699
278.009	48373
278.069	15451
278.128	12814
278.188	16946
278.248	8115
278.307	18701
278.367	11094
278.426	6021
278.486	3598
278.545	3919
278.605	3135
278.664	3296
278.724	3647
278.783	15574
278.843	43538
278.902	11881
278.962	5777
279.021	6118
279.081	7644
279.140	6211
279.199	4823
279.259	5837
279.318	7622
279.378	9754
279.437	17093
279.496	71827
279.556	174940
279.615	122927
279.675	27596
279.734	17244
279.793	27627
279.853	61013
279.912	20762
279.971	10280
280.031	10286
280.090	24961
280.149	45564
280.208	23002
280.268	112211
280.327	111466
280.386	23443
280.445	17116
280.505	14791
280.564	7857
280.623	5857
280.682	9525
280.742	15596
280.801	5559
280.860	4412
280.919	3818
280.978	3711
281.037	3820
281.097	2024
281.156	3799
281.215	2834
281.274	5411
281.333	25133
281.392	18061
281.451	3902
281.510	3880
281.569	2688
281.628	3422
281.688	2785
281.747	2961
281.806	2407
281.865	2714
281.924	2173
281.983	2686
282.042	2175
282.101	1792
282.160	2377
282.219	2774
282.278	2656
282.337	10678
282.396	6918
282.454	3360
282.513	4566
282.572	15485
282.631	7972
282.690	3391
282.749	2343
282.808	3629
282.867	2561
282.926	3270
282.985	1223
283.043	1661
283.102	1595
283.161	2555
283.220	8488
283.279	19787
283.338	5887
283.396	3039
283.455	3367
283.514	2917
283.573	5790
283.631	4037
283.690	2632
283.749	3268
283.808	6320
283.866	6559
283.925	2170
283.984	2703
284.043	2974
284.101	3963
284.160	2226
284.219	3967
284.277	3598
284.336	5436
284.395	21271
284.453	17688
284.512	5131
284.570	6278
284.629	4458
284.688	4009
284.746	3900
284.805	4976
284.863	5761
284.922	7380
284.981	8689
285.039	11760
285.098	20231
285.156	58357
285.215	224942
285.273	195681
285.332	60533
285.390	27063
285.449	16579
285.507	11059
285.566	7979
285.624	7666
285.683	5928
285.741	4326
285.799	4377
285.858	4387
285.916	3480
285.975	3468
286.033	1558
286.091	2432
286.150	2468
286.208	2970
286.267	3157
286.325	3743
286.383	5161
286.442	4438
286.500	2896
286.558	2826
286.616	2304
286.675	3743
286.733	3400
286.791	2486
286.850	3440
286.908	4201
286.966	8225
287.024	3301
287.083	2399
287.141	2911
287.199	3120
287.257	4763
287.315	3527
287.374	3582
287.432	9374
287.490	6906
287.548	5037
287.606	3751
287.664	3493
287.723	5617
287.781	7293
287.839	7189
287.897	8682
287.955	13453
288.013	21954
288.071	43294
288.129	178811
288.187	461567
288.245	197557
288.303	63819
288.361	33946
288.419	21772
288.477	14891
288.535	11760
288.593	8346
288.651	7996
288.709	5627
288.767	4905
288.825	4267
288.883	4491
288.941	3227
288.999	3470
289.057	2316
289.115	2318
289.173	1715
289.231	3508
289.289	2773
289.346	2762
289.404	3288
289.462	4601
289.520	4133
289.578	2428
289.636	1199
289.694	2121
289.751	1328
289.809	1924
289.867	1102
289.925	2717
289.983	3237
290.040	2343
290.098	1693
290.156	2452
290.214	2304
290.271	1731
290.329	1127
290.387	1513
290.444	681
290.502	1396
290.560	1045
290.617	1633
290.675	1964
290.733	2038
290.790	2559
290.848	2524
290.906	1458
290.963	1116
291.021	1470
291.078	1377
291.136	963
291.194	6631
291.251	14475
291.309	4019
291.366	1756
291.424	2509
291.481	1451
291.539	1430
291.596	1011
291.654	1187
291.711	1024
291.769	1719
291.826	3890
291.884	2780
291.941	1568
291.999	1593
292.056	1870
292.114	1516
292.171	90
292.228	1709
292.286	1254
292.343	3661
292.401	4913
292.458	3023
292.515	2130
292.573	2868
292.630	2563
292.687	3018
292.745	1726
292.802	2406
292.859	6272
292.917	18618
292.974	10136
293.031	4310
293.089	2067
293.146	1962
293.203	1851
293.260	1503
293.318	3330
293.375	3652
293.432	1691
293.489	1389
293.546	1952
293.604	3751
293.661	15696
293.718	42493
293.775	15301
293.832	6171
293.889	4916
293.947	5746
294.004	3902
294.061	4273
294.118	7384
294.175	13968
294.232	10862
294.289	4442
294.346	3219
294.403	3464
294.460	2815
294.517	2530
294.574	1326
294.631	2181
294.688	3420
294.745	10353
294.802	42332
294.859	30724
294.916	12283
294.973	8885
295.030	4944
295.087	4435
295.144	3337
295.201	3017
295.258	2675
295.315	4249
295.372	16312
295.429	34124
295.486	11779
295.542	4856
295.599	8937
295.656	13752
295.713	13945
295.770	26861
295.827	9116
295.883	4170
295.940	3346
295.997	5765
296.054	4889
296.111	2534
296.167	2762
296.224	2239
296.281	2058
296.338	2064
296.394	1894
296.451	3385
296.508	12468
296.564	21098
296.621	12389
296.678	36897
296.734	50544
296.791	15478
296.848	7725
296.904	7721
296.961	15791
297.018	33554
297.074	23212
297.131	8597
297.187	6009
297.244	8873
297.301	39971
297.357	70940
297.414	20127
297.470	7358
297.527	5392
297.583	4264
297.640	3857
297.696	2705
297.753	1972
297.809	1814
297.866	1686
297.922	2199
297.979	2290
298.035	2995
298.092	5422
298.148	19205
298.204	16213
298.261	6937
298.317	14279
298.374	47086
298.430	24359
298.486	10187
298.543	7056
298.599	6891
298.656	6008
298.712	13891
298.768	50364
298.824	37411
298.881	10789
298.937	5431
298.993	4556
299.050	3855
299.106	3465
299.162	2651
299.218	3336
299.275	3279
299.331	3743
299.387	8475
299.443	41892
299.500	36519
299.556	10212
299.612	5357
299.668	4110
299.724	3200
299.780	2992
299.837	3952
299.893	6803
299.949	26203
300.005	26341
300.061	24741
300.117	50296
300.173	22007
300.229	8437
300.285	9154
300.341	9612
300.397	5019
300.453	3015
300.510	2586
300.566	2278
300.622	3047
300.678	5765
300.734	16026
300.790	24275
300.845	37321
300.901	16509
300.957	21774
301.013	16337
301.069	5880
301.125	4171
301.181	4069
301.237	3355
301.293	2480
301.349	2241
301.405	1458
301.461	2276
301.516	2294
301.572	2233
301.628	5804
301.684	4599
301.740	9980
301.796	16273
301.851	10940
301.907	16889
301.963	18754
302.019	36970
302.074	117294
302.130	107125
302.186	42087
302.242	16092
302.297	10791
302.353	9545
302.409	18872
302.464	14533
302.520	12847
302.576	35056
302.631	39245
302.687	17704
302.743	6919
302.798	4497
302.854	3964
302.910	3379
302.965	4369
303.021	7275
303.076	7067
303.132	8063
303.187	11037
303.243	4450
303.299	2995
303.354	2261
303.410	2991
303.465	1634
303.521	2724
303.576	2638
303.632	4544
303.687	9664
303.743	37550
303.798	28024
303.853	9472
303.909	4583
303.964	4853
304.020	5568
304.075	8004
304.130	7454
304.186	13184
304.241	13197
304.297	9884
304.352	5118
304.358	4986
304.407	3913
304.449	3551
304.463	3430
304.518	4159
304.539	4021
304.573	3786
304.629	3635
304.630	3713
304.684	8107
304.720	21765
304.739	28273
304.794	42004
304.811	35067
304.850	18342
304.902	7440
304.905	6785
304.960	5470
304.992	4886
305.015	4375
305.071	3962
305.083	3549
305.126	2120
305.173	2448
305.181	2526
305.236	1793
305.264	2165
305.292	2566
305.347	2374
305.354	2592
305.402	4076
305.445	4975
305.457	5161
305.512	6056
305.535	5711
305.567	5398
305.622	6076
305.626	6297
305.678	15326
305.716	34344
305.733	39596
305.788	39283
305.807	33445
305.843	27117
305.897	42902
305.898	43006
305.953	38489
305.988	22661
306.008	15219
306.063	8035
306.078	7100
306.118	5598
306.168	3499
306.173	3319
306.228	3454
306.259	3197
306.283	3116
306.338	2996
306.349	3166
306.393	4117
306.440	4976
306.448	5030
306.503	4731
306.530	4421
306.558	5805
306.613	13014
306.620	13940
306.668	23379
306.711	36871
306.723	37271
306.778	25102
306.801	17552
306.833	10889
306.888	5549
306.892	5338
306.943	4948
306.982	3918
306.997	3599
307.052	3585
307.072	3617
307.107	4084
307.162	5355
307.163	5364
307.217	6995
307.253	8044
307.272	8159
307.327	8654
307.343	8189
307.381	7629
307.434	7444
307.436	7835
307.491	18561
307.524	27921
307.546	29407
307.600	29226
307.614	26436
307.655	16253
307.704	8776
307.710	8766
307.765	9743
307.795	11896
307.819	13622
307.874	19005
307.885	19167
307.929	18159
307.975	17249
307.984	18766
308.038	31598
308.065	39271
308.093	81947
308.148	179939
308.156	200253
308.202	281978
308.246	327333
308.257	310685
308.312	151575
308.336	91746
308.366	68049
308.421	39686
308.426	36978
308.475	23826
308.517	15564
308.530	14575
308.585	12977
308.607	12331
308.639	12344
308.694	12948
308.697	13009
308.748	19815
308.787	26928
308.803	26754
308.857	21268
308.877	18977
308.912	18958
308.967	20780
308.967	20782
309.021	31645
309.058	39703
309.076	54650
309.130	103830
309.148	121908
309.185	253477
309.238	474767
309.239	475709
309.293	460884
309.328	392973
309.348	327114
309.402	140318
309.418	93318
309.457	65240
309.508	36523
309.511	35951
309.566	29346
309.598	26093
309.620	27590
309.674	33435
309.688	34837
309.729	31556
309.778	25445
309.783	25053
309.837	20218
309.868	17955
309.892	27172
309.946	50479
309.959	56460
310.001	68499
310.049	79013
310.055	75632
310.109	39650
310.139	19680
310.163	15599
310.218	9540
310.229	8351
310.272	7621
310.319	7251
310.326	7073
310.381	5448
310.409	4836
310.435	4976
310.489	4805
310.499	4866
310.543	5209
310.589	5352
310.598	5338
310.652	5217
310.679	5128
310.706	4893
310.760	4245
310.769	4135
310.814	3852
310.859	3628
310.868	3692
310.923	4046
310.948	4173
310.977	4752
311.031	5911
311.038	6055
311.085	5521
311.128	4903
311.139	4921
311.193	4802
311.218	4809
311.247	4633
311.301	4201
311.308	4127
311.356	4105
311.398	4193
311.410	4158
311.464	3820
311.488	3645
311.518	3929
311.572	4422
311.578	4475
311.626	6700
311.668	8546
311.680	8310
311.734	7104
311.758	6540
311.788	6181
311.842	5457
311.847	5372
311.896	6794
311.937	7976
311.950	7976
312.004	7848
312.027	7774
312.058	6905
312.112	5303
312.117	5128
312.165	5039
312.207	4940
312.297	6166
312.386	4619
312.476	6916
312.566	14359
312.656	5848
312.745	3692
312.835	5376
312.925	5436
313.015	4430
313.104	4330
313.194	4781
313.284	4306
313.374	8219
313.463	6149
313.553	4460
313.643	3826
313.732	3156
313.822	4152
313.912	4129
314.001	5395
314.091	5307
314.180	7080
314.270	7871
314.360	7878
314.449	6971
314.539	3410
314.628	3968
314.718	4623
314.808	5464
314.897	3765
314.987	4639
315.076	6815
315.166	7996
315.255	6197
315.345	7432
315.434	6153
315.524	6103
315.613	7092
315.703	10264
315.792	9483
315.881	11330
315.971	6914
316.060	13126
316.150	14628
316.239	13483
316.328	4988
316.418	4562
316.507	4584
316.597	7071
316.686	5711
316.775	8333
316.865	13230
316.954	4131
317.043	4120
317.133	4722
317.222	3911
317.311	4724
317.400	3660
317.490	8641
317.579	7751
317.668	4838
317.757	7471
317.847	10771
317.936	19789
318.025	20256
318.114	9743
318.203	7310
318.293	12369
318.382	20015
318.471	16916
318.560	22758
318.649	43090
318.738	8998
318.828	8904
318.917	8427
319.006	8238
319.095	21881
319.184	63353
319.273	36769
319.362	20175
319.451	7889
319.540	7048
319.629	20977
319.718	30061
319.807	10945
319.896	25144
319.985	82108
320.074	25077
320.163	6920
320.252	9436
320.341	8283
320.430	7527
320.519	14874
320.608	7080
320.697	6169
320.786	6583
320.875	8534
320.964	13565
321.053	20002
321.142	32217
321.230	28894
321.319	22273
321.408	50713
321.497	15224
321.586	19589
321.675	18995
321.764	17458
321.852	11566
321.941	31544
322.030	16667
322.119	21093
322.207	53931
322.296	22275
322.385	12372
322.474	19759
322.562	71480
322.651	25985
322.740	25298
322.829	33433
322.917	21923
323.006	17040
323.095	16468
323.183	9214
323.272	16250
323.361	28267
323.449	66709
323.538	19663
323.626	51759
323.715	24943
323.804	11470
323.892	42230
323.981	23520
324.069	8374
324.158	21578
324.246	15859
324.335	13146
324.424	19931
324.512	6296
324.601	8196
324.689	9708
324.778	14390
324.866	17971
324.954	4889
325.043	6550
325.131	11034
325.220	16077
325.308	18410
325.397	15770
325.485	9540
325.574	5535
325.662	6075
325.750	6292
325.839	5132
325.927	4032
326.015	7123
326.104	6915
326.192	8318
326.280	4431
326.369	5106
326.457	9184
326.545	17841
326.634	5564
326.722	3387
326.810	4288
326.898	3730
326.987	4807
327.075	15536
327.163	11029
327.251	4625
327.340	4337
327.428	5018
327.516	3044
327.604	3600
327.692	3693
327.781	4912
327.869	6916
327.957	5790
328.045	5940
328.133	3659
328.221	3855
328.309	4220
328.397	3699
328.485	6069
328.574	9975
328.662	38884
328.750	14346
328.838	5107
328.926	3421
329.014	3863
329.102	6338
329.190	16709
329.278	9918
329.366	3884
329.454	2730
329.542	2438
329.630	2936
329.718	4013
329.806	6067
329.893	4016
329.981	4431
330.069	6892
330.157	31370
330.245	88879
330.333	36293
330.421	6945
330.509	11852
330.597	47286
330.684	23754
330.772	7851
330.860	6926
330.948	9196
331.036	4884
331.123	1963
331.211	2624
331.299	3915
331.387	9754
331.475	16427
331.562	5591
331.650	3406
331.738	3714
331.825	4615
331.913	3103
332.001	2738
332.089	4083
332.176	7409
332.264	20054
332.352	13042
332.439	5748
332.527	4402
332.614	3178
332.702	3988
332.790	2999
332.877	10585
332.965	15804
333.052	5182
333.140	5643
333.228	12110
333.315	3066
333.403	4566
333.490	10867
333.578	9079
333.665	14392
333.753	7421
333.840	3416
333.928	5571
334.015	12555
334.103	22767
334.190	70995
334.278	13578
334.365	5592
334.452	4293
334.540	3215
334.627	3755
334.715	5244
334.802	13314
334.889	77089
334.977	60496
335.064	6767
335.151	4517
335.239	5425
335.326	7146
335.413	41134
335.501	46172
335.588	5541
335.675	4455
335.762	5478
335.850	8452
335.937	5491
336.024	19192
336.111	73883
336.199	21834
336.286	4726
336.373	2945
336.460	3456
336.547	3100
336.635	4672
336.722	4306
336.809	3141
336.896	8003
336.983	22350
337.070	56059
337.157	78992
337.245	48764
337.332	28256
337.419	4296
337.506	3142
337.593	3394
337.680	15033
337.767	42348
337.854	12365
337.941	13811
338.028	15900
338.115	5752
338.202	7051
338.289	14447
338.376	47261
338.463	13021
338.550	27042
338.637	23095
338.724	9676
338.811	11622
338.898	3881
338.984	3697
339.071	3418
339.158	6677
339.245	19904
339.332	10685
339.419	10959
339.506	8651
339.593	1758
339.679	4087
339.766	3228
339.853	6203
339.940	14641
340.027	4906
340.113	5465
340.200	7840
340.287	4228
340.374	7443
340.460	12248
340.547	4311
340.634	11030
340.720	47179
340.807	22001
340.894	3214
340.980	3885
341.067	3451
341.154	4508
341.240	9858
341.327	20261
341.414	5398
341.500	5442
341.587	4447
341.674	4020
341.760	14124
341.847	15995
341.933	4589
342.020	1995
342.106	2672
342.193	6031
342.279	10221
342.366	9021
342.452	13892
342.539	6944
342.625	20730
342.712	48715
342.798	17161
342.885	6597
342.971	2093
343.058	2203
343.144	3136
343.230	2553
343.317	4065
343.403	2533
343.490	3291
343.576	3293
343.662	4699
343.749	4915
343.835	7132
343.921	16440
344.008	136284
344.094	274223
344.180	46831
344.267	17142
344.353	71318
344.439	57072
344.525	22792
344.612	14496
344.698	14808
344.784	7954
344.870	4023
344.957	4023
345.043	8522
345.129	4851
345.215	12933
345.301	5562
345.387	3165
345.474	2307
345.560	2687
345.646	2455
345.732	3672
345.818	5054
345.904	4676
345.990	5802
346.076	4958
346.162	6055
346.249	3816
346.335	2684
346.421	5051
346.507	32495
346.593	103837
346.679	18429
346.765	4432
346.851	3854
346.937	4383
347.023	4533
347.108	5427
347.194	4123
347.280	3417
347.366	6565
347.452	30350
347.538	129291
347.624	81888
347.710	53934
347.796	6610
347.882	3213
347.967	2865
348.053	4278
348.139	3791
348.225	3365
348.311	3929
348.397	3248
348.482	4784
348.568	6143
348.654	2670
348.740	2778
348.825	3129
348.911	10030
348.997	63500
349.083	107629
349.168	12573
349.254	4439
349.340	4558
349.425	2967
349.511	6560
349.597	5505
349.682	18622
349.768	64580
349.854	24932
349.939	3573
350.025	3295
350.110	4301
350.196	2616
350.282	1396
350.367	2456
350.453	5525
350.538	5139
350.624	5119
350.709	3971
350.795	2133
350.880	3649
350.966	4675
351.051	5600
351.137	3250
351.222	4438
351.308	19487
351.393	49404
351.479	10566
351.564	3572
351.649	3009
351.735	3092
351.820	2724
351.906	3714
351.991	5634
352.076	35218
352.162	46248
352.247	7446
352.332	5680
352.418	10534
352.503	15700
352.588	75127
352.673	50743
352.759	11221
352.844	5015
352.929	6328
353.014	8526
353.100	8052
353.185	18690
353.270	19813
353.355	14563
353.441	4804
353.526	5922
353.611	14895
353.696	16065
353.781	9956
353.866	3781
353.952	5479
354.037	14613
354.122	33097
354.207	28923
354.292	9695
354.377	4331
354.462	4122
354.547	6014
354.632	6166
354.717	11267
354.802	20790
354.887	6308
354.972	4200
355.057	1849
355.142	2744
355.227	5064
355.312	9059
355.397	23192
355.482	54199
355.567	22444
355.652	17973
355.737	20401
355.822	78219
355.907	53592
355.991	7555
356.076	4427
356.161	4091
356.246	3147
356.331	5574
356.416	18646
356.501	141580
356.585	126458
356.670	13845
356.755	10323
356.840	17446
356.924	105460
357.009	321231
357.094	97693
357.179	18515
357.263	10837
357.348	10616
357.433	10132
357.517	10682
357.602	8301
357.687	7178
357.771	14508
357.856	26701
357.941	18279
358.025	77378
358.110	317329
358.195	125050
358.279	15394
358.364	11890
358.448	48659
358.533	129458
358.617	88436
358.702	90477
358.787	27734
358.871	16411
358.956	11812
359.040	3622
359.125	2629
359.209	3542
359.294	11560
359.378	18934
359.462	11476
359.547	6519
359.631	3537
359.716	2465
359.800	3594
359.885	6585
359.969	4231
360.053	3618
360.138	3387
360.222	7536
360.306	15564
360.391	10919
360.475	19007
360.559	39715
360.644	44961
360.728	32974
360.812	79386
360.896	197867
360.981	64083
361.065	25951
361.149	7377
361.233	7444
361.318	5395
361.402	5648
361.486	5824
361.570	4642
361.654	7724
361.739	24633
361.823	134433
361.907	189819
361.991	26325
362.075	14882
362.159	32129
362.243	19135
362.327	12200
362.411	11842
362.495	7417
362.580	4662
362.664	3510
362.748	2463
362.832	3684
362.916	4820
363.000	21069
363.084	121752
363.168	213981
363.252	40746
363.336	11631
363.420	16254
363.503	56219
363.587	57600
363.671	10462
363.755	8236
363.839	13707
363.923	5662
364.007	15331
364.091	15667
364.175	20869
364.258	82918
364.342	39277
364.426	21953
364.510	12323
364.594	14045
364.677	34085
364.761	177727
364.845	112337
364.929	29359
365.013	21456
365.096	19452
365.180	20904
365.264	27100
365.347	88076
365.431	32618
365.515	7843
365.598	4736
365.682	5568
365.766	6575
365.849	6968
365.933	6181
366.017	7276
366.100	3990
366.184	1687
366.267	3673
366.351	3096
366.435	3047
366.518	2061
366.602	2597
366.685	3699
366.769	5143
366.852	7754
366.936	15040
367.019	8752
367.103	5083
367.186	8245
367.270	3001
367.353	1868
367.436	3251
367.520	2251
367.603	6193
367.687	9037
367.770	17702
367.853	11388
367.937	50059
368.020	76245
368.104	14824
368.187	14027
368.270	19557
368.353	16195
368.437	17624
368.520	29653
368.603	22799
368.687	55216
368.770	94422
368.853	19234
368.936	16386
369.020	12522
369.103	5266
369.186	2842
369.269	3411
369.352	12251
369.436	15800
369.519	9115
369.602	2936
369.685	6216
369.768	5273
369.851	4404
369.934	3037
370.018	6287
370.101	14681
370.184	11626
370.267	7128
370.350	12313
370.433	22919
370.516	85507
370.599	92470
370.682	21150
370.765	42349
370.848	63677
370.931	121367
371.014	37591
371.097	6288
371.180	5394
371.263	3205
371.346	1507
371.429	3900
371.511	2785
371.594	8685
371.677	13729
371.760	11722
371.843	17215
371.926	120750
372.009	248008
372.091	66976
372.174	49295
372.257	121688
372.340	41890
372.423	18652
372.505	17742
372.588	9665
372.671	38490
372.754	120126
372.836	53809
372.919	24572
373.002	41186
373.085	14633
373.167	16648
373.250	51565
373.332	117783
373.415	176195
373.498	333188
373.580	108924
373.663	151809
373.746	197768
373.828	37307
373.911	13110
373.993	13662
374.076	43977
374.159	37643
374.241	29444
374.324	93537
374.406	60978
374.489	109123
374.571	283899
374.654	105023
374.736	54033
374.819	173541
374.901	250305
374.983	240175
375.066	35464
375.148	10743
375.231	38668
375.313	67272
375.395	23518
375.478	5599
375.560	5663
375.643	8932
375.725	52442
375.807	213717
375.890	135929
375.972	30436
376.054	19653
376.136	22645
376.219	13208
376.301	65264
376.383	181401
376.465	63280
376.548	31977
376.630	51829
376.712	147455
376.794	63581
376.877	6592
376.959	3885
377.041	5450
377.123	7423
377.205	8216
377.287	2156
377.369	3510
377.452	3231
377.534	3198
377.616	3659
377.698	2950
377.780	1585
377.862	4211
377.944	4845
378.026	1849
378.108	3084
378.190	2909
378.272	3443
378.354	2132
378.436	1959
378.518	5696
378.600	18797
378.682	24086
378.764	66665
378.846	49222
378.928	11470
379.010	16640
379.091	9205
379.173	4382
379.255	3052
379.337	7563
379.419	34724
379.501	93074
379.583	34598
379.664	8597
379.746	21776
379.828	62059
379.910	89134
379.991	75271
380.073	11211
380.155	6785
380.237	5309
380.318	3290
380.400	4528
380.482	12418
380.564	19106
380.645	22096
380.727	19583
380.809	9870
380.890	7126
380.972	5289
381.053	5033
381.135	5401
381.217	22165
381.298	61881
381.380	28396
381.461	29248
381.543	150077
381.624	174102
381.706	26434
381.787	10210
381.869	13759
381.951	74246
382.032	258245
382.113	148508
382.195	21776
382.276	16894
382.358	52385
382.439	135171
382.521	160438
382.602	234011
382.684	98839
382.765	162839
382.846	136890
382.928	112384
383.009	60631
383.090	50033
383.172	185544
383.253	258690
383.334	120689
383.416	190181
383.497	91753
383.578	25502
383.659	44508
383.741	180801
383.822	417850
383.903	209592
383.984	116413
384.066	225872
384.147	130878
384.228	21236
384.309	13591
384.390	11035
384.471	6835
384.553	8370
384.634	11828
384.715	11992
384.796	5329
384.877	11452
384.958	58451
385.039	69056
385.120	19543
385.201	8458
385.282	8718
385.363	8044
385.444	7210
385.525	24561
385.606	103293
385.687	87449
385.768	13811
385.849	21289
385.930	124095
386.011	205120
386.092	49166
386.173	8006
386.254	5242
386.335	6186
386.416	8538
386.496	37080
386.577	59756
386.658	17255
386.739	7456
386.820	7526
386.901	5046
386.981	5746
387.062	4417
387.143	15058
387.224	61143
387.304	53640
387.385	13978
387.466	6426
387.547	7343
387.627	5987
387.708	25207
387.789	118314
387.869	146914
387.950	37072
388.031	4927
388.111	2677
388.192	9753
388.273	13615
388.353	8809
388.434	7438
388.514	27545
388.595	128501
388.676	154704
388.756	62691
388.837	52244
388.917	31857
388.998	4812
389.078	5384
389.159	5925
389.239	4864
389.320	9548
389.400	7138
389.480	25334
389.561	66818
389.641	32792
389.722	9866
389.802	14178
389.883	32402
389.963	86438
390.043	48419
390.124	8927
390.204	22920
390.284	69129
390.365	45127
390.445	70667
390.525	265359
390.605	239546
390.686	47226
390.766	12252
390.846	6653
390.927	4259
391.007	4665
391.087	5377
391.167	4374
391.247	3281
391.328	6851
391.408	8537
391.488	6655
391.568	2389
391.648	6597
391.728	10043
391.808	9420
391.888	11692
391.969	36599
392.049	58007
392.129	20171
392.209	30524
392.289	78405
392.369	37988
392.449	15804
392.529	10574
392.609	10716
392.689	21058
392.769	77314
392.849	61193
392.929	34122
393.009	92295
393.089	65597
393.169	23488
393.248	89883
393.328	422139
393.408	439743
393.488	77123
393.568	18936
393.648	11108
393.728	8539
393.807	7438
393.887	9278
393.967	9304
394.047	12841
394.127	17734
394.206	37597
394.286	171578
394.366	683985
394.446	704767
394.525	162413
394.605	35644
394.685	22225
394.764	30462
394.844	45855
394.924	31241
395.003	14395
395.083	10849
395.163	10240
395.242	9589
395.322	9922
395.402	6806
395.481	11761
395.561	23451
395.640	52973
395.720	44286
395.799	60940
395.879	55775
395.958	59140
396.038	255548
396.117	887464
396.197	930317
396.276	262858
396.356	69334
396.435	36675
396.515	24858
396.594	22482
396.673	30311
396.753	117198
396.832	383945
396.912	298852
396.991	71321
397.070	15942
397.150	8521
397.229	6711
397.308	6390
397.388	7926
397.467	5476
397.546	4388
397.625	2773
397.705	7853
397.784	7181
397.863	3416
397.942	2494
398.022	3909
398.101	16165
398.180	42387
398.259	20749
398.338	5995
398.417	5645
398.497	3301
398.576	4246
398.655	2768
398.734	1900
398.813	2878
398.892	16604
398.971	48169
399.050	23655
399.129	2502
399.208	2518
399.287	3165
399.366	2058
399.445	2360
399.524	3132
399.603	2114
399.682	6918
399.761	21365
399.840	57410
399.919	41808
399.998	5483
400.077	1391
400.156	675
400.235	4671
400.313	1286
400.392	4664
400.471	31988
400.550	49339
400.629	12101
400.708	5134
400.786	3728
400.865	8753
400.944	9452
401.023	6897
401.102	1631
401.180	1255
401.259	1750
401.338	3231
401.416	4643
401.495	4006
401.574	3157
401.652	2065
401.731	5705
401.810	5520
401.888	2200
401.967	873
402.046	1414
402.124	4870
402.203	4840
402.281	3196
402.360	2560
402.438	11039
402.517	7574
402.596	3333
402.674	2715
402.753	2476
402.831	1815
402.910	6400
402.988	37750
403.066	120305
403.145	67269
403.223	40013
403.302	100185
403.380	78789
403.459	70982
403.537	27782
403.615	8150
403.694	1813
403.772	2843
403.850	2017
403.929	2056
404.007	3217
404.085	13201
404.164	17482
404.242	7491
404.320	25362
404.398	83465
404.477	101431
404.555	196071
404.633	171894
404.711	63397
404.789	35131
404.868	9434
404.946	4328
405.024	2327
405.102	2661
405.180	1664
405.258	1368
405.336	2052
405.415	1856
405.493	8044
405.571	10352
405.649	2054
405.727	1515
405.805	3735
405.883	5059
405.961	4109
406.039	3680
406.117	1330
406.195	7365
406.273	45126
406.351	149598
406.429	84689
406.507	7919
406.585	3395
406.663	3808
406.740	5613
406.818	4300
406.896	2291
406.974	3502
407.052	13974
407.130	87909
407.208	116539
407.285	22057
407.363	2999
407.441	3732
407.519	2576
407.596	3488
407.674	8849
407.752	20284
407.830	19862
407.907	10473
407.985	4901
408.063	2425
408.141	569
408.218	4440
408.296	6360
408.373	6590
408.451	5217
408.529	4222
408.606	1692
408.684	826
408.762	471
408.839	1023
408.917	762
408.994	1300
409.072	523
409.149	1132
409.227	1836
409.304	1702
409.382	1082
409.459	321
409.537	2319
409.614	2379
409.692	1068
409.769	1180
409.846	1783
409.924	3980
410.001	1992
410.079	2148
410.156	2994
410.233	2817
410.311	4765
410.388	2166
410.465	2112
410.543	1392
410.620	1561
410.697	3086
410.775	3613
410.852	13
410.929	3341
411.006	4550
411.083	2245
411.161	4686
411.238	4750
411.315	2268
411.392	1068
411.469	3754
411.547	3131
411.624	283
411.701	2005
411.778	3926
411.855	8481
411.932	4598
412.009	852
412.086	2053
412.163	2338
412.240	2120
412.317	2840
412.394	2263
412.471	798
412.548	579
412.625	1806
412.702	2884
412.779	5661
412.856	3704
412.933	611
413.010	2296
413.087	6425
413.164	27885
413.241	38042
413.318	8860
413.395	5560
413.471	6568
413.548	3793
413.625	2044
413.702	2207
413.779	2081
413.855	631
413.932	309
414.009	154
414.086	998
414.162	1945
414.239	4566
414.316	28476
414.393	62699
414.469	21805
414.546	1353
414.623	754
414.699	1228
414.776	1756
414.853	921
414.929	1299
415.006	1622
415.082	890
415.159	2119
415.236	1072
415.312	2699
415.389	6154
415.465	8179
415.542	4098
415.618	2625
415.695	4920
415.771	2930
415.848	2119
415.924	2173
416.000	923
416.077	1515
416.153	410
416.230	402
416.306	320
416.383	700
416.459	368
416.535	556
416.612	222
416.688	653
416.764	822
416.841	243
416.917	1099
416.993	1310
417.069	1706
417.146	4654
417.222	8390
417.298	4064
417.374	536
417.451	2343
417.527	3483
417.603	4284
417.679	1876
417.755	2373
417.831	-90
417.908	982
417.984	340
418.060	395
418.136	6513
418.212	9075
418.288	2835
418.364	1166
418.440	1569
418.516	3520
418.592	3253
418.668	10155
418.744	17172
418.820	12502
418.896	2009
418.972	-3
419.048	1523
419.124	7560
419.200	4740
419.276	1139
419.352	-352
419.428	323
419.504	2237
419.579	2885
419.655	1882
419.731	2818
419.807	11990
419.883	21810
419.959	13729
420.034	3214
420.110	9997
420.186	38116
420.262	29738
420.337	3859
420.413	2971
420.489	1806
420.565	1029
420.640	610
420.716	1006
420.792	20
420.867	1540
420.943	583
421.019	3693
421.094	2844
421.170	1211
421.245	102
421.321	1358
421.397	1202
421.472	4024
421.548	9113
421.623	7600
421.699	2949
421.774	2530
421.850	1748
421.925	5587
422.001	4473
422.076	1876
422.152	1925
422.227	5541
422.302	5406
422.378	5111
422.453	9514
422.529	30245
422.604	156000
422.679	344980
422.755	166229
422.830	28705
422.905	8698
422.981	3941
423.056	2990
423.131	1597
423.207	1772
423.282	3731
423.357	10260
423.432	6490
423.508	8201
423.583	17489
423.658	11998
423.733	2295
423.808	2969
423.883	4483
423.959	3685
424.034	1245
424.109	1616
424.184	144
424.259	1440
424.334	1239
424.409	585
424.484	980
424.559	2201
424.634	831
424.709	2472
424.784	3896
424.859	1978
424.934	4458
425.009	26120
425.084	41563
425.159	14005
425.234	1874
425.309	891
425.384	3793
425.459	6185
425.534	2862
425.609	959
425.683	901
425.758	1248
425.833	1752
425.908	3108
425.983	15794
426.058	42746
426.132	17957
426.207	2181
426.282	3165
426.357	1503
426.431	948
426.506	1604
426.581	2039
426.655	1485
426.730	1070
426.805	560
426.879	2355
426.954	1315
427.029	7737
427.103	50320
427.178	118318
427.253	50965
427.327	4277
427.402	3303
427.476	8116
427.551	3526
427.625	1001
427.700	1089
427.774	154
427.849	1070
427.923	300
427.998	285
428.072	780
428.147	4844
428.221	14675
428.296	29050
428.370	12621
428.444	2306
428.519	3621
428.593	6890
428.667	5976
428.742	6388
428.816	5806
428.890	17825
428.965	26636
429.039	10268
429.113	7740
429.188	3188
429.262	1307
429.336	6136
429.410	17197
429.485	10286
429.559	5466
429.633	3884
429.707	371
429.781	4887
429.855	24195
429.930	36587
430.004	24364
430.078	35304
430.152	29632
430.226	44626
430.300	43467
430.374	4664
430.448	3335
430.522	14106
430.596	37459
430.670	27843
430.744	76290
430.818	119847
430.892	25104
430.966	2631
431.040	910
431.114	-764
431.188	7
431.262	106
431.336	316
431.410	4364
431.484	10462
431.557	8501
431.631	458
431.705	502
431.779	5480
431.853	19985
431.927	13510
432.000	1725
432.074	366
432.148	1210
432.222	834
432.295	447
432.369	839
432.443	5985
432.516	49704
432.590	116278
432.664	40378
432.737	2979
432.811	43
432.885	453
432.958	-255
433.032	-158
433.106	-351
433.179	204
433.253	-671
433.326	357
433.400	-510
433.473	464
433.547	-413
433.620	1188
433.694	3218
433.767	2235
433.841	-622
433.914	-110
433.988	564
434.061	376
434.134	-324
434.208	184
434.281	-212
434.355	12
434.428	288
434.501	294
434.575	65
434.648	-82
434.721	-609
434.795	-214
434.868	-366
434.941	-243
435.014	-329
435.088	208
435.161	793
435.234	2385
435.307	2843
435.381	853
435.454	307
435.527	163
435.600	-6
435.673	393
435.746	-61
435.819	503
435.892	73
435.966	-449
436.039	-335
436.112	271
436.185	-472
436.258	-477
436.331	-914
436.404	-542
436.477	-973
436.550	-157
436.623	476
436.696	441
436.769	977
436.842	681
436.915	320
436.987	1841
437.060	227
437.133	-243
437.206	-314
437.279	309
437.352	-39
437.425	-624
437.498	629
437.570	4151
437.643	3569
437.716	263
437.789	-60
437.861	1865
437.934	5262
438.007	3115
438.080	273
438.152	1652
438.225	8927
438.298	72479
438.370	170363
438.443	60496
438.516	7080
438.588	613
438.661	489
438.734	152
438.806	466
438.879	1579
438.951	779
439.024	3121
439.096	413
439.169	431
439.241	-516
439.314	547
439.386	972
439.459	1689
439.531	2298
439.604	960
439.676	317
439.749	-345
439.821	-207
439.893	-19
439.966	542
440.038	586
440.110	674
440.183	-251
440.255	1032
440.327	2863
440.400	25546
440.472	96763
440.544	56710
440.617	4588
440.689	3021
440.761	3701
440.833	5106
440.905	3277
440.978	118
441.050	154
441.122	208
441.194	475
441.266	-121
441.338	900
441.411	3852
441.483	28181
441.555	36806
441.627	5634
441.699	1416
441.771	1204
441.843	341
441.915	204
441.987	82
442.059	-130
442.131	466
442.203	1945
442.275	1509
442.347	1380
442.419	997
442.491	6601
442.563	15984
442.635	6311
442.706	9106
442.778	7532
442.850	-50
442.922	219
442.994	208
443.066	2395
443.137	939
443.209	359
443.281	780
443.353	2703
443.425	11752
443.496	32663
443.568	27055
443.640	8564
443.711	1421
443.783	-86
443.855	366
443.926	-737
443.998	19
444.070	595
444.141	1059
444.213	2861
444.285	3676
444.356	2097
444.428	612
444.499	108
444.571	-467
444.642	-346
444.714	587
444.785	2946
444.857	2524
444.928	4513
445.000	1526
445.071	3422
445.143	4751
445.214	3305
445.285	4137
445.357	10592
445.428	29105
445.500	60191
445.571	31542
445.642	12192
445.714	7633
445.785	10129
445.856	2958
445.928	4399
445.999	2324
446.070	1189
446.141	2443
446.213	4183
446.284	1668
446.355	1050
446.426	471
446.497	1377
446.569	1769
446.640	3693
446.711	2947
446.782	516
446.853	128
446.924	1864
446.995	525
447.066	1147
447.138	1519
447.209	320
447.280	-241
447.351	-224
447.422	-965
447.493	633
447.564	1570
447.635	2528
447.706	951
447.777	-582
447.847	-788
447.918	-6
447.989	807
448.060	736
448.131	4392
448.202	3637
448.273	3163
448.344	1224
448.414	540
448.485	-180
448.556	-104
448.627	-168
448.698	-208
448.768	222
448.839	-887
448.910	988
448.981	1562
449.051	417
449.122	-201
449.193	-822
449.263	-587
449.334	-619
449.405	1869
449.475	4462
449.546	1354
449.616	1751
449.687	385
449.758	435
449.828	80
449.899	323
449.969	-262
450.040	-442
450.110	541
450.181	851
450.251	-19
450.322	149
450.392	116
450.463	-13
450.533	-647
450.604	-417
450.674	-578
450.744	169
450.815	-1123
450.885	-55
450.955	404
451.026	-232
451.096	-270
451.166	175
451.237	678
451.307	4884
451.377	550
451.447	-819
451.518	-604
451.588	-625
451.658	-205
451.728	786
451.799	5562
451.869	5995
451.939	750
452.009	-441
452.079	53
452.149	-2
452.219	1284
452.289	6953
452.360	3119
452.430	-372
452.500	-554
452.570	1118
452.640	1370
452.710	4576
452.780	5839
452.850	8465
452.920	7272
452.990	1244
453.060	415
453.129	1876
453.199	1519
453.269	11373
453.339	17965
453.409	24597
453.479	27765
453.549	39050
453.619	36585
453.688	10285
453.758	602
453.828	149
453.898	188
453.968	503
454.037	476
454.087	5
454.107	-190
454.168	-100
454.177	-93
454.247	-814
454.249	-799
454.316	-624
454.330	-444
454.386	214
454.411	1111
454.456	2575
454.492	3364
454.525	4119
454.574	1241
454.595	-29
454.655	-74
454.665	-74
454.734	356
454.736	396
454.804	1522
454.817	2333
454.873	5672
454.898	5623
454.943	5485
454.979	3302
455.013	1385
455.060	815
455.082	581
455.141	1352
455.152	1633
455.221	6691
455.222	6817
455.291	12885
455.303	16583
455.360	32193
455.384	49358
455.430	79692
455.465	52930
455.499	28417
455.546	13975
455.569	7182
455.627	3794
455.638	3176
455.707	207
455.708	211
455.777	267
455.789	255
455.846	399
455.869	386
455.916	227
455.950	86
455.985	-137
456.031	-344
456.054	-418
456.112	-75
456.124	39
456.193	62
456.193	52
456.262	-233
456.274	-42
456.332	1110
456.355	779
456.401	-127
456.436	3
456.470	241
456.516	193
456.540	142
456.597	-465
456.609	-577
456.678	-165
456.678	-170
456.747	109
456.759	29
456.817	-308
456.840	-392
456.886	-648
456.920	-571
456.955	-349
457.001	88
457.024	230
457.082	139
457.093	127
457.162	838
457.163	845
457.232	546
457.243	418
457.301	-52
457.324	-210
457.370	-359
457.405	-94
457.439	81
457.485	-29
457.508	-151
457.566	319
457.577	460
457.646	-406
457.647	-394
457.715	235
457.727	302
457.784	573
457.808	793
457.853	1279
457.889	1424
457.922	1451
457.969	1317
457.991	1310
458.050	527
458.060	382
458.129	2027
458.130	2039
458.198	1963
458.211	1751
458.267	803
458.292	541
458.336	478
458.372	606
458.405	733
458.453	648
458.474	511
458.533	897
458.543	1004
458.611	2941
458.614	2962
458.680	2346
458.694	1844
458.749	346
458.775	361
458.818	288
458.855	197
458.887	325
458.936	134
458.955	32
459.016	120
459.024	131
459.093	1010
459.097	994
459.162	218
459.177	184
459.230	443
459.257	574
459.299	663
459.338	680
459.368	616
459.418	725
459.437	761
459.499	367
459.505	353
459.574	694
459.579	697
459.643	322
459.659	201
459.711	344
459.740	644
459.780	517
459.820	570
459.849	858
459.900	592
459.917	539
459.981	1016
459.986	994
460.054	607
460.061	519
460.123	456
460.141	746
460.191	1520
460.222	1604
460.260	1532
460.302	2111
460.328	2323
460.382	1599
460.397	1462
460.462	1221
460.465	1233
460.534	1711
460.543	1725
460.602	3592
460.623	4629
460.671	6670
460.703	9865
460.739	10541
460.783	7971
460.808	6937
460.864	1711
460.876	1026
460.944	753
460.945	745
461.013	721
461.024	666
461.081	462
461.104	703
461.150	1063
461.184	983
461.218	873
461.264	480
461.286	383
461.345	504
461.355	511
461.423	864
461.425	863
461.491	860
461.505	907
461.559	1721
461.585	1918
461.628	2085
461.665	3213
461.696	4232
461.745	5748
461.764	5372
461.825	1412
461.832	1287
461.901	922
461.905	1013
461.969	971
461.985	704
462.037	716
462.065	966
462.105	947
462.145	658
462.173	1066
462.225	2236
462.241	2293
462.305	2629
462.310	2589
462.378	1995
462.385	1777
462.446	1549
462.465	1785
462.514	1891
462.545	1877
462.582	1549
462.625	969
462.650	861
462.705	861
462.718	805
462.785	797
462.786	806
462.854	945
462.865	1030
462.922	1625
462.945	1846
462.990	1867
463.025	1498
463.058	1157
463.104	999
463.126	885
463.184	594
463.194	618
463.262	756
463.264	766
463.330	873
463.344	871
463.398	1457
463.424	1704
463.466	968
463.504	333
463.533	641
463.583	1024
463.601	1033
463.663	1254
463.669	1262
463.737	1449
463.743	1449
463.805	2754
463.823	3200
463.873	4315
463.903	5031
463.940	4841
463.982	4763
464.008	4202
464.062	2042
464.076	1891
464.142	1373
464.144	1359
464.211	1006
464.221	1007
464.279	1407
464.301	1523
464.347	1694
464.381	1828
464.414	1569
464.461	1011
464.482	970
464.540	1115
464.550	1163
464.617	1473
464.620	1479
464.685	2025
464.699	2156
464.753	2836
464.779	3201
464.820	3407
464.859	3509
464.888	3040
464.938	2130
464.956	2349
465.018	3344
465.023	3259
465.091	1798
465.098	1661
465.158	2265
465.177	2491
465.226	2580
465.257	2540
465.293	2741
465.336	3014
465.361	3384
465.416	4240
465.428	4181
465.495	3932
465.496	3943
465.563	4772
465.575	4999
465.631	6732
465.654	7493
465.698	5426
465.734	3201
465.765	2627
465.813	2078
465.833	2154
465.893	2545
465.900	2582
465.968	2733
465.972	2742
466.035	1775
466.052	1512
466.102	1729
466.131	1870
466.170	1639
466.210	1403
466.237	1873
466.290	2708
466.304	2675
466.369	2537
466.372	2546
466.439	2732
466.449	2741
466.506	2387
466.528	2267
466.573	4012
466.607	5284
466.641	6559
466.687	8357
466.708	8922
466.766	10602
466.775	9819
466.842	3632
466.845	3334
466.909	3447
466.925	3510
466.977	3073
467.004	2845
467.044	3326
467.083	3813
467.111	4340
467.163	5305
467.178	5373
467.242	5640
467.245	5568
467.312	3962
467.321	3749
467.379	3992
467.400	4071
467.446	3941
467.480	3840
467.559	4245
467.638	2974
467.717	3353
467.796	4686
467.875	4371
467.955	3771
468.034	5551
468.113	9698
468.192	12759
468.271	3900
468.350	2421
468.429	4077
468.508	3361
468.588	3023
468.667	2442
468.746	2834
468.825	3563
468.904	2750
468.983	3931
469.062	3859
469.141	5547
469.220	3357
469.299	3026
469.378	3271
469.456	4744
469.535	3745
469.614	4276
469.693	3572
469.772	5436
469.851	5313
469.930	4461
470.009	4435
470.088	3072
470.166	4270
470.245	4556
470.324	5344
470.403	3424
470.482	3347
470.560	3789
470.639	3748
470.718	5098
470.797	4100
470.875	4490
470.954	5344
471.033	5650
471.111	2934
471.190	3254
471.269	2963
471.347	2796
471.426	2784
471.505	3440
471.583	3601
471.662	4098
471.740	3039
471.819	4034
471.898	2675
471.976	3684
472.055	3206
472.133	3615
472.212	3953
472.290	3288
472.369	2950
472.447	3040
472.526	2259
472.604	4623
472.683	4454
472.761	4541
472.839	3100
472.918	2845
472.996	2391
473.075	3255
473.153	2804
473.231	2438
473.310	3017
473.388	3091
473.466	3233
473.545	4270
473.623	5349
473.701	4898
473.780	3440
473.858	2609
473.936	4379
474.014	3415
474.093	3283
474.171	3734
474.249	5137
474.327	3010
474.405	2326
474.484	2749
474.562	2685
474.640	3810
474.718	3444
474.796	2920
474.874	3295
474.952	2900
475.030	3306
475.108	2530
475.187	2009
475.265	5408
475.343	7110
475.421	8416
475.499	2802
475.577	2763
475.655	4627
475.733	6368
475.811	9170
475.889	7808
475.966	5470
476.044	3754
476.122	5652
476.200	7205
476.278	4761
476.356	1963
476.434	2775
476.512	4580
476.590	6425
476.667	5231
476.745	1564
476.823	3094
476.901	2097
476.979	2939
477.056	3242
477.134	2646
477.212	2720
477.290	2634
477.367	2345
477.445	1951
477.523	2203
477.601	2308
477.678	2068
477.756	3453
477.834	1954
477.911	2696
477.989	2309
478.066	2606
478.144	3692
478.222	5660
478.299	9106
478.377	8509
478.454	1760
478.532	2434
478.609	2124
478.687	3674
478.764	2270
478.842	3256
478.919	2397
478.997	3699
479.074	2513
479.152	2430
479.229	3877
479.307	3000
479.384	1619
479.461	2369
479.539	2464
479.616	3045
479.694	1622
479.771	2471
479.848	1612
479.926	2246
480.003	3578
480.080	2384
480.157	2354
480.235	1663
480.312	1955
480.389	3201
480.467	2960
480.544	4115
480.621	2499
480.698	1822
480.775	2421
480.853	2076
480.930	1748
481.007	2372
481.084	2129
481.161	2457
481.238	2898
481.315	2659
481.392	2875
481.470	1820
481.547	2215
481.624	1057
481.701	1303
481.778	2341
481.855	1784
481.932	3222
482.009	4947
482.086	2822
482.163	2043
482.240	8257
482.317	12444
482.393	7823
482.470	2042
482.547	1624
482.624	1158
482.701	2350
482.778	1339
482.855	1488
482.932	1546
483.009	1313
483.085	2660
483.162	2289
483.239	2060
483.316	1557
483.393	1803
483.469	2457
483.546	2433
483.623	2128
483.699	2220
483.776	1557
483.853	2105
483.930	3949
484.006	7852
484.083	14691
484.160	10781
484.236	17293
484.313	13473
484.389	9021
484.466	8827
484.543	6915
484.619	7352
484.696	8925
484.772	8148
484.849	9008
484.925	7331
485.002	8212
485.078	8736
485.155	7516
485.231	6414
485.308	7468
485.384	7495
485.461	8909
485.537	11497
485.614	12316
485.690	7971
485.766	7805
485.843	8516
485.919	11276
485.995	11246
486.072	6393
486.148	7168
486.224	6517
486.301	7097
486.377	7693
486.453	7397
486.530	8833
486.606	10664
486.682	11677
486.758	11496
486.835	12584
486.911	11094
486.987	16889
487.063	21845
487.139	27796
487.215	17727
487.292	9798
487.368	7104
487.444	7495
487.520	8266
487.596	6908
487.672	10229
487.748	14146
487.824	15842
487.900	8116
487.976	6114
488.052	6882
488.128	8520
488.204	7377
488.280	6797
488.356	8433
488.432	12291
488.508	17275
488.584	7157
488.660	6858
488.736	6445
488.812	6849
488.888	10024
488.964	14126
489.039	29652
489.115	40343
489.191	22002
489.267	7447
489.343	5778
489.418	5417
489.494	5218
489.570	4156
489.646	6388
489.722	5171
489.797	5536
489.873	8122
489.949	12467
490.024	10616
490.100	5394
490.176	5139
490.251	6942
490.327	9954
490.403	4828
490.478	4875
490.554	3374
490.629	4322
490.705	4283
490.781	5722
490.856	4556
490.932	6202
491.007	6495
491.083	5212
491.158	4307
491.234	6267
491.309	10023
491.385	8882
491.460	4822
491.536	6011
491.611	4288
491.686	5791
491.762	9002
491.837	18099
491.913	31706
491.988	40573
492.063	51801
492.139	9546
492.214	6400
492.289	5093
492.365	4472
492.440	5739
492.515	3586
492.590	4236
492.666	3417
492.741	5435
492.816	6609
492.891	4535
492.967	4619
493.042	4804
493.117	4937
493.192	8141
493.267	28058
493.342	84546
493.418	114095
493.493	10884
493.568	4279
493.643	3166
493.718	5102
493.793	6045
493.868	9307
493.943	5751
494.018	4088
494.093	2996
494.168	3293
494.243	2859
494.318	2970
494.393	4090
494.468	2581
494.543	3233
494.618	3586
494.693	3504
494.768	3306
494.842	3539
494.917	3896
494.992	3414
495.067	2744
495.142	3739
495.217	3891
495.292	4192
495.366	3486
495.441	4403
495.516	6561
495.591	12954
495.665	45845
495.740	90548
495.815	31922
495.890	4338
495.964	2012
496.039	5004
496.114	2866
496.188	3150
496.263	2898
496.338	3000
496.412	1799
496.487	5088
496.561	5606
496.636	5409
496.710	3535
496.785	3766
496.860	4103
496.934	3561
497.009	3563
497.083	3457
497.158	3609
497.232	4031
497.307	6252
497.381	4906
497.455	4862
497.530	5940
497.604	4386
497.679	4723
497.753	7226
497.827	8053
497.902	6254
497.976	10747
498.050	34183
498.125	96363
498.199	95116
498.273	14933
498.348	11449
498.422	9065
498.496	8828
498.570	7977
498.645	5357
498.719	3647
498.793	5036
498.867	8317
498.941	13807
499.016	45476
499.090	94427
499.164	28953
499.238	4134
499.312	4376
499.386	5376
499.460	5806
499.534	4699
499.609	4686
499.683	4858
499.757	7986
499.831	20773
499.905	61605
499.979	54812
500.053	8198
500.127	9751
500.201	8371
500.275	4138
500.349	4068
500.422	4233
500.496	9447
500.570	21968
500.644	40625
500.718	60166
500.792	11939
500.866	4278
500.940	4624
501.013	3667
501.087	4481
501.161	7995
501.235	10423
501.309	22126
501.382	48872
501.456	43801
501.530	11186
501.603	13950
501.677	5758
501.751	1504
501.825	5402
501.898	8108
501.972	17474
502.046	11228
502.119	4110
502.193	10630
502.266	19731
502.340	9013
502.413	9574
502.487	18133
502.561	8289
502.634	4508
502.708	4328
502.781	2815
502.855	3389
502.928	1389
503.002	2300
503.075	1366
503.149	1907
503.222	2148
503.295	1916
503.369	3188
503.442	4425
503.516	16308
503.589	34139
503.662	20686
503.736	7429
503.809	15786
503.882	13824
503.956	18749
504.029	17305
504.102	9598
504.175	9917
504.249	2660
504.322	2566
504.395	2296
504.468	2106
504.542	903
504.615	1162
504.688	2713
504.761	667
504.834	4308
504.907	4207
504.980	7651
505.053	4010
505.127	2210
505.200	6996
505.273	2739
505.346	2288
505.419	135
505.492	2999
505.565	2008
505.638	1676
505.711	880
505.784	901
505.857	977
505.930	3595
506.003	763
506.076	4061
506.149	1643
506.221	1153
506.294	3497
506.367	8919
506.440	26008
506.513	14641
506.586	2864
506.659	1857
506.731	3367
506.804	2970
506.877	4311
506.950	2739
507.022	2989
507.095	955
507.168	3042
507.241	3462
507.313	1799
507.386	1664
507.459	5901
507.531	2710
507.604	1192
507.677	2517
507.749	266
507.822	4569
507.894	7308
507.967	8905
508.040	3679
508.112	4231
508.185	3767
508.257	3816
508.330	6664
508.402	2495
508.475	2658
508.547	3933
508.620	3615
508.692	4059
508.765	3957
508.837	2358
508.909	2632
508.982	2417
509.054	3903
509.127	2878
509.199	2462
509.271	2035
509.344	1914
509.416	2840
509.488	2709
509.560	3870
509.633	2776
509.705	4606
509.777	4004
509.849	5974
509.922	3301
509.994	3107
510.066	4192
510.138	2366
510.210	9958
510.283	6762
510.355	6052
510.427	5522
510.499	3691
510.571	4363
510.643	3775
510.715	8061
510.787	5809
510.859	5319
510.931	4106
511.003	6723
511.076	7120
511.148	2669
511.219	3730
511.291	6074
511.363	6514
511.435	4289
511.507	2271
511.579	4246
511.651	4424
511.723	3506
511.795	3043
511.867	2459
511.939	3988
512.010	5677
512.082	5599
512.154	2734
512.226	3709
512.298	7843
512.369	9206
512.441	7475
512.513	7673
512.585	4401
512.656	5801
512.728	4982
512.800	3511
512.871	5443
512.943	4711
513.015	2930
513.086	4075
513.158	3909
513.230	4139
513.301	7404
513.373	9491
513.444	4400
513.516	3824
513.588	4279
513.659	4662
513.731	5793
513.802	4408
513.874	13669
513.945	19846
514.016	5027
514.088	3692
514.159	3434
514.231	6704
514.302	8102
514.374	5640
514.445	4581
514.516	9579
514.588	5268
514.659	4602
514.730	6697
514.802	7337
514.873	3746
514.944	6738
515.016	5452
515.087	5666
515.158	6161
515.229	7408
515.301	3050
515.372	6435
515.443	3532
515.514	4333
515.585	2118
515.656	4603
515.728	4237
515.799	2663
515.870	4101
515.941	4488
516.012	3424
516.083	7179
516.154	6347
516.225	9461
516.296	9235
516.367	5865
516.438	5177
516.509	8705
516.580	12566
516.651	43916
516.722	121882
516.793	53236
516.864	9673
516.935	8720
517.006	10085
517.077	15189
517.148	44910
517.219	134961
517.289	179245
517.360	40615
517.431	13335
517.502	4339
517.573	6128
517.643	4974
517.714	6312
517.785	6463
517.856	5435
517.926	7836
517.997	8829
518.068	8858
518.138	13318
518.209	24777
518.280	110468
518.350	317424
518.421	104120
518.492	9968
518.562	5644
518.633	5418
518.703	4171
518.774	7996
518.845	9439
518.915	9641
518.986	5277
519.056	7808
519.127	15802
519.197	23765
519.268	36468
519.338	18777
519.408	6482
519.479	10918
519.549	7103
519.620	5919
519.690	3651
519.760	3206
519.831	3425
519.901	3828
519.971	3224
520.042	3380
520.112	2113
520.182	5974
520.253	6166
520.323	3172
520.393	4560
520.463	8446
520.534	3058
520.604	9367
520.674	5092
520.744	4518
520.814	9809
520.885	9959
520.955	13312
521.025	36510
521.095	12173
521.165	3967
521.235	2928
521.305	2751
521.375	3471
521.445	4073
521.515	4501
521.585	6171
521.655	4574
521.725	5464
521.795	3845
521.865	79
521.935	6335
522.005	2214
522.075	2499
522.145	2691
522.215	1805
522.285	4768
522.355	5763
522.424	10145
522.494	6931
522.564	6815
522.634	19621
522.704	49261
522.774	15717
522.843	3500
522.913	4013
522.983	4737
523.053	2595
523.122	3676
523.192	7696
523.262	28095
523.331	22709
523.401	3967
523.471	3146
523.540	3093
523.610	1833
523.680	1960
523.749	2362
523.819	2465
523.888	1705
523.958	1170
524.027	2178
524.097	2056
524.166	2877
524.236	1976
524.305	3999
524.375	1181
524.444	1317
524.514	3444
524.583	1242
524.653	1863
524.722	3786
524.791	1030
524.861	3234
524.930	1035
524.999	1178
525.069	4290
525.138	3361
525.207	1746
525.277	3048
525.346	1826
525.415	2800
525.484	3044
525.554	2276
525.623	2463
525.692	2002
525.761	1436
525.830	2146
525.900	1176
525.969	3206
526.038	3625
526.107	4980
526.176	15096
526.245	9927
526.314	8676
526.383	11042
526.452	9009
526.522	21505
526.591	24234
526.660	19963
526.729	6328
526.797	10635
526.867	34901
526.935	140761
527.004	102872
527.073	33445
527.142	3001
527.211	2971
527.280	4170
527.349	4214
527.418	586
527.487	3073
527.555	1017
527.624	1161
527.693	-56
527.762	2267
527.831	682
527.899	2229
527.968	610
528.037	706
528.106	3502
528.174	7793
528.243	4535
528.312	8012
528.380	9362
528.449	1434
528.518	2799
528.586	337
528.655	1966
528.723	1400
528.792	533
528.861	690
528.929	201
528.998	1382
529.066	219
529.135	424
529.203	673
529.272	83
529.340	1761
529.409	2300
529.477	541
529.545	985
529.614	2919
529.682	1554
529.751	2705
529.819	4915
529.887	781
529.956	1534
530.024	2247
530.092	166
530.161	3398
530.229	4714
530.297	808
530.365	2249
530.434	911
530.502	118
530.570	995
530.638	230
530.707	1427
530.775	2541
530.843	651
530.911	1548
530.979	1462
531.047	791
531.115	1631
531.183	768
531.252	1478
531.320	399
531.388	395
531.456	1152
531.524	-320
531.592	2070
531.660	3090
531.728	198
531.796	1274
531.864	1400
531.932	931
532.000	1045
532.067	934
532.135	2276
532.203	3001
532.271	2127
532.339	9761
532.407	23964
532.475	10299
532.542	4301
532.610	3997
532.678	8239
532.746	49005
532.814	97969
532.881	17669
532.949	3005
533.017	1343
533.084	1308
533.152	1396
533.220	1575
533.287	852
533.355	1219
533.423	2577
533.490	-300
533.558	1322
533.625	1246
533.693	1340
533.761	1860
533.828	2749
533.896	1794
533.963	9614
534.031	10975
534.098	12765
534.166	4657
534.233	2262
534.300	3431
534.368	3504
534.435	1545
534.503	2084
534.570	2824
534.637	879
534.705	1759
534.772	1742
534.840	1382
534.907	8036
534.974	7041
535.041	2235
535.109	1640
535.176	738
535.243	1937
535.310	1759
535.378	1201
535.445	914
535.512	1363
535.579	1153
535.646	288
535.714	1567
535.781	3025
535.848	2827
535.915	4224
535.982	3547
536.049	3183
536.116	4232
536.183	3112
536.250	2972
536.317	2162
536.384	3541
536.451	6826
536.518	5869
536.585	2479
536.652	6211
536.719	9021
536.786	4249
536.853	4184
536.920	7017
536.987	12141
537.053	13654
537.120	55667
537.187	36742
537.254	2993
537.321	1535
537.388	2278
537.454	8
537.521	1119
537.588	1228
537.654	3242
537.721	2131
537.788	3849
537.855	1605
537.921	1103
537.988	1391
538.055	2857
538.121	1053
538.188	2849
538.254	6016
538.321	14778
538.388	6986
538.454	1667
538.521	1658
538.587	1705
538.654	983
538.720	2000
538.787	1734
538.853	2175
538.920	3249
538.986	2785
539.053	924
539.119	1873
539.185	2368
539.252	4990
539.318	6887
539.385	4201
539.451	2534
539.517	3911
539.583	5438
539.650	15199
539.716	33913
539.782	6654
539.849	2339
539.915	3652
539.981	2882
540.047	4076
540.114	2346
540.180	3927
540.246	2541
540.312	5563
540.378	13371
540.444	13948
540.510	16399
540.576	39253
540.643	8553
540.709	1267
540.775	2138
540.841	2198
540.907	3840
540.973	6189
541.039	7059
541.105	7656
541.171	2912
541.237	2557
541.303	3188
541.369	5748
541.435	6906
541.500	11804
541.566	5178
541.632	2308
541.698	1953
541.764	3000
541.830	1626
541.896	1272
541.961	3196
542.027	1967
542.093	2807
542.159	3115
542.224	2689
542.290	6592
542.356	12219
542.421	13988
542.487	5825
542.553	2295
542.618	3351
542.684	2315
542.750	3102
542.815	4189
542.881	10461
542.947	37853
543.012	22220
543.078	3095
543.143	1681
543.209	3327
543.274	2518
543.340	4536
543.405	14350
543.471	18102
543.536	3059
543.602	2378
543.667	366
543.732	2794
543.798	1034
543.863	3326
543.928	939
543.994	1357
544.059	2059
544.124	2131
544.190	1947
544.255	2407
544.320	2476
544.386	1866
544.451	4815
544.516	6367
544.581	6138
544.646	25634
544.712	32581
544.777	3984
544.842	2775
544.907	2645
544.972	2339
545.037	2879
545.102	2984
545.168	2664
545.233	3864
545.298	3853
545.363	3331
545.428	4776
545.493	14553
545.558	28291
545.623	6954
545.688	2873
545.753	2265
545.818	2518
545.883	2988
545.947	2104
546.012	2622
546.077	2124
546.142	3572
546.207	3217
546.272	6191
546.337	5799
546.401	4197
546.466	3047
546.531	1875
546.596	3342
546.661	3313
546.725	3388
546.790	2481
546.855	2263
546.919	1430
546.984	2555
547.049	3114
547.113	3943
547.178	1690
547.243	3361
547.307	3585
547.372	4786
547.436	3690
547.501	2893
547.565	3686
547.630	6294
547.695	4939
547.759	4866
547.823	3038
547.888	3745
547.952	3262
548.017	4034
548.081	3556
548.146	5202
548.210	3459
548.274	2499
548.339	2788
548.403	3311
548.468	1845
548.532	3432
548.596	3583
548.660	2600
548.725	3804
548.789	3949
548.853	4235
548.917	3783
548.982	4372
549.046	4433
549.110	2482
549.174	3339
549.238	3118
549.303	2535
549.367	4190
549.431	2447
549.495	2481
549.559	2975
549.623	3633
549.687	5168
549.751	7886
549.815	2995
549.879	3876
549.943	2113
550.007	4308
550.071	4488
550.135	5712
550.199	3817
550.263	3751
550.327	4390
550.391	4337
550.455	4017
550.519	4009
550.582	5172
550.646	6583
550.710	7302
550.774	3889
550.838	3764
550.901	3110
550.965	4298
551.029	3222
551.093	5020
551.156	6901
551.220	12155
551.284	10868
551.347	6776
551.411	13241
551.475	11387
551.538	3937
551.602	4034
551.666	3771
551.729	2867
551.793	3790
551.856	3963
551.920	3905
551.983	4208
552.047	2768
552.110	3376
552.174	3239
552.237	3332
552.301	3180
552.364	2984
552.428	3108
552.491	3081
552.554	3915
552.618	3488
552.681	3812
552.745	4014
552.808	8590
552.871	10954
552.934	5303
552.998	3364
553.061	3516
553.124	3781
553.187	4296
553.251	3963
553.314	4796
553.377	6131
553.440	15071
553.503	60890
553.567	78255
553.630	9433
553.693	4012
553.756	4166
553.819	3496
553.882	3678
553.945	2697
554.008	2697
554.071	1639
554.134	3200
554.197	2190
554.260	1965
554.323	5341
554.386	4163
554.449	3034
554.512	2873
554.575	1732
554.638	2722
554.701	2423
554.764	2902
554.827	2280
554.889	2287
554.952	2454
555.015	1973
555.078	1520
555.141	2674
555.203	1415
555.266	2881
555.329	2789
555.391	3472
555.454	3281
555.517	3380
555.580	2451
555.642	2453
555.705	2289
555.768	2192
555.830	2461
555.893	2575
555.955	2387
556.018	2171
556.080	1640
556.143	2241
556.206	1520
556.268	3031
556.330	2608
556.393	3108
556.455	2887
556.518	5023
556.580	4178
556.643	2048
556.705	2359
556.767	1824
556.830	2310
556.892	4280
556.955	8541
557.017	4487
557.079	1869
557.142	2466
557.204	4370
557.266	12883
557.328	7049
557.391	1497
557.453	1567
557.515	2675
557.577	4703
557.639	2930
557.701	2035
557.764	1315
557.826	2268
557.888	2006
557.950	1248
558.012	2274
558.074	2068
558.136	6729
558.198	12228
558.260	4792
558.322	2063
558.384	2998
558.446	3529
558.508	4572
558.570	5459
558.632	15179
558.694	19657
558.756	12002
558.818	35670
558.880	67147
558.942	14736
559.003	12584
559.065	4672
559.127	2687
559.189	2916
559.251	3770
559.312	5399
559.374	15179
559.436	41258
559.498	14702
559.559	2664
559.621	2741
559.683	2884
559.744	6995
559.806	21355
559.868	23050
559.929	4193
559.991	3985
560.052	5857
560.114	12056
560.176	6743
560.237	9753
560.299	11738
560.360	2371
560.422	2121
560.483	2376
560.545	1644
560.606	1593
560.667	1234
560.729	1078
560.790	1862
560.852	1944
560.913	2151
560.974	1736
561.036	2278
561.097	1592
561.158	2342
561.220	2981
561.281	1562
561.342	3187
561.403	4265
561.465	6810
561.526	22568
561.587	22709
561.648	3810
561.709	2285
561.771	2088
561.832	2155
561.893	1269
561.954	2511
562.015	1138
562.076	3073
562.137	1809
562.198	2393
562.259	1751
562.320	2379
562.381	2808
562.442	5508
562.503	3580
562.564	1904
562.625	2294
562.686	3070
562.747	2244
562.808	1855
562.869	1581
562.930	1967
562.991	1480
563.051	2276
563.112	1911
563.173	1318
563.234	1144
563.294	2242
563.355	1839
563.416	2619
563.477	2116
563.537	1844
563.598	2018
563.659	3177
563.720	2095
563.780	2912
563.841	2331
563.901	1871
563.962	2332
564.023	1747
564.083	3138
564.144	1912
564.204	2097
564.265	2070
564.325	2859
564.386	5790
564.446	3462
564.507	1739
564.567	2522
564.628	2346
564.688	1035
564.749	1848
564.809	1922
564.869	2820
564.930	1909
564.990	2264
565.050	1403
565.111	2959
565.171	1266
565.231	1183
565.292	2722
565.352	1341
565.412	1899
565.472	2289
565.532	3282
565.593	1379
565.653	879
565.713	1910
565.773	2226
565.833	3757
565.893	5468
565.953	2087
566.013	2144
566.074	2901
566.134	4460
566.194	4858
566.254	5709
566.314	2749
566.374	2275
566.434	2099
566.494	2250
566.554	3249
566.614	2357
566.673	2692
566.733	3018
566.793	3024
566.853	2399
566.913	2741
566.973	2324
567.033	3065
567.092	3029
567.152	2481
567.212	3086
567.272	2970
567.331	2597
567.391	2852
567.451	3769
567.511	4745
567.570	5032
567.630	3130
567.690	3079
567.749	3335
567.809	2791
567.868	4137
567.928	3898
567.988	3913
568.047	5049
568.107	6306
568.166	8769
568.226	15038
568.285	21264
568.345	15905
568.404	13042
568.464	11180
568.523	8783
568.582	8892
568.642	10032
568.701	13963
568.761	22687
568.820	35619
568.879	31194
568.939	21390
568.998	15142
569.057	10846
569.116	7957
569.176	6597
569.235	4613
569.294	4537
569.353	2896
569.413	3953
569.472	2792
569.531	3028
569.590	2400
569.649	2671
569.708	2560
569.767	2219
569.827	2270
569.886	2523
569.945	2100
570.004	2603
570.063	2669
570.122	2522
570.181	2831
570.240	2056
570.299	2779
570.358	3513
570.417	1775
570.475	1886
570.534	1979
570.593	2815
570.652	2315
570.711	2531
570.770	3201
570.829	4533
570.887	4075
570.946	3344
571.005	1012
571.064	1938
571.122	2145
571.181	1766
571.240	795
571.299	1946
571.357	2774
571.416	2935
571.475	1904
571.533	1320
571.592	1563
571.650	1501
571.709	1749
571.768	2156
571.826	1100
571.885	1755
571.943	167
572.002	1589
572.060	1340
572.119	1517
572.177	1238
572.236	1018
572.294	1423
572.352	1672
572.411	907
572.469	437
572.528	39
572.586	1380
572.644	1144
572.703	2939
572.761	1988
572.819	1325
572.877	1440
572.936	1022
572.994	1539
573.052	1000
573.110	927
573.169	1301
573.227	643
573.285	1472
573.343	717
573.401	1307
573.459	587
573.517	63
573.576	962
573.634	791
573.692	1165
573.750	783
573.808	789
573.866	1458
573.924	2281
573.982	2015
574.040	1608
574.098	598
574.155	1391
574.213	1169
574.271	1244
574.329	1327
574.387	1253
574.445	897
574.503	999
574.560	794
574.618	1032
574.676	761
574.734	361
574.792	1645
574.849	1545
574.907	1269
574.965	1042
575.022	544
575.080	498
575.138	1004
575.195	978
575.253	727
575.311	1732
575.368	1330
575.426	520
575.483	1824
575.541	1472
575.598	1075
575.656	932
575.713	872
575.771	818
575.828	898
575.886	1513
575.943	1725
576.001	729
576.058	1184
576.115	1494
576.173	1561
576.230	1959
576.287	3132
576.345	1501
576.402	455
576.459	1516
576.517	1280
576.574	2422
576.631	2035
576.688	931
576.746	1301
576.803	922
576.860	418
576.917	630
576.974	1323
577.031	1223
577.089	1385
577.146	1045
577.203	1718
577.260	2105
577.317	2050
577.374	2179
577.431	2205
577.488	1369
577.545	1009
577.602	1846
577.659	1693
577.716	2662
577.773	2136
577.830	1437
577.886	2120
577.943	1021
578.000	1586
578.057	1967
578.114	2778
578.171	3965
578.227	6984
578.284	4333
578.341	3280
578.398	2364
578.454	2424
578.511	2080
578.568	1722
578.625	833
578.681	1301
578.738	285
578.794	1759
578.851	713
578.908	1343
578.964	1001
579.021	1457
579.077	1568
579.134	1331
579.190	1487
579.247	2520
579.303	955
579.360	1160
579.416	789
579.473	798
579.529	1005
579.586	1708
579.642	1274
579.698	742
579.755	1504
579.811	2835
579.867	1885
579.924	1472
579.980	1665
580.036	3447
580.093	5760
580.149	10119
580.205	9982
580.261	5351
580.317	4027
580.374	2105
580.430	3114
580.486	2369
580.542	1284
580.598	1170
580.619	1204
580.654	1254
580.692	1589
580.710	1751
580.765	1532
580.767	1521
580.823	1252
580.838	1424
580.879	1854
580.911	1323
580.935	928
580.984	1066
580.991	1082
581.047	1911
581.057	1941
581.103	2058
581.130	2231
581.159	2422
581.203	3297
581.215	3510
581.270	2620
581.276	2527
581.326	1515
581.349	1778
581.382	2171
581.422	2093
581.438	2100
581.494	1418
581.494	1424
581.550	1218
581.567	1511
581.606	2207
581.640	1941
581.661	1729
581.713	2302
581.717	2350
581.773	1471
581.786	1322
581.829	784
581.859	1074
581.885	1352
581.932	1367
581.940	1361
581.996	2400
582.004	2306
582.052	1734
582.077	1833
582.107	1937
582.150	1522
582.163	1428
582.219	1561
582.223	1631
582.274	2115
582.296	2001
582.330	2027
582.368	2026
582.386	1996
582.441	1826
582.441	1822
582.497	2198
582.514	2269
582.552	2634
582.587	2994
582.608	3063
582.659	2084
582.663	1989
582.719	2751
582.732	2700
582.774	2909
582.805	3224
582.830	3307
582.877	2609
582.885	2548
582.941	2310
582.950	2455
582.996	3008
583.023	3684
583.052	4700
583.095	4776
583.107	4870
583.162	9148
583.168	9107
583.218	8008
583.240	7556
583.273	6487
583.313	5533
583.328	5268
583.384	5150
583.385	5116
583.439	3708
583.458	3539
583.494	3560
583.531	4100
583.549	4443
583.603	3937
583.605	3918
583.660	3995
583.676	3986
583.715	3895
583.748	3656
583.770	3652
583.820	4245
583.825	4252
583.881	3299
583.893	3143
583.936	3070
583.965	3637
583.991	3993
584.038	3214
584.046	3088
584.101	3409
584.110	3477
584.156	3985
584.183	3816
584.211	3545
584.255	3754
584.266	3822
584.321	3959
584.328	3953
584.376	4097
584.400	4047
584.431	3945
584.472	3734
584.486	3568
584.541	3533
584.545	3513
584.596	3987
584.617	4449
584.651	5263
584.689	5631
584.706	5546
584.761	4041
584.762	4036
584.816	4924
584.834	4855
584.871	4642
584.906	4802
584.926	4983
584.978	4877
584.980	4886
585.035	5806
585.051	5947
585.090	6346
585.123	6350
585.145	6293
585.195	7048
585.200	7263
585.254	9253
585.267	10084
585.309	13297
585.340	14916
585.364	14808
585.412	11833
585.419	11313
585.473	9397
585.484	9015
585.528	9718
585.556	10693
585.583	13125
585.628	17895
585.637	20081
585.692	36644
585.700	38703
585.747	44555
585.772	42657
585.801	29548
585.845	14682
585.856	13748
585.910	10635
585.917	10175
585.965	9499
585.989	9424
586.019	9446
586.061	8999
586.074	8996
586.128	9204
586.133	9224
586.183	9977
586.205	10242
586.237	10398
586.277	9961
586.292	9829
586.346	9575
586.349	9566
586.401	10060
586.421	10106
586.455	10372
586.493	10807
586.509	11614
586.564	14315
586.565	14356
586.618	19164
586.637	19806
586.672	16504
586.709	13468
586.727	12902
586.781	12596
586.781	12636
586.835	12436
586.853	12553
586.889	12714
586.925	12550
586.944	12775
586.996	13405
586.998	13467
587.052	14214
587.068	14468
587.106	14888
587.140	14811
587.161	14909
587.212	15464
587.215	15589
587.269	17007
587.284	17365
587.323	18055
587.356	18367
587.377	18803
587.427	19715
587.431	19840
587.485	20489
587.499	20668
587.539	21761
587.571	22603
587.593	23446
587.643	25416
587.648	25679
587.702	26667
587.715	27049
587.755	29205
587.786	30312
587.810	31598
587.858	34684
587.864	35163
587.917	38562
587.930	39148
587.971	43359
588.001	46676
588.025	49732
588.073	55255
588.079	56394
588.133	64776
588.145	66609
588.187	75806
588.217	81815
588.241	88300
588.288	100090
588.295	102624
588.348	122061
588.360	125879
588.402	144867
588.431	157355
588.456	170861
588.503	195865
588.510	201534
588.564	243676
588.575	252184
588.617	300716
588.646	333813
588.671	385246
588.718	485869
588.725	519705
588.778	787254
588.789	844725
588.832	1389311
588.861	1776578
588.886	2246950
588.932	3159553
588.939	3194409
588.993	3230024
589.004	3193532
589.047	2451877
589.075	1967093
589.100	1548997
589.147	806208
589.154	778647
589.207	553979
589.218	506816
589.261	473798
589.290	450893
589.314	479987
589.361	540066
589.368	577471
589.421	885614
589.433	953021
589.475	1642569
589.504	2143808
589.528	2510526
589.576	3149256
589.582	3079497
589.635	2191303
589.647	2000328
589.689	1178872
589.718	614540
589.742	504828
589.790	285003
589.795	277687
589.849	200815
589.861	182413
589.902	155405
589.932	134329
589.955	124018
590.004	101157
590.009	100180
590.062	85314
590.075	81274
590.115	75367
590.146	70475
590.168	67322
590.218	59309
590.222	59264
590.275	55568
590.289	54305
590.328	51888
590.360	49657
590.381	48425
590.431	44698
590.435	44703
590.488	41707
590.503	40627
590.541	39699
590.574	38641
590.594	38119
590.645	36132
590.647	36233
590.700	34701
590.716	34081
590.753	32795
590.787	31305
590.806	31131
590.859	30221
590.859	30342
590.912	29316
590.930	28916
590.965	28902
591.001	28572
591.018	28154
591.071	26485
591.072	26348
591.124	26993
591.143	27043
591.177	26005
591.214	24651
591.230	24988
591.283	25846
591.285	25759
591.336	27042
591.356	27390
591.389	27074
591.427	26348
591.442	25736
591.495	23187
591.498	22883
591.547	23635
591.569	23863
591.600	23613
591.640	22945
591.653	23121
591.706	23409
591.711	23334
591.759	22608
591.782	22073
591.811	22775
591.853	23501
591.864	23309
591.917	21793
591.924	21473
591.969	20950
591.995	20488
592.022	21028
592.066	21621
592.075	21959
592.127	23458
592.137	23626
592.180	23720
592.208	23575
592.233	22348
592.279	19740
592.285	19836
592.338	19889
592.350	19804
592.390	19280
592.421	18743
592.443	19361
592.491	20417
592.495	20498
592.548	20296
592.562	20144
592.600	20136
592.633	19965
592.653	19911
592.704	19431
592.705	19557
592.775	20241
592.846	19603
592.916	19754
592.987	22099
593.058	20722
593.128	17862
593.199	17948
593.270	17463
593.341	16592
593.411	18129
593.482	17895
593.553	18783
593.623	16566
593.694	17107
593.764	16930
593.835	17163
593.906	15458
593.976	16007
594.047	16538
594.117	18058
594.188	18912
594.258	16246
594.329	15539
594.399	16997
594.470	15345
594.540	16335
594.611	15552
594.681	16255
594.751	17522
594.822	21650
594.892	21971
594.963	20622
595.033	17347
595.103	16988
595.174	17234
595.244	21781
595.314	25482
595.384	16392
595.455	16626
595.525	16406
595.595	15696
595.665	15987
595.736	15806
595.806	15877
595.876	15628
595.946	16268
596.016	14676
596.087	15893
596.157	15078
596.227	15923
596.297	16652
596.367	16369
596.437	17563
596.507	21463
596.577	23744
596.647	17624
596.717	15795
596.787	16485
596.857	16381
596.927	17145
596.997	16860
597.067	18147
597.137	22847
597.207	19932
597.277	16995
597.347	16526
597.417	15628
597.487	17813
597.557	17484
597.626	17486
597.696	17979
597.766	20124
597.836	22262
597.906	17636
597.975	15855
598.045	15622
598.115	15856
598.185	16728
598.254	17667
598.324	18728
598.394	19482
598.464	19063
598.533	17032
598.603	16967
598.672	16705
598.742	17333
598.812	16731
598.881	16374
598.951	15527
599.020	16065
599.090	15361
599.159	16613
599.229	15043
599.299	15849
599.368	15707
599.437	15370
599.507	16500
599.576	16979
599.646	20335
599.715	22592
599.785	16326
599.854	16871
599.924	15567
599.993	16019
600.062	14357
600.132	15406
600.201	15177
600.270	18410
600.340	17741
600.409	15418
600.478	15939
600.547	15639
600.617	16264
600.686	14501
600.755	15081
600.824	17509
600.894	15709
600.963	13702
601.032	13538
601.101	14179
601.170	13770
601.239	14827
601.308	19684
601.378	18351
601.447	14020
601.516	15280
601.585	18287
601.654	24052
601.723	16749
601.792	15256
601.861	17238
601.930	23988
601.999	20360
602.068	18413
602.137	26003
602.206	25095
602.275	17189
602.343	19262
602.412	20367
602.481	14876
602.550	13616
602.619	14419
602.688	15253
602.756	14740
602.825	13660
602.894	13538
602.963	12158
603.032	13959
603.100	13921
603.169	14551
603.238	13788
603.307	13942
603.375	14225
603.444	14246
603.513	13995
603.581	13432
603.650	13086
603.719	13236
603.787	12891
603.856	13694
603.924	14153
603.993	15134
604.061	13881
604.130	15395
604.198	15484
604.267	15863
604.335	13850
604.404	14852
604.472	13987
604.541	14584
604.609	14524
604.678	14670
604.746	15200
604.815	15382
604.883	15553
604.951	15929
605.020	14018
605.088	15492
605.156	14777
605.225	15876
605.293	15378
605.361	15941
605.429	15824
605.498	17116
605.566	17966
605.634	17099
605.702	16561
605.771	17053
605.839	16524
605.907	16887
605.975	15625
606.043	17281
606.111	17441
606.180	19600
606.248	25155
606.316	28799
606.384	18280
606.452	21382
606.520	26139
606.588	19168
606.656	15213
606.724	16407
606.792	15291
606.860	14825
606.928	13501
606.996	13851
607.064	13748
607.132	12734
607.200	14368
607.267	14122
607.335	13762
607.403	15565
607.471	12853
607.539	14330
607.607	14021
607.674	13506
607.742	13875
607.810	15703
607.878	15123
607.946	13442
608.013	12705
608.081	14685
608.149	14126
608.216	13581
608.284	15046
608.352	13915
608.419	14525
608.487	18489
608.555	14472
608.622	14652
608.690	14278
608.757	15263
608.825	15141
608.893	16996
608.960	16534
609.028	18327
609.095	18643
609.163	15050
609.230	13964
609.298	14645
609.365	13302
609.432	14660
609.500	14837
609.567	15805
609.635	18349
609.702	19599
609.769	18690
609.837	19368
609.904	17093
609.971	18136
610.039	25350
610.106	38516
610.173	76522
610.241	184300
610.308	231454
610.375	136213
610.442	38212
610.509	21997
610.577	18954
610.644	17287
610.711	16678
610.778	17443
610.845	16613
610.912	19083
610.980	23579
611.047	40036
611.114	24746
611.181	16321
611.248	14924
611.315	17838
611.382	15851
611.449	15403
611.516	16563
611.583	16166
611.650	16327
611.717	17369
611.784	17165
611.851	18356
611.918	22477
611.984	27094
612.051	42742
612.118	98678
612.185	261752
612.252	174806
612.319	34525
612.386	23698
612.452	19591
612.519	20038
612.586	21506
612.653	19655
612.719	18257
612.786	17429
612.853	15587
612.919	15368
612.986	16186
613.053	15778
613.120	14459
613.186	13997
613.253	15502
613.319	14954
613.386	15057
613.453	15930
613.519	18947
613.586	26112
613.652	39365
613.719	29433
613.785	26328
613.852	18819
613.918	20190
613.985	28218
614.051	50681
614.118	126999
614.184	120732
614.250	26730
614.317	17081
614.383	16518
614.449	15858
614.516	16662
614.582	16414
614.648	15510
614.715	15639
614.781	14904
614.847	15103
614.914	15381
614.980	14846
615.046	16246
615.112	14786
615.179	16991
615.245	17293
615.311	21811
615.377	32046
615.443	38557
615.509	24181
615.575	19978
615.642	18433
615.708	19894
615.774	22169
615.840	24815
615.906	31147
615.972	47912
616.038	93959
616.104	179525
616.170	377194
616.236	336399
616.302	65408
616.368	36693
616.434	24423
616.500	23570
616.565	23716
616.631	28996
616.697	25042
616.763	25770
616.829	36260
616.895	66287
616.961	67379
617.026	32921
617.092	19499
617.158	18140
617.224	15860
617.289	15533
617.355	14398
617.421	13406
617.487	14615
617.552	13565
617.618	12597
617.684	12801
617.749	15224
617.815	13078
617.880	12163
617.946	13771
618.012	13844
618.077	12864
618.143	12877
618.208	13705
618.274	13365
618.339	13680
618.405	11914
618.470	13918
618.536	13203
618.601	14064
618.667	11942
618.732	13257
618.798	12867
618.863	11921
618.928	12767
618.994	13936
619.059	16940
619.124	27739
619.190	17134
619.255	12944
619.320	11141
619.386	12052
619.451	10817
619.516	12520
619.581	11485
619.647	12206
619.712	11300
619.777	12586
619.842	12182
619.907	13210
619.972	12440
620.038	12653
620.103	10891
620.168	11447
620.233	11790
620.298	11320
620.363	11403
620.428	11856
620.493	11678
620.558	11725
620.623	10741
620.688	11767
620.753	11853
620.818	10721
620.883	10822
620.948	11580
621.013	11152
621.078	11828
621.143	10317
621.207	14074
621.272	12701
621.337	14517
621.402	13009
621.467	16068
621.532	16052
621.596	14084
621.661	12750
621.726	12142
621.791	12255
621.855	13455
621.920	14909
621.985	13127
622.049	15384
622.114	15044
622.179	13579
622.243	13623
622.308	13598
622.373	15824
622.437	14340
622.502	12641
622.566	13314
622.631	12377
622.695	14122
622.760	13365
622.824	13602
622.889	14874
622.953	17304
623.018	30768
623.082	28321
623.147	15193
623.211	14382
623.276	15544
623.340	12236
623.404	12931
623.469	12816
623.533	13854
623.597	11835
623.662	12968
623.726	11031
623.790	12010
623.854	11812
623.919	12726
623.983	12409
624.047	13456
624.111	12472
624.176	13288
624.240	12898
624.304	16005
624.368	12592
624.432	12919
624.496	13722
624.560	16556
624.625	18465
624.689	14962
624.753	12608
624.817	13314
624.881	12183
624.945	12265
625.009	12217
625.073	13371
625.137	13988
625.201	22008
625.265	20371
625.329	13844
625.393	15190
625.456	13219
625.520	13433
625.584	15382
625.648	17235
625.712	23104
625.776	44929
625.839	51066
625.903	21148
625.967	13001
626.031	21541
626.095	30143
626.158	13629
626.222	10672
626.286	10696
626.349	9876
626.413	9880
626.477	13463
626.540	10360
626.604	9986
626.668	9813
626.731	10001
626.795	9975
626.858	11039
626.922	8988
626.986	11509
627.049	8571
627.113	9460
627.176	9800
627.240	9528
627.303	8803
627.366	9333
627.430	9546
627.493	9648
627.557	8545
627.620	10500
627.684	9050
627.747	9492
627.810	7471
627.874	8780
627.937	8331
628.000	11433
628.064	9239
628.127	7936
628.190	9238
628.253	9557
628.317	8210
628.380	8627
628.443	8407
628.506	8717
628.569	8776
628.632	6562
628.696	8222
628.759	7232
628.822	7681
628.885	7754
628.948	7431
629.011	8093
629.074	7731
629.137	7918
629.200	7002
629.263	9523
629.326	6804
629.389	7327
629.452	7462
629.515	8038
629.578	7540
629.641	8661
629.704	8429
629.767	8992
629.830	7427
629.892	7862
629.955	7156
630.018	11050
630.081	9366
630.144	15543
630.207	9240
630.269	10651
630.332	8780
630.395	7791
630.458	7548
630.520	6686
630.583	8080
630.646	7427
630.708	7101
630.771	6826
630.834	6888
630.896	7167
630.959	6386
631.021	6412
631.084	6964
631.146	8131
631.209	9285
631.272	7422
631.334	7381
631.397	6596
631.459	6441
631.522	8344
631.584	7011
631.646	8986
631.709	8498
631.771	12260
631.834	8018
631.896	7817
631.958	5504
632.021	7456
632.083	5738
632.145	8219
632.208	6776
632.270	8615
632.332	5907
632.395	6333
632.457	7060
632.519	6604
632.581	7746
632.643	6135
632.706	6827
632.768	5908
632.830	7108
632.892	6538
632.954	6266
633.016	6414
633.078	5751
633.141	6734
633.203	6153
633.265	6870
633.327	6605
633.389	5905
633.451	9206
633.513	11004
633.575	9387
633.637	8968
633.698	8841
633.760	7150
633.822	7034
633.884	7828
633.946	7366
634.008	7472
634.070	9680
634.132	13779
634.193	9574
634.255	7700
634.317	5989
634.379	9299
634.441	7436
634.502	7071
634.564	7742
634.626	8022
634.687	8516
634.749	7451
634.811	6089
634.873	5808
634.934	6187
634.996	6927
635.057	4856
635.119	5636
635.181	6301
635.242	6742
635.304	3723
635.365	7955
635.427	5783
635.488	7252
635.550	4639
635.611	6869
635.673	4875
635.734	6952
635.796	6963
635.857	8429
635.918	6038
635.980	8307
636.041	6334
636.102	7864
636.164	6780
636.225	8731
636.286	5285
636.348	7445
636.409	6129
636.470	5676
636.531	6349
636.593	5341
636.654	6872
636.715	6525
636.776	6148
636.838	5226
636.899	5427
636.960	5203
637.021	5294
637.082	5954
637.143	5845
637.204	5141
637.265	3519
637.326	5239
637.387	4870
637.448	4355
637.509	4876
637.570	4798
637.631	5504
637.692	3978
637.753	3557
637.814	5878
637.875	4559
637.936	5819
637.997	4661
638.058	6105
638.119	5338
638.179	5107
638.240	3435
638.301	4820
638.362	3795
638.423	4348
638.483	5623
638.544	3750
638.605	4928
638.666	3805
638.726	4724
638.787	5401
638.848	3784
638.908	4577
638.969	4094
639.030	5007
639.090	3502
639.151	4513
639.211	6454
639.272	8847
639.332	16860
639.393	9059
639.453	3794
639.514	4369
639.574	5315
639.635	4773
639.695	5105
639.756	4870
639.816	5844
639.877	8154
639.937	15011
639.997	21177
640.058	5913
640.118	4212
640.178	5364
640.239	4708
640.299	4378
640.359	4070
640.420	4214
640.480	4658
640.540	3528
640.600	4890
640.661	5478
640.721	4978
640.781	8500
640.841	4924
640.901	5441
640.961	5712
641.021	4987
641.082	6386
641.142	12140
641.202	8298
641.262	2984
641.322	4438
641.382	3398
641.442	4232
641.502	4030
641.562	4918
641.622	4295
641.682	4105
641.742	4003
641.802	5359
641.861	5945
641.921	4789
641.981	6099
642.041	6651
642.101	9249
642.161	5071
642.221	3478
642.280	4411
642.340	3314
642.400	2968
642.460	5225
642.519	3664
642.579	3827
642.639	4985
642.698	1201
642.758	6201
642.818	3605
642.877	4631
642.937	4106
642.997	7202
643.056	11020
643.116	4859
643.175	5629
643.235	3925
643.294	3197
643.354	4917
643.414	5743
643.473	6391
643.532	5942
643.592	9275
643.651	14860
643.711	28199
643.770	52115
643.830	127303
643.889	285266
643.948	64339
644.008	10474
644.067	6665
644.126	4853
644.186	3835
644.245	4490
644.304	3794
644.363	5484
644.423	2378
644.482	3530
644.541	4634
644.600	2107
644.659	5051
644.719	4607
644.778	6925
644.837	10650
644.896	21093
644.955	47450
645.014	19082
645.073	8987
645.132	5602
645.191	4070
645.250	3701
645.309	5052
645.368	4496
645.427	4771
645.486	5156
645.545	10648
645.604	4538
645.663	4108
645.722	3803
645.781	4253
645.840	4749
645.898	4826
645.957	8550
646.016	11474
646.075	22679
646.134	43596
646.192	117231
646.251	180452
646.310	24823
646.369	7209
646.427	6117
646.486	3671
646.545	4635
646.603	3893
646.662	4089
646.721	3587
646.779	2971
646.838	2515
646.896	4956
646.955	5111
647.014	7454
647.072	11292
647.131	28716
647.189	14684
647.248	3382
647.306	3620
647.365	4262
647.423	1417
647.481	4698
647.540	1562
647.598	3610
647.657	2235
647.715	3150
647.773	2535
647.832	4069
647.890	1827
647.948	2857
648.007	3693
648.065	2641
648.123	3855
648.181	6522
648.240	7891
648.298	7536
648.356	2011
648.414	4096
648.472	2431
648.531	3335
648.589	2553
648.647	3745
648.705	2362
648.763	2799
648.821	3379
648.879	2734
648.937	3680
648.995	4963
649.053	4172
649.111	6625
649.169	10748
649.227	17107
649.285	32781
649.343	93771
649.401	51817
649.459	30430
649.516	24405
649.574	20616
649.632	52222
649.690	65168
649.748	18146
649.806	18987
649.863	31430
649.921	24727
649.979	14654
650.037	4167
650.094	1283
650.152	3225
650.210	1760
650.268	3427
650.325	2275
650.383	3540
650.440	1594
650.498	2086
650.556	3021
650.613	1966
650.671	2677
650.728	3384
650.786	2991
650.843	2546
650.901	337
650.958	3248
651.016	1569
651.073	2876
651.131	2279
651.188	2096
651.246	2466
651.303	2134
651.360	2699
651.418	2162
651.475	2952
651.532	899
651.590	2195
651.647	2271
651.704	2092
651.762	2274
651.819	2740
651.876	2087
651.933	2386
651.990	4014
652.048	40
652.105	2144
652.162	2176
652.219	1944
652.276	2408
652.333	2588
652.390	1602
652.448	3274
652.505	2993
652.562	4280
652.619	4924
652.676	11305
652.733	11979
652.790	3311
652.847	1378
652.904	2166
652.961	642
653.017	1834
653.074	1526
653.131	2868
653.188	941
653.245	1749
653.302	1896
653.359	3135
653.415	2253
653.472	2275
653.529	1977
653.586	2451
653.642	1503
653.699	2341
653.756	830
653.813	2023
653.869	2303
653.926	1323
653.983	1268
654.039	3154
654.096	2014
654.152	3404
654.209	686
654.266	2585
654.322	1567
654.379	2421
654.435	3030
654.492	2482
654.548	3981
654.605	7163
654.661	4159
654.717	2476
654.774	2051
654.830	2018
654.887	2007
654.943	1813
655.000	1918
655.056	2739
655.112	2785
655.168	1830
655.225	1696
655.281	2388
655.337	1910
655.394	4817
655.450	2709
655.506	2426
655.562	4770
655.618	4858
655.675	1032
655.731	1852
655.787	1907
655.843	3256
655.899	1596
655.955	3568
656.011	2775
656.067	3189
656.123	3180
656.179	3285
656.235	4772
656.291	3307
656.347	4221
656.403	2637
656.459	2398
656.515	3264
656.571	2715
656.627	2618
656.683	2448
656.739	3205
656.795	2088
656.850	3042
656.906	3061
656.962	3627
657.018	1130
657.074	1367
657.129	2155
657.185	2504
657.241	3178
657.297	2376
657.352	2917
657.408	2009
657.464	2708
657.519	2162
657.575	805
657.630	1456
657.686	1612
657.742	774
657.797	995
657.853	1335
657.908	2533
657.964	1155
658.019	1367
658.075	1961
658.130	1407
658.186	958
658.241	2529
658.297	1077
658.352	1115
658.407	2785
658.463	1698
658.518	1804
658.573	806
658.629	1114
658.684	1007
658.739	2348
658.795	1141
658.850	1887
658.905	805
658.960	1586
659.016	1360
659.071	1730
659.126	1046
659.181	2121
659.236	6393
659.291	6907
659.346	3007
659.401	3456
659.457	5333
659.512	9179
659.567	3920
659.622	2369
659.677	944
659.732	422
659.787	2064
659.842	1905
659.897	1866
659.952	2505
660.007	1334
660.061	1523
660.116	556
660.171	1824
660.226	1018
660.281	2438
660.336	1039
660.391	2038
660.445	1024
660.500	2266
660.555	1341
660.610	462
660.664	775
660.719	1521
660.774	2165
660.828	1653
660.883	962
660.938	2139
660.992	2
661.047	1566
661.101	1575
661.156	906
661.211	748
661.265	1358
661.320	892
661.374	827
661.429	702
661.483	2179
661.538	494
661.592	931
661.647	697
661.701	2020
661.755	1764
661.810	1309
661.864	616
661.919	739
661.973	2048
662.027	1115
662.081	478
662.136	737
662.190	1136
662.244	2017
662.299	587
662.353	1481
662.407	885
662.461	1092
662.515	851
662.569	596
662.624	941
662.678	1418
662.732	518
662.786	1008
662.840	987
662.894	565
662.948	890
663.002	1085
663.056	1331
663.110	888
663.164	636
663.218	1202
663.272	1088
663.326	2400
663.380	1622
663.434	1124
663.488	573
663.542	1184
663.595	1479
663.649	890
663.703	951
663.757	1464
663.811	746
663.864	460
663.918	739
663.972	1318
664.026	1080
664.079	980
664.133	1411
664.187	1329
664.240	1447
664.294	687
664.348	1158
664.401	1662
664.455	651
664.508	847
664.562	901
664.615	1233
664.669	652
664.722	1379
664.776	410
664.829	1414
664.883	1102
664.936	864
664.990	813
665.043	1606
665.097	1318
665.150	1617
665.203	239
665.257	1250
665.310	1680
665.363	1748
665.417	1078
665.470	661
665.523	1560
665.576	1042
665.630	435
665.683	1402
665.736	1578
665.789	1655
665.842	394
665.895	1315
665.949	1368
666.002	1207
666.055	896
666.108	1359
666.161	262
666.214	1409
666.267	2101
666.320	2767
666.373	1374
666.426	1571
666.479	808
666.532	1682
666.585	1161
666.638	1698
666.691	1255
666.744	2011
666.796	1455
666.849	763
666.902	1373
666.955	1609
667.008	415
667.060	1098
667.113	666
667.166	1606
667.219	682
667.271	1068
667.324	816
667.377	2140
667.430	1805
667.482	3776
667.535	3084
667.587	2839
667.640	1514
667.693	2455
667.745	4717
667.798	6927
667.850	1568
667.903	1087
667.955	856
668.008	1241
668.060	2081
668.113	1047
668.165	1427
668.218	1254
668.270	1914
668.322	1824
668.375	1047
668.427	1299
668.479	1323
668.532	1585
668.584	1742
668.636	1229
668.689	1179
668.741	1119
668.793	1123
668.845	2172
668.898	1075
668.950	1812
669.002	1294
669.054	1119
669.106	732
669.158	2016
669.211	1991
669.263	2836
669.315	3137
669.367	5662
669.419	2466
669.471	4370
669.523	4338
669.575	7462
669.627	4540
669.679	2819
669.731	2294
669.783	3395
669.835	5017
669.886	4160
669.938	3599
669.990	3208
670.042	2769
670.094	4008
670.146	5145
670.197	6507
670.249	9203
670.301	12153
670.353	18027
670.404	29845
670.456	45026
670.508	74404
670.560	123399
670.611	215230
670.663	378403
670.715	896313
670.766	1416615
670.818	428060
670.869	68793
670.921	32256
670.972	21769
671.024	15907
671.075	11571
671.127	9162
671.178	6994
671.230	5710
671.281	5136
671.333	4485
671.384	3432
671.436	4181
671.487	4525
671.538	4567
671.590	4722
671.641	5434
671.692	6877
671.744	11035
671.795	9150
671.846	4769
671.897	2714
671.949	1820
672.000	2185
672.051	2624
672.102	2346
672.153	1499
672.204	828
672.256	1896
672.307	1398
672.358	2356
672.409	2351
672.460	1670
672.511	1217
672.562	1432
672.613	1429
672.664	1176
672.715	1108
672.766	1000
672.817	969
672.868	1364
672.919	1061
672.970	1001
673.021	898
673.071	1571
673.122	1539
673.173	1317
673.224	1427
673.275	951
673.326	429
673.376	1509
673.427	728
673.478	1125
673.528	430
673.579	931
673.630	598
673.680	2108
673.731	798
673.782	238
673.832	1089
673.883	894
673.934	324
673.984	1069
674.035	662
674.085	1697
674.136	1699
674.186	1513
674.237	845
674.287	2476
674.338	1233
674.388	1575
674.438	529
674.489	1139
674.539	1426
674.589	671
674.640	340
674.690	1472
674.740	440
674.791	931
674.841	1188
674.891	1375
674.942	1042
674.992	1513
675.042	215
675.092	741
675.142	-253
675.193	322
675.243	513
675.293	1472
675.343	219
675.393	880
675.443	1661
675.493	1331
675.543	-824
675.593	1161
675.643	1736
675.693	1007
675.743	318
675.793	517
675.843	408
675.893	800
675.943	1495
675.993	760
676.043	570
676.093	844
676.142	71
676.192	1308
676.242	477
676.292	462
676.341	545
676.391	838
676.441	-316
676.491	530
676.540	820
676.590	739
676.640	297
676.689	785
676.739	-306
676.789	486
676.838	240
676.888	532
676.937	-124
676.987	463
677.037	37
677.086	91
677.136	-239
677.185	-296
677.235	260
677.284	1561
677.333	-286
677.383	130
677.432	338
677.482	624
677.531	261
677.580	306
677.630	-203
677.679	198
677.728	-576
677.778	-18
677.827	288
677.876	248
677.925	-22
677.975	-7
678.024	45
678.073	228
678.122	748
678.171	-34
678.220	297
678.269	616
678.319	686
678.368	307
678.417	517
678.466	655
678.515	894
678.564	327
678.613	-362
678.662	193
678.711	34
678.760	140
678.809	-481
678.857	-14
678.906	-667
678.955	529
679.004	299
679.053	536
679.102	228
679.151	605
679.199	178
679.248	-186
679.297	466
679.346	805
679.394	-85
679.443	459
679.492	78
679.540	250
679.589	704
679.638	883
679.686	468
679.735	326
679.784	-338
679.832	13
679.881	-235
679.929	-27
679.978	-532
680.026	147
680.075	-50
680.123	-258
680.172	-216
680.220	379
680.268	-67
680.317	-141
680.365	-180
680.414	-172
680.462	-336
680.510	922
680.559	-1088
680.607	508
680.655	364
680.703	74
680.752	-309
680.800	35
680.848	72
680.896	106
680.945	-194
680.993	-350
681.041	-410
681.089	355
681.137	-220
681.185	63
681.233	12
681.258	358
681.281	677
681.329	-114
681.377	-730
681.380	-673
681.425	236
681.473	531
681.502	34
681.521	-327
681.569	975
681.617	252
681.624	314
681.665	662
681.713	653
681.745	817
681.761	882
681.809	491
681.857	1326
681.867	1072
681.904	166
681.952	619
681.989	81
682.000	-84
682.048	628
682.096	-191
682.111	-163
682.143	-150
682.191	-164
682.233	871
682.239	1018
682.286	166
682.334	107
682.354	125
682.382	165
682.430	49
682.476	183
682.477	178
682.525	706
682.572	241
682.598	162
682.620	99
682.667	-3
682.715	530
682.720	509
682.763	191
682.810	1200
682.841	619
682.857	332
682.905	-350
682.952	-10
682.963	158
683.000	628
683.047	315
683.085	695
683.095	806
683.142	785
683.190	594
683.206	573
683.237	515
683.284	1221
683.328	173
683.332	81
683.379	909
683.426	459
683.449	518
683.473	570
683.521	386
683.568	1192
683.571	1141
683.615	366
683.662	771
683.693	314
683.709	47
683.757	995
683.804	700
683.814	683
683.851	656
683.898	1058
683.936	914
683.945	860
683.992	185
684.039	1310
684.057	944
684.086	400
684.133	1227
684.179	1047
684.180	1032
684.227	1991
684.274	1747
684.300	1640
684.321	1549
684.368	546
684.415	2248
684.422	1993
684.462	426
684.509	1413
684.543	995
684.556	864
684.603	897
684.649	806
684.665	1123
684.696	1759
684.743	954
684.786	1258
684.790	1273
684.837	690
684.883	1320
684.908	1460
684.930	1633
684.977	1624
685.023	949
685.029	985
685.070	1071
685.117	1296
685.150	1290
685.164	1338
685.210	991
685.257	2180
685.272	1869
685.303	1078
685.350	1321
685.393	1334
685.396	1349
685.443	1578
685.490	1511
685.514	1640
685.536	1634
685.583	1037
685.629	2036
685.636	1870
685.675	1009
685.722	1473
685.757	1540
685.768	1520
685.815	1107
685.861	2082
685.878	1820
685.908	1459
685.954	788
686.000	1950
686.000	1968
686.047	1387
686.093	2065
686.121	2104
686.139	2059
686.185	1949
686.232	1155
686.242	1161
686.278	1229
686.324	1813
686.363	1810
686.370	1811
686.416	1536
686.463	1596
686.484	1568
686.509	1531
686.555	1766
686.601	1333
686.606	1422
686.647	2124
686.693	1462
686.727	1340
686.739	1333
686.785	1445
686.831	1669
686.848	1619
686.877	1476
686.923	1688
686.969	1276
686.969	1273
687.015	1411
687.061	1015
687.090	2014
687.107	2516
687.153	1432
687.199	1102
687.211	1120
687.245	1351
687.291	1646
687.332	1458
687.336	1438
687.382	1769
687.428	1913
687.453	2159
687.474	2254
687.520	1863
687.565	1962
687.574	1844
687.611	1576
687.657	1974
687.695	1845
687.702	1832
687.748	2013
687.794	2249
687.816	2457
687.839	2546
687.885	2211
687.931	1851
687.937	1908
687.976	2235
688.022	2265
688.058	1845
688.067	1775
688.113	2426
688.158	2038
688.179	2129
688.204	2138
688.249	2320
688.295	2029
688.300	1943
688.340	1540
688.386	2938
688.421	2472
688.431	2319
688.477	2428
688.522	2210
688.542	2632
688.567	3117
688.613	1847
688.658	2258
688.663	2143
688.703	1514
688.749	2291
688.784	2388
688.794	2355
688.839	2436
688.884	1991
688.905	2171
688.930	2376
688.975	2071
689.020	2401
689.026	2344
689.065	2122
689.110	2393
689.146	2091
689.155	2013
689.201	2134
689.246	1939
689.267	2219
689.291	2564
689.336	2470
689.381	2523
689.388	2545
689.426	2664
689.471	2724
689.509	2854
689.516	2873
689.561	2913
689.606	2815
689.630	2607
689.651	2446
689.696	2392
689.741	3110
689.750	3018
689.785	2658
689.830	2670
689.871	2654
689.875	2658
689.920	2888
689.965	2670
689.992	2724
690.010	2805
690.054	2567
690.099	2956
690.112	2929
690.144	2929
690.189	3199
690.233	3017
690.233	3021
690.278	3502
690.323	3165
690.354	3189
690.367	3273
690.412	3241
690.457	3871
690.474	3902
690.501	3880
690.546	4032
690.590	3925
690.595	3953
690.635	4697
690.680	5305
690.716	5862
690.724	6066
690.769	7116
690.813	8789
690.836	9052
690.857	10395
690.902	14603
690.946	18410
690.957	19732
690.991	28913
691.035	41667
691.077	54728
691.080	54859
691.124	49304
691.168	42616
691.198	38864
691.213	35136
691.257	25865
691.301	16260
691.318	12842
691.346	11538
691.390	8891
691.434	6861
691.439	6616
691.478	6158
691.522	5943
691.559	5378
691.567	5325
691.611	4979
691.655	4674
691.680	4622
691.699	4504
691.743	4124
691.787	3732
691.800	3512
691.831	3305
691.875	3467
691.919	3206
691.921	3205
691.964	3553
692.008	3476
692.041	3773
692.052	3879
692.096	3908
692.139	4460
692.162	4300
692.183	3950
692.227	4195
692.271	3816
692.282	3712
692.315	3840
692.359	3850
692.402	4318
692.403	4328
692.447	3927
692.490	4252
692.523	3984
692.534	3952
692.578	3884
692.622	3686
692.643	3811
692.666	4012
692.709	4219
692.753	4630
692.763	4536
692.797	4280
692.840	4800
692.884	4651
692.884	4661
692.928	5146
692.971	5088
693.004	4887
693.015	4764
693.059	4694
693.102	4822
693.124	4474
693.146	4464
693.189	5003
693.233	5160
693.245	5328
693.276	5989
693.320	6931
693.363	7711
693.365	7705
693.407	8269
693.450	9611
693.485	10400
693.493	10973
693.537	14119
693.580	17113
693.605	19092
693.624	22911
693.667	32278
693.710	41563
693.725	45173
693.753	61803
693.797	89371
693.840	117623
693.845	120159
693.883	111607
693.926	98467
693.966	88723
693.970	86585
694.013	63495
694.056	41414
694.086	26121
694.099	24456
694.142	19572
694.185	14166
694.206	11980
694.229	11654
694.272	10270
694.315	9445
694.326	9136
694.358	8533
694.401	8185
694.444	7297
694.446	7239
694.487	6917
694.530	6810
694.566	6665
694.573	6579
694.616	5569
694.659	5098
694.686	4666
694.702	4812
694.745	5180
694.787	5276
694.806	5460
694.830	5389
694.873	5144
694.916	4766
694.926	4742
694.959	4952
695.002	4947
695.044	4774
695.046	4765
695.087	4751
695.130	4489
695.166	4575
695.172	4644
695.215	4465
695.258	4721
695.286	4834
695.301	4811
695.343	4808
695.386	4439
695.406	4382
695.428	4393
695.471	4303
695.514	4163
695.526	4119
695.556	4065
695.599	4348
695.641	3992
695.646	3976
695.684	4108
695.726	4120
695.766	4269
695.769	4290
695.811	4243
695.854	4330
695.886	4413
695.896	4496
695.938	4517
695.981	4902
696.005	4919
696.023	4760
696.065	4484
696.108	4388
696.125	4251
696.150	4282
696.192	4343
696.235	4254
696.245	4304
696.277	4609
696.319	4613
696.361	4987
696.365	4980
696.404	5233
696.446	5730
696.485	5953
696.488	5947
696.530	5707
696.572	5460
696.604	5372
696.614	5370
696.656	5092
696.698	5025
696.724	4909
696.740	5019
696.783	5193
696.825	5437
696.844	5543
696.867	5336
696.909	4849
696.951	4417
696.964	4292
696.992	4445
697.034	4423
697.076	4579
697.083	4585
697.118	4822
697.160	5003
697.202	5314
697.203	5303
697.244	5215
697.286	5232
697.323	5170
697.327	5168
697.369	5063
697.411	4823
697.442	4759
697.453	4839
697.494	4952
697.536	5156
697.562	5245
697.578	5345
697.620	5543
697.661	5803
697.682	5890
697.703	5831
697.744	5717
697.786	5657
697.801	5562
697.828	5565
697.869	5620
697.911	5677
697.921	5673
697.952	5580
697.994	5423
698.035	5297
698.040	5258
698.077	5064
698.118	4899
698.160	4671
698.160	4654
698.201	4983
698.243	5211
698.279	5517
698.284	5560
698.325	5701
698.367	5901
698.399	6003
698.408	6013
698.449	6015
698.491	5985
698.518	5977
698.532	5945
698.573	5716
698.614	5563
698.638	5436
698.656	5380
698.697	5231
698.738	5077
698.757	4987
698.779	4995
698.820	4995
698.862	4969
698.877	4949
698.903	5169
698.944	5498
698.985	5826
698.996	5904
699.026	5745
699.067	5501
699.116	5199
699.235	5316
699.354	5649
699.474	5545
699.593	6126
699.713	6666
699.832	6151
699.951	6278
700.070	7437
700.190	6404
700.309	6841
700.428	6707
700.547	6515
700.667	6187
700.786	7121
700.905	5269
701.024	5813
701.143	6123
701.262	5731
701.381	5846
701.500	5744
701.619	5907
701.738	6127
701.857	5463
701.976	6049
702.095	5839
702.214	5662
702.333	6082
702.452	6652
702.571	4965
702.690	6233
702.809	5082
702.928	4931
703.047	4917
703.165	4963
703.284	5723
703.403	5944
703.522	5889
703.640	6644
703.759	6707
703.878	6414
703.997	4922
704.115	5571
704.234	5001
704.353	5165
704.471	5002
704.590	4198
704.708	4881
704.827	4825
704.946	4920
705.064	4607
705.183	5192
705.301	4365
705.420	6321
705.538	6510
705.656	6093
705.775	6839
705.893	15143
706.012	16019
706.130	5269
706.249	5455
706.367	5528
706.485	5757
706.604	5079
706.722	4928
706.840	5794
706.958	6577
707.077	4842
707.195	5475
707.313	5559
707.431	4297
707.549	5177
707.668	5054
707.786	5674
707.904	5921
708.022	5097
708.140	4436
708.258	5299
708.376	4538
708.494	3894
708.612	4754
708.730	6313
708.848	5254
708.966	5166
709.084	6280
709.202	5363
709.320	5442
709.438	5184
709.556	5506
709.674	5397
709.791	5655
709.909	5607
710.027	5119
710.145	5133
710.263	6113
710.380	5390
710.498	5428
710.616	4680
710.733	4880
710.851	4721
710.969	4981
711.086	4979
711.204	4933
711.322	5048
711.439	4348
711.557	3905
711.674	5415
711.792	4732
711.909	6210
712.027	6089
712.144	3889
712.262	5142
712.379	5881
712.497	6000
712.614	6324
712.732	5805
712.849	5446
712.966	5480
713.084	6401
713.201	5222
713.318	5802
713.436	5274
713.553	5349
713.670	5978
713.787	6236
713.905	4586
714.022	5415
714.139	5179
714.256	5937
714.373	6843
714.490	8671
714.608	15991
714.725	60941
714.842	64105
714.959	7922
715.076	5862
715.193	5784
715.310	4781
715.427	4678
715.544	5717
715.661	6292
715.778	4797
715.895	4728
716.011	4326
716.128	5549
716.245	5565
716.362	6056
716.479	6012
716.596	5795
716.713	5584
716.829	4983
716.946	5575
717.063	5372
717.180	4467
717.296	4916
717.413	4977
717.530	5669
717.646	4960
717.763	4879
717.880	4038
717.996	4718
718.113	4706
718.229	4973
718.346	5020
718.462	5397
718.579	6265
718.695	9384
718.812	6688
718.928	5286
719.045	4622
719.161	4130
719.277	4531
719.394	6203
719.510	4831
719.626	3850
719.743	4383
719.859	5591
719.975	6486
720.092	17174
720.208	34729
720.324	8074
720.440	4788
720.557	5478
720.673	7332
720.789	8147
720.905	9591
721.021	5023
721.137	3629
721.253	4376
721.369	4376
721.486	3771
721.602	4523
721.718	3892
721.834	3560
721.950	4531
722.066	4116
722.181	4527
722.297	4905
722.413	4178
722.529	5377
722.645	4795
722.761	4363
722.877	4248
722.993	4281
723.108	4065
723.224	3989
723.340	3799
723.456	4678
723.571	4865
723.687	3853
723.803	4287
723.918	3478
724.034	4440
724.150	3158
724.265	5172
724.381	5298
724.497	5422
724.612	3405
724.728	3999
724.843	4205
724.959	4712
725.074	6953
725.190	6654
725.305	3934
725.421	4531
725.536	2945
725.651	4212
725.767	3998
725.882	4290
725.997	3420
726.113	3700
726.228	3955
726.343	3713
726.459	2950
726.574	3505
726.689	3626
726.804	4044
726.920	3455
727.035	4260
727.150	3024
727.265	3301
727.380	4842
727.495	4551
727.610	4521
727.725	4739
727.841	5789
727.956	12788
728.071	7896
728.186	3992
728.301	3182
728.416	3663
728.531	4179
728.645	3714
728.760	4662
728.875	7455
728.990	7141
729.105	4938
729.220	4944
729.335	3850
729.449	4607
729.564	3972
729.679	3643
729.794	3712
729.908	3653
730.023	3269
730.138	3371
730.253	3283
730.367	2831
730.482	3151
730.596	3292
730.711	3101
730.826	4111
730.940	3681
731.055	3500
731.169	3438
731.284	3016
731.398	2518
731.513	3464
731.627	3304
731.742	3662
731.856	3473
731.970	2604
732.085	3716
732.199	3666
732.313	3297
732.428	7298
732.542	17280
732.656	12034
732.771	4050
732.885	3267
732.999	3142
733.113	2640
733.227	2844
733.342	3567
733.456	2641
733.570	2114
733.684	3295
733.798	2288
733.912	1954
734.026	3041
734.140	3592
734.254	3543
734.368	4715
734.482	4153
734.596	3388
734.710	2720
734.824	3135
734.938	3651
735.052	2774
735.166	4082
735.280	2808
735.393	2214
735.507	3034
735.621	3111
735.735	3949
735.849	2820
735.962	3243
736.076	3339
736.190	3924
736.303	2428
736.417	4032
736.531	3067
736.644	3412
736.758	2178
736.872	3502
736.985	2788
737.099	2849
737.212	1902
737.326	3212
737.439	3292
737.553	3534
737.666	3310
737.780	2247
737.893	3139
738.007	3452
738.120	2646
738.233	3121
738.347	3237
738.460	2718
738.573	2989
738.687	2200
738.800	3878
738.913	3649
739.026	4302
739.140	3002
739.253	3317
739.366	2929
739.479	2851
739.592	3091
739.705	3549
739.818	3212
739.932	3120
740.045	2998
740.158	2273
740.271	3307
740.384	3588
740.497	4894
740.610	6122
740.723	4936
740.836	5100
740.949	5378
741.062	4807
741.174	4179
741.287	3297
741.400	3728
741.513	5493
741.626	6000
741.739	4647
741.851	4119
741.964	4034
742.077	3358
742.189	4977
742.302	9743
742.415	8478
742.527	4241
742.640	3490
742.753	3871
742.865	2969
742.978	2713
743.090	2960
743.203	2798
743.316	2061
743.428	2188
743.541	2728
743.653	2585
743.766	3010
743.878	2997
743.990	4139
744.103	5275
744.215	9874
744.327	3998
744.440	4093
744.552	4737
744.664	2789
744.777	2821
744.889	1845
745.001	3190
745.113	2678
745.226	3167
745.338	2371
745.450	2905
745.562	2348
745.674	2839
745.786	1625
745.898	3102
746.010	2487
746.122	2882
746.234	2485
746.347	2689
746.459	2849
746.570	3809
746.682	5138
746.794	12525
746.906	6157
747.018	3241
747.130	3548
747.242	1990
747.354	2383
747.466	2867
747.577	2728
747.689	2642
747.801	3402
747.913	2141
748.024	2776
748.136	2400
748.248	2093
748.359	2638
748.471	3239
748.583	3563
748.694	3572
748.806	3322
748.918	2536
749.029	2902
749.141	2670
749.252	3004
749.364	2987
749.475	5413
749.587	3140
749.698	2783
749.809	2793
749.921	3069
750.032	3205
750.144	2453
750.255	1638
750.366	2477
750.478	2117
750.589	2822
750.700	2277
750.811	3062
750.923	3510
751.034	7242
751.145	5573
751.256	3091
751.367	3160
751.479	2586
751.590	1613
751.701	2968
751.812	1376
751.923	2991
752.034	2067
752.145	2964
752.256	2381
752.367	2101
752.478	3005
752.589	2554
752.700	1908
752.811	2796
752.922	1791
753.032	2588
753.143	3185
753.254	2145
753.365	3313
753.476	2415
753.586	2382
753.697	2303
753.808	3369
753.919	2803
754.029	2235
754.140	2684
754.251	3097
754.361	2686
754.472	2488
754.582	3282
754.693	2995
754.804	2902
754.914	1740
755.025	2467
755.135	2188
755.246	3055
755.356	2418
755.466	3198
755.577	3046
755.687	3044
755.798	3252
755.908	2914
756.018	2708
756.129	2544
756.239	3351
756.349	3179
756.460	2601
756.570	3049
756.680	2909
756.790	4001
756.900	3859
757.011	2803
757.121	3622
757.231	2732
757.341	3293
757.451	3190
757.561	2917
757.671	4053
757.781	2332
757.891	3124
758.001	3396
758.111	4036
758.221	3855
758.331	3686
758.441	4713
758.551	4276
758.661	4014
758.771	4055
758.880	3038
758.990	3404
759.100	3331
759.210	3940
759.320	4251
759.429	4064
759.539	4236
759.649	4135
759.758	4989
759.868	4912
759.978	3584
760.087	5062
760.197	4341
760.307	4643
760.416	4490
760.526	4202
760.635	5312
760.745	5058
760.854	5076
760.964	4897
761.073	5395
761.182	6028
761.292	6319
761.401	6248
761.511	6033
761.620	6206
761.729	5870
761.839	6381
761.948	6607
762.057	6614
762.166	6964
762.276	6804
762.385	8600
762.494	7057
762.603	7576
762.712	7761
762.822	8077
762.931	8869
763.040	8672
763.149	9364
763.258	9977
763.367	10739
763.476	10974
763.585	11232
763.694	12327
763.803	12007
763.912	13664
764.021	14351
764.130	15139
764.238	16172
764.347	16500
764.456	18182
764.565	20036
764.674	23021
764.783	23737
764.891	25825
765.000	30323
765.109	34027
765.217	38615
765.326	47117
765.435	58050
765.543	70697
765.652	89271
765.761	120203
765.869	169403
765.978	260917
766.086	427365
766.195	763393
766.303	1382307
766.412	1547994
766.520	1513287
766.629	1029322
766.737	538088
766.846	315727
766.954	208161
767.062	151013
767.171	112302
767.279	85403
767.387	67255
767.496	56610
767.604	49205
767.712	43552
767.820	38284
767.928	34260
768.037	32465
768.145	30931
768.253	30351
768.361	28100
768.469	27883
768.577	27900
768.685	31291
768.793	32561
768.901	36743
769.009	43613
769.117	52173
769.225	70288
769.333	101354
769.441	165123
769.549	297680
769.657	621598
769.765	1252597
769.873	1361866
769.981	946267
770.088	409201
770.196	209583
770.304	133249
770.412	94158
770.519	68977
770.627	53104
770.735	42391
770.842	35069
770.950	32847
771.058	26562
771.165	24068
771.273	21084
771.380	19302
771.488	17791
771.595	15773
771.703	15134
771.810	14542
771.918	12195
772.025	12464
772.133	11677
772.240	11008
772.348	9994
772.455	9788
772.562	9032
772.670	8874
772.777	8746
772.884	7272
772.991	7882
773.099	7449
773.206	6255
773.313	7513
773.420	6346
773.528	6407
773.635	5514
773.742	6478
773.849	6480
773.956	5927
774.063	5503
774.170	4823
774.277	5875
774.384	4830
774.491	4806
774.598	5119
774.705	4519
774.812	5113
774.919	5455
775.026	4828
775.133	3793
775.239	4196
775.346	4099
775.453	4223
775.560	3894
775.667	2845
775.773	3814
775.880	4048
775.987	3752
776.093	4108
776.200	3584
776.307	3727
776.413	4366
776.520	2947
776.627	3209
776.733	4139
776.840	3518
776.946	6518
777.053	10454
777.159	22451
777.266	12819
777.372	19677
777.478	15431
777.585	8539
777.691	3442
777.798	3314
777.904	2873
778.010	5074
778.117	3884
778.223	3024
778.329	2186
778.435	3030
778.542	2627
778.648	2383
778.754	2269
778.860	1607
778.966	2679
779.072	2719
779.178	2358
779.284	2867
779.391	3042
779.497	3269
779.603	6560
779.708	8759
779.815	25233
779.920	100882
780.026	142510
780.132	16319
780.238	4261
780.344	2786
780.450	3507
780.556	2989
780.661	1767
780.767	2206
780.873	1718
780.979	2595
781.085	2166
781.190	2952
781.296	1849
781.402	1670
781.507	1398
781.613	1458
781.719	1356
781.824	2091
781.930	2218
782.035	1887
782.141	2157
782.246	820
782.352	1706
782.457	1370
782.563	1348
782.668	1390
782.773	895
782.879	1472
782.984	1912
783.090	2457
783.195	2786
783.300	1442
783.405	2211
783.511	1822
783.616	2111
783.721	2678
783.826	1271
783.932	1729
784.037	1923
784.142	1643
784.247	1349
784.352	1565
784.457	889
784.562	1036
784.667	2072
784.772	2171
784.877	969
784.982	2104
785.087	1272
785.192	1688
785.297	1399
785.402	564
785.507	1361
785.611	1918
785.716	1755
785.821	1320
785.926	1238
786.031	1079
786.135	788
786.240	1886
786.345	698
786.450	1600
786.554	919
786.659	1006
786.763	219
786.868	969
786.973	1942
787.077	1034
787.182	2092
787.286	716
787.391	820
787.495	549
787.600	822
787.704	80
787.809	1188
787.913	1487
788.017	352
788.122	707
788.226	901
788.330	642
788.435	969
788.539	1474
788.643	1130
788.747	932
788.852	578
788.956	874
789.060	628
789.164	1230
789.268	73
789.372	1163
789.476	1378
789.580	1504
789.684	219
789.788	1095
789.892	461
789.996	1904
790.100	162
790.204	499
790.308	1135
790.412	187
790.516	985
790.620	1228
790.724	267
790.828	1389
790.931	383
791.035	2377
791.139	697
791.242	-316
791.346	1287
791.450	924
791.554	152
791.657	273
791.761	1867
791.864	1445
791.968	1341
792.072	1657
792.175	1014
792.279	1227
792.382	1830
792.486	610
792.589	846
792.693	1785
792.796	313
792.899	1595
793.003	1761
793.106	122
793.209	916
793.313	1992
793.416	435
793.519	2411
793.623	2297
793.726	2389
793.829	1079
793.932	2136
794.035	146
794.138	2221
794.242	2527
794.345	3158
794.448	4714
794.551	13510
794.654	48284
794.757	72412
794.860	10156
794.963	1469
795.066	1186
795.169	1961
795.272	865
795.375	497
795.477	220
795.580	1255
795.683	382
795.786	371
795.889	-1046
795.991	1896
796.094	445
796.197	361
796.300	1052
796.402	522
796.505	-112
796.608	-276
796.710	916
796.813	-491
796.915	-109
797.018	616
797.120	81
797.223	-839
797.326	503
797.428	297
797.530	-773
797.633	623
797.735	696
797.838	304
797.940	912
798.042	-59
798.145	238
798.247	592
798.349	-825
798.452	1055
798.554	-21
798.656	-615
798.758	864
798.860	-262
798.962	-589
799.065	109
799.167	-122
799.269	1840
799.371	1211
799.473	698
799.575	446
799.677	118
799.779	2265
799.881	-94
799.983	1614
800.085	371
800.187	130
800.289	-877
800.390	-189
800.492	98
800.594	993
800.696	261
800.798	88
800.899	-642
801.001	-468
801.103	-287
801.205	-985
801.306	235
801.408	-763
801.509	243
801.611	685
801.713	488
801.814	-137
801.916	281
802.017	8
802.119	128
802.220	-323
802.322	-1216
802.423	1641
802.525	-1147
802.626	253
802.727	188
802.829	-25
802.930	-1882
803.031	1023
803.133	-311
803.234	-1324
803.335	313
803.436	-882
803.538	-121
803.639	-205
803.740	1172
803.841	-543
803.942	349
804.043	-233
804.144	-304
804.245	-247
804.346	-779
804.447	-699
804.548	744
804.649	868
804.750	-242
804.851	-414
804.952	-325
805.053	35
805.154	-187
805.255	492
805.355	-140
805.456	-615
805.557	-412
805.658	-1516
805.758	1159
805.859	-465
805.960	420
806.061	-555
806.161	-524
806.262	-110
806.362	-131
806.463	-105
806.564	-166
806.664	-168
806.765	-423
806.865	474
806.966	131
807.066	-333
807.166	297
807.267	976
807.367	-297
807.468	-92
807.568	-757
807.668	493
807.769	240
807.869	-13
807.969	-126
808.069	290
808.170	568
808.270	-27
808.370	989
808.470	-515
808.570	-428
808.670	-234
808.770	-778
808.870	-304
808.970	-10
809.070	-1033
809.170	5
809.271	271
809.370	-349
809.470	220
809.570	-182
809.670	-534
809.770	265
809.870	-67
809.970	-510
810.070	-595
810.169	-171
810.269	-1307
810.369	777
810.469	-160
810.568	-85
810.668	-256
810.768	-683
810.867	380
810.967	-699
811.066	421
811.166	-1178
811.265	370
811.365	-45
811.464	-506
811.564	176
811.663	-560
811.763	-1711
811.862	96
811.962	-531
812.061	-412
812.160	-884
812.260	351
812.359	-410
812.458	338
812.557	3776
812.657	2978
812.756	904
812.855	-432
812.954	-1041
813.053	278
813.153	-245
813.252	-1141
813.351	-224
813.450	-486
813.549	106
813.648	-93
813.747	-236
813.846	-74
813.945	-247
814.044	-805
814.143	-987
814.242	-454
814.341	-592
814.439	217
814.538	416
814.637	-925
814.736	-1331
814.835	-293
814.933	-680
815.032	299
815.131	-375
815.229	-461
815.328	5
815.427	-511
815.525	516
815.624	-302
815.722	-113
815.821	200
815.919	-134
816.018	-809
816.116	752
816.215	-94
816.313	23
816.412	-540
816.510	-215
816.609	783
816.707	912
816.805	856
816.904	-708
817.002	162
817.100	781
817.198	967
817.296	-418
817.395	208
817.493	1638
817.591	31
817.689	2233
817.787	1100
817.885	4616
817.983	10153
818.081	24344
818.179	62733
818.277	160950
818.375	122607
818.473	28726
818.571	10091
818.669	7213
818.767	7733
818.865	7084
818.963	6562
819.061	11215
819.158	22803
819.256	54489
819.354	137446
819.452	297844
819.549	164166
819.647	37053
819.745	11812
819.842	7809
819.940	5277
820.038	4051
820.135	2661
820.233	2992
820.330	966
820.428	-61
820.525	1502
820.623	619
820.720	-442
820.818	1048
820.915	756
821.012	3207
821.110	-102
821.207	994
821.304	-128
821.402	1675
821.499	1962
821.596	5957
821.693	2848
821.791	1261
821.888	1053
821.985	1563
822.082	479
822.179	1289
822.276	1683
822.373	601
822.470	-1144
822.567	448
822.664	-503
822.761	685
822.858	-858
822.955	80
823.052	340
823.149	-787
823.246	-819
823.343	-108
823.440	-158
823.536	-507
823.633	-1
823.730	-777
823.827	174
823.923	-737
824.020	1101
824.117	-7
824.213	999
824.310	1074
824.407	-85
824.503	480
824.600	-682
824.696	-501
824.793	731
824.889	-839
824.986	-927
825.082	-817
825.179	-570
825.275	-1129
825.371	-1382
825.468	168
825.564	-1122
825.660	-590
825.757	-630
825.853	715
825.949	-986
826.045	-394
826.142	-581
826.238	-1035
826.334	403
826.430	-803
826.526	-125
826.622	-1517
826.718	-47
826.814	-926
826.910	-604
827.006	-1397
827.102	-805
827.198	-948
827.294	-1270
827.390	-210
827.486	-1024
827.582	-872
827.678	-1340
827.774	-132
827.869	-927
827.965	719
828.061	-867
828.157	-854
828.252	-373
828.348	-1209
828.444	64
828.539	-1612
828.635	-715
828.731	-126
828.826	-1185
828.922	23
829.017	-1570
829.113	-34
829.208	-1010
829.304	-1668
829.399	242
829.495	-1553
829.590	89
829.685	-1226
829.781	-647
829.876	-1062
829.971	-902
830.066	-737
830.162	-526
830.257	-807
830.352	-1009
830.447	-50
830.543	-131
830.638	-1721
830.733	13
830.828	-1062
830.923	252
831.018	-324
831.113	-579
831.208	-1177
831.303	-942
831.398	-18
831.493	-1587
831.588	-259
831.683	-1764
831.778	-14
831.873	-1171
831.967	37
832.062	-971
832.157	-1832
832.252	51
832.346	-1097
832.441	-161
832.536	-816
832.631	1627
832.725	820
832.820	-276
832.914	-863
833.009	-884
833.104	-89
833.198	18
833.293	-889
833.387	-1169
833.482	-951
833.576	-701
833.670	-261
833.765	-937
833.859	-1507
833.954	-227
834.048	-1167
834.142	-604
834.237	-1013
834.331	-897
834.425	-560
834.519	-1436
834.613	-195
834.708	-1127
834.802	-969
834.896	-1435
834.990	-610
835.084	561
835.178	-1633
835.272	-720
835.366	-1519
835.460	-1329
835.554	-775
835.648	-985
835.742	-802
835.836	-817
835.930	-2146
836.024	-931
836.117	-946
836.211	-1156
836.305	-796
836.399	-661
836.493	-2652
836.586	-1054
836.680	-1464
836.774	-1546
836.867	549
836.961	-1039
837.055	-911
837.148	-1181
837.242	-448
837.335	-745
837.429	-860
837.522	-1549
837.616	-1271
837.709	71
837.803	-1163
837.896	-679
837.989	-301
838.083	-524
838.176	-361
838.269	-1481
838.363	-695
838.456	-808
838.549	432
838.642	-591
838.735	1775
838.829	771
838.922	-1137
839.015	-820
839.108	-1827
839.201	-3
839.294	-979
839.387	-889
839.480	-1263
839.573	-1332
839.666	-672
839.759	-654
839.852	-2190
839.945	-89
840.038	-1246
840.131	-1042
840.223	-532
840.316	-61
840.409	-1061
840.502	-1900
840.594	335
840.687	-1681
840.780	-547
840.873	-1136
840.965	-1024
841.058	-366
841.150	78
841.243	-1135
841.336	-579
841.428	-883
841.521	-1122
841.613	-1404
841.706	-309
841.798	-592
841.890	-1084
841.983	-1088
842.075	-206
842.167	-1357
842.260	-1429
842.352	-408
842.444	-705
842.537	-205
842.629	260
842.721	-1071
842.813	-769
842.905	-1298
842.997	-189
843.090	-1256
843.182	-886
843.274	-688
843.366	557
843.458	692
843.550	877
843.642	-908
843.734	-1490
843.826	-1029
843.918	-102
844.009	-882
844.101	36
844.193	-1030
844.285	-45
844.377	507
844.469	2372
844.560	3653
844.652	3350
844.744	879
844.835	-430
844.927	-1431
845.019	-1168
845.110	-586
845.202	-604
845.293	-706
845.385	-1489
845.476	-655
845.568	7
845.659	-1376
845.751	-530
845.842	-1293
845.934	-926
846.025	-1331
846.116	-501
846.208	-1261
846.299	-1233
846.390	-1402
846.482	-1010
846.573	-347
846.664	-1103
846.755	-1338
846.846	-249
846.937	-1360
847.029	-193
847.120	-873
847.211	-965
847.302	-757
847.393	-2173
847.484	-386
847.575	-1459
847.666	-658
847.757	-977
847.847	-1161
847.938	-660
848.029	-712
848.120	-1400
848.211	-646
848.302	-490
848.392	-1596
848.483	-417
848.574	-1313
848.664	-1381
848.755	-1173
848.846	-540
848.936	-1738
849.027	-379
849.118	-1225
849.208	-1005
849.299	-611
849.389	-666
849.480	-342
849.570	480
849.661	1744
849.751	3913
849.841	735
849.932	-1564
850.022	-534
850.112	-97
850.203	-575
850.293	-738
850.383	-1311
850.474	-1133
850.564	-642
850.654	-1073
850.744	-1161
850.834	-1019
850.924	-1068
851.014	-182
851.104	-936
851.194	-697
851.284	-1005
851.374	-201
851.464	-1756
851.554	-1049
851.644	-695
851.734	-229
851.824	40
851.914	-320
852.004	-244
852.094	-184
852.183	-1062
852.273	-878
852.363	-645
852.452	-688
852.542	-1399
852.632	-426
852.721	-665
852.811	-1283
852.901	-766
852.990	-1193
853.080	-1860
853.169	-1341
853.259	-1456
853.348	-1697
853.438	-1028
853.527	-186
853.617	-203
853.706	477
853.795	1670
853.885	4485
853.974	11168
854.063	21906
854.152	37185
854.242	12932
854.331	332
854.420	-560
854.509	-764
854.598	-283
854.687	-666
854.777	-418
854.866	-325
854.955	-280
855.044	-1240
855.133	-403
855.222	-936
855.311	-1103
855.400	210
855.488	-550
855.577	-769
855.666	-99
855.755	71
855.844	-262
855.933	-664
856.021	-446
856.110	-645
856.199	-1674
856.288	-447
856.376	-519
856.465	-1589
856.554	-259
856.642	-839
856.731	-94
856.819	-1159
856.908	-1096
856.996	-1483
857.085	-1110
857.173	-1369
857.262	-941
857.350	-1086
857.438	-1578
857.527	-995
857.615	-695
857.703	-560
857.792	-739
857.880	-1206
857.968	-1913
858.056	-2108
858.145	-862
858.233	-1140
858.321	-1512
858.409	-626
858.497	-2056
858.585	-1399
858.673	-991
858.761	-957
858.849	-933
858.937	-716
859.025	-663
859.113	-870
859.201	-1150
859.289	-547
859.377	-93
859.465	-477
859.552	-141
859.640	-1669
859.728	-1836
859.816	-1800
859.903	-415
859.991	-2026
860.079	-706
860.166	-842
860.254	-700
860.342	-1699
860.429	-1122
860.517	-1492
860.604	-941
860.692	-946
860.779	-1548
860.867	-846
860.954	-404
861.042	-1052
861.129	-1380
861.216	-1583
861.304	-1369
861.391	-840
861.478	-996
861.565	-507
861.653	-53
861.740	-1884
861.827	-640
861.914	-1203
862.001	-1286
862.089	-668
862.176	-1000
862.263	-1326
862.350	-964
862.437	-969
862.524	-1102
862.611	-1115
862.698	-246
862.785	116
862.871	-30
862.958	-287
863.045	-948
863.132	-1624
863.219	-977
863.306	-1273
863.392	-1135
863.479	-1673
863.566	-705
863.652	-833
863.739	-1411
863.826	-1239
863.912	-842
863.999	-1817
864.086	-1207
864.172	-1527
864.259	-186
864.345	-864
864.432	-1166
864.518	-1806
864.604	-29
864.691	-737
864.777	-771
864.863	-996
864.950	-360
865.036	-963
865.122	-874
865.209	-72
865.295	-819
865.381	-765
865.467	-138
865.553	-479
865.639	-1012
865.726	-451
865.812	2215
865.898	4997
865.984	7244
866.070	14698
866.156	17599
866.242	3384
866.328	-379
866.414	-1261
866.499	53
866.585	-828
866.671	-325
866.757	-460
866.843	-727
866.928	-1835
867.014	-718
867.100	-1363
867.186	-2158
867.271	-846
867.357	-486
867.442	-281
867.528	-925
867.614	-1158
867.699	-196
867.785	2062
867.870	2923
867.956	3788
868.041	2466
868.127	375
868.212	1811
868.297	1839
868.383	101
868.468	42
868.553	1230
868.639	-258
868.724	1153
868.809	787
868.894	-646
868.979	-1337
869.065	-1485
869.150	-2021
869.235	-1427
869.320	-1070
869.405	-1499
869.490	-917
869.575	-939
869.660	-1638
869.745	-1411
869.830	-931
869.915	-970
870.000	-1313
870.085	-713
870.169	-666
870.254	-14
870.339	-964
870.424	-1559
870.509	-1224
870.593	-451
870.678	-734
870.763	-690
870.847	-1077
870.932	-1064
871.016	-174
871.101	-48
871.186	-558
871.270	-510
871.355	-1267
871.439	-913
871.523	-830
871.608	-272
871.692	-373
871.777	-332
871.861	-983
871.945	-1030
872.030	-973
872.114	-1211
872.198	-1612
872.282	-1555
872.367	-1339
872.451	-1237
872.535	-468
872.619	-708
872.703	-1521
872.787	-616
872.871	-1045
872.955	-1631
873.039	-1367
873.123	-860
873.207	-948
873.291	-1805
873.375	-1685
873.459	-947
873.543	-1345
873.627	-816
873.711	-1556
873.794	-653
873.878	-1148
873.962	-1052
874.045	-1003
874.129	-498
874.137	-550
874.213	-1074
874.245	-926
874.296	-682
874.352	-1231
874.380	-1505
874.460	-1322
874.464	-1315
874.547	-1613
874.568	-1339
874.631	-538
874.676	-1004
874.714	-1387
874.784	-1779
874.798	-1857
874.881	-685
874.892	-729
874.965	-1026
874.999	-789
875.048	-470
875.107	-385
875.131	-368
875.215	-547
875.215	-547
875.298	-440
875.323	-824
875.381	-1784
875.430	-1444
875.465	-1151
875.538	-863
875.548	-846
875.631	-1300
875.646	-1390
875.714	-1768
875.753	-1736
875.798	-1700
875.861	-1242
875.881	-1083
875.964	-1061
875.968	-1063
876.047	-1173
876.076	-1026
876.130	-720
876.183	-1252
876.213	-1552
876.291	-1113
876.296	-1086
876.379	-1243
876.398	-1325
876.462	-1569
876.506	-1200
876.545	-842
876.613	-1122
876.628	-1219
876.711	-1649
876.721	-1506
876.794	-200
876.828	-456
876.877	-855
876.935	-964
876.960	-1011
877.043	-380
877.043	-381
877.125	-474
877.150	-251
877.208	272
877.258	-196
877.291	-492
877.365	-93
877.374	-56
877.456	-632
877.472	-596
877.539	-348
877.579	-509
877.622	-770
877.687	-355
877.704	-214
877.787	-909
877.794	-866
877.869	-442
877.901	-556
877.952	-708
878.008	-1102
878.034	-1318
878.115	-1203
878.117	-1197
878.199	-1220
878.222	-1118
878.282	-700
878.329	-343
878.364	-274
878.437	-511
878.447	-512
878.529	-1204
878.544	-1078
878.611	-514
878.651	-861
878.694	-1116
878.758	-522
878.776	-397
878.858	-570
878.865	-573
878.941	-818
878.972	-933
879.023	-1018
879.078	-741
879.105	-534
879.185	-1135
879.187	-1149
879.269	-522
879.292	-586
879.351	-806
879.399	-924
879.433	-905
879.506	-270
879.516	-212
879.598	-972
879.613	-944
879.680	-721
879.720	-574
879.762	-383
879.827	-506
879.844	-594
879.926	-138
879.933	-196
880.007	-524
880.040	-654
880.089	-874
880.147	-509
880.171	-398
880.253	-1177
880.254	-1176
880.335	-691
880.360	-572
880.417	-52
880.467	799
880.499	1387
880.574	1692
880.580	1648
880.662	-547
880.680	-528
880.744	-321
880.787	-679
880.825	-805
880.893	-527
880.907	-512
880.989	-386
881.000	-420
881.070	-470
881.106	-534
881.152	-529
881.213	-251
881.233	-286
881.315	-924
881.319	-917
881.396	-65
881.426	-67
881.478	-753
881.532	-1236
881.559	-1141
881.639	-807
881.641	-807
881.722	-329
881.745	-532
881.803	-690
881.852	-336
881.885	-364
881.958	-522
881.966	-464
882.047	-211
882.064	-131
882.129	-430
882.171	-449
882.210	-83
882.277	212
882.291	179
882.372	-70
882.383	-137
882.454	-641
882.489	-795
882.535	-883
882.596	-799
882.616	-691
882.697	-478
882.702	-466
882.778	-200
882.808	-141
882.859	-346
882.914	-496
882.940	-552
883.020	-375
883.021	-369
883.102	-514
883.127	-531
883.183	-857
883.233	-1094
883.264	-943
883.339	-452
883.345	-454
883.426	-810
883.445	-762
883.507	-189
883.551	-159
883.587	-327
883.657	-141
883.668	-104
883.749	-420
883.763	-466
883.830	-598
883.869	-580
883.910	-667
883.975	-841
883.991	-782
884.072	-470
884.081	-469
884.152	-686
884.187	-574
884.233	-441
884.292	-425
884.314	-398
884.394	-463
884.398	-471
884.475	-498
884.504	-436
884.555	-482
884.610	-755
884.636	-695
884.716	-319
884.716	-316
884.797	-210
884.821	-350
884.877	-187
884.927	23
884.958	-77
885.033	-306
885.038	-290
885.118	-269
885.139	-194
885.199	-475
885.244	-705
885.279	-538
885.350	-372
885.359	-425
885.439	-804
885.456	-884
885.520	-444
885.561	-77
885.600	3
885.667	-182
885.680	-134
885.760	221
885.773	295
885.840	-17
885.878	-186
885.920	-26
885.984	-25
886.000	-144
886.080	-425
886.089	-461
886.160	-133
886.195	7
886.240	-109
886.300	-543
886.320	-505
886.400	64
886.406	102
886.480	-142
886.511	-440
886.560	-456
886.616	-272
886.640	-221
886.720	179
886.722	177
886.800	-327
886.827	-481
886.879	-485
886.932	-406
886.959	-107
887.038	514
887.039	514
887.119	114
887.143	-60
887.198	9
887.248	183
887.278	62
887.354	-568
887.358	-534
887.437	405
887.459	592
887.517	-113
887.564	-722
887.596	-545
887.669	37
887.676	52
887.755	111
887.774	72
887.835	-46
887.880	84
887.914	-45
887.985	-643
887.994	-580
888.073	97
888.090	230
888.153	163
888.195	83
888.232	201
888.300	550
888.311	556
888.391	369
888.405	340
888.470	-156
888.510	-456
888.549	-141
888.615	397
888.628	426
888.708	507
888.720	518
888.787	20
888.825	-256
888.866	-65
888.930	171
888.945	214
889.024	479
889.035	508
889.103	97
889.140	-127
889.182	-18
889.245	125
889.261	290
889.340	1062
889.349	1149
889.419	82
889.454	-469
889.498	-222
889.559	126
889.577	109
889.656	29
889.664	22
889.735	657
889.768	957
889.814	497
889.873	-116
889.978	-165
890.083	973
890.187	504
890.292	-701
890.397	747
890.501	-84
890.606	224
890.710	-262
890.815	-579
890.919	-502
891.024	457
891.128	331
891.233	-77
891.337	39
891.442	-80
891.546	537
891.650	326
891.755	-508
891.859	864
891.963	517
892.068	-272
892.172	750
892.276	-639
892.380	-35
892.484	-249
892.589	124
892.693	899
892.797	-584
892.901	-148
893.005	-113
893.109	78
893.213	20
893.317	600
893.421	-652
893.525	398
893.629	294
893.733	0
893.837	-320
893.941	-308
894.045	232
894.148	408
894.252	479
894.356	-53
894.460	386
894.564	-395
894.667	-273
894.771	410
894.875	37
894.978	-779
895.082	-23
895.186	191
895.289	14
895.393	1021
895.496	-48
895.600	-900
895.703	-104
895.807	-471
895.910	-4
896.014	329
896.117	112
896.221	799
896.324	414
896.427	-383
896.531	-693
896.634	472
896.737	-696
896.840	-101
896.944	-66
897.047	193
897.150	384
897.253	-695
897.356	441
897.460	-587
897.563	285
897.666	-445
897.769	-973
897.872	-397
897.975	303
898.078	-694
898.181	48
898.284	814
898.387	-855
898.490	240
898.593	153
898.695	-224
898.798	-224
898.901	-293
899.004	295
899.107	279
899.209	-172
899.312	590
899.415	-437
899.518	-8
899.620	124
899.723	-266
899.826	710
899.928	35
900.031	-630
900.133	395
900.236	-466
900.338	104
900.441	17
900.543	-400
900.646	-431
900.748	-515
900.851	-49
900.953	-496
901.055	-348
901.158	-553
901.260	-595
901.362	0
901.465	389
901.567	-242
901.669	74
901.771	355
901.873	88
901.976	18
902.078	-608
902.180	168
902.282	-796
902.384	-618
902.486	-645
902.588	11
902.690	-74
902.792	-333
902.894	-31
902.996	-547
903.098	-465
903.200	534
903.302	-429
903.404	239
903.505	-393
903.607	703
903.709	690
903.811	-154
903.913	-346
904.014	49
904.116	-200
904.218	-581
904.319	579
904.421	1695
904.523	760
904.624	591
904.726	97
904.827	292
904.929	1312
905.030	-327
905.132	130
905.233	502
905.335	-2
905.436	222
905.537	-332
905.639	823
905.740	-109
905.841	-189
905.943	489
906.044	1446
906.145	1103
906.247	-188
906.348	-114
906.449	-106
906.550	-236
906.651	162
906.752	-897
906.854	69
906.955	238
907.056	-121
907.157	-427
907.258	107
907.359	-536
907.460	-23
907.561	-817
907.662	-13
907.762	-900
907.863	-178
907.964	-235
908.065	-520
908.166	-820
908.267	358
908.367	-446
908.468	-196
908.569	-30
908.670	190
908.770	-356
908.871	-167
908.971	239
909.072	300
909.173	-626
909.273	-391
909.374	-198
909.474	-560
909.575	-67
909.675	-247
909.776	-902
909.876	-140
909.977	-225
910.077	396
910.177	-132
910.278	415
910.378	-664
910.478	-456
910.579	408
910.679	-117
910.779	278
910.879	689
910.980	12
911.080	670
911.180	-427
911.280	-183
911.380	245
911.480	-243
911.580	-732
911.680	-159
911.780	-290
911.880	360
911.980	-574
912.080	186
912.180	-110
912.280	21
912.380	-642
912.480	-721
912.580	-234
912.679	-309
912.779	-169
912.879	56
912.979	-326
913.078	190
913.178	-535
913.278	215
913.377	46
913.477	272
913.577	-165
913.676	549
913.776	-283
913.875	493
913.975	-89
914.074	-493
914.174	-429
914.273	-1089
914.373	578
914.472	44
914.572	-266
914.671	-150
914.770	69
914.870	-390
914.969	-522
915.068	-267
915.167	365
915.267	14
915.366	-199
915.465	-668
915.564	-450
915.663	-206
915.763	176
915.862	512
915.961	9
916.060	-77
916.159	-356
916.258	-27
916.357	-532
916.456	-125
916.555	-203
916.654	-218
916.752	-657
916.851	-681
916.950	193
917.049	-999
917.148	-40
917.247	-11
917.345	-411
917.444	-1101
917.543	46
917.642	116
917.740	460
917.839	70
917.937	-580
918.036	63
918.135	-323
918.233	-50
918.332	-278
918.430	101
918.529	189
918.627	246
918.726	478
918.824	-337
918.923	-316
919.021	-425
919.119	367
919.218	-89
919.316	-365
919.414	179
919.512	-432
919.611	-430
919.709	195
919.807	394
919.905	-525
920.003	-1177
920.102	-550
920.200	-698
920.298	-151
920.396	-103
920.494	-1013
920.592	-153
920.690	-21
920.788	89
920.886	-59
920.984	-141
921.082	-24
921.180	238
921.277	-268
921.375	-138
921.473	48
921.571	-961
921.669	-1205
921.766	-352
921.864	138
921.962	-651
922.060	23
922.157	-505
922.255	194
922.352	-364
922.450	418
922.548	-722
922.645	179
922.743	-285
922.840	-312
922.938	357
923.035	180
923.133	329
923.230	-301
923.327	-466
923.425	423
923.522	293
923.619	-968
923.717	-854
923.814	-687
923.911	291
924.008	35
924.106	-585
924.203	-1173
924.300	-244
924.397	371
924.494	694
924.591	-267
924.688	-731
924.786	-191
924.883	-140
924.979	-864
925.077	-151
925.173	153
925.270	-178
925.367	72
925.464	333
925.561	-190
925.658	-845
925.755	-114
925.852	448
925.948	376
926.045	382
926.142	1361
926.239	969
926.335	1668
926.432	1446
926.529	1796
926.625	2504
926.722	1331
926.818	511
926.915	65
927.011	508
927.108	-157
927.204	857
927.301	-181
927.397	-419
927.494	-459
927.590	-47
927.687	-670
927.783	362
927.879	-791
927.976	-803
928.072	-597
928.168	-255
928.264	-705
928.361	72
928.457	-536
928.553	-432
928.649	-597
928.745	-17
928.841	35
928.937	448
929.033	-433
929.129	-220
929.225	-464
929.321	-477
929.417	-701
929.513	-873
929.609	-720
929.705	301
929.801	-335
929.897	-724
929.993	-676
930.089	-404
930.184	67
930.280	-1063
930.376	-906
930.471	-104
930.567	-581
930.663	-232
930.758	-793
930.854	-890
930.950	-651
931.045	-872
931.141	62
931.236	-250
931.332	-278
931.427	465
931.523	-545
931.618	-230
931.714	-1025
931.809	141
931.905	-636
932.000	107
932.095	-459
932.191	-716
932.286	257
932.381	-420
932.476	-422
932.572	-84
932.667	-310
932.762	-385
932.857	-101
932.952	-104
933.047	-725
933.142	-336
933.237	-242
933.332	-934
933.427	-292
933.522	-486
933.617	-1049
933.712	-181
933.807	220
933.902	-1233
933.997	-32
934.092	-433
934.187	-268
934.282	-551
934.376	-144
934.471	-180
934.566	-1278
934.661	-340
934.755	-1140
934.850	-176
934.945	-957
935.039	-839
935.134	-240
935.228	84
935.323	-390
935.417	112
935.512	-866
935.606	-739
935.701	535
935.795	-570
935.890	-676
935.984	-635
936.079	-479
936.173	-650
936.267	-33
936.362	656
936.456	-61
936.550	-491
936.644	-513
936.738	95
936.833	-382
936.927	-237
937.021	-653
937.115	-750
937.209	-1152
937.303	242
937.397	-19
937.491	-3
937.585	-278
937.679	-988
937.773	-941
937.867	-843
937.961	-237
938.055	-355
938.149	-737
938.243	-39
938.337	-552
938.430	182
938.524	733
938.618	1879
938.712	1491
938.805	309
938.899	17
938.993	355
939.086	864
939.180	2071
939.274	3611
939.367	550
939.461	23
939.554	-314
939.648	-168
939.741	-58
939.835	-242
939.928	-604
940.022	-259
940.115	-343
940.208	-228
940.302	197
940.395	-163
940.488	-844
940.582	-770
940.675	-1182
940.768	-107
940.861	115
940.954	-6
941.048	-1051
941.141	-349
941.234	-795
941.327	-654
941.420	55
941.513	30
941.606	-724
941.699	106
941.792	-712
941.885	-350
941.978	269
942.071	-843
942.164	-942
942.257	-682
942.349	409
942.442	-856
942.535	-941
942.628	-555
942.721	-1020
942.813	-1575
942.906	-408
942.999	-1092
943.091	-921
943.184	-962
943.277	-322
943.369	-449
943.462	-121
943.554	-617
943.647	-921
943.739	-9
943.832	-203
943.924	-1428
944.017	104
944.109	-1735
944.201	367
944.294	-441
944.386	-405
944.478	-978
944.571	8
944.663	-846
944.755	-585
944.847	362
944.940	162
945.032	-1192
945.124	-181
945.216	-366
945.308	-229
945.400	168
945.492	-642
945.584	-343
945.676	-555
945.768	54
945.860	349
945.952	229
946.044	-124
946.136	-400
946.228	126
946.320	-257
946.412	-667
946.503	-285
946.595	-50
946.687	45
946.779	-446
946.870	-412
946.962	-1281
947.054	-1305
947.145	-100
947.237	-156
947.329	-520
947.420	-1139
947.512	-775
947.603	-438
947.695	204
947.786	-820
947.878	-659
947.969	-886
948.061	-1141
948.152	-1017
948.243	-138
948.335	21
948.426	-478
948.517	-1303
948.609	-108
948.700	-246
948.791	-142
948.882	602
948.973	223
949.065	-549
949.156	-255
949.247	-1491
949.338	-362
949.429	-1289
949.520	-558
949.611	-342
949.702	-600
949.793	-909
949.884	-636
949.975	-1046
950.066	-382
950.157	-414
950.247	-723
950.338	-1490
950.429	-268
950.520	-509
950.611	-558
950.701	-922
950.792	-792
950.883	-364
950.973	-456
951.064	-379
951.155	-542
951.245	-352
951.336	-692
951.427	-654
951.517	-762
951.608	-66
951.698	-998
951.788	-1179
951.879	-665
951.969	-1258
952.060	-772
952.150	-1286
952.240	-28
952.331	-1724
952.421	567
952.511	-472
952.602	221
952.692	-1328
952.782	92
952.872	-1038
952.962	-199
953.052	-927
953.143	-571
953.233	-414
953.323	-984
953.413	-1710
953.503	-369
953.593	-118
953.683	-743
953.773	-1387
953.863	210
953.953	-910
954.042	-672
954.132	-269
954.222	19
954.312	-1274
954.402	-948
954.492	106
954.581	-60
954.671	-1471
954.761	-1663
954.850	-423
954.940	-580
955.030	-303
955.119	-520
955.209	201
955.298	-1616
955.388	-647
955.477	-98
955.567	-1046
955.656	-370
955.746	608
955.835	-411
955.925	-1181
956.014	-658
956.103	-245
956.193	-938
956.282	-574
956.371	112
956.461	-497
956.550	-933
956.639	-779
956.728	-1384
956.817	-1039
956.906	-946
956.995	-376
957.085	-660
957.174	-783
957.263	-820
957.352	-601
957.441	-592
957.530	-442
957.619	-710
957.708	-212
957.796	-334
957.885	-1419
957.974	-461
958.063	422
958.152	-848
958.241	-686
958.329	-300
958.418	-531
958.507	-974
958.596	125
958.684	-1060
958.773	-352
958.861	-870
958.950	-426
959.039	-650
959.127	-1089
959.216	-43
959.304	-1079
959.393	-150
959.481	22
959.570	18
959.658	-1082
959.746	-995
959.835	-81
959.923	-506
960.011	-1260
960.100	-214
960.188	-653
960.276	-735
960.365	-695
960.453	-629
960.541	-1325
960.629	-246
960.717	-30
960.805	-1736
960.893	88
960.981	-1285
961.069	-799
961.158	-376
961.245	-221
961.333	-676
961.421	-1419
961.509	-428
961.597	96
961.685	-502
961.773	-611
961.861	-555
961.949	-321
962.036	-1450
962.124	9
962.212	-504
962.299	-817
962.387	-727
962.475	-608
962.562	-1416
962.650	-441
962.738	-930
962.825	-576
962.913	-920
963.000	-1083
963.088	-633
963.175	-236
963.263	208
963.350	-1021
963.438	-1124
963.525	-1606
963.612	352
963.700	-927
963.787	86
963.874	-745
963.962	-1060
964.049	-530
964.136	-1208
964.223	-1205
964.310	-313
964.398	-890
964.485	-1458
964.572	-974
964.659	-729
964.746	-1308
964.833	-874
964.920	-901
965.007	-104
965.094	-496
965.181	-968
965.268	-480
965.355	-773
965.441	-1186
965.528	-1590
965.615	-259
965.702	-333
965.789	-1213
965.875	-808
965.962	-534
966.049	-1412
966.136	-741
966.222	-1442
966.309	-1128
966.395	-1112
966.482	-757
966.569	-1428
966.655	-1284
966.742	-627
966.828	-414
966.915	-1023
967.001	-298
967.087	-744
967.174	-964
967.260	-370
967.347	-226
967.433	-859
967.519	-660
967.605	-1384
967.692	-1879
967.778	-38
967.864	-1255
967.950	-534
968.036	-1139
968.123	-1151
968.209	-1518
968.295	-1518
968.381	-407
968.467	-679
968.553	-1764
968.639	-265
968.725	-1904
968.811	-448
968.897	-1481
968.983	-1135
969.069	-1667
969.154	-699
969.240	-1088
969.326	-1436
969.412	-788
969.497	-1275
969.583	-1122
969.669	-275
969.755	-539
969.840	-1414
969.926	-1025
970.012	-775
970.097	-532
970.183	-1700
970.268	-1354
970.354	-38
970.439	-1300
970.525	775
970.610	-2023
970.696	-697
970.781	-1134
970.866	-1338
970.952	-1195
971.037	-1289
971.122	-2111
971.208	-680
971.293	-539
971.378	-1346
971.463	-878
971.549	-984
971.634	-1318
971.719	-1657
971.804	-1416
971.889	33
971.974	-1378
972.059	-1060
972.144	-811
972.229	-1085
972.314	-1796
972.399	-912
972.484	-985
972.569	-380
972.654	-1463
972.739	-854
972.824	-986
972.908	-856
972.993	-1357
973.078	-1324
973.163	-518
973.247	-984
973.332	-2594
973.417	-6
973.501	-2384
973.586	-1326
973.671	-1306
973.755	-422
973.840	-1305
973.924	-1089
974.009	-1268
974.093	-1526
974.178	-1242
974.262	-648
974.346	-828
974.431	-675
974.515	-1413
974.600	-762
974.684	-1274
974.768	-2038
974.852	-1007
974.937	-2013
975.021	-752
975.105	-1712
975.189	-1756
975.273	-1453
975.358	-1234
975.442	-1943
975.526	-458
975.610	-1885
975.694	-1969
975.778	-928
975.862	-1242
975.946	-3594
976.030	-339
976.114	-1361
976.198	-1534
976.281	-1930
976.365	-617
976.449	-1549
976.533	-597
976.617	-1626
976.700	-1559
976.784	-1748
976.868	-1944
976.951	-638
977.035	-1897
977.119	-1814
977.202	-1536
977.286	-1580
977.369	-1785
977.453	-434
977.536	-1474
977.620	-2313
977.703	-935
977.787	-2210
977.870	-829
977.953	-418
978.037	-2260
978.120	-1084
978.203	-2534
978.287	-1104
978.370	-2427
978.453	-1356
978.536	-1142
978.620	-922
978.703	-1486
978.786	-1166
978.869	-2559
978.952	-2603
979.035	-236
979.118	-1204
979.201	-1785
979.284	-1285
979.367	-2126
979.450	-825
979.533	-1925
979.616	-2041
979.699	-2310
979.782	-942
979.865	-1260
979.948	-946
980.030	-1992
980.113	-1665
980.196	-2451
980.279	-759
980.361	-1926
980.444	-1556
980.526	-1476
980.609	-949
980.692	-1703
980.774	-1620
980.857	-2342
980.939	-892
981.022	-2302
981.104	-1580
981.187	-1646
981.269	-1705
981.352	-1928
981.434	-1998
981.516	-2077
981.599	-284
981.681	-1607
981.763	-1333
981.846	-766
981.928	-1538
982.010	-2509
982.092	-2092
982.174	-1177
982.256	-2050
982.339	-1729
982.421	-1064
982.503	-1005
982.585	-1775
982.667	-1823
982.749	-1548
982.831	-764
982.913	-2443
982.995	-246
983.077	-1852
983.158	-936
983.240	-2023
983.322	-1178
983.404	-1637
983.486	-2339
983.568	-1203
983.649	-1244
983.731	-1358
983.813	-2098
983.894	-1961
983.976	-2297
984.058	-1602
984.139	-875
984.221	-2046
984.302	-1453
984.384	-1503
984.465	-2371
984.547	-468
984.628	-1483
984.710	-855
984.791	-1744
984.872	-1671
984.954	-1581
985.035	-1774
985.116	-1864
985.198	-1706
985.279	-482
985.360	-1498
985.441	-2463
985.522	-1646
985.604	-2053
985.685	-2982
985.766	-533
985.847	167
985.928	-1598
986.009	-2106
986.090	-1775
986.171	-1071
986.252	-1633
986.333	-2110
986.414	-1230
986.495	-959
986.576	-2162
986.656	-1451
986.737	-1340
986.818	-1405
986.899	-1321
986.980	-1748
987.060	-368
987.141	-2039
987.222	-1867
987.302	-1223
987.383	-985
987.464	-1754
987.544	-2231
987.625	-1573
987.705	-1278
987.786	-1516
987.866	-1592
987.947	-2220
988.027	-1817
988.108	-1526
988.188	-1069
988.268	-1555
988.349	-1520
988.429	-1932
988.509	-1317
988.589	-2008
988.670	-2474
988.750	-747
988.830	-1105
988.910	-1939
988.990	-1383
989.070	-2276
989.151	-1456
989.231	-2348
989.311	-1690
989.391	-1417
989.471	-2314
989.551	-1728
989.631	-2111
989.711	-1223
989.791	-2193
989.870	-1765
989.950	-1625
990.030	-2419
990.110	-1916
990.190	-2374
990.269	-2462
990.349	-1669
990.429	-1886
990.509	-1461
990.588	-2069
990.668	-2224
990.747	-1592
990.827	-1806
990.907	-1237
990.986	-2046
991.066	-466
991.145	-1694
991.225	-1068
991.304	-2067
991.383	-1540
991.463	-1806
991.542	-1375
991.622	-1149
991.701	-2376
991.780	-2211
991.859	-1257
991.939	-1660
992.018	-1239
992.097	-1218
992.176	-1028
992.256	-1154
992.335	-2044
992.414	-1859
992.493	-2347
992.572	-1838
992.651	-771
992.730	-1461
992.809	-1542
992.888	-1918
992.967	-1806
993.046	-1116
993.125	-2438
993.203	-1583
993.282	-1530
993.361	-1444
993.440	-1394
993.519	-2383
993.597	-1236
993.676	-1725
993.755	-1518
993.834	-1030
993.912	-2472
993.991	-544
994.069	-2492
994.148	-1968
994.226	-2783
994.305	-1587
994.384	-2568
994.462	-853
994.540	-2150
994.619	-1476
994.697	-2059
994.776	-1477
994.854	-1588
994.932	-1550
995.011	-1634
995.089	-2447
995.167	-1111
995.245	-1368
995.324	-2270
995.402	-1268
995.480	-1929
995.558	-1097
995.636	-2965
995.714	-1337
995.792	-968
995.870	-1209
995.948	-1503
996.026	-2238
996.104	-2602
996.182	-1193
996.260	-1687
996.338	-903
996.416	-2912
996.494	-2050
996.572	-2040
996.649	-2414
996.727	-2629
996.805	-946
996.883	-1575
996.960	-2467
997.038	-1437
997.116	-2382
997.193	-1989
997.271	-838
997.348	-1407
997.426	-1569
997.504	-1791
997.581	-869
997.658	-1576
997.736	-1685
997.813	-2037
997.891	-909
997.968	-1677
998.046	-1712
998.123	-1813
998.200	-1472
998.277	-2451
998.355	-1009
998.432	-2839
998.509	-1955
998.586	-949
998.663	-1425
998.741	-1735
998.818	-1756
998.895	-2196
998.972	-804
999.049	-1361
999.126	-1359
999.203	-969
999.280	-1083
999.357	-1819
999.434	-835
999.511	-1398
999.587	-712
999.664	-2554
999.741	-1428
999.818	-766
999.895	-1448
999.971	-1647
1000.048	-1709
1000.125	-1271
1000.202	-1797
1000.278	-1970
1000.355	-627
1000.431	-1424
1000.508	-1566
1000.584	-2011
1000.661	-1674
1000.738	-3059
1000.814	-1186
1000.890	-1601
1000.967	-1325
1001.043	-1708
1001.120	-2613
1001.196	-1965
1001.272	-1950
1001.349	-1879
1001.425	-1737
1001.501	-2048
1001.577	-1989
1001.654	-1187
1001.730	-1924
1001.806	-1575
1001.882	-2657
1001.958	-729
1002.034	-883
1002.110	-1395
1002.186	-1115
1002.262	-1520
1002.338	-1523
1002.414	-595
1002.490	-1748
1002.566	-1417
1002.642	-2887
1002.718	-1534
1002.794	-2037
1002.870	-1898
1002.945	-1397
1003.021	-1896
1003.097	-1959
1003.173	-1456
1003.248	-1835
1003.324	-1284
1003.400	-1625
1003.475	-1868
1003.551	-2525
1003.626	-1225
1003.702	-1059
1003.777	-1320
1003.853	-1955
1003.928	-2411
1004.004	-1965
1004.079	-1334
1004.155	-1955
1004.230	-2534
1004.305	-493
1004.381	-2260
1004.456	-2157
1004.531	-1731
1004.607	-1716
1004.682	-1993
1004.757	-1640
1004.832	-1755
1004.907	-1710
1004.982	-1805
1005.057	-1458
1005.133	-1919
1005.208	-2012
1005.283	-1966
1005.358	-882
1005.433	-2255
1005.508	-1599
1005.583	-2544
1005.657	-1306
1005.732	-1231
1005.807	-2315
1005.882	-1839
1005.957	-1532
1006.032	-1811
1006.106	-1168
1006.181	-1896
1006.256	-2059
1006.331	-3124
1006.405	-2608
1006.480	-1497
1006.554	-1854
1006.629	-2031
1006.704	-2228
1006.778	-537
1006.853	-750
1006.927	-2268
1007.002	-1932
1007.076	-2505
1007.150	-1406
1007.225	-2572
1007.299	-1232
1007.373	-1486
1007.448	-1398
1007.522	-1885
1007.596	-1790
1007.671	-2508
1007.745	-1200
1007.819	-2268
1007.893	-1231
1007.967	-2058
1008.041	-2489
1008.115	-464
1008.190	-2035
1008.264	-1511
1008.338	-2640
1008.412	-2111
1008.486	-1968
1008.560	-1702
1008.633	-2042
1008.707	-2451
1008.781	-1785
1008.855	-1710
1008.929	-1630
1009.003	-2282
1009.076	-1951
1009.150	-1895
1009.224	-1307
1009.298	-1864
1009.371	-2304
1009.445	-1300
1009.519	-1840
1009.592	-2494
1009.666	-1678
1009.739	-1447
1009.813	-3178
1009.886	-354
1009.960	-2029
1010.033	-1542
1010.107	-1104
1010.180	-2032
1010.253	-1338
1010.327	-2601
1010.400	-1948
1010.473	-2376
1010.547	-644
1010.620	-2185
1010.693	-1848
1010.766	-2333
1010.840	-1252
1010.913	-1701
1010.986	-2136
1011.059	-1557
1011.132	-1347
1011.205	-2054
1011.278	-1463
1011.351	-1549
1011.424	-1813
1011.497	-2286
1011.570	-1901
1011.643	-2118
1011.716	-1751
1011.789	-2393
1011.862	-1383
1011.934	-1733
1012.007	-2491
1012.080	-2224
1012.153	-1252
1012.225	-1415
1012.298	-2543
1012.371	-2581
1012.443	-924
1012.516	-2129
1012.588	-2572
1012.661	-1581
1012.733	-1965
1012.806	-1580
1012.879	-1699
1012.951	-2022
1013.023	-1866
1013.096	-1943
1013.168	-2143
1013.241	-1333
1013.313	-2830
1013.385	-2350
1013.458	-1858
1013.530	-2280
1013.602	-2895
1013.674	-1253
1013.746	-2270
1013.819	-2706
1013.891	-1864
1013.963	-2493
1014.035	-1754
1014.107	-2584
1014.179	-2038
1014.251	-2425
1014.323	-2275
1014.395	-2064
1014.467	-1983
1014.539	-1519
1014.611	-2113
1014.683	-2080
1014.754	-2348
1014.826	-2763
1014.898	-1936
1014.970	-2409
1015.042	-1082
1015.113	-1832
1015.185	-2236
1015.257	-2985
1015.328	-2765
1015.400	-2507
1015.471	-2030
1015.543	-2433
1015.615	-2019
1015.686	-2066
1015.757	-2154
1015.829	-2315
1015.901	-2348
1015.972	-2520
1016.043	-2145
1016.115	-1356
1016.186	-1820
1016.257	-3217
1016.328	-1760
1016.400	-2274
1016.471	-2697
1016.542	-1561
1016.613	-2104
1016.685	-2136
1016.756	-1992
1016.827	-2365
1016.898	-2198
1016.969	-1729
1017.040	-2298
1017.111	-2844
1017.182	-1945
1017.253	-2172
1017.324	-2428
1017.395	-2330
1017.466	-1833
1017.537	-2980
1017.608	-1935
1017.678	-2646
1017.749	-2045
1017.820	-2112
1017.891	-2233
1017.961	-2686
1018.032	-2189
1018.103	-1637
1018.173	-1431
1018.244	-2803
1018.315	-2980
1018.385	-1739
1018.456	-2403
1018.526	-2907
1018.597	-1778
1018.667	-2776
1018.738	-2413
1018.808	-2402
1018.878	-1593
1018.949	-2375
1019.019	-1738
1019.089	-2346
1019.160	-2140
1019.230	-2689
1019.300	-1910
1019.371	-2211
1019.441	-2188
1019.511	-2267
1019.581	-2196
1019.651	-2192
1019.721	-2020
1019.791	-2218
1019.861	-1912
1019.931	-2630
1020.001	-1947
1020.071	-2081
1020.141	-1642
1020.211	-1705
1020.281	-3199
1020.351	-2472
1020.421	-2332
1020.491	-1810
1020.560	-2661
1020.630	-1891
1020.700	-2182
1020.770	-2213
1020.839	-1633
1020.909	-2003
1020.979	-2284
1021.048	-2377
1021.118	-2600
1021.187	-2238
1021.257	-2858
1021.326	-1284
1021.396	-2165
1021.465	-1374
1021.535	-2678
1021.604	-3475
1021.674	-2357
1021.743	-2694
1021.812	-2467
1021.882	-2666
1021.951	-2074
1022.020	-2779
1022.089	-2400
1022.159	-2957
1022.228	-1765
1022.297	-2636
1022.366	-2079
1022.435	-2421
1022.504	-1742
1022.573	-3356
1022.642	-2638
1022.711	-2986
1022.781	-2130
1022.849	-2380
1022.918	-2854
1022.987	-2396
1023.056	-2801
1023.125	-1734
1023.194	-1966
1023.263	-2122
1023.331	-1721
1023.400	-2431
1023.469	-2713
1023.538	-1898
1023.606	-2985
1023.675	-2587
1023.744	-2187
1023.812	-2668
1023.881	-2409
1023.949	-1724
1024.018	-3053
1024.086	-2669
1024.155	-1642
1024.223	-2658
1024.292	-2415
1024.360	-2016
1024.429	-1817
1024.497	-2774
1024.565	-2390
1024.634	-2368
1024.702	-2281
1024.770	-2467
1024.838	-2734
1024.907	-2701
1024.975	-2598
1025.043	-2619
1025.111	-2809
1025.179	-2200
1025.247	-2584
1025.315	-2479
1025.383	-2523
1025.451	-1853
1025.519	-2746
1025.587	-2540
1025.655	-2747
1025.723	-2381
1025.791	-2319
1025.859	-2350
1025.927	-2696
1025.995	-2389
1026.062	-2725
1026.130	-2017
1026.198	-2074
1026.266	-2777
1026.333	-2023
1026.401	-2320
1026.469	-2562
1026.536	-2669
1026.604	-2509
1026.671	-1668
1026.739	-2848
1026.806	-2252
1026.874	-2906
1026.941	-2063
1027.009	-2542
1027.076	-2905
1027.144	-1695
1027.211	-2427
1027.278	-2304
1027.345	-2117
1027.413	-1878
1027.480	-2132
1027.547	-2180
1027.614	-2497
1027.682	-2108
1027.749	-2454
1027.816	-1613
1027.883	-2346
1027.950	-2108
1028.017	-2118
1028.084	-2100
1028.151	-3182
1028.218	-1290
1028.285	-2809
1028.352	-2593
1028.419	-2385
1028.486	-2153
1028.553	-1525
1028.619	-2623
1028.686	-2375
1028.753	-1810
1028.820	-2630
1028.886	-2338
1028.953	-2740
1029.020	-2770
1029.086	-3167
1029.153	-2925
1029.220	-2550
1029.286	-2481
1029.353	-2210
1029.419	-2189
1029.486	-2073
1029.552	-1989
1029.619	-2830
1029.685	-2959
1029.751	-2459
1029.818	-2400
1029.884	-2867
1029.951	-1501
1030.017	-2566
1030.083	-2637
1030.149	-2506
1030.216	-3112
1030.282	-2249
1030.348	-2738
1030.414	-2386
1030.480	-1975
1030.546	-2749
1030.612	-2188
1030.678	-1790
1030.744	-2417
1030.810	-2647
1030.876	-2786
1030.942	-3000
1031.008	-2372
1031.074	-2863
1031.140	-2927
1031.206	-2276
1031.272	-1999
1031.337	-2592
1031.403	-2061
1031.469	-2034
1031.534	-2035
1031.600	-2173
1031.666	-2543
1031.731	-2830
1031.797	-2067
1031.863	-2820
1031.928	-2131
1031.994	-2847
1032.059	-2347
1032.125	-2821
1032.190	-2381
1032.256	-2529
1032.321	-2395
1032.386	-3275
1032.452	-2240
1032.517	-2277
1032.582	-2008
1032.647	-2302
1032.713	-2467
1032.778	-2611
1032.843	-2798
1032.908	-2969
1032.974	-2282
1033.039	-2634
1033.104	-1874
1033.169	-2915
1033.234	-1957
1033.299	-2605
1033.364	-2368
1033.429	-3070
1033.494	-2288
1033.559	-2406
1033.624	-2619
1033.688	-2456
1033.753	-2779
1033.818	-2250
1033.883	-1798
1033.948	-3224
1034.013	-1826
1034.077	-2918
1034.142	-2469
1034.207	-2907
1034.271	-2445
1034.336	-2244
1034.400	-2066
1034.465	-2850
1034.530	-3308
1034.594	-2255
1034.658	-3038
1034.723	-2745
1034.787	-2502
1034.852	-2145
1034.916	-2162
1034.981	-2496
1035.045	-2368
1035.109	-2870
1035.173	-1382
1035.238	-3531
1035.302	-2879
1035.366	-3249
1035.430	-2361
1035.495	-2310
1035.559	-1992
1035.623	-2763
1035.687	-3142
1035.751	-2421
1035.815	-1786
1035.879	-2439
1035.943	-2593
1036.007	-2559
1036.071	-2739
1036.135	-1659
1036.198	-2308
1036.262	-3241
1036.326	-2086
1036.390	-3224
1036.454	-2028
1036.517	-2984
1036.581	-3149
1036.645	-2763
1036.709	-2760
1036.772	-2277
1036.836	-2483
1036.900	-2809
1036.963	-2708
1037.026	-2756
1037.090	-2461
1037.154	-3339
1037.217	-2276
1037.280	-3271
1037.344	-2139
1037.407	-3003
1037.471	-2795
1037.534	-2018
1037.597	-2314
1037.661	-2686
1037.724	-2584
1037.787	-2900
1037.850	-3072
1037.913	-2896
1037.977	-2658
1038.040	-3761
1038.103	-2989
1038.166	-3006
1038.229	-2779
1038.292	-3285
1038.355	-2570
1038.418	-3081
1038.481	-2837
1038.544	-2611
1038.607	-2395
1038.670	-2400
1038.732	-2567
1038.795	-3497
1038.858	-3089
1038.921	-2849
1038.984	-2334
1039.046	-2915
1039.109	-2417
1039.172	-2866
1039.234	-3221
1039.297	-3276
1039.360	-2237
1039.422	-2673
1039.485	-2454
1039.547	-3686
1039.610	-2173
1039.672	-3300
1039.734	-2791
1039.797	-2344
1039.859	-2125
1039.922	-2765
1039.984	-2495
1040.046	-3101
1040.109	-2889
1040.171	-3206
1040.233	-2832
1040.295	-3586
1040.358	-2422
1040.420	-1850
1040.482	-2759
1040.544	-2886
1040.606	-2627
1040.668	-2355
1040.730	-2882
1040.792	-2902
1040.854	-2559
1040.916	-3457
1040.978	-2771
1041.040	-2702
1041.102	-2356
1041.164	-3045
1041.225	-3144
1041.287	-2472
1041.349	-3166
1041.411	-2692
1041.472	-2913
1041.534	-2161
1041.596	-2716
1041.657	-2695
1041.719	-2577
1041.781	-2774
1041.842	-2702
1041.904	-3132
1041.965	-2446
1042.027	-3414
1042.088	-3027
1042.150	-2879
1042.211	-1859
1042.272	-2039
1042.334	-3086
1042.395	-3201
1042.456	-3086
1042.518	-2658
1042.579	-2551
1042.640	-3336
1042.701	-2600
1042.763	-2428
1042.824	-3344
1042.885	-3033
1042.946	-2711
1043.007	-2988
1043.068	-3123
1043.129	-2622
1043.190	-3026
1043.251	-3039
1043.312	-3757
1043.373	-3446
1043.434	-3052
1043.495	-2929
1043.556	-2606
1043.616	-2978
1043.677	-2868
1043.738	-2340
1043.799	-2574
1043.859	-2504
1043.920	-2919
1043.981	-3100
1044.041	-2117
1044.102	-3269
1044.162	-3573
1044.223	-3779
1044.284	-2552
1044.344	-2824
1044.405	-2813
1044.465	-2529
1044.525	-3165
1044.586	-2666
1044.646	-2560
1044.707	-3790
1044.767	-2456
1044.827	-3112
1044.887	-3173
1044.948	-2962
1045.008	-2426
1045.068	-2602
1045.128	-2901
1045.188	-3310
1045.249	-1830
1045.309	-2774
1045.369	-2002
1045.429	-3810
1045.489	-2496
1045.549	-2886
1045.609	-2336
1045.669	-2739
1045.729	-2573
1045.789	-2637
1045.848	-2262
1045.908	-2229
1045.968	-1922
1046.028	-2013
1046.088	-2203
1046.147	-2108
1046.207	-1978
1046.267	-2638
1046.326	-1951
1046.386	-2429
1046.446	-1724
1046.505	-1732
1046.565	-1887
1046.624	-1413
1046.684	-1495
1046.743	-1632
1046.803	-1371
1046.862	-2032
1046.922	0
