'Start Wavelength	183.907
'End Wavelength	1046.922
'Gate Delay	5.000
'Gate Width (ms)	1.050
'Laser Output Level	0.000
'X Position	0.000
'Y Position	0.000
'Z Position	0.000
'Grid Point Number	1.000
'Shot Number	100.000
183.907	191.000
183.977	23.000
184.047	-500
184.116	662
184.186	128
184.256	-165
184.325	-568
184.395	-324
184.465	285
184.534	898
184.604	-548
184.674	1107
184.743	-402
184.813	201
184.883	-713
184.952	205
185.022	-211
185.092	-204
185.161	-281
185.231	275
185.301	155
185.370	1384
185.440	73
185.509	-166
185.579	368
185.649	725
185.718	-214
185.788	599
185.857	-523
185.927	-228
185.996	-77
186.066	-302
186.136	-677
186.205	604
186.275	-13
186.344	-223
186.414	97
186.483	143
186.553	349
186.622	1183
186.692	-209
186.761	18
186.831	-436
186.900	171
186.970	-13
187.039	523
187.109	927
187.178	516
187.248	-341
187.317	321
187.387	-919
187.456	348
187.526	-689
187.595	79
187.664	-806
187.734	511
187.803	-702
187.873	596
187.942	602
188.012	-144
188.081	-263
188.150	792
188.220	329
188.289	1019
188.358	-126
188.428	600
188.497	-640
188.567	697
188.636	-309
188.705	341
188.775	-501
188.844	72
188.913	668
188.983	63
189.052	803
189.121	-348
189.191	-135
189.260	482
189.329	-1100
189.399	782
189.468	108
189.537	266
189.606	286
189.676	1142
189.745	8
189.814	-164
189.883	-409
189.953	-359
190.022	-154
190.091	1317
190.161	592
190.230	341
190.299	-1053
190.368	-399
190.437	-540
190.507	-406
190.576	-306
190.645	406
190.714	-281
190.783	173
190.853	-85
190.922	51
190.991	197
191.060	906
191.129	-391
191.198	200
191.268	-229
191.337	-208
191.406	832
191.475	109
191.544	-565
191.613	574
191.682	-724
191.752	-367
191.821	-733
191.890	339
191.959	-6
192.028	371
192.097	224
192.166	470
192.235	-428
192.304	1059
192.373	-272
192.442	516
192.511	-201
192.580	331
192.650	227
192.719	-79
192.788	-562
192.857	53
192.926	-1139
192.995	364
193.064	-218
193.133	576
193.202	28
193.271	28
193.340	792
193.409	785
193.478	82
193.547	648
193.615	62
193.684	712
193.753	528
193.822	1215
193.891	-187
193.960	128
194.029	55
194.098	41
194.167	-358
194.236	1170
194.305	188
194.374	304
194.443	115
194.512	220
194.580	232
194.649	903
194.718	-219
194.787	236
194.856	-243
194.925	471
194.994	-59
195.062	342
195.131	332
195.200	38
195.269	-305
195.338	171
195.407	356
195.475	-278
195.544	669
195.613	148
195.682	41
195.751	1097
195.819	244
195.888	268
195.957	626
196.026	-176
196.094	427
196.163	506
196.232	-46
196.301	280
196.369	-229
196.438	616
196.507	-298
196.576	-171
196.644	-344
196.713	515
196.782	-478
196.850	645
196.919	7
196.988	-31
197.056	-843
197.125	674
197.194	-136
197.262	-310
197.331	-25
197.400	-83
197.468	-1110
197.537	242
197.606	-378
197.674	-296
197.743	-457
197.812	-333
197.880	390
197.949	-606
198.017	115
198.086	548
198.155	-447
198.223	709
198.292	-206
198.360	-223
198.429	-195
198.497	421
198.566	-323
198.635	909
198.703	-184
198.772	399
198.840	72
198.909	931
198.977	-583
199.046	281
199.114	-90
199.183	378
199.251	134
199.320	-497
199.388	-201
199.457	143
199.525	-363
199.594	8
199.662	-500
199.731	410
199.799	-115
199.867	-170
199.936	-473
200.004	25
200.073	193
200.141	242
200.210	-14
200.278	44
200.346	-444
200.415	59
200.483	7
200.552	713
200.620	-484
200.688	793
200.757	-26
200.825	179
200.893	68
200.962	653
201.030	-285
201.098	459
201.167	-64
201.235	283
201.303	112
201.372	220
201.440	-122
201.508	422
201.577	-206
201.645	-225
201.713	-612
201.781	215
201.850	323
201.918	343
201.986	140
202.055	823
202.123	-352
202.191	184
202.259	-198
202.327	267
202.396	522
202.464	-311
202.532	-147
202.600	1865
202.669	358
202.737	332
202.805	-162
202.873	-6
202.941	416
203.009	214
203.078	-273
203.146	1045
203.214	-15
203.282	65
203.350	-215
203.418	-107
203.487	402
203.555	-238
203.623	-550
203.691	-96
203.759	100
203.827	-209
203.895	-507
203.963	137
204.031	-431
204.099	-91
204.168	142
204.236	919
204.304	284
204.372	108
204.440	-211
204.508	716
204.576	-244
204.644	781
204.712	-866
204.780	792
204.848	-437
204.916	364
204.984	-190
205.052	445
205.120	-200
205.188	-98
205.256	-489
205.324	143
205.392	-372
205.460	1055
205.528	-359
205.596	330
205.664	248
205.732	-132
205.799	538
205.867	862
205.935	-301
206.003	1158
206.071	-499
206.139	-124
206.207	79
206.275	162
206.343	-359
206.411	12
206.478	-355
206.546	1120
206.614	-5
206.682	478
206.750	-513
206.818	573
206.885	281
206.953	-376
207.021	931
207.089	916
207.157	-552
207.225	169
207.292	-535
207.360	-64
207.428	-114
207.496	-224
207.563	-232
207.631	-357
207.699	56
207.767	719
207.834	-698
207.902	255
207.970	-914
208.038	491
208.105	-378
208.173	101
208.241	-146
208.309	574
208.376	-46
208.444	1311
208.512	313
208.579	-387
208.647	57
208.715	252
208.782	-30
208.850	670
208.918	290
208.985	37
209.053	63
209.120	693
209.188	-1069
209.256	445
209.323	-28
209.391	101
209.459	846
209.526	1267
209.594	-224
209.661	477
209.729	12
209.796	860
209.864	-234
209.932	-161
209.999	334
210.067	1517
210.134	-177
210.202	647
210.269	1142
210.337	555
210.404	41
210.472	437
210.539	444
210.607	293
210.674	605
210.742	774
210.809	-12
210.877	486
210.944	398
211.012	99
211.079	806
211.146	523
211.214	-406
211.281	914
211.349	100
211.416	937
211.484	161
211.551	907
211.618	295
211.686	611
211.753	-216
211.821	18
211.888	-227
211.955	239
212.023	432
212.090	184
212.157	-563
212.225	864
212.292	244
212.359	1321
212.427	3191
212.494	1869
212.561	-111
212.629	1317
212.696	144
212.763	830
212.831	176
212.898	1037
212.965	792
213.032	571
213.100	-173
213.167	544
213.234	460
213.301	449
213.369	107
213.436	711
213.503	-111
213.570	813
213.638	-221
213.705	532
213.772	-773
213.839	184
213.906	284
213.973	1613
214.041	-695
214.108	412
214.175	260
214.242	507
214.309	530
214.376	1049
214.444	-127
214.511	397
214.578	107
214.645	-248
214.712	590
214.779	250
214.846	126
214.913	591
214.980	57
215.048	782
215.115	799
215.182	427
215.249	427
215.316	257
215.383	-309
215.450	-348
215.517	310
215.584	794
215.651	480
215.718	230
215.785	579
215.852	639
215.919	471
215.986	727
216.053	703
216.120	713
216.187	306
216.254	959
216.321	263
216.388	2021
216.455	674
216.522	674
216.589	497
216.656	1760
216.722	698
216.789	1348
216.856	463
216.923	1203
216.990	508
217.057	1035
217.124	957
217.191	-98
217.258	940
217.324	993
217.391	558
217.458	1398
217.525	321
217.592	668
217.659	-1296
217.725	1480
217.792	-123
217.859	1261
217.926	-324
217.993	891
218.059	-27
218.126	792
218.193	-9
218.260	387
218.327	8
218.393	3
218.460	71
218.527	232
218.594	975
218.660	244
218.727	684
218.794	748
218.860	613
218.927	736
218.994	-719
219.061	-602
219.127	507
219.194	1579
219.261	92
219.327	859
219.394	-133
219.461	-238
219.527	71
219.594	406
219.661	649
219.727	-128
219.794	75
219.860	-232
219.927	-73
219.994	426
220.060	1807
220.127	2131
220.193	913
220.260	911
220.326	384
220.393	850
220.460	1408
220.526	1339
220.593	12
220.659	1892
220.726	815
220.792	2126
220.859	1427
220.925	2940
220.992	3121
221.058	2767
221.125	2136
221.191	2061
221.258	60
221.324	1333
221.391	-166
221.457	587
221.524	-24
221.590	752
221.657	2272
221.723	1726
221.789	822
221.856	1619
221.922	516
221.989	1243
222.055	-129
222.121	-420
222.188	1317
222.254	950
222.321	-640
222.387	131
222.453	52
222.520	438
222.586	-659
222.652	1018
222.719	-64
222.785	1131
222.851	-244
222.918	-69
222.984	12
223.050	828
223.116	-1068
223.183	1416
223.249	-339
223.315	515
223.382	-187
223.448	481
223.514	-375
223.580	160
223.647	-219
223.713	237
223.779	119
223.845	-328
223.911	5
223.978	662
224.044	377
224.110	248
224.176	-623
224.242	-210
224.309	-651
224.375	537
224.441	10
224.507	220
224.573	-612
224.639	1348
224.705	-782
224.772	367
224.838	1072
224.904	16
224.970	667
225.036	1051
225.102	93
225.168	898
225.234	758
225.300	295
225.366	-175
225.432	343
225.499	532
225.565	347
225.631	-436
225.697	519
225.763	-36
225.829	506
225.895	455
225.961	1143
226.027	1142
226.093	470
226.159	1753
226.225	1211
226.291	3201
226.357	6656
226.423	3133
226.489	1901
226.554	716
226.620	1355
226.686	622
226.752	2648
226.818	3866
226.884	7011
226.950	5662
227.016	2918
227.082	1900
227.148	989
227.214	1516
227.279	782
227.345	975
227.411	1229
227.477	189
227.543	1613
227.609	1265
227.674	2261
227.740	546
227.806	1175
227.872	-815
227.938	980
228.003	725
228.069	1382
228.135	-348
228.201	1034
228.267	72
228.332	309
228.398	-843
228.464	1794
228.530	-28
228.595	563
228.661	-621
228.727	828
228.792	1253
228.858	297
228.924	-956
228.990	2570
229.055	-281
229.121	1034
229.187	-4
229.252	60
229.318	-125
229.384	836
229.449	289
229.515	-1469
229.581	-895
229.646	1715
229.712	5
229.777	1185
229.843	1072
229.909	2118
229.974	1222
230.040	1172
230.105	1196
230.171	578
230.236	1017
230.302	1502
230.368	1247
230.433	367
230.499	485
230.564	1698
230.630	-71
230.695	983
230.761	1122
230.826	-886
230.892	1682
230.957	212
231.023	80
231.088	814
231.154	-179
231.219	1418
231.284	-112
231.350	975
231.415	-160
231.481	812
231.546	169
231.612	982
231.677	-124
231.742	-658
231.808	1114
231.873	-234
231.939	-1152
232.004	2465
232.069	1569
232.135	182
232.200	-345
232.265	1109
232.331	-280
232.396	398
232.461	-1185
232.527	-12
232.592	-1070
232.657	248
232.723	249
232.788	-214
232.853	607
232.918	1114
232.984	-249
233.049	-26
233.114	-253
233.179	991
233.245	1055
233.310	1720
233.375	-541
233.440	777
233.506	-596
233.571	-150
233.636	407
233.701	454
233.766	-123
233.832	1707
233.897	-449
233.962	-372
234.027	1683
234.092	533
234.157	-224
234.222	780
234.288	-32
234.353	2119
234.418	2224
234.483	2787
234.548	974
234.613	1056
234.678	702
234.743	1207
234.808	3367
234.873	1196
234.938	1913
235.004	919
235.069	563
235.134	356
235.199	1544
235.264	1190
235.329	-512
235.394	1031
235.459	399
235.524	270
235.589	859
235.654	311
235.719	-842
235.784	905
235.849	-31
235.913	1437
235.978	1438
236.043	1776
236.108	1350
236.173	901
236.238	970
236.303	526
236.368	-161
236.433	1412
236.498	1028
236.563	1605
236.627	2556
236.692	10043
236.757	8521
236.822	3817
236.887	1368
236.952	2458
237.017	-171
237.081	2674
237.146	1895
237.211	4600
237.276	9259
237.341	14811
237.405	6802
237.470	3387
237.535	1542
237.600	2327
237.664	1925
237.729	620
237.794	191
237.859	3896
237.923	2101
237.988	1250
238.053	1063
238.118	1059
238.182	2481
238.247	3379
238.312	-412
238.376	1969
238.441	-805
238.506	1916
238.570	-1422
238.635	1747
238.700	884
238.764	1228
238.829	1701
238.893	698
238.958	1604
239.023	1633
239.087	109
239.152	1296
239.216	-311
239.281	543
239.346	282
239.410	895
239.475	-698
239.539	3234
239.604	658
239.668	1272
239.733	134
239.797	1076
239.862	3253
239.926	2954
239.991	1180
240.055	1630
240.120	-355
240.184	1344
240.249	-117
240.313	688
240.378	103
240.442	1604
240.507	2718
240.571	954
240.635	-179
240.700	1186
240.764	929
240.829	624
240.893	-438
240.957	758
241.022	1682
241.086	4108
241.151	425
241.215	-186
241.279	894
241.344	1264
241.408	311
241.472	-83
241.537	1282
241.601	1530
241.665	-812
241.730	867
241.794	1358
241.858	1169
241.922	-221
241.987	1521
242.051	454
242.115	272
242.179	436
242.244	1153
242.308	1233
242.372	847
242.436	-85
242.501	752
242.565	-364
242.629	38
242.693	863
242.757	273
242.822	1014
242.886	1507
242.950	149
243.014	1237
243.078	768
243.142	1581
243.206	343
243.271	1049
243.335	189
243.399	1145
243.463	2630
243.527	9945
243.591	2728
243.655	2073
243.719	-40
243.783	1687
243.847	2091
243.911	3001
243.975	3144
244.040	1747
244.104	2036
244.168	819
244.232	1069
244.296	2476
244.360	1323
244.424	1395
244.488	-14
244.552	1570
244.615	-971
244.679	685
244.743	253
244.807	170
244.871	788
244.935	1566
244.999	-416
245.063	997
245.127	536
245.191	2145
245.255	525
245.319	1901
245.383	264
245.446	1914
245.510	-88
245.574	875
245.638	761
245.702	-50
245.766	2411
245.829	2178
245.893	1
245.957	531
246.021	1963
246.085	831
246.149	1278
246.212	5467
246.276	5940
246.340	2763
246.404	1413
246.467	2563
246.531	1153
246.595	2351
246.659	2263
246.722	565
246.786	2064
246.850	2343
246.913	2288
246.977	735
247.041	998
247.104	2106
247.168	1303
247.232	3659
247.295	7946
247.359	4712
247.423	1376
247.486	5178
247.550	3342
247.614	1548
247.677	2342
247.741	2233
247.804	1149
247.868	2473
247.932	1917
247.995	8140
248.059	2793
248.122	424
248.186	2356
248.249	4512
248.313	12878
248.376	14115
248.440	8512
248.503	3026
248.567	3637
248.630	3395
248.694	5917
248.757	7939
248.821	14068
248.884	10688
248.948	7229
249.011	12266
249.075	14963
249.138	14281
249.202	6368
249.265	4221
249.328	3227
249.392	2805
249.455	2745
249.519	1197
249.582	1783
249.645	4951
249.709	2591
249.772	1613
249.835	2071
249.899	1992
249.962	1827
250.025	1531
250.089	4344
250.152	7992
250.215	3584
250.279	2137
250.342	2557
250.405	2362
250.468	1418
250.532	2782
250.595	3757
250.658	9508
250.721	17459
250.785	6801
250.848	5467
250.911	1996
250.974	2501
251.038	3004
251.101	7911
251.164	4332
251.227	4267
251.290	3697
251.354	4369
251.417	15192
251.480	14755
251.543	10025
251.606	26358
251.669	20917
251.732	9348
251.795	10186
251.859	10722
251.922	16855
251.985	10914
252.048	5460
252.111	3788
252.174	2814
252.237	7592
252.300	16341
252.363	14613
252.426	24589
252.489	11228
252.552	6371
252.615	3156
252.678	6132
252.741	11796
252.804	12221
252.867	23381
252.930	17648
252.993	10707
253.056	6936
253.119	4486
253.182	2982
253.245	3958
253.308	4963
253.371	3333
253.434	4270
253.497	3094
253.559	7488
253.622	5083
253.685	7017
253.748	6950
253.811	3883
253.874	4150
253.937	3372
254.000	2602
254.062	5452
254.125	8430
254.188	7939
254.251	6712
254.314	2986
254.376	5463
254.439	6591
254.502	5639
254.565	5457
254.628	10475
254.690	6597
254.753	2548
254.816	2178
254.878	2590
254.941	5571
255.004	5948
255.067	3157
255.129	1757
255.192	2532
255.255	12
255.317	1812
255.380	1066
255.443	130
255.505	79
255.568	-147
255.631	411
255.693	662
255.756	-435
255.819	1519
255.881	-212
255.944	1184
256.006	-383
256.069	1206
256.132	758
256.194	733
256.257	2634
256.319	2749
256.382	1047
256.444	1621
256.507	1501
256.569	910
256.632	484
256.694	1343
256.757	4803
256.819	16368
256.882	5998
256.944	2823
257.007	2094
257.069	2397
257.132	855
257.194	2256
257.257	521
257.319	673
257.381	701
257.444	4680
257.506	16791
257.569	20648
257.631	7735
257.693	5503
257.756	1671
257.818	1885
257.880	915
257.943	1687
258.005	-102
258.067	780
258.130	262
258.192	1858
258.254	3248
258.317	1818
258.379	1623
258.441	3807
258.503	5021
258.566	3626
258.628	4513
258.690	1578
258.753	1862
258.815	3711
258.877	1211
258.939	1461
259.001	1480
259.064	702
259.126	402
259.188	2132
259.250	1189
259.312	1056
259.375	1964
259.437	2167
259.499	1054
259.561	1178
259.623	757
259.685	1592
259.747	524
259.809	2661
259.872	5062
259.934	8623
259.996	9957
260.058	3413
260.120	-139
260.182	1520
260.244	452
260.306	1003
260.368	960
260.430	-165
260.492	2910
260.554	4850
260.616	2730
260.678	5078
260.740	4949
260.802	1772
260.864	1757
260.926	1198
260.988	1581
261.050	1528
261.112	2781
261.174	8222
261.236	4999
261.298	1765
261.359	2325
261.421	4585
261.483	51
261.545	1641
261.607	-1026
261.669	1110
261.731	1081
261.793	4429
261.854	2086
261.916	1902
261.978	588
262.040	1426
262.102	1150
262.164	980
262.225	888
262.287	1527
262.349	2310
262.411	2959
262.472	1848
262.534	1081
262.596	2510
262.658	1536
262.719	-278
262.781	1556
262.843	2219
262.904	1418
262.966	1442
263.028	1561
263.090	4661
263.151	15273
263.213	6261
263.275	4835
263.336	918
263.398	1882
263.459	-565
263.521	1148
263.583	2635
263.644	2835
263.706	665
263.767	1037
263.829	102
263.891	53
263.952	-270
264.014	-374
264.075	382
264.137	4800
264.198	2630
264.260	656
264.321	633
264.383	2112
264.444	6996
264.506	2659
264.567	215
264.629	2712
264.690	4124
264.752	2587
264.813	1365
264.875	662
264.936	984
264.998	394
265.059	138
265.120	856
265.182	520
265.243	6910
265.305	8232
265.366	2170
265.427	978
265.489	1324
265.550	-859
265.611	1518
265.673	418
265.734	964
265.795	155
265.857	78
265.918	430
265.979	2472
266.040	12396
266.102	12134
266.163	2696
266.224	2946
266.286	938
266.347	951
266.408	543
266.469	830
266.530	667
266.592	560
266.653	2167
266.714	4452
266.775	1205
266.836	706
266.898	-732
266.959	1660
267.020	743
267.081	1293
267.142	376
267.203	560
267.264	-765
267.326	1853
267.387	-523
267.448	254
267.509	897
267.570	-386
267.631	-11
267.692	-129
267.753	-14
267.814	290
267.875	1367
267.936	4377
267.997	1866
268.058	2081
268.119	6
268.180	901
268.241	287
268.302	927
268.363	86
268.424	951
268.485	403
268.546	479
268.607	-365
268.668	695
268.729	208
268.790	29
268.851	675
268.912	2691
268.972	3826
269.033	1900
269.094	531
269.155	629
269.216	11
269.277	215
269.338	485
269.398	466
269.459	110
269.520	1049
269.581	1995
269.642	3153
269.702	1004
269.763	706
269.824	565
269.885	1723
269.945	2059
270.006	742
270.067	116
270.128	512
270.188	-437
270.249	-541
270.310	-586
270.370	809
270.431	269
270.492	449
270.553	-400
270.613	2054
270.674	5231
270.734	2019
270.795	940
270.856	1922
270.916	684
270.977	567
271.038	1216
271.098	1635
271.159	2065
271.219	2451
271.280	72
271.340	1785
271.401	-280
271.462	1749
271.522	1742
271.583	1045
271.643	241
271.704	752
271.764	1235
271.825	3973
271.885	14028
271.946	20379
272.006	7693
272.066	7793
272.127	14293
272.187	4905
272.248	2300
272.308	2393
272.369	8457
272.429	6283
272.489	3857
272.550	5161
272.610	4014
272.671	3392
272.731	1734
272.791	3571
272.852	2236
272.912	2603
272.972	711
273.033	1400
273.093	2005
273.153	2686
273.214	1049
273.274	2486
273.334	6837
273.394	14525
273.455	6205
273.515	5700
273.575	11442
273.635	5914
273.696	5415
273.756	13379
273.816	5843
273.876	3734
273.936	3644
273.997	7937
274.057	1746
274.117	2847
274.177	3015
274.237	16531
274.297	14453
274.358	8418
274.418	10117
274.478	9627
274.538	2844
274.598	2075
274.658	5164
274.718	7754
274.778	3066
274.838	1851
274.898	2090
274.958	9401
275.018	11634
275.078	9591
275.138	3734
275.198	1977
275.258	1452
275.318	1410
275.378	3987
275.438	4977
275.498	2821
275.558	4911
275.618	10483
275.678	9635
275.738	6529
275.798	5014
275.858	1859
275.918	660
275.978	1072
276.038	2344
276.098	392
276.157	3189
276.217	10567
276.277	4935
276.337	2718
276.397	1763
276.457	1612
276.517	1713
276.576	200
276.636	942
276.696	1829
276.756	6027
276.815	4320
276.875	1522
276.935	1251
276.995	2312
277.055	1163
277.114	1585
277.174	2165
277.234	7901
277.293	3785
277.353	2737
277.413	1127
277.472	1575
277.532	1754
277.592	2721
277.651	6784
277.711	14648
277.771	3382
277.830	14915
277.890	14274
277.950	8080
278.009	23455
278.069	10943
278.128	9013
278.188	14753
278.248	6099
278.307	13648
278.367	10246
278.426	2440
278.486	1250
278.545	530
278.605	697
278.664	774
278.724	1249
278.783	4502
278.843	13922
278.902	4850
278.962	2612
279.021	2690
279.081	2662
279.140	2931
279.199	1997
279.259	2498
279.318	2117
279.378	3749
279.437	5290
279.496	19360
279.556	48897
279.615	44931
279.675	13208
279.734	7927
279.793	9275
279.853	15120
279.912	5740
279.971	3730
280.031	2122
280.090	5681
280.149	10827
280.208	9051
280.268	33773
280.327	40120
280.386	9961
280.445	8131
280.505	7038
280.564	4542
280.623	2245
280.682	4546
280.742	7773
280.801	2765
280.860	1661
280.919	1007
280.978	683
281.037	1508
281.097	79
281.156	1254
281.215	282
281.274	1775
281.333	8003
281.392	7213
281.451	112
281.510	1293
281.569	579
281.628	1087
281.688	425
281.747	2120
281.806	995
281.865	1029
281.924	-19
281.983	726
282.042	456
282.101	738
282.160	342
282.219	888
282.278	1049
282.337	5261
282.396	3919
282.454	1429
282.513	1457
282.572	9388
282.631	6032
282.690	2261
282.749	526
282.808	1892
282.867	1383
282.926	1305
282.985	1461
283.043	909
283.102	729
283.161	1596
283.220	3548
283.279	10199
283.338	2794
283.396	2061
283.455	997
283.514	2392
283.573	3908
283.631	2483
283.690	746
283.749	1964
283.808	4339
283.866	5717
283.925	1144
283.984	2732
284.043	2931
284.101	3652
284.160	1625
284.219	2455
284.277	2700
284.336	4044
284.395	12709
284.453	12457
284.512	5024
284.570	6086
284.629	5161
284.688	5655
284.746	6013
284.805	7494
284.863	9296
284.922	13350
284.981	15025
285.039	22356
285.098	35591
285.156	65547
285.215	82429
285.273	79673
285.332	75349
285.390	48362
285.449	30158
285.507	20748
285.566	14367
285.624	11875
285.683	9795
285.741	7415
285.799	6007
285.858	5251
285.916	4283
285.975	4375
286.033	3128
286.091	2765
286.150	2176
286.208	2733
286.267	2270
286.325	2442
286.383	3936
286.442	4816
286.500	1866
286.558	2006
286.616	1779
286.675	3273
286.733	1850
286.791	2731
286.850	2444
286.908	2751
286.966	5408
287.024	2568
287.083	1187
287.141	1514
287.199	1017
287.257	3152
287.315	1564
287.374	2110
287.432	5232
287.490	4365
287.548	1890
287.606	2022
287.664	1468
287.723	2952
287.781	3699
287.839	1962
287.897	1284
287.955	2279
288.013	2747
288.071	7358
288.129	25642
288.187	75717
288.245	38860
288.303	12066
288.361	6079
288.419	4026
288.477	2586
288.535	1629
288.593	785
288.651	1433
288.709	-65
288.767	1325
288.825	679
288.883	1308
288.941	782
288.999	978
289.057	24
289.115	320
289.173	1031
289.231	1406
289.289	196
289.346	1872
289.404	1558
289.462	2262
289.520	3465
289.578	1476
289.636	-225
289.694	528
289.751	293
289.809	360
289.867	560
289.925	1393
289.983	2327
290.040	1156
290.098	609
290.156	311
290.214	1256
290.271	1581
290.329	155
290.387	248
290.444	-264
290.502	-158
290.560	-47
290.617	455
290.675	67
290.733	224
290.790	1008
290.848	626
290.906	-72
290.963	1473
291.021	-156
291.078	1769
291.136	657
291.194	3914
291.251	10688
291.309	3662
291.366	903
291.424	1446
291.481	495
291.539	1268
291.596	445
291.654	54
291.711	162
291.769	1117
291.826	2212
291.884	3193
291.941	186
291.999	775
292.056	862
292.114	1843
292.171	-169
292.228	731
292.286	1579
292.343	3629
292.401	4117
292.458	2190
292.515	1166
292.573	1959
292.630	1628
292.687	1788
292.745	678
292.802	1647
292.859	5338
292.917	11983
292.974	7133
293.031	2092
293.089	1267
293.146	449
293.203	46
293.260	851
293.318	266
293.375	2301
293.432	1133
293.489	609
293.546	717
293.604	2034
293.661	6055
293.718	18575
293.775	10524
293.832	4926
293.889	3477
293.947	2378
294.004	1574
294.061	2781
294.118	4159
294.175	12067
294.232	13147
294.289	6756
294.346	2913
294.403	2886
294.460	1735
294.517	2310
294.574	1106
294.631	1673
294.688	2577
294.745	5895
294.802	18553
294.859	23353
294.916	8099
294.973	4700
295.030	3185
295.087	4527
295.144	1413
295.201	1884
295.258	1023
295.315	2138
295.372	6702
295.429	15545
295.486	7873
295.542	4301
295.599	8151
295.656	15741
295.713	9684
295.770	15087
295.827	6051
295.883	3348
295.940	2140
295.997	4617
296.054	4823
296.111	2236
296.167	1437
296.224	1197
296.281	473
296.338	1526
296.394	536
296.451	2225
296.508	5529
296.564	13967
296.621	9681
296.678	16118
296.734	25084
296.791	11997
296.848	5573
296.904	5226
296.961	12046
297.018	18618
297.074	13827
297.131	7116
297.187	3596
297.244	5880
297.301	14204
297.357	29324
297.414	11805
297.470	4832
297.527	3858
297.583	2069
297.640	2058
297.696	1812
297.753	1084
297.809	653
297.866	-217
297.922	1161
297.979	500
298.035	1472
298.092	3098
298.148	9102
298.204	11044
298.261	5387
298.317	7694
298.374	20800
298.430	14333
298.486	5935
298.543	4015
298.599	4968
298.656	6772
298.712	9220
298.768	14761
298.824	10788
298.881	4075
298.937	2520
298.993	1428
299.050	3067
299.106	2534
299.162	2223
299.218	3174
299.275	2359
299.331	2526
299.387	6078
299.443	16903
299.500	22115
299.556	9985
299.612	4596
299.668	2907
299.724	4907
299.780	4736
299.837	3529
299.893	4250
299.949	15543
300.005	21956
300.061	16842
300.117	27732
300.173	15827
300.229	6467
300.285	7576
300.341	10217
300.397	5403
300.453	2166
300.510	2949
300.566	2448
300.622	3962
300.678	7507
300.734	19323
300.790	17590
300.845	20631
300.901	12677
300.957	18332
301.013	15487
301.069	6574
301.125	3282
301.181	5091
301.237	2998
301.293	2070
301.349	1894
301.405	2771
301.461	2248
301.516	5742
301.572	4367
301.628	6192
301.684	5463
301.740	8752
301.796	14124
301.851	11072
301.907	14437
301.963	16713
302.019	20141
302.074	50440
302.130	55621
302.186	31614
302.242	12741
302.297	7727
302.353	6615
302.409	12348
302.464	13257
302.520	9392
302.576	18504
302.631	26015
302.687	15381
302.743	6892
302.798	3235
302.854	3016
302.910	3370
302.965	4497
303.021	7571
303.076	8881
303.132	8616
303.187	12391
303.243	6208
303.299	3341
303.354	1815
303.410	1523
303.465	2098
303.521	2076
303.576	1470
303.632	2841
303.687	5341
303.743	17209
303.798	15413
303.853	7476
303.909	3106
303.964	3306
304.020	4921
304.075	9131
304.130	7689
304.186	14254
304.241	15336
304.297	12729
304.352	6764
304.358	6429
304.407	3712
304.449	3028
304.463	2800
304.518	3064
304.539	2656
304.573	2010
304.629	3660
304.630	3669
304.684	4268
304.720	8991
304.739	11349
304.794	19947
304.811	17480
304.850	11523
304.902	5366
304.905	4974
304.960	2871
304.992	2390
305.015	2028
305.071	3408
305.083	3167
305.126	2306
305.173	1593
305.181	1480
305.236	1243
305.264	1536
305.292	1835
305.347	2335
305.354	2517
305.402	3682
305.445	3113
305.457	2948
305.512	4040
305.535	4110
305.567	4158
305.622	4658
305.626	4693
305.678	6345
305.716	13633
305.733	16278
305.788	21752
305.807	18908
305.843	14022
305.897	16255
305.898	16267
305.953	19214
305.988	12883
306.008	9387
306.063	6403
306.078	5634
306.118	3755
306.168	2533
306.173	2433
306.228	1797
306.259	1834
306.283	1852
306.338	1306
306.349	1395
306.393	1877
306.440	1944
306.448	1949
306.503	2658
306.530	2513
306.558	2740
306.613	6542
306.620	7151
306.668	11817
306.711	17213
306.723	17907
306.778	15932
306.801	12524
306.833	8645
306.888	4299
306.892	4161
306.943	2855
306.982	2056
306.997	1834
307.052	1950
307.072	1695
307.107	1386
307.162	2488
307.163	2503
307.217	3882
307.253	4593
307.272	4840
307.327	4984
307.343	4883
307.381	4663
307.434	3599
307.436	3654
307.491	7895
307.524	11621
307.546	12980
307.600	15770
307.614	14395
307.655	9137
307.704	5083
307.710	4864
307.765	3705
307.795	4492
307.819	5386
307.874	8800
307.885	8822
307.929	7645
307.975	6456
307.984	6481
308.038	8193
308.065	9772
308.093	15658
308.148	32710
308.156	36735
308.202	57865
308.246	74729
308.257	74577
308.312	44971
308.336	33208
308.366	24900
308.421	16707
308.426	15980
308.475	10646
308.517	7455
308.530	6726
308.585	5854
308.607	5338
308.639	4901
308.694	5234
308.697	5274
308.748	7425
308.787	10393
308.803	10686
308.857	9631
308.877	8486
308.912	7284
308.967	7024
308.967	7043
309.021	9776
309.058	12544
309.076	15534
309.130	27171
309.148	31771
309.185	51814
309.238	85754
309.239	85981
309.293	98581
309.328	94085
309.348	84061
309.402	44423
309.418	34806
309.457	24526
309.508	15809
309.511	15499
309.566	14775
309.598	14826
309.620	16641
309.674	23915
309.688	26091
309.729	26944
309.778	23329
309.783	22832
309.837	16545
309.868	13597
309.892	15030
309.946	20460
309.959	22580
310.001	28319
310.049	33275
310.055	32294
310.109	19796
310.139	12190
310.163	9395
310.218	5663
310.229	5154
310.272	4459
310.319	3931
310.326	3782
310.381	2720
310.409	2440
310.435	2307
310.489	1718
310.499	1668
310.543	1811
310.589	2026
310.598	2082
310.652	2444
310.679	2555
310.706	2241
310.760	1602
310.769	1516
310.814	1453
310.859	1402
310.868	1390
310.923	1322
310.948	1390
310.977	1840
311.031	2396
311.038	2514
311.085	2050
311.128	1433
311.139	1485
311.193	1865
311.218	1950
311.247	1925
311.301	2050
311.308	2050
311.356	2032
311.398	2128
311.410	2070
311.464	1661
311.488	1532
311.518	1617
311.572	1601
311.578	1616
311.626	2847
311.668	3962
311.680	3849
311.734	3177
311.758	2900
311.788	2805
311.842	2658
311.847	2645
311.896	3213
311.937	3728
311.950	3780
312.004	4034
312.027	4133
312.058	3403
312.112	2100
312.117	1977
312.165	2075
312.207	2173
312.297	2393
312.386	2108
312.476	2719
312.566	6099
312.656	2553
312.745	672
312.835	2064
312.925	2839
313.015	1533
313.104	2490
313.194	1808
313.284	1823
313.374	2985
313.463	2981
313.553	2059
313.643	1725
313.732	2078
313.822	1585
313.912	1584
314.001	2795
314.091	2395
314.180	3402
314.270	2843
314.360	3625
314.449	2633
314.539	1260
314.628	1676
314.718	2893
314.808	2790
314.897	2114
314.987	1858
315.076	1592
315.166	3416
315.255	2736
315.345	3424
315.434	2437
315.524	2945
315.613	3190
315.703	4296
315.792	4614
315.881	6768
315.971	3797
316.060	4885
316.150	5576
316.239	4917
316.328	2462
316.418	1494
316.507	1969
316.597	2958
316.686	2282
316.775	3351
316.865	5244
316.954	2778
317.043	2400
317.133	2325
317.222	1576
317.311	1513
317.400	1195
317.490	3206
317.579	3730
317.668	2688
317.757	3185
317.847	6243
317.936	13653
318.025	9980
318.114	5678
318.203	4103
318.293	7177
318.382	12479
318.471	10338
318.560	11791
318.649	18664
318.738	4349
318.828	4082
318.917	3833
319.006	3727
319.095	8300
319.184	24932
319.273	15652
319.362	10502
319.451	3453
319.540	3423
319.629	6986
319.718	12521
319.807	5074
319.896	9393
319.985	30432
320.074	11405
320.163	2739
320.252	3437
320.341	3920
320.430	4063
320.519	5795
320.608	3801
320.697	3078
320.786	2401
320.875	4396
320.964	5674
321.053	8827
321.142	11945
321.230	12568
321.319	8616
321.408	20428
321.497	8415
321.586	8477
321.675	6326
321.764	7450
321.852	5765
321.941	12720
322.030	7935
322.119	8375
322.207	21457
322.296	9606
322.385	7002
322.474	8561
322.562	25717
322.651	12034
322.740	9068
322.829	11158
322.917	8290
323.006	5497
323.095	5943
323.183	3657
323.272	6205
323.361	8558
323.449	20405
323.538	7436
323.626	15686
323.715	8326
323.804	4554
323.892	13705
323.981	9203
324.069	2775
324.158	7303
324.246	6514
324.335	4803
324.424	8141
324.512	3131
324.601	3551
324.689	4981
324.778	6514
324.866	5572
324.954	2312
325.043	2585
325.131	3500
325.220	6188
325.308	5878
325.397	4464
325.485	3522
325.574	1370
325.662	1958
325.750	1846
325.839	1844
325.927	1735
326.015	2388
326.104	2664
326.192	3190
326.280	2022
326.369	1889
326.457	4095
326.545	6545
326.634	2044
326.722	1418
326.810	1799
326.898	1570
326.987	2997
327.075	5663
327.163	4880
327.251	1698
327.340	2596
327.428	3211
327.516	1732
327.604	1929
327.692	1720
327.781	1689
327.869	2825
327.957	1769
328.045	2782
328.133	1122
328.221	1460
328.309	1720
328.397	1835
328.485	2874
328.574	4621
328.662	13772
328.750	5550
328.838	2271
328.926	1779
329.014	1417
329.102	2904
329.190	6808
329.278	5075
329.366	1592
329.454	1796
329.542	1380
329.630	773
329.718	1642
329.806	2608
329.893	1764
329.981	1309
330.069	3672
330.157	10425
330.245	30551
330.333	15423
330.421	3067
330.509	4875
330.597	16976
330.684	10384
330.772	2939
330.860	3829
330.948	4696
331.036	2661
331.123	1306
331.211	1432
331.299	2061
331.387	4780
331.475	7116
331.562	2919
331.650	885
331.738	1608
331.825	1192
331.913	893
332.001	933
332.089	1583
332.176	2879
332.264	6705
332.352	5859
332.439	2592
332.527	2154
332.614	943
332.702	1677
332.790	1579
332.877	3685
332.965	6912
333.052	2474
333.140	2884
333.228	6803
333.315	1602
333.403	2255
333.490	4084
333.578	4476
333.665	10302
333.753	5030
333.840	1164
333.928	2628
334.015	5219
334.103	8267
334.190	25258
334.278	6799
334.365	3921
334.452	2172
334.540	1472
334.627	2566
334.715	3483
334.802	5699
334.889	22005
334.977	19694
335.064	4429
335.151	2776
335.239	2994
335.326	3484
335.413	14289
335.501	18845
335.588	2931
335.675	2387
335.762	3094
335.850	4393
335.937	3515
336.024	7504
336.111	26942
336.199	12299
336.286	3800
336.373	1569
336.460	1665
336.547	1326
336.635	2509
336.722	1864
336.809	1933
336.896	3482
336.983	10254
337.070	22108
337.157	29498
337.245	15234
337.332	10017
337.419	1582
337.506	1229
337.593	2435
337.680	7069
337.767	20723
337.854	6846
337.941	6339
338.028	6513
338.115	1903
338.202	3354
338.289	4824
338.376	14628
338.463	5805
338.550	12764
338.637	12174
338.724	4413
338.811	4564
338.898	2440
338.984	1318
339.071	2836
339.158	3191
339.245	7863
339.332	4695
339.419	4361
339.506	3101
339.593	847
339.679	1661
339.766	1233
339.853	1993
339.940	6202
340.027	1588
340.113	2885
340.200	2688
340.287	1613
340.374	2354
340.460	5652
340.547	1887
340.634	5042
340.720	15825
340.807	8478
340.894	1154
340.980	1236
341.067	828
341.154	2587
341.240	3392
341.327	8562
341.414	3685
341.500	3394
341.587	1811
341.674	2226
341.760	5143
341.847	6529
341.933	1364
342.020	1220
342.106	1415
342.193	2043
342.279	4716
342.366	3884
342.452	5435
342.539	2642
342.625	7332
342.712	17121
342.798	7957
342.885	1903
342.971	939
343.058	733
343.144	1121
343.230	1966
343.317	1061
343.403	1408
343.490	1826
343.576	1331
343.662	756
343.749	1602
343.835	2373
343.921	4965
344.008	30739
344.094	65239
344.180	15119
344.267	6017
344.353	18127
344.439	17938
344.525	8675
344.612	5622
344.698	5516
344.784	2415
344.870	861
344.957	1270
345.043	3507
345.129	2457
345.215	5999
345.301	2503
345.387	1925
345.474	1154
345.560	1151
345.646	1538
345.732	1289
345.818	2435
345.904	2348
345.990	1372
346.076	867
346.162	3008
346.249	2271
346.335	1425
346.421	2065
346.507	7615
346.593	26137
346.679	6046
346.765	2352
346.851	1814
346.937	1117
347.023	1990
347.108	1908
347.194	1138
347.280	1827
347.366	2741
347.452	7985
347.538	31409
347.624	24732
347.710	19226
347.796	2165
347.882	1457
347.967	1957
348.053	1542
348.139	882
348.225	1172
348.311	846
348.397	1040
348.482	2409
348.568	2597
348.654	360
348.740	1615
348.825	1700
348.911	4486
348.997	14767
349.083	28397
349.168	3996
349.254	2607
349.340	2124
349.425	1192
349.511	2034
349.597	2273
349.682	6527
349.768	21039
349.854	9128
349.939	2293
350.025	996
350.110	1745
350.196	845
350.282	-168
350.367	594
350.453	2129
350.538	319
350.624	2044
350.709	2254
350.795	1566
350.880	851
350.966	2445
351.051	1573
351.137	1324
351.222	1796
351.308	6878
351.393	18714
351.479	4991
351.564	2232
351.649	1465
351.735	1068
351.820	1020
351.906	1556
351.991	1879
352.076	11427
352.162	17478
352.247	3394
352.332	1866
352.418	4942
352.503	6360
352.588	28140
352.673	21089
352.759	4436
352.844	2177
352.929	2686
353.014	2915
353.100	1892
353.185	2391
353.270	5885
353.355	6391
353.441	2435
353.526	1975
353.611	6436
353.696	6412
353.781	5076
353.866	1909
353.952	2624
354.037	6460
354.122	13272
354.207	11123
354.292	4199
354.377	2524
354.462	1959
354.547	2953
354.632	2671
354.717	2597
354.802	1830
354.887	1091
354.972	1806
355.057	1653
355.142	1425
355.227	2753
355.312	4163
355.397	9290
355.482	21216
355.567	9165
355.652	7632
355.737	7977
355.822	22437
355.907	18050
355.991	3414
356.076	1041
356.161	1800
356.246	1566
356.331	2359
356.416	5216
356.501	34184
356.585	34136
356.670	5132
356.755	5282
356.840	6052
356.924	22905
357.009	78987
357.094	30887
357.179	7083
357.263	5475
357.348	4906
357.433	5020
357.517	4529
357.602	3853
357.687	3037
357.771	6782
357.856	26412
357.941	14808
358.025	20943
358.110	76832
358.195	37097
358.279	7374
358.364	6187
358.448	18253
358.533	45177
358.617	32098
358.702	31249
358.787	11413
358.871	7102
358.956	5693
359.040	2067
359.125	2004
359.209	2430
359.294	12895
359.378	21729
359.462	6995
359.547	3364
359.631	1649
359.716	1140
359.800	1361
359.885	3590
359.969	1738
360.053	1948
360.138	2155
360.222	3418
360.306	6698
360.391	4950
360.475	14455
360.559	27527
360.644	16416
360.728	10551
360.812	19372
360.896	49543
360.981	21422
361.065	11050
361.149	4160
361.233	3724
361.318	1613
361.402	2824
361.486	4022
361.570	1978
361.654	4091
361.739	7746
361.823	32746
361.907	48754
361.991	9287
362.075	6749
362.159	11662
362.243	9100
362.327	7069
362.411	8944
362.495	4654
362.580	2395
362.664	2301
362.748	1416
362.832	2727
362.916	4025
363.000	14573
363.084	41701
363.168	57513
363.252	14841
363.336	5804
363.420	7680
363.503	21021
363.587	23423
363.671	4866
363.755	3440
363.839	7003
363.923	1996
364.007	7332
364.091	6932
364.175	7486
364.258	34827
364.342	23790
364.426	27987
364.510	14201
364.594	9495
364.677	11012
364.761	43919
364.845	30923
364.929	11629
365.013	9642
365.096	7691
365.180	8425
365.264	8928
365.347	32520
365.431	14286
365.515	4044
365.598	2236
365.682	3204
365.766	3469
365.849	4410
365.933	2472
366.017	5164
366.100	2044
366.184	1014
366.267	2162
366.351	2032
366.435	1222
366.518	1513
366.602	1417
366.685	2340
366.769	1396
366.852	3857
366.936	6957
367.019	4322
367.103	1813
367.186	5465
367.270	1806
367.353	734
367.436	1647
367.520	1832
367.603	2786
367.687	3132
367.770	7501
367.853	5101
367.937	15293
368.020	24332
368.104	5471
368.187	6092
368.270	9167
368.353	7031
368.437	6832
368.520	10542
368.603	9136
368.687	16926
368.770	31094
368.853	7422
368.936	7385
369.020	6562
369.103	2099
369.186	1541
369.269	1891
369.352	5288
369.436	6151
369.519	4357
369.602	648
369.685	3069
369.768	2222
369.851	1901
369.934	1011
370.018	2137
370.101	5374
370.184	6012
370.267	3925
370.350	7225
370.433	10446
370.516	24482
370.599	27741
370.682	7168
370.765	19724
370.848	23030
370.931	37168
371.014	13702
371.097	2208
371.180	3287
371.263	1591
371.346	682
371.429	1977
371.511	1580
371.594	4116
371.677	7631
371.760	6979
371.843	7131
371.926	32556
372.009	69737
372.091	25997
372.174	15633
372.257	36007
372.340	13671
372.423	10455
372.505	11626
372.588	4757
372.671	13413
372.754	37339
372.836	18574
372.919	11697
373.002	20311
373.085	7194
373.167	7696
373.250	17787
373.332	36109
373.415	45885
373.498	87078
373.580	33812
373.663	42813
373.746	54852
373.828	13634
373.911	6951
373.993	5421
374.076	19211
374.159	16950
374.241	9915
374.324	32233
374.406	21453
374.489	27648
374.571	75778
374.654	30841
374.736	15299
374.819	44972
374.901	63337
374.983	62851
375.066	12095
375.148	4453
375.231	15004
375.313	29469
375.395	11100
375.478	2656
375.560	3329
375.643	3646
375.725	12989
375.807	54447
375.890	38034
375.972	10927
376.054	8203
376.136	9330
376.219	4746
376.301	16131
376.383	47064
376.465	17190
376.548	11318
376.630	13842
376.712	41507
376.794	19180
376.877	2540
376.959	1184
377.041	2368
377.123	4414
377.205	5134
377.287	950
377.369	2159
377.452	2008
377.534	1278
377.616	1266
377.698	1491
377.780	840
377.862	1733
377.944	2640
378.026	122
378.108	1380
378.190	1295
378.272	1072
378.354	370
378.436	1530
378.518	2638
378.600	9628
378.682	10309
378.764	23825
378.846	18291
378.928	5198
379.010	7131
379.091	4872
379.173	1874
379.255	1408
379.337	2619
379.419	10563
379.501	32680
379.583	11748
379.664	3278
379.746	8001
379.828	24761
379.910	31489
379.991	26350
380.073	4094
380.155	3039
380.237	2557
380.318	1699
380.400	2000
380.482	5408
380.564	7255
380.645	5702
380.727	6117
380.809	4673
380.890	2091
380.972	475
381.053	2237
381.135	3776
381.217	8043
381.298	25323
381.380	11517
381.461	10246
381.543	40529
381.624	48138
381.706	9611
381.787	5396
381.869	6617
381.951	19165
382.032	66553
382.113	43470
382.195	8739
382.276	7712
382.358	12770
382.439	38111
382.521	44363
382.602	62169
382.684	30439
382.765	54125
382.846	60388
382.928	82714
383.009	45492
383.090	35321
383.172	112811
383.253	152750
383.334	57730
383.416	58636
383.497	31547
383.578	15710
383.659	30573
383.741	97191
383.822	213657
383.903	111060
383.984	46478
384.066	74168
384.147	44768
384.228	11367
384.309	7933
384.390	6202
384.471	4052
384.553	4843
384.634	5769
384.715	7566
384.796	4311
384.877	5026
384.958	22069
385.039	25313
385.120	9413
385.201	4686
385.282	4919
385.363	4911
385.444	3979
385.525	9599
385.606	32311
385.687	26714
385.768	6211
385.849	7934
385.930	35352
386.011	57646
386.092	16225
386.173	4237
386.254	3003
386.335	3991
386.416	3755
386.496	13707
386.577	23842
386.658	7490
386.739	3565
386.820	4545
386.901	2183
386.981	3224
387.062	2552
387.143	4799
387.224	22073
387.304	20529
387.385	7262
387.466	2618
387.547	5614
387.627	3526
387.708	8788
387.789	40258
387.869	46553
387.950	12306
388.031	2063
388.111	617
388.192	6020
388.273	7829
388.353	4637
388.434	3534
388.514	7752
388.595	35578
388.676	47177
388.756	24186
388.837	22053
388.917	12211
388.998	1475
389.078	2258
389.159	2649
389.239	870
389.320	4541
389.400	2067
389.480	7968
389.561	24603
389.641	13063
389.722	4293
389.802	6913
389.883	10353
389.963	29604
390.043	15359
390.124	3034
390.204	8773
390.284	27033
390.365	14834
390.445	13587
390.525	25361
390.605	23857
390.686	12913
390.766	6183
390.846	3268
390.927	1456
391.007	950
391.087	3351
391.167	2793
391.247	1730
391.328	2879
391.408	4478
391.488	3402
391.568	230
391.648	2521
391.728	5409
391.808	5039
391.888	5361
391.969	13744
392.049	22246
392.129	8015
392.209	9542
392.289	28393
392.369	13677
392.449	8883
392.529	5504
392.609	6032
392.689	6569
392.769	25886
392.849	21583
392.929	13314
393.009	34402
393.089	24343
393.169	15711
393.248	46353
393.328	161727
393.408	165086
393.488	46401
393.568	14324
393.648	6962
393.728	4578
393.807	2997
393.887	4443
393.967	3090
394.047	4320
394.127	5314
394.206	8114
394.286	26509
394.366	114874
394.446	121906
394.525	28269
394.605	6949
394.685	6552
394.764	12160
394.844	20741
394.924	15427
395.003	5158
395.083	4192
395.163	3336
395.242	2660
395.322	3384
395.402	872
395.481	4114
395.561	8787
395.640	25170
395.720	19906
395.799	24046
395.879	18619
395.958	11851
396.038	38683
396.117	149613
396.197	161108
396.276	47977
396.356	16517
396.435	11085
396.515	7827
396.594	8447
396.673	16133
396.753	51315
396.832	150543
396.912	117918
396.991	33502
397.070	9577
397.150	4184
397.229	4469
397.308	5223
397.388	8671
397.467	4850
397.546	1626
397.625	189
397.705	3644
397.784	3741
397.863	1841
397.942	941
398.022	1379
398.101	6484
398.180	20248
398.259	10020
398.338	2617
398.417	2736
398.497	921
398.576	2350
398.655	-638
398.734	1397
398.813	1109
398.892	6332
398.971	22722
399.050	10268
399.129	896
399.208	1147
399.287	1728
399.366	30
399.445	203
399.524	989
399.603	-605
399.682	3377
399.761	8901
399.840	25223
399.919	17384
399.998	2623
400.077	510
400.156	-54
400.235	2836
400.313	849
400.392	1311
400.471	12582
400.550	19978
400.629	4072
400.708	2456
400.786	1505
400.865	4511
400.944	4649
401.023	3877
401.102	-42
401.180	391
401.259	143
401.338	924
401.416	1580
401.495	401
401.574	962
401.652	326
401.731	2682
401.810	536
401.888	-336
401.967	428
402.046	1629
402.124	1818
402.203	1478
402.281	1274
402.360	3449
402.438	6697
402.517	2849
402.596	1114
402.674	399
402.753	-19
402.831	869
402.910	555
402.988	4392
403.066	13415
403.145	8589
403.223	4389
403.302	10744
403.380	8281
403.459	6787
403.537	2703
403.615	1296
403.694	-941
403.772	991
403.850	737
403.929	-68
404.007	394
404.085	1915
404.164	310
404.242	481
404.320	7136
404.398	25378
404.477	27359
404.555	54549
404.633	46645
404.711	20529
404.789	10945
404.868	1920
404.946	-326
405.024	263
405.102	-87
405.180	-70
405.258	-1240
405.336	673
405.415	345
405.493	1756
405.571	1996
405.649	-225
405.727	-588
405.805	2154
405.883	907
405.961	1459
406.039	748
406.117	-898
406.195	1869
406.273	10983
406.351	45180
406.429	25412
406.507	3105
406.585	551
406.663	1244
406.740	732
406.818	756
406.896	422
406.974	1120
407.052	3008
407.130	26842
407.208	36698
407.285	7268
407.363	340
407.441	-299
407.519	296
407.596	1019
407.674	2521
407.752	5635
407.830	6219
407.907	3417
407.985	489
408.063	461
408.141	-737
408.218	2243
408.296	111
408.373	83
408.451	1727
408.529	662
408.606	-562
408.684	301
408.762	20
408.839	-149
408.917	-754
408.994	127
409.072	-622
409.149	40
409.227	1348
409.304	1086
409.382	1130
409.459	-82
409.537	2122
409.614	1575
409.692	916
409.769	23
409.846	1490
409.924	3155
410.001	1528
410.079	707
410.156	1224
410.233	1254
410.311	-561
410.388	-273
410.465	1174
410.543	690
410.620	731
410.697	1116
410.775	1565
410.852	-1291
410.929	1471
411.006	1713
411.083	264
411.161	3265
411.238	3770
411.315	1880
411.392	-208
411.469	1390
411.547	2695
411.624	-312
411.701	487
411.778	474
411.855	2805
411.932	697
412.009	4
412.086	38
412.163	1316
412.240	342
412.317	1174
412.394	41
412.471	-205
412.548	-41
412.625	-11
412.702	523
412.779	2419
412.856	1375
412.933	-689
413.010	333
413.087	1033
413.164	11355
413.241	16779
413.318	3171
413.395	2385
413.471	2730
413.548	1491
413.625	403
413.702	-420
413.779	374
413.855	-157
413.932	-213
414.009	-1026
414.086	280
414.162	323
414.239	1496
414.316	9720
414.393	26259
414.469	8238
414.546	923
414.623	84
414.699	631
414.776	578
414.853	-895
414.929	668
415.006	203
415.082	352
415.159	242
415.236	790
415.312	1113
415.389	2912
415.465	2540
415.542	1546
415.618	152
415.695	1924
415.771	950
415.848	476
415.924	193
416.000	-640
416.077	39
416.153	-814
416.230	-1010
416.306	-139
416.383	-848
416.459	-213
416.535	-540
416.612	-683
416.688	-1038
416.764	-411
416.841	-519
416.917	-571
416.993	-10
417.069	1334
417.146	913
417.222	1867
417.298	317
417.374	156
417.451	783
417.527	284
417.603	974
417.679	332
417.755	372
417.831	-977
417.908	-109
417.984	-288
418.060	-343
418.136	1961
418.212	3142
418.288	761
418.364	122
418.440	-511
418.516	1979
418.592	1919
418.668	4472
418.744	7549
418.820	5449
418.896	785
418.972	-980
419.048	-419
419.124	3893
419.200	1161
419.276	449
419.352	-941
419.428	-569
419.504	157
419.579	626
419.655	4
419.731	615
419.807	4930
419.883	8537
419.959	5378
420.034	1574
420.110	3271
420.186	16217
420.262	12101
420.337	1280
420.413	668
420.489	-307
420.565	815
420.640	-590
420.716	1076
420.792	-1009
420.867	303
420.943	-333
421.019	2064
421.094	743
421.170	886
421.245	-394
421.321	361
421.397	387
421.472	1958
421.548	3148
421.623	4013
421.699	1679
421.774	1252
421.850	700
421.925	2967
422.001	2284
422.076	1855
422.152	2113
422.227	4649
422.302	6481
422.378	8931
422.453	15781
422.529	38597
422.604	108526
422.679	169271
422.755	115477
422.830	44925
422.905	19077
422.981	9314
423.056	5984
423.131	4584
423.207	2932
423.282	3296
423.357	6002
423.432	3260
423.508	3856
423.583	8320
423.658	6391
423.733	1561
423.808	1661
423.883	3713
423.959	2261
424.034	998
424.109	1105
424.184	158
424.259	-652
424.334	112
424.409	-197
424.484	497
424.559	203
424.634	49
424.709	762
424.784	1685
424.859	425
424.934	2290
425.009	11557
425.084	19858
425.159	5725
425.234	1118
425.309	148
425.384	7981
425.459	14526
425.534	5124
425.609	-463
425.683	-153
425.758	-433
425.833	533
425.908	825
425.983	6981
426.058	20732
426.132	8771
426.207	608
426.282	1882
426.357	-118
426.431	330
426.506	183
426.581	-322
426.655	729
426.730	-137
426.805	-372
426.879	541
426.954	9
427.029	3066
427.103	17803
427.178	43324
427.253	18703
427.327	2519
427.402	3854
427.476	15426
427.551	8111
427.625	1668
427.700	864
427.774	-384
427.849	606
427.923	-510
427.998	-134
428.072	-472
428.147	1824
428.221	12618
428.296	33238
428.370	16664
428.444	2301
428.519	2222
428.593	4303
428.667	3382
428.742	4585
428.816	5401
428.890	22432
428.965	40572
429.039	15339
429.113	6655
429.188	1077
429.262	312
429.336	2575
429.410	9771
429.485	6199
429.559	3636
429.633	2107
429.707	826
429.781	3855
429.855	21598
429.930	37369
430.004	18128
430.078	22574
430.152	21930
430.226	43570
430.300	44895
430.374	6856
430.448	2132
430.522	6997
430.596	21499
430.670	15521
430.744	39565
430.818	62390
430.892	14183
430.966	1839
431.040	250
431.114	-1294
431.188	-339
431.262	-785
431.336	-543
431.410	1836
431.484	6771
431.557	5178
431.631	679
431.705	203
431.779	4849
431.853	28385
431.927	20529
432.000	2885
432.074	-298
432.148	119
432.222	13
432.295	-520
432.369	-782
432.443	1064
432.516	15838
432.590	43257
432.664	16980
432.737	1082
432.811	-746
432.885	-820
432.958	-103
433.032	-410
433.106	-1074
433.179	-852
433.253	-945
433.326	-401
433.400	-861
433.473	-1509
433.547	-1154
433.620	-273
433.694	1641
433.767	1643
433.841	-768
433.914	-405
433.988	-473
434.061	-578
434.134	-336
434.208	-998
434.281	-1142
434.355	-1127
434.428	-249
434.501	-137
434.575	-547
434.648	-1179
434.721	-802
434.795	-1028
434.868	-665
434.941	-1254
435.014	-275
435.088	-483
435.161	497
435.234	2473
435.307	2866
435.381	210
435.454	81
435.527	803
435.600	698
435.673	37
435.746	177
435.819	-770
435.892	-230
435.966	-386
436.039	-279
436.112	108
436.185	-1298
436.258	-875
436.331	-1345
436.404	-1196
436.477	-1062
436.550	-863
436.623	-283
436.696	-1119
436.769	57
436.842	-975
436.915	95
436.987	460
437.060	-118
437.133	-1314
437.206	-54
437.279	329
437.352	-752
437.425	-669
437.498	285
437.570	2312
437.643	2977
437.716	-45
437.789	-448
437.861	1665
437.934	6157
438.007	2761
438.080	-223
438.152	-627
438.225	2365
438.298	21260
438.370	63962
438.443	30575
438.516	8116
438.588	1156
438.661	-205
438.734	-422
438.806	144
438.879	1142
438.951	890
439.024	2484
439.096	352
439.169	149
439.241	-602
439.314	-1399
439.386	380
439.459	63
439.531	2208
439.604	902
439.676	-304
439.749	-809
439.821	-710
439.893	-782
439.966	-389
440.038	-95
440.110	636
440.183	-183
440.255	-950
440.327	493
440.400	8232
440.472	40338
440.544	32096
440.617	4443
440.689	2364
440.761	3430
440.833	6634
440.905	4090
440.978	-471
441.050	-818
441.122	-41
441.194	-995
441.266	-453
441.338	-1068
441.411	1688
441.483	13481
441.555	25794
441.627	6580
441.699	1586
441.771	911
441.843	143
441.915	-1184
441.987	-413
442.059	-717
442.131	659
442.203	848
442.275	2264
442.347	2093
442.419	2773
442.491	15073
442.563	43759
442.635	25257
442.706	10219
442.778	8763
442.850	1769
442.922	76
442.994	481
443.066	949
443.137	1490
443.209	805
443.281	1497
443.353	4876
443.425	21507
443.496	77599
443.568	87230
443.640	38779
443.711	7059
443.783	1776
443.855	335
443.926	203
443.998	-117
444.070	694
444.141	880
444.213	2369
444.285	3500
444.356	2105
444.428	1774
444.499	-48
444.571	-438
444.642	-149
444.714	344
444.785	1985
444.857	2050
444.928	4347
445.000	3830
445.071	3131
445.143	4516
445.214	3269
445.285	4724
445.357	16191
445.428	51460
445.500	126521
445.571	94937
445.642	51280
445.714	19585
445.785	12623
445.856	4294
445.928	3872
445.999	3515
446.070	2141
446.141	1779
446.213	3794
446.284	902
446.355	722
446.426	-1283
446.497	236
446.569	941
446.640	3582
446.711	3441
446.782	610
446.853	177
446.924	1334
446.995	555
447.066	642
447.138	1490
447.209	1095
447.280	-856
447.351	-361
447.422	-980
447.493	536
447.564	1082
447.635	2652
447.706	631
447.777	-602
447.847	-137
447.918	-1102
447.989	85
448.060	909
448.131	3223
448.202	3890
448.273	3721
448.344	1594
448.414	499
448.485	-638
448.556	121
448.627	-618
448.698	-216
448.768	-1255
448.839	-706
448.910	400
448.981	1717
449.051	-523
449.122	-171
449.193	-757
449.263	-503
449.334	-569
449.405	535
449.475	4106
449.546	2867
449.616	1561
449.687	1775
449.758	202
449.828	-142
449.899	-1008
449.969	-725
450.040	-954
450.110	-673
450.181	22
450.251	-512
450.322	-737
450.392	-788
450.463	-239
450.533	-98
450.604	-372
450.674	-179
450.744	61
450.815	-704
450.885	-79
450.955	-900
451.026	-1290
451.096	-662
451.166	-869
451.237	799
451.307	5896
451.377	2777
451.447	-560
451.518	-15
451.588	-1275
451.658	-373
451.728	730
451.799	5544
451.869	9229
451.939	1926
452.009	-174
452.079	27
452.149	-299
452.219	1338
452.289	6796
452.360	7034
452.430	-191
452.500	263
452.570	393
452.640	2469
452.710	6960
452.780	12743
452.850	10831
452.920	12206
452.990	4196
453.060	1737
453.129	2561
453.199	2851
453.269	8392
453.339	23296
453.409	38245
453.479	30146
453.549	47987
453.619	51700
453.688	25928
453.758	3408
453.828	638
453.898	611
453.968	-546
454.037	585
454.087	477
454.107	419
454.168	-148
454.177	-242
454.247	-640
454.249	-602
454.316	-83
454.330	66
454.386	558
454.411	1259
454.456	2159
454.492	4128
454.525	5846
454.574	3824
454.595	2979
454.655	971
454.665	649
454.734	581
454.736	653
454.804	2316
454.817	3381
454.873	6938
454.898	8133
454.943	10122
454.979	6591
455.013	3491
455.060	1870
455.082	1342
455.141	1260
455.152	1125
455.221	5533
455.222	5668
455.291	11442
455.303	10950
455.360	8588
455.384	9047
455.430	9156
455.465	7880
455.499	6644
455.546	6845
455.569	6689
455.627	6203
455.638	6197
455.707	1437
455.708	1445
455.777	277
455.789	359
455.846	663
455.869	505
455.916	215
455.950	212
455.985	107
456.031	8
456.054	-25
456.112	626
456.124	780
456.193	296
456.193	276
456.262	212
456.274	405
456.332	1199
456.355	1223
456.401	1160
456.436	1233
456.470	1198
456.516	1162
456.540	1201
456.597	54
456.609	-213
456.678	839
456.678	832
456.747	-564
456.759	-574
456.817	-339
456.840	-141
456.886	31
456.920	360
456.955	617
457.001	732
457.024	945
457.082	661
457.093	582
457.162	2118
457.163	2141
457.232	2469
457.243	2264
457.301	1152
457.324	650
457.370	228
457.405	550
457.439	617
457.485	621
457.508	779
457.566	1559
457.577	1646
457.646	2172
457.647	2184
457.715	3641
457.727	3984
457.784	6116
457.808	8085
457.853	10440
457.889	12853
457.922	13557
457.969	10194
457.991	10435
458.050	11720
458.060	11932
458.129	18266
458.130	18502
458.198	19175
458.211	17883
458.267	12808
458.292	8974
458.336	4961
458.372	4250
458.405	5203
458.453	7832
458.474	9993
458.533	18408
458.543	19085
458.611	29910
458.614	30257
458.680	23938
458.694	19561
458.749	10104
458.775	7333
458.818	3947
458.855	3231
458.887	2762
458.936	1989
458.955	1736
459.016	2056
459.024	2120
459.093	3015
459.097	3009
459.162	2468
459.177	2575
459.230	3055
459.257	3246
459.299	3363
459.338	3390
459.368	3396
459.418	3695
459.437	3596
459.499	2833
459.505	2790
459.574	2481
459.579	2449
459.643	2053
459.659	1967
459.711	1992
459.740	2386
459.780	2939
459.820	3146
459.849	2917
459.900	2397
459.917	2489
459.981	3200
459.986	3187
460.054	3006
460.061	2983
460.123	3209
460.141	3289
460.191	4411
460.222	5016
460.260	5100
460.302	5672
460.328	5095
460.382	3704
460.397	3690
460.462	2697
460.465	2672
460.534	3296
460.543	3269
460.602	6014
460.623	7613
460.671	12031
460.703	16372
460.739	16575
460.783	15641
460.808	14865
460.864	6026
460.876	4940
460.944	2919
460.945	2891
461.013	2944
461.024	2898
461.081	2997
461.104	3249
461.150	3342
461.184	2999
461.218	2724
461.264	2980
461.286	3310
461.345	3688
461.355	3575
461.423	2806
461.425	2788
461.491	3286
461.505	3484
461.559	6376
461.585	7656
461.628	10651
461.665	13707
461.696	15292
461.745	18894
461.764	16817
461.825	7553
461.832	7439
461.901	4338
461.905	4292
461.969	2888
461.985	2584
462.037	3511
462.065	3908
462.105	3664
462.145	3795
462.173	5553
462.225	8268
462.241	8826
462.305	12276
462.310	11977
462.378	7119
462.385	6346
462.446	4653
462.465	4381
462.514	4313
462.545	4353
462.582	4192
462.625	4201
462.650	4018
462.705	3279
462.718	3308
462.785	3511
462.786	3532
462.854	4943
462.865	5156
462.922	6332
462.945	7080
462.990	6011
463.025	4484
463.058	3942
463.104	3338
463.126	3262
463.184	3136
463.194	3210
463.262	3722
463.264	3747
463.330	4254
463.344	4339
463.398	4804
463.424	4898
463.466	4207
463.504	3981
463.533	4400
463.583	4494
463.601	4563
463.663	5072
463.669	5223
463.737	7100
463.743	7250
463.805	9875
463.823	10681
463.873	14398
463.903	16664
463.940	17572
463.982	19200
464.008	16120
464.062	8377
464.076	7705
464.142	3395
464.144	3370
464.211	3457
464.221	3480
464.279	4504
464.301	4961
464.347	5136
464.381	5227
464.414	5730
464.461	6553
464.482	7016
464.540	7886
464.550	7934
464.617	8684
464.620	8687
464.685	8200
464.699	8074
464.753	8633
464.779	8897
464.820	9030
464.859	9236
464.888	8668
464.938	7535
464.956	7818
465.018	8607
465.023	8510
465.091	7414
465.098	7293
465.158	7506
465.177	7530
465.226	7722
465.257	7832
465.293	7833
465.336	7680
465.361	8184
465.416	9409
465.428	9892
465.495	12663
465.496	12715
465.563	17572
465.575	18385
465.631	22610
465.654	24621
465.698	16372
465.734	9020
465.765	7927
465.813	6006
465.833	5853
465.893	5941
465.900	5921
465.968	5627
465.972	5585
466.035	6023
466.052	6194
466.102	6398
466.131	6464
466.170	6782
466.210	7057
466.237	6806
466.290	6320
466.304	6469
466.369	7002
466.372	7012
466.439	6957
466.449	6935
466.506	7591
466.528	7832
466.573	10903
466.607	13167
466.641	19042
466.687	27168
466.708	29767
466.766	36999
466.775	34328
466.842	13755
466.845	12749
466.909	9235
466.925	8423
466.977	8066
467.004	7920
467.044	8543
467.083	9146
467.111	9726
467.163	10788
467.178	11177
467.242	12704
467.245	12649
467.312	11068
467.321	10841
467.379	11377
467.400	11539
467.446	11980
467.480	12262
467.559	10797
467.638	8861
467.717	10266
467.796	11133
467.875	12157
467.955	10924
468.034	14969
468.113	30785
468.192	44476
468.271	13983
468.350	10775
468.429	11782
468.508	12045
468.588	9781
468.667	9824
468.746	11063
468.825	9633
468.904	9004
468.983	9886
469.062	13541
469.141	16762
469.220	7937
469.299	8312
469.378	9271
469.456	11238
469.535	10930
469.614	9708
469.693	9542
469.772	10954
469.851	15580
469.930	12418
470.009	10074
470.088	9658
470.166	12890
470.245	19952
470.324	24008
470.403	15800
470.482	11852
470.560	8716
470.639	10190
470.718	11653
470.797	10386
470.875	10400
470.954	13649
471.033	14181
471.111	8231
471.190	7423
471.269	7694
471.347	7183
471.426	8062
471.505	8296
471.583	8992
471.662	8558
471.740	9082
471.819	8612
471.898	8004
471.976	8360
472.055	7694
472.133	7602
472.212	11166
472.290	10700
472.369	8334
472.447	7665
472.526	6098
472.604	7718
472.683	8706
472.761	8661
472.839	9033
472.918	7788
472.996	7451
473.075	9370
473.153	8805
473.231	7460
473.310	9373
473.388	9762
473.466	8628
473.545	9938
473.623	13606
473.701	12786
473.780	9450
473.858	6720
473.936	11338
474.014	8134
474.093	9282
474.171	11439
474.249	15848
474.327	10482
474.405	7737
474.484	7633
474.562	7819
474.640	7300
474.718	7780
474.796	7815
474.874	7325
474.952	6743
475.030	7405
475.108	7571
475.187	6922
475.265	7225
475.343	9596
475.421	10270
475.499	7562
475.577	8230
475.655	10358
475.733	16554
475.811	26862
475.889	24631
475.966	17608
476.044	7304
476.122	8284
476.200	9227
476.278	8163
476.356	6923
476.434	8079
476.512	7756
476.590	8715
476.667	8731
476.745	6502
476.823	7636
476.901	7685
476.979	6646
477.056	7303
477.134	6696
477.212	8637
477.290	6954
477.367	6874
477.445	6566
477.523	6630
477.601	6535
477.678	6362
477.756	8956
477.834	8395
477.911	6621
477.989	6417
478.066	6685
478.144	6620
478.222	7193
478.299	8492
478.377	8792
478.454	6298
478.532	5873
478.609	7710
478.687	7962
478.764	6317
478.842	6335
478.919	7815
478.997	7789
479.074	5562
479.152	6537
479.229	9178
479.307	6279
479.384	4172
479.461	6564
479.539	6636
479.616	7011
479.694	6157
479.771	6468
479.848	7275
479.926	8812
480.003	9949
480.080	6448
480.157	5835
480.235	5655
480.312	6744
480.389	6260
480.467	10452
480.544	12563
480.621	7825
480.698	6936
480.775	8227
480.853	7578
480.930	6117
481.007	6709
481.084	6169
481.161	6652
481.238	6879
481.315	6013
481.392	5451
481.470	6584
481.547	6728
481.624	6043
481.701	5733
481.778	5895
481.855	6661
481.932	10076
482.009	15252
482.086	10793
482.163	6045
482.240	8595
482.317	11265
482.393	9456
482.470	6222
482.547	6175
482.624	5867
482.701	6904
482.778	6675
482.855	5595
482.932	6668
483.009	5020
483.085	6877
483.162	7791
483.239	7707
483.316	6102
483.393	6001
483.469	5875
483.546	6768
483.623	6607
483.699	6057
483.776	6450
483.853	7877
483.930	11151
484.006	23222
484.083	39249
484.160	22215
484.236	31050
484.313	24209
484.389	18226
484.466	17110
484.543	16264
484.619	15682
484.696	17929
484.772	17894
484.849	18347
484.925	15297
485.002	15781
485.078	16294
485.155	16928
485.231	14084
485.308	14200
485.384	13514
485.461	16400
485.537	25720
485.614	29660
485.690	15874
485.766	13890
485.843	16094
485.919	22940
485.995	23330
486.072	13727
486.148	12554
486.224	12609
486.301	13712
486.377	15435
486.453	14808
486.530	15591
486.606	19144
486.682	20713
486.758	24343
486.835	26529
486.911	22751
486.987	34182
487.063	42776
487.139	56744
487.215	38010
487.292	17846
487.368	15252
487.444	16686
487.520	22082
487.596	19836
487.672	27742
487.748	69153
487.824	99616
487.900	33131
487.976	17071
488.052	16825
488.128	21269
488.204	16953
488.280	13929
488.356	16185
488.432	29238
488.508	43151
488.584	17072
488.660	13859
488.736	13477
488.812	14785
488.888	19136
488.964	25182
489.039	55278
489.115	83638
489.191	46768
489.267	13742
489.343	12834
489.418	10907
489.494	10948
489.570	9143
489.646	12268
489.722	10913
489.797	10980
489.873	15856
489.949	32148
490.024	27238
490.100	11135
490.176	11096
490.251	14449
490.327	19335
490.403	11460
490.478	10271
490.554	9169
490.629	9451
490.705	9433
490.781	9668
490.856	9170
490.932	11254
491.007	11734
491.083	10677
491.158	9494
491.234	12823
491.309	23917
491.385	23735
491.460	10083
491.536	11012
491.611	10925
491.686	11854
491.762	16501
491.837	35844
491.913	57721
491.988	79294
492.063	99810
492.139	23784
492.214	13882
492.289	9151
492.365	8134
492.440	10431
492.515	9955
492.590	10709
492.666	8192
492.741	10983
492.816	15760
492.891	8147
492.967	8940
493.042	7717
493.117	8032
493.192	8241
493.267	12276
493.342	26635
493.418	33369
493.493	10749
493.568	7839
493.643	8233
493.718	9756
493.793	14459
493.868	17242
493.943	11247
494.018	8454
494.093	7503
494.168	7916
494.243	7083
494.318	7691
494.393	7186
494.468	8007
494.543	7179
494.618	8569
494.693	6837
494.768	6769
494.842	7211
494.917	6697
494.992	7819
495.067	7896
495.142	7019
495.217	7964
495.292	9334
495.366	10247
495.441	12144
495.516	16411
495.591	21039
495.665	73711
495.740	175977
495.815	64147
495.890	11719
495.964	8338
496.039	11354
496.114	8788
496.188	8700
496.263	8629
496.338	8064
496.412	10112
496.487	11000
496.561	12034
496.636	12334
496.710	8943
496.785	9894
496.860	11245
496.934	9026
497.009	10276
497.083	7924
497.158	9299
497.232	11292
497.307	13757
497.381	9602
497.455	12032
497.530	15000
497.604	10691
497.679	10925
497.753	18067
497.827	21704
497.902	19995
497.976	23328
498.050	51894
498.125	201899
498.199	197812
498.273	32188
498.348	22999
498.422	17784
498.496	19433
498.570	17833
498.645	11808
498.719	10553
498.793	15253
498.867	22498
498.941	28637
499.016	79877
499.090	219502
499.164	69095
499.238	11281
499.312	9799
499.386	14299
499.460	12479
499.534	11700
499.609	14543
499.683	18818
499.757	17212
499.831	36750
499.905	143438
499.979	127384
500.053	21194
500.127	21929
500.201	18900
500.275	12236
500.349	11260
500.422	14342
500.496	20054
500.570	41482
500.644	86674
500.718	147480
500.792	30274
500.866	11514
500.940	13163
501.013	12848
501.087	11562
501.161	21887
501.235	25038
501.309	45453
501.382	126746
501.456	106277
501.530	25388
501.603	39752
501.677	16084
501.751	8195
501.825	10624
501.898	17622
501.972	49531
502.046	28928
502.119	9922
502.193	24236
502.266	53728
502.340	24926
502.413	24202
502.487	44584
502.561	26165
502.634	9152
502.708	9328
502.781	7052
502.855	6070
502.928	5573
503.002	6265
503.075	5325
503.149	7097
503.222	6800
503.295	7359
503.369	9257
503.442	11144
503.516	36072
503.589	89988
503.662	55228
503.736	19050
503.809	42889
503.882	34704
503.956	51966
504.029	47124
504.102	41756
504.175	52739
504.249	16510
504.322	11148
504.395	8793
504.468	6878
504.542	6067
504.615	4561
504.688	5359
504.761	4502
504.834	8843
504.907	9900
504.980	16616
505.053	8580
505.127	9821
505.200	12613
505.273	8804
505.346	5470
505.419	4361
505.492	5044
505.565	4094
505.638	4245
505.711	3256
505.784	3919
505.857	4114
505.930	5888
506.003	4098
506.076	7274
506.149	6815
506.221	7726
506.294	8369
506.367	19317
506.440	68430
506.513	34035
506.586	9412
506.659	5861
506.731	6061
506.804	5561
506.877	9330
506.950	6695
507.022	5156
507.095	5412
507.168	7720
507.241	6780
507.313	3986
507.386	4757
507.459	8669
507.531	5256
507.604	4845
507.677	5426
507.749	3417
507.822	7268
507.894	14091
507.967	16064
508.040	9356
508.112	8390
508.185	8363
508.257	7003
508.330	13058
508.402	7479
508.475	6785
508.547	7726
508.620	7335
508.692	11666
508.765	7439
508.837	5294
508.909	6292
508.982	6491
509.054	6499
509.127	5624
509.199	5488
509.271	4653
509.344	5319
509.416	5411
509.488	5557
509.560	6125
509.633	6256
509.705	7453
509.777	7011
509.849	10795
509.922	7366
509.994	5358
510.066	6914
510.138	5416
510.210	13482
510.283	9867
510.355	9805
510.427	8501
510.499	8464
510.571	6650
510.643	6517
510.715	14000
510.787	11051
510.859	8194
510.931	8109
511.003	13063
511.076	11830
511.148	6162
511.219	7403
511.291	10786
511.363	12138
511.435	6871
511.507	5513
511.579	5749
511.651	7429
511.723	5462
511.795	5654
511.867	5621
511.939	7779
512.010	13101
512.082	11025
512.154	6085
512.226	6274
512.298	10384
512.369	14077
512.441	11547
512.513	11417
512.585	8088
512.656	9122
512.728	9987
512.800	7212
512.871	7872
512.943	6982
513.015	5964
513.086	7279
513.158	8957
513.230	7394
513.301	12517
513.373	14905
513.444	8446
513.516	6659
513.588	6789
513.659	8526
513.731	9810
513.802	8411
513.874	19611
513.945	34606
514.016	10027
514.088	6561
514.159	7453
514.231	10937
514.302	13020
514.374	9224
514.445	7376
514.516	16721
514.588	10194
514.659	8761
514.730	13807
514.802	12614
514.873	7772
514.944	9880
515.016	8320
515.087	10146
515.158	11504
515.229	14658
515.301	7057
515.372	10178
515.443	6097
515.514	6430
515.585	4812
515.656	6894
515.728	6727
515.799	6612
515.870	7507
515.941	7313
516.012	7393
516.083	10335
516.154	11144
516.225	17245
516.296	15436
516.367	14538
516.438	17245
516.509	22427
516.580	31610
516.651	98822
516.722	355362
516.793	133898
516.864	30803
516.935	29698
517.006	32125
517.077	43549
517.148	99248
517.219	368149
517.289	524995
517.360	116518
517.431	36123
517.502	14058
517.573	13123
517.643	12840
517.714	14375
517.785	14390
517.856	14727
517.926	20656
517.997	25192
518.068	32565
518.138	42698
518.209	60243
518.280	226377
518.350	801518
518.421	268031
518.492	37964
518.562	19703
518.633	18436
518.703	15358
518.774	26538
518.845	57406
518.915	52536
518.986	19796
519.056	17363
519.127	28719
519.197	40889
519.268	78537
519.338	44435
519.408	13989
519.479	20389
519.549	12714
519.620	10356
519.690	7018
519.760	7007
519.831	8332
519.901	7746
519.971	6802
520.042	7631
520.112	8497
520.182	12149
520.253	12180
520.323	10155
520.393	18120
520.463	32276
520.534	19346
520.604	49905
520.674	16479
520.744	16275
520.814	53786
520.885	39960
520.955	24068
521.025	83040
521.095	28679
521.165	8995
521.235	7147
521.305	5943
521.375	5942
521.445	7660
521.515	10047
521.585	12573
521.655	9697
521.725	9495
521.795	7261
521.865	3650
521.935	9605
522.005	8534
522.075	6645
522.145	7549
522.215	6037
522.285	9707
522.355	11641
522.424	23231
522.494	18349
522.564	12966
522.634	25629
522.704	82111
522.774	26791
522.843	8466
522.913	7443
522.983	10007
523.053	7378
523.122	8155
523.192	11225
523.262	42382
523.331	37244
523.401	8213
523.471	5884
523.540	6341
523.610	4489
523.680	5170
523.749	4089
523.819	6832
523.888	6424
523.958	4714
524.027	5234
524.097	6459
524.166	5170
524.236	5866
524.305	7109
524.375	4893
524.444	4256
524.514	7784
524.583	5838
524.653	6050
524.722	8074
524.791	5286
524.861	6675
524.930	4324
524.999	5092
525.069	8757
525.138	6896
525.207	6822
525.277	5446
525.346	6381
525.415	5832
525.484	6333
525.554	5434
525.623	6715
525.692	6028
525.761	6766
525.830	8748
525.900	9825
525.969	12942
526.038	20173
526.107	37099
526.176	109122
526.245	83238
526.314	32240
526.383	61141
526.452	74034
526.522	133258
526.591	125168
526.660	47020
526.729	25518
526.797	27077
526.867	51813
526.935	234060
527.004	332003
527.073	152745
527.142	17591
527.211	10023
527.280	9638
527.349	9621
527.418	4799
527.487	6774
527.555	4299
527.624	4196
527.693	3434
527.762	5037
527.831	3655
527.899	4337
527.968	5370
528.037	3782
528.106	6997
528.174	13572
528.243	9440
528.312	12859
528.380	17407
528.449	4768
528.518	4810
528.586	3264
528.655	4897
528.723	3910
528.792	3545
528.861	4188
528.929	3170
528.998	4472
529.066	4374
529.135	4691
529.203	4200
529.272	3762
529.340	6895
529.409	6379
529.477	5447
529.545	5875
529.614	10320
529.682	8814
529.751	9392
529.819	13410
529.887	8341
529.956	6164
530.024	8525
530.092	5673
530.161	8481
530.229	12064
530.297	7237
530.365	7403
530.434	6802
530.502	6321
530.570	7266
530.638	4575
530.707	6218
530.775	7992
530.843	5154
530.911	6227
530.979	6381
531.047	6574
531.115	7253
531.183	5947
531.252	6741
531.320	6560
531.388	5265
531.456	6582
531.524	5265
531.592	7038
531.660	9229
531.728	6827
531.796	6078
531.864	6360
531.932	7088
532.000	6638
532.067	7651
532.135	8599
532.203	10635
532.271	9552
532.339	15659
532.407	36811
532.475	21425
532.542	12236
532.610	14098
532.678	16038
532.746	64921
532.814	154031
532.881	35418
532.949	10819
533.017	9081
533.084	7791
533.152	7609
533.220	7418
533.287	8652
533.355	7759
533.423	6721
533.490	6498
533.558	6665
533.625	7237
533.693	7473
533.761	7745
533.828	8280
533.896	6456
533.963	14855
534.031	16829
534.098	23159
534.166	11129
534.233	7257
534.300	8729
534.368	8276
534.435	7146
534.503	9058
534.570	10545
534.637	9040
534.705	8927
534.772	10497
534.840	15030
534.907	51507
534.974	59702
535.041	9452
535.109	7396
535.176	5459
535.243	5674
535.310	7023
535.378	5615
535.445	5378
535.512	6123
535.579	7153
535.646	5990
535.714	5852
535.781	7122
535.848	7647
535.915	7913
535.982	7519
536.049	7571
536.116	8296
536.183	6599
536.250	7030
536.317	6498
536.384	7920
536.451	11187
536.518	11518
536.585	7209
536.652	10425
536.719	14688
536.786	11561
536.853	9636
536.920	14046
536.987	20862
537.053	19964
537.120	77792
537.187	63087
537.254	7993
537.321	6675
537.388	8081
537.454	4327
537.521	5216
537.588	4959
537.654	6784
537.721	6103
537.788	7702
537.855	5795
537.921	6829
537.988	6806
538.055	6883
538.121	5894
538.188	6224
538.254	10138
538.321	21181
538.388	12758
538.454	6227
538.521	6228
538.587	5308
538.654	6143
538.720	5565
538.787	5321
538.853	6380
538.920	7460
538.986	6481
539.053	6790
539.119	7387
539.185	6253
539.252	9419
539.318	12211
539.385	10404
539.451	6538
539.517	8698
539.583	9871
539.650	22016
539.716	58147
539.782	14909
539.849	7244
539.915	7269
539.981	6237
540.047	8288
540.114	7626
540.180	9129
540.246	7821
540.312	10161
540.378	19875
540.444	19986
540.510	22290
540.576	65071
540.643	18602
540.709	5839
540.775	6356
540.841	6463
540.907	9055
540.973	16559
541.039	12129
541.105	12754
541.171	7033
541.237	6456
541.303	7428
541.369	9062
541.435	10980
541.500	18008
541.566	10533
541.632	4938
541.698	6271
541.764	6193
541.830	5248
541.896	4305
541.961	6519
542.027	4734
542.093	6488
542.159	6439
542.224	6451
542.290	10479
542.356	17118
542.421	19303
542.487	10478
542.553	6435
542.618	7134
542.684	6883
542.750	6840
542.815	9435
542.881	13734
542.947	56368
543.012	37749
543.078	7014
543.143	5837
543.209	7212
543.274	6858
543.340	7690
543.405	21070
543.471	31838
543.536	8099
543.602	6520
543.667	4043
543.732	6717
543.798	4571
543.863	5966
543.928	5075
543.994	5377
544.059	5465
544.124	6013
544.190	6283
544.255	6445
544.320	6757
544.386	6540
544.451	10592
544.516	10840
544.581	10313
544.646	34911
544.712	53148
544.777	10137
544.842	8088
544.907	7632
544.972	6229
545.037	6742
545.102	8005
545.168	6778
545.233	9047
545.298	8575
545.363	9436
545.428	11158
545.493	20903
545.558	44140
545.623	16388
545.688	6922
545.753	8058
545.818	7371
545.883	8559
545.947	7589
546.012	8489
546.077	8099
546.142	8028
546.207	9202
546.272	12085
546.337	11334
546.401	9924
546.466	9414
546.531	7629
546.596	10571
546.661	10529
546.725	9868
546.790	8748
546.855	9353
546.919	9128
546.984	11944
547.049	11502
547.113	12779
547.178	13300
547.243	15489
547.307	18043
547.372	19571
547.436	20384
547.501	18076
547.565	21047
547.630	20737
547.695	20062
547.759	20080
547.823	18932
547.888	18455
547.952	18335
548.017	19379
548.081	20791
548.146	23081
548.210	22175
548.274	20170
548.339	20624
548.403	19186
548.468	17865
548.532	17491
548.596	18120
548.660	17957
548.725	20756
548.789	22505
548.853	21945
548.917	20359
548.982	21690
549.046	19263
549.110	16782
549.174	15853
549.238	19217
549.303	20225
549.367	21371
549.431	19745
549.495	18884
549.559	18086
549.623	22202
549.687	25289
549.751	29129
549.815	27443
549.879	28419
549.943	25497
550.007	28288
550.071	27068
550.135	28831
550.199	23925
550.263	22636
550.327	23077
550.391	24429
550.455	23474
550.519	25807
550.582	27429
550.646	35692
550.710	35259
550.774	29994
550.838	30666
550.901	31007
550.965	33581
551.029	34409
551.093	37455
551.156	40753
551.220	52191
551.284	57544
551.347	40220
551.411	47909
551.475	46253
551.538	33114
551.602	29073
551.666	28304
551.729	26086
551.793	25918
551.856	25234
551.920	25442
551.983	24780
552.047	25544
552.110	24788
552.174	24933
552.237	25000
552.301	24858
552.364	23879
552.428	22965
552.491	23786
552.554	26340
552.618	25038
552.681	25869
552.745	26947
552.808	36214
552.871	44975
552.934	30480
552.998	25400
553.061	23537
553.124	23086
553.187	23125
553.251	23982
553.314	23850
553.377	23146
553.440	26844
553.503	36682
553.567	46277
553.630	26934
553.693	24208
553.756	23968
553.819	24341
553.882	22748
553.945	23235
554.008	22503
554.071	22279
554.134	23075
554.197	21066
554.260	21574
554.323	24387
554.386	22154
554.449	23712
554.512	23948
554.575	21209
554.638	22217
554.701	21574
554.764	21861
554.827	20246
554.889	19068
554.952	18943
555.015	18140
555.078	19286
555.141	19809
555.203	18351
555.266	18788
555.329	18993
555.391	17860
555.454	17745
555.517	18230
555.580	16697
555.642	16223
555.705	15476
555.768	15936
555.830	16412
555.893	14943
555.955	14729
556.018	14219
556.080	15712
556.143	15316
556.206	14973
556.268	14776
556.330	15238
556.393	15436
556.455	14630
556.518	16822
556.580	16315
556.643	13040
556.705	12958
556.767	13097
556.830	13031
556.892	14693
556.955	18783
557.017	14720
557.079	12282
557.142	12513
557.204	14167
557.266	23573
557.328	18147
557.391	10659
557.453	10971
557.515	10401
557.577	13782
557.639	12978
557.701	11444
557.764	10221
557.826	11526
557.888	13264
557.950	13215
558.012	13232
558.074	16124
558.136	34684
558.198	75789
558.260	26601
558.322	14304
558.384	15547
558.446	17669
558.508	20338
558.570	25137
558.632	36099
558.694	48230
558.756	51914
558.818	152784
558.880	339704
558.942	95319
559.003	82429
559.065	38903
559.127	19973
559.189	20312
559.251	21930
559.312	30110
559.374	69892
559.436	226892
559.498	95433
559.559	21891
559.621	20067
559.683	22374
559.744	34986
559.806	109334
559.868	146340
559.929	28790
559.991	20222
560.052	28694
560.114	74855
560.176	44001
560.237	46272
560.299	67651
560.360	15711
560.422	10229
560.483	9342
560.545	8731
560.606	8639
560.667	7655
560.729	7888
560.790	7322
560.852	8359
560.913	7681
560.974	7159
561.036	7241
561.097	7915
561.158	8473
561.220	8400
561.281	7770
561.342	8076
561.403	10664
561.465	12551
561.526	27817
561.587	34170
561.648	10704
561.709	7938
561.771	8157
561.832	6947
561.893	7868
561.954	7296
562.015	7113
562.076	7513
562.137	7151
562.198	7842
562.259	7425
562.320	8097
562.381	8476
562.442	12360
562.503	10256
562.564	7963
562.625	7597
562.686	8551
562.747	8620
562.808	7361
562.869	7283
562.930	8448
562.991	7851
563.051	7601
563.112	6771
563.173	7481
563.234	6902
563.294	7501
563.355	7318
563.416	7827
563.477	7355
563.537	6577
563.598	7978
563.659	7500
563.720	7054
563.780	7539
563.841	7735
563.901	7755
563.962	7175
564.023	7641
564.083	8039
564.144	7848
564.204	8402
564.265	7290
564.325	8166
564.386	12768
564.446	11335
564.507	6728
564.567	6599
564.628	6910
564.688	6911
564.749	7517
564.809	8204
564.869	8349
564.930	8023
564.990	7129
565.050	7501
565.111	7285
565.171	6837
565.231	6597
565.292	8094
565.352	6606
565.412	7664
565.472	7081
565.532	9011
565.593	7433
565.653	6906
565.713	8002
565.773	8095
565.833	10118
565.893	13073
565.953	6983
566.013	7353
566.074	8312
566.134	9586
566.194	12618
566.254	13754
566.314	9551
566.374	7286
566.434	8136
566.494	8148
566.554	8338
566.614	7801
566.673	7935
566.733	8857
566.793	8269
566.853	8717
566.913	8243
566.973	9345
567.033	9253
567.092	9700
567.152	9684
567.212	9797
567.272	8226
567.331	8945
567.391	9129
567.451	10097
567.511	11171
567.570	11422
567.630	8889
567.690	8760
567.749	8484
567.809	9031
567.868	9692
567.928	9611
567.988	11021
568.047	11623
568.107	12954
568.166	15960
568.226	21546
568.285	28902
568.345	23008
568.404	19153
568.464	17189
568.523	15872
568.582	17066
568.642	18339
568.701	21756
568.761	29599
568.820	44764
568.879	42407
568.939	32512
568.998	23201
569.057	17680
569.116	15640
569.176	12208
569.235	11517
569.294	11062
569.353	10147
569.413	9187
569.472	8713
569.531	9053
569.590	8426
569.649	8136
569.708	8067
569.767	8999
569.827	10984
569.886	8125
569.945	8018
570.004	8520
570.063	8135
570.122	8057
570.181	8373
570.240	9935
570.299	8419
570.358	9599
570.417	7728
570.475	7333
570.534	8335
570.593	8552
570.652	8111
570.711	8206
570.770	7339
570.829	8578
570.887	8235
570.946	9571
571.005	7428
571.064	8107
571.122	8950
571.181	8708
571.240	7245
571.299	6272
571.357	7082
571.416	6965
571.475	7479
571.533	8024
571.592	7216
571.650	7610
571.709	6141
571.768	7462
571.826	7084
571.885	6806
571.943	6148
572.002	6491
572.060	7063
572.119	5817
572.177	6177
572.236	6344
572.294	5992
572.352	6562
572.411	6617
572.469	6044
572.528	5706
572.586	6380
572.644	7974
572.703	9324
572.761	6989
572.819	6636
572.877	6633
572.936	6457
572.994	6745
573.052	5684
573.110	7092
573.169	6537
573.227	5794
573.285	6283
573.343	6095
573.401	6147
573.459	6198
573.517	5071
573.576	5723
573.634	6001
573.692	7385
573.750	6732
573.808	5792
573.866	5511
573.924	6628
573.982	7196
574.040	6031
574.098	5448
574.155	5611
574.213	5558
574.271	5805
574.329	6363
574.387	5033
574.445	5432
574.503	4578
574.560	4999
574.618	4442
574.676	4839
574.734	5281
574.792	5818
574.849	5574
574.907	4989
574.965	4822
575.022	4629
575.080	4687
575.138	4786
575.195	6150
575.253	5276
575.311	6082
575.368	5342
575.426	5527
575.483	5489
575.541	5377
575.598	4598
575.656	5409
575.713	4997
575.771	6573
575.828	4052
575.886	5230
575.943	5247
576.001	5680
576.058	4908
576.115	5455
576.173	6316
576.230	7210
576.287	7905
576.345	7400
576.402	5550
576.459	6475
576.517	4649
576.574	6454
576.631	6006
576.688	5167
576.746	6213
576.803	6087
576.860	4849
576.917	5030
576.974	5534
577.031	5559
577.089	5701
577.146	5211
577.203	5018
577.260	6910
577.317	5650
577.374	6224
577.431	5512
577.488	5456
577.545	5458
577.602	5010
577.659	5322
577.716	4996
577.773	5507
577.830	5010
577.886	5785
577.943	5068
578.000	5043
578.057	6073
578.114	7052
578.171	7193
578.227	7585
578.284	7322
578.341	7133
578.398	5833
578.454	6167
578.511	6501
578.568	6589
578.625	6614
578.681	5914
578.738	4808
578.794	5702
578.851	6268
578.908	5120
578.964	6948
579.021	7105
579.077	6928
579.134	6861
579.190	5465
579.247	5587
579.303	5788
579.360	5166
579.416	6406
579.473	5252
579.529	5138
579.586	5930
579.642	6238
579.698	5693
579.755	5852
579.811	6270
579.867	6259
579.924	5961
579.980	6109
580.036	7558
580.093	8566
580.149	10314
580.205	11480
580.261	8773
580.317	8140
580.374	7973
580.430	8474
580.486	7637
580.542	6523
580.598	6407
580.619	6371
580.654	6312
580.692	6874
580.710	7162
580.765	6416
580.767	6395
580.823	6571
580.838	6624
580.879	6768
580.911	6564
580.935	6415
580.984	6311
580.991	6306
581.047	6788
581.057	6728
581.103	6476
581.130	7151
581.159	7859
581.203	8034
581.215	8072
581.270	7387
581.276	7298
581.326	6507
581.349	6745
581.382	7128
581.422	7044
581.438	6983
581.494	6525
581.494	6528
581.550	6953
581.567	7099
581.606	7329
581.640	7500
581.661	7644
581.713	7693
581.717	7696
581.773	6844
581.786	6893
581.829	7038
581.859	7110
581.885	7218
581.932	7082
581.940	7053
581.996	7524
582.004	7552
582.052	7601
582.077	7681
582.107	7846
582.150	7833
582.163	7839
582.219	7942
582.223	7914
582.274	7381
582.296	7367
582.330	7417
582.368	7768
582.386	7991
582.441	7789
582.441	7787
582.497	7144
582.514	7519
582.552	8541
582.587	8246
582.608	7993
582.659	8032
582.663	8051
582.719	9109
582.732	8997
582.774	8366
582.805	8385
582.830	8529
582.877	8111
582.885	8042
582.941	9346
582.950	9401
582.996	9608
583.023	9929
583.052	10549
583.095	10790
583.107	10749
583.162	10909
583.168	11060
583.218	12162
583.240	11482
583.273	10504
583.313	9756
583.328	9524
583.384	9221
583.385	9211
583.439	8823
583.458	8748
583.494	8591
583.531	8665
583.549	8810
583.603	8685
583.605	8672
583.660	9273
583.676	9184
583.715	9159
583.748	8964
583.770	8810
583.820	9431
583.825	9483
583.881	8953
583.893	8810
583.936	8464
583.965	8843
583.991	9066
584.038	9193
584.046	9246
584.101	9149
584.110	9233
584.156	9694
584.183	10015
584.211	10307
584.255	9922
584.266	9820
584.321	9866
584.328	9798
584.376	9392
584.400	9753
584.431	10248
584.472	9725
584.486	9564
584.541	10847
584.545	10855
584.596	10659
584.617	10297
584.651	10239
584.689	11014
584.706	11076
584.761	11345
584.762	11332
584.816	11224
584.834	11823
584.871	12720
584.906	12391
584.926	12152
584.978	11561
584.980	11565
585.035	12446
585.051	12675
585.090	13326
585.123	13809
585.145	13923
585.195	14168
585.200	14280
585.254	15186
585.267	15694
585.309	17040
585.340	17844
585.364	18505
585.412	20064
585.419	20304
585.473	21645
585.484	22188
585.528	25709
585.556	28946
585.583	35086
585.628	51783
585.637	57873
585.692	111336
585.700	120738
585.747	156464
585.772	134153
585.801	86005
585.845	36436
585.856	30407
585.910	20793
585.917	19927
585.965	18012
585.989	17251
586.019	16748
586.061	16445
586.074	16536
586.128	17098
586.133	17132
586.183	17652
586.205	17644
586.237	17431
586.277	17106
586.292	16990
586.346	16644
586.349	16643
586.401	17371
586.421	17379
586.455	17322
586.493	17841
586.509	18643
586.564	20660
586.565	20759
586.618	27285
586.637	27926
586.672	25388
586.709	21463
586.727	20504
586.781	20674
586.781	20701
586.835	20114
586.853	19948
586.889	19483
586.925	18728
586.944	18754
586.996	20103
586.998	20170
587.052	20279
587.068	20502
587.106	21016
587.140	20968
587.161	20964
587.212	22168
587.215	22276
587.269	22663
587.284	22802
587.323	23052
587.356	23349
587.377	24126
587.427	26003
587.431	26080
587.485	25927
587.499	25904
587.539	26430
587.571	26872
587.593	27598
587.643	29715
587.648	29861
587.702	29731
587.715	29770
587.755	31536
587.786	33397
587.810	34354
587.858	35004
587.864	35256
587.917	38071
587.930	38558
587.971	40654
588.001	42304
588.025	44057
588.073	47370
588.079	47987
588.133	53492
588.145	54676
588.187	60276
588.217	64116
588.241	67725
588.288	75105
588.295	76647
588.348	89944
588.360	92582
588.402	104190
588.431	112952
588.456	121648
588.503	138489
588.510	141863
588.564	169459
588.575	175402
588.617	206643
588.646	229245
588.671	261203
588.718	326289
588.725	344771
588.778	497309
588.789	531137
588.832	762273
588.861	929902
588.886	1072145
588.932	1330872
588.939	1335994
588.993	1271670
589.004	1257646
589.047	1154284
589.075	1046303
589.100	872413
589.147	561018
589.154	539809
589.207	393693
589.218	365181
589.261	334068
589.290	316652
589.314	328855
589.361	358389
589.368	375632
589.421	525029
589.433	559608
589.475	813297
589.504	1000548
589.528	1101730
589.576	1249457
589.582	1233129
589.635	1018438
589.647	961588
589.689	644682
589.718	433142
589.742	358142
589.790	222504
589.795	216275
589.849	160372
589.861	147809
589.902	128237
589.932	113763
589.955	105496
590.004	87475
590.009	86566
590.062	76010
590.075	73325
590.115	68404
590.146	64244
590.168	62276
590.218	57669
590.222	57511
590.275	53998
590.289	52891
590.328	51145
590.360	49610
590.381	48701
590.431	46054
590.435	46057
590.488	44300
590.503	43711
590.541	43259
590.574	42639
590.594	42141
590.645	40647
590.647	40689
590.700	38884
590.716	38202
590.753	38120
590.787	38016
590.806	37970
590.859	37362
590.859	37440
590.912	35947
590.930	35400
590.965	35556
591.001	35565
591.018	35583
591.071	35162
591.072	35060
591.124	34591
591.143	34297
591.177	34517
591.214	34520
591.230	34885
591.283	35890
591.285	35827
591.336	35758
591.356	35615
591.389	35193
591.427	34367
591.442	34121
591.495	32859
591.498	32669
591.547	32446
591.569	32307
591.600	32281
591.640	31961
591.653	32172
591.706	32734
591.711	32696
591.759	33254
591.782	33411
591.811	34317
591.853	35382
591.864	35211
591.917	33742
591.924	33440
591.969	33094
591.995	32740
592.022	33053
592.066	33328
592.075	33464
592.127	33733
592.137	33679
592.180	34999
592.208	35715
592.233	35038
592.279	33392
592.285	33419
592.338	32847
592.350	32620
592.390	32554
592.421	32345
592.443	32435
592.491	32314
592.495	32409
592.548	32416
592.562	32325
592.600	32318
592.633	32145
592.653	31934
592.704	30980
592.705	31195
592.775	33120
592.846	32218
592.916	33389
592.987	33941
593.058	33033
593.128	31361
593.199	32622
593.270	32819
593.341	33665
593.411	33980
593.482	34216
593.553	34178
593.623	33307
593.694	33388
593.764	33912
593.835	33178
593.906	32137
593.976	32475
594.047	33800
594.117	35346
594.188	34247
594.258	32000
594.329	31718
594.399	32451
594.470	32527
594.540	32669
594.611	32881
594.681	33004
594.751	33181
594.822	33200
594.892	36110
594.963	35022
595.033	34091
595.103	34915
595.174	35881
595.244	40670
595.314	44158
595.384	36093
595.455	36371
595.525	38383
595.595	38280
595.665	39199
595.736	37496
595.806	37434
595.876	38194
595.946	37860
596.016	38165
596.087	39389
596.157	38752
596.227	40123
596.297	41318
596.367	43657
596.437	45582
596.507	48487
596.577	50839
596.647	46279
596.717	47087
596.787	45927
596.857	46899
596.927	47564
596.997	46771
597.067	47447
597.137	49211
597.207	50034
597.277	48831
597.347	49614
597.417	47439
597.487	48746
597.557	49437
597.626	49563
597.696	49608
597.766	52408
597.836	54521
597.906	47155
597.975	45445
598.045	45925
598.115	46702
598.185	48351
598.254	54470
598.324	55680
598.394	58318
598.464	56233
598.533	54752
598.603	51978
598.672	52793
598.742	52743
598.812	53544
598.881	53701
598.951	54111
599.020	54509
599.090	55351
599.159	56072
599.229	56670
599.299	53603
599.368	55960
599.437	55161
599.507	52573
599.576	51900
599.646	52049
599.715	51552
599.785	52091
599.854	51168
599.924	52309
599.993	50467
600.062	50780
600.132	53284
600.201	54320
600.270	61219
600.340	64020
600.409	62256
600.478	62740
600.547	64621
600.617	61664
600.686	54661
600.755	52375
600.824	51396
600.894	52744
600.963	51047
601.032	51316
601.101	51862
601.170	50620
601.239	50043
601.308	51875
601.378	51461
601.447	51417
601.516	51876
601.585	54530
601.654	55663
601.723	55447
601.792	56927
601.861	58460
601.930	63702
601.999	65901
602.068	62573
602.137	62912
602.206	64147
602.275	65434
602.343	68262
602.412	68225
602.481	66948
602.550	65392
602.619	66776
602.688	68331
602.756	67763
602.825	67057
602.894	69591
602.963	69092
603.032	70189
603.100	70185
603.169	68448
603.238	71235
603.307	69991
603.375	69911
603.444	73703
603.513	69644
603.581	71169
603.650	74688
603.719	64738
603.787	62765
603.856	63724
603.924	65320
603.993	67952
604.061	68806
604.130	69857
604.198	72745
604.267	73597
604.335	73887
604.404	75436
604.472	77445
604.541	77420
604.609	79158
604.678	81562
604.746	81094
604.815	86914
604.883	83725
604.951	82400
605.020	83309
605.088	79400
605.156	78445
605.225	78128
605.293	77958
605.361	77488
605.429	78222
605.498	80115
605.566	80016
605.634	84025
605.702	82819
605.771	86617
605.839	88038
605.907	82149
605.975	85326
606.043	80537
606.111	80178
606.180	85291
606.248	79694
606.316	79670
606.384	83231
606.452	76732
606.520	72435
606.588	70159
606.656	68319
606.724	65771
606.792	63334
606.860	57665
606.928	53514
606.996	51217
607.064	51362
607.132	52573
607.200	55110
607.267	56907
607.335	57665
607.403	57710
607.471	56767
607.539	56251
607.607	56387
607.674	50377
607.742	49399
607.810	50602
607.878	50596
607.946	50514
608.013	52809
608.081	54336
608.149	53501
608.216	53414
608.284	56975
608.352	56122
608.419	55203
608.487	58375
608.555	54497
608.622	54747
608.690	56991
608.757	61687
608.825	64400
608.893	62394
608.960	61460
609.028	61286
609.095	61065
609.163	56872
609.230	51814
609.298	47301
609.365	48709
609.432	53829
609.500	57081
609.567	65422
609.635	73857
609.702	77635
609.769	74795
609.837	60607
609.904	51051
609.971	51642
610.039	60101
610.106	75398
610.173	133760
610.241	292480
610.308	209543
610.375	100035
610.442	60959
610.509	54624
610.577	52661
610.644	53460
610.711	55646
610.778	56598
610.845	58723
610.912	61191
610.980	64454
611.047	65853
611.114	62772
611.181	60908
611.248	59167
611.315	62528
611.382	63940
611.449	65469
611.516	67632
611.583	66861
611.650	68064
611.717	67809
611.784	68537
611.851	71121
611.918	78069
611.984	87633
612.051	123144
612.118	237965
612.185	562916
612.252	358491
612.319	104439
612.386	87459
612.452	79932
612.519	76234
612.586	78765
612.653	78172
612.719	78234
612.786	74818
612.853	71092
612.919	68402
612.986	69714
613.053	65795
613.120	62405
613.186	60077
613.253	61960
613.319	61209
613.386	60470
613.453	62824
613.519	64423
613.586	67420
613.652	78135
613.719	70065
613.785	68988
613.852	63301
613.918	62645
613.985	63957
614.051	68622
614.118	74906
614.184	70298
614.250	63089
614.317	63524
614.383	61730
614.449	63650
614.516	63037
614.582	63791
614.648	62189
614.715	63195
614.781	61318
614.847	62789
614.914	61548
614.980	60974
615.046	59678
615.112	62341
615.179	61944
615.245	63850
615.311	65338
615.377	73188
615.443	74851
615.509	67699
615.575	67941
615.642	66783
615.708	68971
615.774	72254
615.840	76462
615.906	83393
615.972	104119
616.038	162465
616.104	307425
616.170	678580
616.236	577045
616.302	148558
616.368	107627
616.434	83892
616.500	80015
616.565	82943
616.631	97904
616.697	85148
616.763	87529
616.829	119354
616.895	192875
616.961	184329
617.026	94361
617.092	72524
617.158	69406
617.224	67157
617.289	64317
617.355	61674
617.421	60485
617.487	61815
617.552	58726
617.618	58901
617.684	58430
617.749	60773
617.815	58253
617.880	57701
617.946	57329
618.012	60446
618.077	59708
618.143	56283
618.208	57586
618.274	61660
618.339	60991
618.405	51268
618.470	52561
618.536	50767
618.601	51769
618.667	48030
618.732	47615
618.798	47408
618.863	47058
618.928	47004
618.994	48932
619.059	50596
619.124	58103
619.190	51333
619.255	45688
619.320	45889
619.386	45490
619.451	44213
619.516	44901
619.581	43590
619.647	46232
619.712	46700
619.777	44766
619.842	45710
619.907	46557
619.972	46734
620.038	47725
620.103	45409
620.168	45596
620.233	46541
620.298	45860
620.363	46959
620.428	48904
620.493	50438
620.558	49341
620.623	50191
620.688	49476
620.753	49018
620.818	49645
620.883	49115
620.948	48516
621.013	48556
621.078	47621
621.143	46997
621.207	47800
621.272	46664
621.337	47045
621.402	47496
621.467	47803
621.532	49372
621.596	47748
621.661	45606
621.726	44675
621.791	45581
621.855	47753
621.920	48902
621.985	47936
622.049	49453
622.114	48616
622.179	48179
622.243	48660
622.308	49259
622.373	51420
622.437	51411
622.502	48528
622.566	47911
622.631	47814
622.695	49653
622.760	49908
622.824	49172
622.889	49143
622.953	52903
623.018	62900
623.082	61503
623.147	51183
623.211	50683
623.276	50785
623.340	47171
623.404	45743
623.469	46018
623.533	47224
623.597	45725
623.662	45683
623.726	43243
623.790	41423
623.854	40631
623.919	42831
623.983	41597
624.047	43219
624.111	40785
624.176	44039
624.240	44850
624.304	47150
624.368	43207
624.432	42338
624.496	43998
624.560	47662
624.625	49427
624.689	46154
624.753	45698
624.817	44096
624.881	43303
624.945	40309
625.009	39222
625.073	40625
625.137	42639
625.201	48532
625.265	47572
625.329	41948
625.393	43196
625.456	41882
625.520	42996
625.584	44248
625.648	47245
625.712	53637
625.776	74492
625.839	76998
625.903	46068
625.967	36299
626.031	47057
626.095	58962
626.158	40748
626.222	32307
626.286	31729
626.349	30389
626.413	29580
626.477	32020
626.540	29168
626.604	29010
626.668	30415
626.731	28919
626.795	28650
626.858	28964
626.922	27408
626.986	28784
627.049	25725
627.113	28873
627.176	28366
627.240	27343
627.303	26949
627.366	26281
627.430	27911
627.493	27860
627.557	26357
627.620	28870
627.684	27123
627.747	28007
627.810	24953
627.874	24305
627.937	22635
628.000	26852
628.064	24423
628.127	19497
628.190	22596
628.253	21135
628.317	20847
628.380	20802
628.443	21143
628.506	20991
628.569	20250
628.632	17770
628.696	19562
628.759	18245
628.822	18794
628.885	17187
628.948	18104
629.011	18753
629.074	18209
629.137	17160
629.200	17143
629.263	18964
629.326	16330
629.389	17685
629.452	16950
629.515	17516
629.578	16998
629.641	17250
629.704	16746
629.767	18146
629.830	16922
629.892	17404
629.955	15994
630.018	18951
630.081	17589
630.144	20731
630.207	18048
630.269	19153
630.332	16567
630.395	16717
630.458	15944
630.520	14754
630.583	17654
630.646	16141
630.708	15010
630.771	15540
630.834	16610
630.896	15000
630.959	15729
631.021	15344
631.084	15130
631.146	15618
631.209	16750
631.272	14866
631.334	14788
631.397	15317
631.459	14627
631.522	16405
631.584	16365
631.646	17406
631.709	17304
631.771	19779
631.834	17013
631.896	15831
631.958	14323
632.021	16309
632.083	13782
632.145	14794
632.208	14575
632.270	14926
632.332	13741
632.395	13770
632.457	14860
632.519	14225
632.581	14780
632.643	13308
632.706	14762
632.768	13671
632.830	14569
632.892	13661
632.954	13366
633.016	14829
633.078	13531
633.141	13210
633.203	13997
633.265	13979
633.327	14216
633.389	13960
633.451	14817
633.513	16865
633.575	15906
633.637	15788
633.698	15295
633.760	14123
633.822	15264
633.884	15078
633.946	13960
634.008	14824
634.070	14141
634.132	15113
634.193	16355
634.255	15919
634.317	15849
634.379	16704
634.441	15112
634.502	14120
634.564	13430
634.626	12272
634.687	12878
634.749	12387
634.811	12800
634.873	12067
634.934	12344
634.996	12749
635.057	11862
635.119	11323
635.181	12692
635.242	13435
635.304	11211
635.365	14966
635.427	12297
635.488	12583
635.550	12347
635.611	12258
635.673	10618
635.734	13971
635.796	12777
635.857	15029
635.918	14010
635.980	14456
636.041	14764
636.102	15733
636.164	16074
636.225	16431
636.286	13077
636.348	13807
636.409	12107
636.470	11559
636.531	12707
636.593	11295
636.654	11856
636.715	10902
636.776	10406
636.838	10150
636.899	11765
636.960	11033
637.021	10413
637.082	10648
637.143	10387
637.204	9197
637.265	9875
637.326	10191
637.387	11143
637.448	9283
637.509	10500
637.570	10301
637.631	10294
637.692	9379
637.753	9348
637.814	9968
637.875	10354
637.936	10514
637.997	9727
638.058	9703
638.119	10277
638.179	9158
638.240	8915
638.301	10021
638.362	8547
638.423	9967
638.483	10174
638.544	8654
638.605	9095
638.666	8134
638.726	9582
638.787	10032
638.848	9093
638.908	8752
638.969	9209
639.030	9503
639.090	8503
639.151	8264
639.211	10231
639.272	12650
639.332	17585
639.393	11329
639.453	9061
639.514	9449
639.574	9182
639.635	8770
639.695	9463
639.756	8210
639.816	9201
639.877	10305
639.937	15524
639.997	19154
640.058	9292
640.118	7329
640.178	9413
640.239	8242
640.299	7801
640.359	7850
640.420	9147
640.480	9475
640.540	9566
640.600	8903
640.661	9833
640.721	8236
640.781	11963
640.841	7430
640.901	8467
640.961	8677
641.021	9748
641.082	9654
641.142	12967
641.202	10214
641.262	6662
641.322	8915
641.382	6713
641.442	8467
641.502	7739
641.562	8294
641.622	8376
641.682	7885
641.742	8549
641.802	8356
641.861	8748
641.921	8224
641.981	9260
642.041	9360
642.101	9456
642.161	8033
642.221	7125
642.280	7020
642.340	6666
642.400	6775
642.460	8618
642.519	7408
642.579	7544
642.639	8228
642.698	6127
642.758	9497
642.818	7522
642.877	6463
642.937	8583
642.997	8828
643.056	12225
643.116	7450
643.175	8889
643.235	7713
643.294	8312
643.354	8348
643.414	9274
643.473	10267
643.532	11275
643.592	14586
643.651	22951
643.711	40304
643.770	78216
643.830	188606
643.889	396979
643.948	91572
644.008	19269
644.067	11819
644.126	10410
644.186	9202
644.245	8864
644.304	6760
644.363	9164
644.423	6245
644.482	7765
644.541	7520
644.600	5882
644.659	9299
644.719	10307
644.778	14313
644.837	22597
644.896	44190
644.955	101512
645.014	34857
645.073	10616
645.132	8717
645.191	8111
645.250	6726
645.309	8345
645.368	7838
645.427	10430
645.486	12355
645.545	22401
645.604	8312
645.663	7306
645.722	6935
645.781	6955
645.840	8230
645.898	10565
645.957	14606
646.016	20675
646.075	37175
646.134	71338
646.192	192383
646.251	281929
646.310	41846
646.369	13642
646.427	10973
646.486	7668
646.545	7580
646.603	7636
646.662	6601
646.721	6316
646.779	5814
646.838	6679
646.896	8090
646.955	9759
647.014	15174
647.072	24823
647.131	63220
647.189	31064
647.248	7427
647.306	6073
647.365	6784
647.423	3928
647.481	6900
647.540	4342
647.598	5524
647.657	5053
647.715	5360
647.773	4552
647.832	6216
647.890	3961
647.948	4007
648.007	6066
648.065	3614
648.123	4196
648.181	6730
648.240	5765
648.298	3771
648.356	5015
648.414	5369
648.472	4726
648.531	5682
648.589	4911
648.647	5066
648.705	4517
648.763	5141
648.821	4372
648.879	4860
648.937	5377
648.995	6688
649.053	6724
649.111	10751
649.169	17401
649.227	29535
649.285	60252
649.343	172325
649.401	81643
649.459	25708
649.516	15455
649.574	6573
649.632	10129
649.690	11246
649.748	9315
649.806	9997
649.863	20302
649.921	45320
649.979	28977
650.037	6654
650.094	3468
650.152	4955
650.210	4106
650.268	3962
650.325	5066
650.383	4274
650.440	3295
650.498	4203
650.556	3399
650.613	3750
650.671	4124
650.728	3756
650.786	3714
650.843	4596
650.901	2661
650.958	4359
651.016	3932
651.073	3564
651.131	3150
651.188	2903
651.246	3492
651.303	2490
651.360	3848
651.418	3184
651.475	3928
651.532	2968
651.590	3617
651.647	2530
651.704	3297
651.762	3289
651.819	3261
651.876	2459
651.933	2985
651.990	3683
652.048	1670
652.105	3414
652.162	3645
652.219	2293
652.276	2782
652.333	3219
652.390	2583
652.448	3127
652.505	2818
652.562	2794
652.619	3389
652.676	4192
652.733	4136
652.790	2688
652.847	2249
652.904	3764
652.961	1447
653.017	1978
653.074	4039
653.131	3694
653.188	2030
653.245	2566
653.302	3055
653.359	2463
653.415	4126
653.472	1625
653.529	3018
653.586	2146
653.642	1600
653.699	2903
653.756	2319
653.813	2111
653.869	2926
653.926	1752
653.983	1720
654.039	3019
654.096	2543
654.152	3364
654.209	1035
654.266	2261
654.322	1533
654.379	4051
654.435	3388
654.492	2959
654.548	4833
654.605	6285
654.661	4200
654.717	1568
654.774	3571
654.830	3231
654.887	2921
654.943	2263
655.000	2777
655.056	3089
655.112	3203
655.168	1945
655.225	2537
655.281	2819
655.337	2701
655.394	4450
655.450	3336
655.506	3964
655.562	4455
655.618	5174
655.675	2151
655.731	2552
655.787	1986
655.843	2837
655.899	1555
655.955	3213
656.011	2462
656.067	1860
656.123	2833
656.179	2730
656.235	3885
656.291	1002
656.347	3154
656.403	2568
656.459	2414
656.515	1984
656.571	2896
656.627	2449
656.683	2779
656.739	2599
656.795	2993
656.850	2808
656.906	4103
656.962	3491
657.018	2058
657.074	2662
657.129	3193
657.185	4091
657.241	6931
657.297	4159
657.352	2792
657.408	2408
657.464	3403
657.519	1987
657.575	1984
657.630	1701
657.686	2772
657.742	1720
657.797	1990
657.853	2251
657.908	3185
657.964	1379
658.019	2864
658.075	1503
658.130	3070
658.186	1668
658.241	2688
658.297	1353
658.352	1564
658.407	2483
658.463	1301
658.518	2876
658.573	2029
658.629	1831
658.684	1640
658.739	2399
658.795	2036
658.850	2266
658.905	2059
658.960	2678
659.016	2041
659.071	2303
659.126	2333
659.181	3573
659.236	5693
659.291	6346
659.346	2823
659.401	2584
659.457	3661
659.512	2429
659.567	3264
659.622	1575
659.677	1414
659.732	2092
659.787	2422
659.842	2428
659.897	2972
659.952	2216
660.007	2203
660.061	1954
660.116	1672
660.171	1618
660.226	2287
660.281	3080
660.336	2127
660.391	2102
660.445	1910
660.500	1657
660.555	1816
660.610	2227
660.664	2659
660.719	1452
660.774	2194
660.828	3086
660.883	3275
660.938	3148
660.992	1291
661.047	2710
661.101	1180
661.156	1512
661.211	679
661.265	2774
661.320	2208
661.374	1183
661.429	1861
661.483	2444
661.538	993
661.592	2237
661.647	1626
661.701	2990
661.755	1650
661.810	1999
661.864	942
661.919	1552
661.973	1733
662.027	1717
662.081	1463
662.136	1640
662.190	2037
662.244	1941
662.299	1870
662.353	1591
662.407	2705
662.461	2056
662.515	1872
662.569	2540
662.624	2267
662.678	1594
662.732	2148
662.786	1384
662.840	2176
662.894	1709
662.948	1469
663.002	1863
663.056	1686
663.110	1872
663.164	2012
663.218	1945
663.272	2055
663.326	2625
663.380	2472
663.434	2118
663.488	1458
663.542	1930
663.595	2204
663.649	1618
663.703	2669
663.757	1039
663.811	1855
663.864	1798
663.918	2474
663.972	1513
664.026	2240
664.079	1511
664.133	2117
664.187	2327
664.240	2117
664.294	2201
664.348	2015
664.401	2263
664.455	1089
664.508	1639
664.562	1641
664.615	1917
664.669	1161
664.722	1690
664.776	1766
664.829	1980
664.883	2113
664.936	1113
664.990	1507
665.043	2081
665.097	2243
665.150	3328
665.203	2158
665.257	1549
665.310	2034
665.363	1955
665.417	1874
665.470	2416
665.523	1822
665.576	1802
665.630	2422
665.683	1136
665.736	2712
665.789	2424
665.842	2148
665.895	1851
665.949	2041
666.002	2121
666.055	1377
666.108	2245
666.161	1999
666.214	1716
666.267	3030
666.320	3243
666.373	2489
666.426	1960
666.479	1736
666.532	2657
666.585	2461
666.638	1938
666.691	1917
666.744	2838
666.796	2294
666.849	1998
666.902	1944
666.955	2006
667.008	2182
667.060	1581
667.113	1143
667.166	2491
667.219	1908
667.271	1614
667.324	2264
667.377	1515
667.430	2115
667.482	2418
667.535	2099
667.587	3172
667.640	2243
667.693	3402
667.745	4861
667.798	5150
667.850	2480
667.903	2257
667.955	2456
668.008	2297
668.060	2442
668.113	1882
668.165	2706
668.218	3029
668.270	2585
668.322	2793
668.375	1573
668.427	2017
668.479	2079
668.532	2503
668.584	2029
668.636	2310
668.689	2374
668.741	1521
668.793	1965
668.845	2201
668.898	2521
668.950	1099
669.002	2206
669.054	2324
669.106	1442
669.158	2647
669.211	2253
669.263	1664
669.315	3019
669.367	2685
669.419	1959
669.471	3155
669.523	2586
669.575	3908
669.627	2536
669.679	2196
669.731	2884
669.783	2421
669.835	3217
669.886	2450
669.938	2699
669.990	2339
670.042	2688
670.094	2374
670.146	2839
670.197	3473
670.249	4183
670.301	4647
670.353	7145
670.404	10216
670.456	13662
670.508	24450
670.560	41815
670.611	76742
670.663	137261
670.715	329819
670.766	494633
670.818	141768
670.869	27136
670.921	13419
670.972	9471
671.024	7670
671.075	6148
671.127	4930
671.178	3980
671.230	4289
671.281	3636
671.333	3175
671.384	2721
671.436	3936
671.487	4012
671.538	4443
671.590	5945
671.641	9721
671.692	14669
671.744	28232
671.795	17877
671.846	7400
671.897	3939
671.949	3593
672.000	2883
672.051	2260
672.102	2521
672.153	1894
672.204	2287
672.256	1507
672.307	2534
672.358	1867
672.409	2662
672.460	1131
672.511	1640
672.562	1778
672.613	2701
672.664	1714
672.715	1659
672.766	1127
672.817	1016
672.868	1881
672.919	1240
672.970	615
673.021	2025
673.071	1908
673.122	1495
673.173	1733
673.224	382
673.275	1457
673.326	1323
673.376	1790
673.427	1224
673.478	1494
673.528	1783
673.579	1399
673.630	1827
673.680	1502
673.731	1286
673.782	1554
673.832	909
673.883	2458
673.934	1184
673.984	1346
674.035	1665
674.085	2231
674.136	1700
674.186	1154
674.237	1372
674.287	3076
674.338	1802
674.388	1572
674.438	1178
674.489	1040
674.539	1209
674.589	1691
674.640	1657
674.690	1647
674.740	1641
674.791	1193
674.841	1395
674.891	1907
674.942	1521
674.992	1692
675.042	1302
675.092	885
675.142	993
675.193	1195
675.243	786
675.293	2143
675.343	101
675.393	1462
675.443	1876
675.493	1518
675.543	170
675.593	1798
675.643	2019
675.693	1117
675.743	1983
675.793	774
675.843	738
675.893	910
675.943	590
675.993	1384
676.043	568
676.093	1383
676.142	1281
676.192	1636
676.242	1023
676.292	773
676.341	1125
676.391	1322
676.441	604
676.491	122
676.540	1223
676.590	31
676.640	712
676.689	966
676.739	1161
676.789	625
676.838	555
676.888	1501
676.937	571
676.987	517
677.037	1230
677.086	1392
677.136	978
677.185	295
677.235	309
677.284	1208
677.333	362
677.383	588
677.432	545
677.482	879
677.531	1245
677.580	-29
677.630	939
677.679	-67
677.728	946
677.778	675
677.827	920
677.876	623
677.925	881
677.975	1010
678.024	842
678.073	180
678.122	655
678.171	851
678.220	1203
678.269	1817
678.319	1403
678.368	930
678.417	605
678.466	1117
678.515	995
678.564	893
678.613	983
678.662	746
678.711	996
678.760	292
678.809	549
678.857	148
678.906	1039
678.955	1065
679.004	1354
679.053	550
679.102	601
679.151	1311
679.199	593
679.248	1413
679.297	653
679.346	116
679.394	618
679.443	331
679.492	724
679.540	750
679.589	375
679.638	1086
679.686	326
679.735	1315
679.784	545
679.832	807
679.881	1061
679.929	188
679.978	191
680.026	576
680.075	536
680.123	211
680.172	276
680.220	625
680.268	125
680.317	482
680.365	228
680.414	-443
680.462	-421
680.510	826
680.559	-200
680.607	712
680.655	1138
680.703	1028
680.752	256
680.800	684
680.848	831
680.896	471
680.945	1066
680.993	509
681.041	190
681.089	609
681.137	30
681.185	542
681.233	152
681.258	288
681.281	391
681.329	-85
681.377	566
681.380	566
681.425	76
681.473	479
681.502	441
681.521	370
681.569	613
681.617	687
681.624	719
681.665	713
681.713	285
681.745	1107
681.761	1462
681.809	317
681.857	969
681.867	1079
681.904	1346
681.952	870
681.989	969
682.000	968
682.048	816
682.096	1237
682.111	1193
682.143	994
682.191	1386
682.233	1874
682.239	1925
682.286	1466
682.334	1744
682.354	1501
682.382	1119
682.430	2116
682.476	1901
682.477	1873
682.525	1412
682.572	1294
682.598	1482
682.620	1600
682.667	1394
682.715	1968
682.720	2031
682.763	2454
682.810	2617
682.841	2523
682.857	2414
682.905	2336
682.952	2117
682.963	2172
683.000	2255
683.047	1852
683.085	2504
683.095	2653
683.142	2294
683.190	2533
683.206	2297
683.237	1893
683.284	2214
683.328	1969
683.332	1923
683.379	2415
683.426	1911
683.449	2326
683.473	2704
683.521	2649
683.568	2622
683.571	2634
683.615	2619
683.662	3483
683.693	3175
683.709	2935
683.757	2070
683.804	3695
683.814	3653
683.851	3481
683.898	3188
683.936	3250
683.945	3256
683.992	4016
684.039	3234
684.057	3454
684.086	3752
684.133	3423
684.179	3078
684.180	3046
684.227	4003
684.274	3908
684.300	4069
684.321	4148
684.368	3224
684.415	3878
684.422	3892
684.462	3942
684.509	3601
684.543	3327
684.556	3198
684.603	3608
684.649	3897
684.665	3972
684.696	4168
684.743	4227
684.786	4304
684.790	4299
684.837	4337
684.883	4690
684.908	4678
684.930	4597
684.977	5137
685.023	4702
685.029	4715
685.070	4579
685.117	4324
685.150	4411
685.164	4529
685.210	4493
685.257	5408
685.272	5662
685.303	6053
685.350	5449
685.393	6372
685.396	6445
685.443	5881
685.490	5862
685.514	5969
685.536	5842
685.583	5667
685.629	5856
685.636	5771
685.675	5432
685.722	5658
685.757	5230
685.768	5029
685.815	5917
685.861	5519
685.878	5438
685.908	5513
685.954	5555
686.000	6318
686.000	6324
686.047	6520
686.093	6450
686.121	6860
686.139	6958
686.185	6904
686.232	6282
686.242	6302
686.278	6335
686.324	6286
686.363	5815
686.370	5750
686.416	6248
686.463	6111
686.484	5845
686.509	5572
686.555	5809
686.601	5670
686.606	5722
686.647	6092
686.693	5477
686.727	6076
686.739	6295
686.785	6242
686.831	6110
686.848	5834
686.877	5432
686.923	5402
686.969	6144
686.969	6146
687.015	6143
687.061	6495
687.090	6529
687.107	6562
687.153	6385
687.199	6992
687.211	6826
687.245	6294
687.291	6694
687.332	6599
687.336	6622
687.382	6589
687.428	6721
687.453	7419
687.474	7695
687.520	7132
687.565	6679
687.574	6549
687.611	6527
687.657	6550
687.695	6663
687.702	6710
687.748	7426
687.794	8238
687.816	8311
687.839	7989
687.885	8140
687.931	6870
687.937	6894
687.976	7327
688.022	7121
688.058	7125
688.067	7172
688.113	7429
688.158	7787
688.179	7884
688.204	7871
688.249	7604
688.295	7351
688.300	7362
688.340	7705
688.386	8243
688.421	7864
688.431	7759
688.477	7905
688.522	8326
688.542	8312
688.567	8227
688.613	8095
688.658	7858
688.663	7877
688.703	8006
688.749	7751
688.784	8014
688.794	8139
688.839	7737
688.884	8169
688.905	8312
688.930	8403
688.975	8121
689.020	8110
689.026	8047
689.065	7848
689.110	8464
689.146	8267
689.155	8197
689.201	8114
689.246	7948
689.267	8034
689.291	8234
689.336	8185
689.381	7894
689.388	7952
689.426	8213
689.471	8028
689.509	8166
689.516	8218
689.561	8370
689.606	7878
689.630	7976
689.651	7973
689.696	7897
689.741	8220
689.750	8104
689.785	8042
689.830	8246
689.871	8485
689.875	8491
689.920	8315
689.965	7797
689.992	7878
690.010	8048
690.054	8279
690.099	8628
690.112	8754
690.144	8910
690.189	8517
690.233	8323
690.233	8336
690.278	8658
690.323	8990
690.354	9303
690.367	9361
690.412	8963
690.457	8996
690.474	8912
690.501	8829
690.546	9158
690.590	8908
690.595	8906
690.635	9291
690.680	9308
690.716	9900
690.724	10114
690.769	10491
690.813	11436
690.836	11752
690.857	12643
690.902	14499
690.946	16178
690.957	16771
690.991	22079
691.035	29671
691.077	35957
691.080	35913
691.124	32083
691.168	28870
691.198	26928
691.213	25327
691.257	20599
691.301	16168
691.318	14541
691.346	14090
691.390	12258
691.434	11051
691.439	10944
691.478	11115
691.522	10796
691.559	10427
691.567	10459
691.611	10910
691.655	10926
691.680	11080
691.699	11073
691.743	11309
691.787	11084
691.800	10916
691.831	10508
691.875	10407
691.919	10269
691.921	10241
691.964	10560
692.008	10938
692.041	10998
692.052	10964
692.096	11236
692.139	11166
692.162	11071
692.183	10996
692.227	10917
692.271	11055
692.282	11018
692.315	10992
692.359	11141
692.402	10699
692.403	10719
692.447	10804
692.490	10811
692.523	10907
692.534	10978
692.578	10776
692.622	10954
692.643	10901
692.666	10757
692.709	10716
692.753	10308
692.763	10215
692.797	10400
692.840	10815
692.884	10866
692.884	10892
692.928	11431
692.971	11871
693.004	11811
693.015	11683
693.059	11524
693.102	11409
693.124	11251
693.146	11468
693.189	11852
693.233	12203
693.245	12296
693.276	12516
693.320	12889
693.363	12871
693.365	12849
693.407	13487
693.450	14323
693.485	14725
693.493	15019
693.537	16792
693.580	18357
693.605	19272
693.624	21404
693.667	26152
693.710	31440
693.725	33263
693.753	42472
693.797	57360
693.840	72122
693.845	73490
693.883	66810
693.926	59218
693.966	53072
693.970	52085
694.013	41120
694.056	30062
694.086	22048
694.099	21227
694.142	19184
694.185	16647
694.206	15560
694.229	15423
694.272	14687
694.315	14346
694.326	14240
694.358	14554
694.401	14743
694.444	14981
694.446	14944
694.487	14564
694.530	14459
694.566	14081
694.573	13967
694.616	13411
694.659	12612
694.686	12128
694.702	12168
694.745	12327
694.787	12256
694.806	12120
694.830	11909
694.873	11880
694.916	11845
694.926	11720
694.959	11660
695.002	11785
695.044	11924
695.046	11900
695.087	12222
695.130	12322
695.166	12624
695.172	12663
695.215	12558
695.258	12507
695.286	12355
695.301	12367
695.343	12446
695.386	12531
695.406	12517
695.428	12491
695.471	12304
695.514	12159
695.526	12099
695.556	12562
695.599	13284
695.641	13629
695.646	13662
695.684	13330
695.726	12921
695.766	12492
695.769	12537
695.811	12739
695.854	12768
695.886	12879
695.896	12915
695.938	12805
695.981	12802
696.005	12754
696.023	12904
696.065	13075
696.108	13483
696.125	13565
696.150	13688
696.192	13646
696.235	13747
696.245	13759
696.277	14027
696.319	14310
696.361	14511
696.365	14497
696.404	14236
696.446	13746
696.485	13370
696.488	13423
696.530	13614
696.572	13752
696.604	13902
696.614	13895
696.656	13548
696.698	13382
696.724	13197
696.740	13330
696.783	13614
696.825	13882
696.844	13953
696.867	13977
696.909	13888
696.951	13907
696.964	13884
696.992	13809
697.034	13570
697.076	13284
697.083	13195
697.118	13370
697.160	13716
697.202	13883
697.203	13851
697.244	13992
697.286	14033
697.323	14101
697.327	14112
697.369	13813
697.411	13535
697.442	13222
697.453	13372
697.494	13820
697.536	14367
697.562	14639
697.578	14695
697.620	14778
697.661	14778
697.682	14778
697.703	15222
697.744	16047
697.786	16848
697.801	17048
697.828	17043
697.869	17057
697.911	17079
697.921	17020
697.952	16651
697.994	16161
698.035	15682
698.040	15576
698.077	15153
698.118	14641
698.160	14134
698.160	14092
698.201	14498
698.243	14846
698.279	15139
698.284	15187
698.325	15246
698.367	15295
698.399	15248
698.408	15232
698.449	14986
698.491	14799
698.518	14582
698.532	14774
698.573	15269
698.614	15752
698.638	15982
698.656	15958
698.697	15823
698.738	15640
698.757	15524
698.779	15585
698.820	15607
698.862	15639
698.877	15606
698.903	15831
698.944	16116
698.985	16404
698.996	16440
699.026	16366
699.067	16200
699.116	15958
699.235	15391
699.354	14753
699.474	15218
699.593	15881
699.713	16817
699.832	14966
699.951	16588
700.070	15214
700.190	15503
700.309	14440
700.428	15368
700.547	14936
700.667	15102
700.786	15251
700.905	14496
701.024	14204
701.143	15630
701.262	13138
701.381	14082
701.500	14745
701.619	16716
701.738	13828
701.857	13397
701.976	12707
702.095	13256
702.214	14962
702.333	16004
702.452	13904
702.571	13645
702.690	13699
702.809	13969
702.928	12844
703.047	14210
703.165	13741
703.284	12794
703.403	12939
703.522	13390
703.640	14016
703.759	15715
703.878	18012
703.997	13602
704.115	12183
704.234	13280
704.353	13100
704.471	12106
704.590	12031
704.708	12392
704.827	11825
704.946	12675
705.064	12828
705.183	13009
705.301	13169
705.420	17677
705.538	16281
705.656	14223
705.775	14450
705.893	18494
706.012	19293
706.130	14633
706.249	13722
706.367	14328
706.485	15486
706.604	14718
706.722	15792
706.840	17086
706.958	17860
707.077	15819
707.195	13607
707.313	14156
707.431	13447
707.549	12930
707.668	12318
707.786	13668
707.904	12798
708.022	12889
708.140	13286
708.258	12868
708.376	13289
708.494	12813
708.612	14428
708.730	18457
708.848	17552
708.966	16899
709.084	15651
709.202	15338
709.320	14856
709.438	15112
709.556	15324
709.674	15113
709.791	15337
709.909	14796
710.027	13950
710.145	14813
710.263	15390
710.380	14291
710.498	13912
710.616	13205
710.733	14822
710.851	14746
710.969	14488
711.086	13799
711.204	13946
711.322	14436
711.439	14675
711.557	13765
711.674	12518
711.792	14232
711.909	13441
712.027	14469
712.144	13346
712.262	12867
712.379	13941
712.497	20194
712.614	18787
712.732	16762
712.849	15786
712.966	17389
713.084	20765
713.201	17047
713.318	17135
713.436	15980
713.553	16139
713.670	16149
713.787	17886
713.905	17662
714.022	16738
714.139	16469
714.256	18758
714.373	24591
714.490	35832
714.608	85569
714.725	355926
714.842	355922
714.959	30684
715.076	18272
715.193	16080
715.310	15617
715.427	14062
715.544	14680
715.661	13899
715.778	13753
715.895	15348
716.011	14861
716.128	13410
716.245	14300
716.362	16606
716.479	16317
716.596	12427
716.713	13455
716.829	14046
716.946	13987
717.063	11949
717.180	12323
717.296	11187
717.413	12476
717.530	12289
717.646	12616
717.763	11336
717.880	12265
717.996	11292
718.113	13518
718.229	11934
718.346	11089
718.462	11926
718.579	16284
718.695	26083
718.812	18182
718.928	15757
719.045	11953
719.161	11017
719.277	11601
719.394	11921
719.510	11768
719.626	11658
719.743	14817
719.859	17702
719.975	29223
720.092	103486
720.208	231755
720.324	29850
720.440	13630
720.557	13716
720.673	21350
720.789	23255
720.905	36703
721.021	15558
721.137	10396
721.253	10210
721.369	11652
721.486	11291
721.602	15136
721.718	10393
721.834	9326
721.950	10582
722.066	10017
722.181	9875
722.297	11616
722.413	10004
722.529	9885
722.645	9483
722.761	10001
722.877	9337
722.993	9306
723.108	10183
723.224	10594
723.340	9605
723.456	9689
723.571	9122
723.687	8569
723.803	9145
723.918	10066
724.034	9425
724.150	8682
724.265	10241
724.381	16585
724.497	19186
724.612	9104
724.728	8579
724.843	9022
724.959	9623
725.074	15394
725.190	17109
725.305	9357
725.421	8628
725.536	8399
725.651	8702
725.767	7827
725.882	8451
725.997	8332
726.113	8702
726.228	7798
726.343	7232
726.459	7376
726.574	8182
726.689	7427
726.804	9027
726.920	7466
727.035	7796
727.150	8551
727.265	7802
727.380	9026
727.495	8331
727.610	7317
727.725	7319
727.841	8588
727.956	9222
728.071	9290
728.186	7801
728.301	7547
728.416	8354
728.531	7720
728.645	6969
728.760	7905
728.875	7868
728.990	8820
729.105	7044
729.220	8469
729.335	8061
729.449	7790
729.564	6639
729.679	6180
729.794	7270
729.908	7106
730.023	7280
730.138	6657
730.253	6923
730.367	6543
730.482	7145
730.596	7765
730.711	7845
730.826	8657
730.940	8126
731.055	8275
731.169	7338
731.284	6631
731.398	7078
731.513	7791
731.627	7825
731.742	9385
731.856	9049
731.970	8004
732.085	9014
732.199	11649
732.313	17908
732.428	41757
732.542	124744
732.656	72283
732.771	14353
732.885	9591
732.999	9138
733.113	9364
733.227	9594
733.342	8764
733.456	7773
733.570	7936
733.684	8179
733.798	8247
733.912	7913
734.026	7103
734.140	7978
734.254	8243
734.368	10720
734.482	11981
734.596	6923
734.710	7340
734.824	6642
734.938	7817
735.052	7909
735.166	8251
735.280	8080
735.393	7935
735.507	8059
735.621	10333
735.735	12455
735.849	8134
735.962	6881
736.076	7574
736.190	6305
736.303	9286
736.417	9873
736.531	6936
736.644	6803
736.758	6226
736.872	7449
736.985	7363
737.099	6960
737.212	6808
737.326	6061
737.439	6082
737.553	7039
737.666	7069
737.780	6061
737.893	6630
738.007	5848
738.120	6189
738.233	6046
738.347	6253
738.460	5606
738.573	7743
738.687	7139
738.800	6861
738.913	9095
739.026	7075
739.140	6121
739.253	6645
739.366	6033
739.479	6548
739.592	6002
739.705	6759
739.818	6618
739.932	6248
740.045	6699
740.158	5894
740.271	6925
740.384	6383
740.497	5301
740.610	6782
740.723	6076
740.836	6051
740.949	6659
741.062	8907
741.174	7688
741.287	6583
741.400	5580
741.513	5416
741.626	6570
741.739	6734
741.851	6286
741.964	5755
742.077	5719
742.189	6150
742.302	6662
742.415	5928
742.527	5682
742.640	5328
742.753	5271
742.865	4974
742.978	5183
743.090	6051
743.203	5129
743.316	5320
743.428	4921
743.541	5585
743.653	5135
743.766	5054
743.878	4985
743.990	6628
744.103	6367
744.215	6856
744.327	5064
744.440	6757
744.552	10533
744.664	7140
744.777	4959
744.889	4619
745.001	4692
745.113	4372
745.226	4655
745.338	5768
745.450	4693
745.562	5482
745.674	4895
745.786	5297
745.898	4620
746.010	4340
746.122	4681
746.234	5873
746.347	4710
746.459	4627
746.570	4723
746.682	5023
746.794	5312
746.906	4796
747.018	3873
747.130	5140
747.242	4846
747.354	4696
747.466	6288
747.577	4855
747.689	5378
747.801	4180
747.913	4801
748.024	4333
748.136	4171
748.248	5294
748.359	4068
748.471	4773
748.583	4532
748.694	4077
748.806	4966
748.918	5290
749.029	5128
749.141	5603
749.252	4959
749.364	6441
749.475	11594
749.587	6252
749.698	4038
749.809	4527
749.921	3646
750.032	5231
750.144	3888
750.255	4472
750.366	3792
750.478	4069
750.589	4989
750.700	4895
750.811	4787
750.923	6962
751.034	13514
751.145	13119
751.256	4035
751.367	4364
751.479	3813
751.590	4153
751.701	3997
751.812	4561
751.923	4401
752.034	4309
752.145	3407
752.256	4105
752.367	3610
752.478	4019
752.589	3623
752.700	4276
752.811	3779
752.922	4379
753.032	4581
753.143	5591
753.254	3636
753.365	3991
753.476	3627
753.586	3778
753.697	3491
753.808	4238
753.919	3878
754.029	4462
754.140	4015
754.251	3790
754.361	3768
754.472	4714
754.582	4476
754.693	4150
754.804	3729
754.914	3966
755.025	3646
755.135	4210
755.246	3850
755.356	3788
755.466	4761
755.577	3094
755.687	3343
755.798	4420
755.908	2724
756.018	3844
756.129	3296
756.239	3691
756.349	4076
756.460	3751
756.570	4259
756.680	4238
756.790	4108
756.900	4973
757.011	3720
757.121	4322
757.231	3957
757.341	4722
757.451	2792
757.561	3715
757.671	3890
757.781	4382
757.891	4245
758.001	3600
758.111	4033
758.221	5117
758.331	5186
758.441	5803
758.551	6124
758.661	6749
758.771	4974
758.880	5641
758.990	3998
759.100	5148
759.210	4263
759.320	5066
759.429	3280
759.539	5424
759.649	4620
759.758	4904
759.868	4986
759.978	5834
760.087	6406
760.197	5604
760.307	4758
760.416	5708
760.526	4801
760.635	5482
760.745	5834
760.854	5784
760.964	6043
761.073	6325
761.182	6113
761.292	5689
761.401	6459
761.511	6236
761.620	5764
761.729	6306
761.839	5644
761.948	6291
762.057	6240
762.166	5956
762.276	5232
762.385	7356
762.494	6132
762.603	6664
762.712	6338
762.822	6736
762.931	6667
763.040	6538
763.149	6804
763.258	6895
763.367	7093
763.476	7547
763.585	7401
763.694	8688
763.803	7642
763.912	9051
764.021	10085
764.130	8747
764.238	9814
764.347	10595
764.456	11000
764.565	12708
764.674	12125
764.783	12788
764.891	13532
765.000	17380
765.109	18176
765.217	20500
765.326	25491
765.435	29104
765.543	35976
765.652	42578
765.761	56827
765.869	77913
765.978	116544
766.086	187911
766.195	330951
766.303	611094
766.412	802909
766.520	732997
766.629	520923
766.737	266242
766.846	154563
766.954	102334
767.062	74864
767.171	56864
767.279	44012
767.387	34627
767.496	29004
767.604	26986
767.712	23629
767.820	20894
767.928	18744
768.037	17761
768.145	16861
768.253	16573
768.361	16128
768.469	15570
768.577	15094
768.685	17420
768.793	18110
768.901	19324
769.009	22857
769.117	26681
769.225	34012
769.333	48041
769.441	76228
769.549	131357
769.657	267432
769.765	568959
769.873	686270
769.981	487322
770.088	207996
770.196	103590
770.304	65854
770.412	47204
770.519	34961
770.627	28585
770.735	22427
770.842	19421
770.950	16673
771.058	15676
771.165	14516
771.273	12900
771.380	10521
771.488	11413
771.595	10826
771.703	10342
771.810	9645
771.918	9955
772.025	9081
772.133	8631
772.240	8893
772.348	9454
772.455	8099
772.562	6990
772.670	6742
772.777	7608
772.884	6585
772.991	7287
773.099	6661
773.206	6018
773.313	6626
773.420	7231
773.528	5791
773.635	6329
773.742	6555
773.849	6125
773.956	6508
774.063	5205
774.170	5322
774.277	6605
774.384	4843
774.491	5510
774.598	5650
774.705	6693
774.812	6458
774.919	6347
775.026	5580
775.133	5161
775.239	4611
775.346	4701
775.453	4377
775.560	4571
775.667	4307
775.773	3784
775.880	5447
775.987	4667
776.093	4896
776.200	4856
776.307	3477
776.413	4758
776.520	4733
776.627	4459
776.733	4328
776.840	3558
776.946	5003
777.053	4552
777.159	4702
777.266	3229
777.372	4915
777.478	4321
777.585	3524
777.691	3351
777.798	4416
777.904	5266
778.010	6412
778.117	5405
778.223	3074
778.329	4062
778.435	3802
778.542	4213
778.648	3230
778.754	4052
778.860	4165
778.966	3830
779.072	3828
779.178	3615
779.284	3236
779.391	3798
779.497	3294
779.603	6610
779.708	4997
779.815	12865
779.920	44597
780.026	76250
780.132	10667
780.238	4938
780.344	3147
780.450	5113
780.556	2926
780.661	3106
780.767	3137
780.873	3319
780.979	3972
781.085	3068
781.190	2816
781.296	3356
781.402	2408
781.507	2814
781.613	2398
781.719	3248
781.824	2703
781.930	3610
782.035	2829
782.141	3921
782.246	2307
782.352	2573
782.457	1946
782.563	3577
782.668	2975
782.773	3438
782.879	1974
782.984	3239
783.090	3318
783.195	5921
783.300	4112
783.405	3203
783.511	2697
783.616	4002
783.721	2192
783.826	3378
783.932	2976
784.037	3182
784.142	2389
784.247	3042
784.352	2609
784.457	2934
784.562	2687
784.667	2450
784.772	1985
784.877	1722
784.982	2682
785.087	2392
785.192	2383
785.297	2060
785.402	1794
785.507	1791
785.611	2127
785.716	3041
785.821	2984
785.926	1688
786.031	1911
786.135	2057
786.240	2962
786.345	2354
786.450	2243
786.554	2550
786.659	1567
786.763	1617
786.868	2361
786.973	3061
787.077	1235
787.182	3261
787.286	1708
787.391	2391
787.495	2503
787.600	1712
787.704	1736
787.809	3010
787.913	1127
788.017	2975
788.122	2297
788.226	1875
788.330	1476
788.435	1941
788.539	2126
788.643	1119
788.747	1542
788.852	2072
788.956	969
789.060	2828
789.164	2309
789.268	1082
789.372	1620
789.476	1574
789.580	795
789.684	1944
789.788	1898
789.892	918
789.996	2365
790.100	1825
790.204	2349
790.308	2497
790.412	1313
790.516	2274
790.620	1663
790.724	1962
790.828	1759
790.931	1357
791.035	3575
791.139	1610
791.242	1408
791.346	2548
791.450	1479
791.554	1823
791.657	932
791.761	2711
791.864	2207
791.968	2160
792.072	2302
792.175	1927
792.279	1473
792.382	1799
792.486	1303
792.589	1574
792.693	1474
792.796	1353
792.899	2284
793.003	1795
793.106	427
793.209	1862
793.313	2579
793.416	1177
793.519	2513
793.623	4409
793.726	5105
793.829	2637
793.932	1836
794.035	1054
794.138	2536
794.242	2938
794.345	2759
794.448	4580
794.551	7827
794.654	23077
794.757	37790
794.860	6531
794.963	2315
795.066	1892
795.169	2424
795.272	153
795.375	1802
795.477	1282
795.580	1602
795.683	586
795.786	1533
795.889	1070
795.991	2784
796.094	2724
796.197	783
796.300	1895
796.402	753
796.505	1126
796.608	805
796.710	714
796.813	1175
796.915	906
797.018	1222
797.120	2418
797.223	58
797.326	2200
797.428	941
797.530	1140
797.633	624
797.735	2136
797.838	2353
797.940	2846
798.042	805
798.145	622
798.247	1082
798.349	463
798.452	1849
798.554	549
798.656	-155
798.758	2957
798.860	800
798.962	1093
799.065	721
799.167	871
799.269	2382
799.371	1327
799.473	2110
799.575	1062
799.677	1799
799.779	3812
799.881	2664
799.983	3301
800.085	1473
800.187	1158
800.289	523
800.390	711
800.492	1138
800.594	2162
800.696	399
800.798	307
800.899	992
801.001	1136
801.103	691
801.205	96
801.306	998
801.408	1045
801.509	903
801.611	1860
801.713	801
801.814	208
801.916	-18
802.017	954
802.119	122
802.220	808
802.322	81
802.423	2654
802.525	90
802.626	1380
802.727	1180
802.829	1659
802.930	-1682
803.031	2615
803.133	712
803.234	609
803.335	634
803.436	458
803.538	652
803.639	506
803.740	1029
803.841	-112
803.942	1092
804.043	757
804.144	-300
804.245	965
804.346	232
804.447	910
804.548	1469
804.649	2600
804.750	166
804.851	97
804.952	396
805.053	573
805.154	-806
805.255	2257
805.355	-131
805.456	279
805.557	-613
805.658	102
805.758	1055
805.859	580
805.960	667
806.061	-382
806.161	32
806.262	356
806.362	580
806.463	657
806.564	699
806.664	918
806.765	78
806.865	1428
806.966	-142
807.066	584
807.166	862
807.267	989
807.367	-417
807.468	717
807.568	-504
807.668	335
807.769	936
807.869	135
807.969	546
808.069	873
808.170	481
808.270	639
808.370	756
808.470	1781
808.570	208
808.670	417
808.770	1487
808.870	108
808.970	251
809.070	199
809.170	-4
809.271	1270
809.370	986
809.470	213
809.570	-351
809.670	377
809.770	-521
809.870	1096
809.970	627
810.070	611
810.169	645
810.269	-779
810.369	808
810.469	331
810.568	-359
810.668	-546
810.768	-121
810.867	783
810.967	116
811.066	656
811.166	26
811.265	470
811.365	536
811.464	-127
811.564	357
811.663	1217
811.763	-839
811.862	771
811.962	1328
812.061	25
812.160	-434
812.260	268
812.359	699
812.458	200
812.557	2787
812.657	4332
812.756	1264
812.855	430
812.954	186
813.053	1018
813.153	526
813.252	-285
813.351	737
813.450	450
813.549	-96
813.648	151
813.747	-285
813.846	1185
813.945	-414
814.044	636
814.143	417
814.242	832
814.341	-93
814.439	1000
814.538	1180
814.637	40
814.736	-75
814.835	615
814.933	-514
815.032	855
815.131	554
815.229	1866
815.328	1688
815.427	1671
815.525	1563
815.624	1128
815.722	699
815.821	1468
815.919	1335
816.018	1301
816.116	1983
816.215	1445
816.313	1516
816.412	1996
816.510	1625
816.609	3349
816.707	2404
816.805	2349
816.904	1221
817.002	2653
817.100	2806
817.198	3446
817.296	2525
817.395	3190
817.493	4327
817.591	2921
817.689	5961
817.787	6810
817.885	11064
817.983	20479
818.081	44113
818.179	103804
818.277	259997
818.375	227944
818.473	61687
818.571	22973
818.669	15006
818.767	12873
818.865	12578
818.963	15286
819.061	21640
819.158	38639
819.256	83461
819.354	193419
819.452	408402
819.549	273918
819.647	79385
819.745	32514
819.842	18879
819.940	12969
820.038	8861
820.135	8406
820.233	6893
820.330	4200
820.428	3690
820.525	4585
820.623	3473
820.720	2782
820.818	2970
820.915	3056
821.012	2201
821.110	884
821.207	2771
821.304	2003
821.402	2297
821.499	2655
821.596	1835
821.693	2443
821.791	2708
821.888	3328
821.985	5865
822.082	4706
822.179	2287
822.276	1855
822.373	1598
822.470	1801
822.567	1700
822.664	1050
822.761	2327
822.858	412
822.955	1247
823.052	1049
823.149	915
823.246	1744
823.343	1031
823.440	1408
823.536	-609
823.633	394
823.730	132
823.827	640
823.923	771
824.020	1559
824.117	1204
824.213	718
824.310	1237
824.407	1194
824.503	314
824.600	1938
824.696	625
824.793	1930
824.889	160
824.986	802
825.082	-431
825.179	888
825.275	883
825.371	599
825.468	1222
825.564	429
825.660	1461
825.757	1339
825.853	856
825.949	-285
826.045	1149
826.142	465
826.238	488
826.334	857
826.430	-462
826.526	838
826.622	-630
826.718	729
826.814	-229
826.910	1056
827.006	-464
827.102	-395
827.198	753
827.294	450
827.390	757
827.486	1020
827.582	-1262
827.678	-146
827.774	1080
827.869	77
827.965	709
828.061	-382
828.157	-216
828.252	809
828.348	-467
828.444	1768
828.539	-607
828.635	424
828.731	1013
828.826	-451
828.922	269
829.017	146
829.113	273
829.208	670
829.304	-171
829.399	1010
829.495	-96
829.590	1107
829.685	-52
829.781	369
829.876	-282
829.971	-111
830.066	-373
830.162	-168
830.257	135
830.352	1030
830.447	1353
830.543	616
830.638	-1324
830.733	423
830.828	-571
830.923	298
831.018	193
831.113	551
831.208	-956
831.303	111
831.398	-99
831.493	-227
831.588	90
831.683	686
831.778	-344
831.873	-367
831.967	1
832.062	-461
832.157	-556
832.252	674
832.346	-54
832.441	1063
832.536	1769
832.631	5505
832.725	4174
832.820	38
832.914	-423
833.009	174
833.104	944
833.198	1422
833.293	-202
833.387	750
833.482	-36
833.576	155
833.670	1095
833.765	3
833.859	-7
833.954	-49
834.048	241
834.142	627
834.237	201
834.331	245
834.425	735
834.519	-553
834.613	-599
834.708	-217
834.802	-19
834.896	133
834.990	24
835.084	-236
835.178	-588
835.272	-737
835.366	-624
835.460	116
835.554	-88
835.648	69
835.742	-647
835.836	695
835.930	-764
836.024	1048
836.117	770
836.211	308
836.305	1160
836.399	1302
836.493	-108
836.586	882
836.680	-330
836.774	-262
836.867	870
836.961	-830
837.055	21
837.148	-87
837.242	-165
837.335	1007
837.429	-98
837.522	-940
837.616	59
837.709	1265
837.803	479
837.896	495
837.989	-95
838.083	1185
838.176	1259
838.269	1226
838.363	1148
838.456	-6
838.549	1422
838.642	2720
838.735	6046
838.829	2406
838.922	-36
839.015	-104
839.108	-375
839.201	585
839.294	127
839.387	1142
839.480	-697
839.573	511
839.666	-340
839.759	97
839.852	-1659
839.945	-380
840.038	-732
840.131	208
840.223	-398
840.316	559
840.409	-985
840.502	-1005
840.594	1010
840.687	-1336
840.780	-230
840.873	-730
840.965	614
841.058	300
841.150	925
841.243	987
841.336	-15
841.428	13
841.521	-214
841.613	-142
841.706	-178
841.798	-296
841.890	-634
841.983	-1154
842.075	829
842.167	-285
842.260	-446
842.352	637
842.444	733
842.537	2225
842.629	2231
842.721	-47
842.813	-885
842.905	-736
842.997	158
843.090	-24
843.182	333
843.274	1993
843.366	5229
843.458	9652
843.550	6623
843.642	689
843.734	161
843.826	-194
843.918	-138
844.009	878
844.101	-935
844.193	207
844.285	24
844.377	392
844.469	636
844.560	273
844.652	224
844.744	416
844.835	-414
844.927	3
845.019	-327
845.110	565
845.202	-431
845.293	-59
845.385	-1271
845.476	-245
845.568	760
845.659	-566
845.751	-5
845.842	-65
845.934	-893
846.025	-733
846.116	279
846.208	491
846.299	-140
846.390	-187
846.482	83
846.573	1027
846.664	94
846.755	1604
846.846	1261
846.937	-87
847.029	33
847.120	-177
847.211	-684
847.302	786
847.393	-656
847.484	356
847.575	-687
847.666	-847
847.757	-790
847.847	21
847.938	877
848.029	-772
848.120	-118
848.211	-30
848.302	-175
848.392	-984
848.483	-170
848.574	-11
848.664	-665
848.755	-197
848.846	188
848.936	-99
849.027	-239
849.118	222
849.208	-151
849.299	1153
849.389	1917
849.480	2636
849.570	7979
849.661	14109
849.751	25954
849.841	9136
849.932	370
850.022	32
850.112	193
850.203	-517
850.293	-1257
850.383	-174
850.474	-374
850.564	-542
850.654	-793
850.744	-171
850.834	207
850.924	56
851.014	-846
851.104	-266
851.194	-314
851.284	278
851.374	1061
851.464	-609
851.554	-154
851.644	-286
851.734	1104
851.824	415
851.914	-605
852.004	372
852.094	-53
852.183	-1237
852.273	-343
852.363	121
852.452	-621
852.542	-187
852.632	-745
852.721	-313
852.811	-827
852.901	285
852.990	-1427
853.080	287
853.169	-402
853.259	866
853.348	-377
853.438	911
853.527	1810
853.617	1557
853.706	4557
853.795	9215
853.885	22699
853.974	45630
854.063	82912
854.152	136680
854.242	51809
854.331	8242
854.420	2102
854.509	1270
854.598	1540
854.687	418
854.777	512
854.866	54
854.955	-478
855.044	-84
855.133	-155
855.222	-747
855.311	-1108
855.400	-13
855.488	-792
855.577	-558
855.666	-1140
855.755	905
855.844	-304
855.933	143
856.021	47
856.110	-263
856.199	-943
856.288	-410
856.376	-356
856.465	-529
856.554	-662
856.642	-168
856.731	-890
856.819	4
856.908	-1092
856.996	-754
857.085	-1107
857.173	-193
857.262	-692
857.350	-446
857.438	-671
857.527	-472
857.615	-883
857.703	267
857.792	-1478
857.880	-249
857.968	-472
858.056	-785
858.145	-252
858.233	-501
858.321	-605
858.409	-62
858.497	-1692
858.585	-338
858.673	-135
858.761	-1064
858.849	-1274
858.937	-1016
859.025	-303
859.113	-269
859.201	-350
859.289	-169
859.377	-496
859.465	-172
859.552	-799
859.640	-262
859.728	-794
859.816	-280
859.903	-347
859.991	-781
860.079	-403
860.166	-535
860.254	-344
860.342	-992
860.429	-1277
860.517	-1083
860.604	-535
860.692	-932
860.779	-940
860.867	-373
860.954	-505
861.042	503
861.129	576
861.216	70
861.304	-259
861.391	-976
861.478	58
861.565	-608
861.653	-270
861.740	-1335
861.827	-1141
861.914	-395
862.001	-655
862.089	266
862.176	-599
862.263	-807
862.350	-28
862.437	-181
862.524	-1693
862.611	-555
862.698	-1105
862.785	92
862.871	-269
862.958	-73
863.045	-523
863.132	-321
863.219	-818
863.306	-702
863.392	-388
863.479	-637
863.566	-1016
863.652	-265
863.739	-821
863.826	-219
863.912	-884
863.999	-1077
864.086	-766
864.172	-988
864.259	-1514
864.345	-504
864.432	-188
864.518	-455
864.604	-1114
864.691	-273
864.777	-504
864.863	-94
864.950	643
865.036	108
865.122	1457
865.209	1411
865.295	817
865.381	1415
865.467	1086
865.553	1509
865.639	2170
865.726	5427
865.812	11869
865.898	23718
865.984	34921
866.070	66028
866.156	74077
866.242	18722
866.328	3702
866.414	2303
866.499	1282
866.585	1199
866.671	469
866.757	1334
866.843	660
866.928	470
867.014	919
867.100	864
867.186	653
867.271	1422
867.357	1437
867.442	1612
867.528	987
867.614	501
867.699	-188
867.785	346
867.870	160
867.956	261
868.041	859
868.127	53
868.212	1012
868.297	1152
868.383	994
868.468	1915
868.553	2700
868.639	3490
868.724	7313
868.809	7115
868.894	1237
868.979	436
869.065	-99
869.150	-129
869.235	135
869.320	363
869.405	-281
869.490	-1000
869.575	-94
869.660	-29
869.745	-177
869.830	171
869.915	-817
870.000	157
870.085	-139
870.169	1027
870.254	-839
870.339	-281
870.424	-774
870.509	110
870.593	-210
870.678	113
870.763	-215
870.847	25
870.932	-626
871.016	-58
871.101	-13
871.186	-384
871.270	-298
871.355	-389
871.439	-735
871.523	356
871.608	-419
871.692	-47
871.777	-386
871.861	250
871.945	-312
872.030	-348
872.114	-540
872.198	-216
872.282	-969
872.367	715
872.451	129
872.535	359
872.619	-457
872.703	-607
872.787	-401
872.871	407
872.955	-1108
873.039	-268
873.123	-828
873.207	696
873.291	-269
873.375	34
873.459	104
873.543	92
873.627	-168
873.711	-511
873.794	-251
873.878	-190
873.962	-208
874.045	-64
874.129	-973
874.137	-914
874.213	-326
874.245	-216
874.296	-41
874.352	-320
874.380	-454
874.460	-353
874.464	-349
874.547	142
874.568	-48
874.631	-612
874.676	-334
874.714	-102
874.784	262
874.798	332
874.881	653
874.892	517
874.965	-408
874.999	-399
875.048	-364
875.107	-375
875.131	-412
875.215	-773
875.215	-772
875.298	-397
875.323	-234
875.381	123
875.430	-18
875.465	-118
875.538	178
875.548	216
875.631	-394
875.646	-378
875.714	-278
875.753	-346
875.798	-403
875.861	380
875.881	608
875.964	-186
875.968	-180
876.047	-38
876.076	-168
876.130	-345
876.183	-463
876.213	-611
876.291	517
876.296	605
876.379	-147
876.398	-260
876.462	-663
876.506	-513
876.545	-387
876.613	-402
876.628	-408
876.711	-70
876.721	-87
876.794	-232
876.828	-339
876.877	-456
876.935	-440
876.960	-420
877.043	64
877.043	63
877.125	-151
877.150	-29
877.208	404
877.258	375
877.291	265
877.365	265
877.374	274
877.456	327
877.472	282
877.539	139
877.579	66
877.622	-5
877.687	574
877.704	728
877.787	61
877.794	61
877.869	141
877.901	158
877.952	20
878.008	351
878.034	553
878.115	-1043
878.117	-1073
878.199	-402
878.222	-235
878.282	233
878.329	152
878.364	27
878.437	-42
878.447	-43
878.529	-547
878.544	-518
878.611	-434
878.651	-299
878.694	28
878.758	123
878.776	68
878.858	270
878.865	213
878.941	-307
878.972	-231
879.023	-310
879.078	-831
879.105	-913
879.185	55
879.187	77
879.269	258
879.292	212
879.351	-340
879.399	-347
879.433	-214
879.506	-136
879.516	-102
879.598	-239
879.613	-124
879.680	175
879.720	32
879.762	-118
879.827	-1
879.844	49
879.926	-680
879.933	-641
880.007	-140
880.040	-49
880.089	80
880.147	721
880.171	955
880.253	1997
880.254	2005
880.335	3360
880.360	3636
880.417	4517
880.467	7089
880.499	8932
880.574	10589
880.580	10508
880.662	3068
880.680	2292
880.744	456
880.787	75
880.825	-2
880.893	-8
880.907	-95
880.989	-281
881.000	-356
881.070	-329
881.106	-218
881.152	6
881.213	101
881.233	-55
881.315	-27
881.319	-85
881.396	-341
881.426	-239
881.478	-338
881.532	-358
881.559	-268
881.639	-112
881.641	-111
881.722	240
881.745	225
881.803	318
881.852	-133
881.885	-557
881.958	-650
881.966	-620
882.047	249
882.064	328
882.129	623
882.171	604
882.210	497
882.277	1210
882.291	1451
882.372	1219
882.383	1221
882.454	338
882.489	-36
882.535	-198
882.596	-45
882.616	21
882.697	-190
882.702	-171
882.778	302
882.808	163
882.859	-268
882.914	-116
882.940	-6
883.020	-373
883.021	-369
883.102	359
883.127	460
883.183	93
883.233	-198
883.264	-114
883.339	-190
883.345	-178
883.426	95
883.445	102
883.507	-123
883.551	70
883.587	183
883.657	154
883.668	190
883.749	564
883.763	554
883.830	271
883.869	121
883.910	-99
883.975	-460
883.991	-432
884.072	259
884.081	253
884.152	193
884.187	235
884.233	170
884.292	356
884.314	275
884.394	-151
884.398	-189
884.475	-64
884.504	89
884.555	345
884.610	483
884.636	411
884.716	324
884.716	328
884.797	414
884.821	413
884.877	471
884.927	495
884.958	533
885.033	563
885.038	525
885.118	-115
885.139	-302
885.199	-308
885.244	-162
885.279	52
885.350	383
885.359	344
885.439	98
885.456	-52
885.520	138
885.561	404
885.600	241
885.667	18
885.680	69
885.760	155
885.773	168
885.840	-69
885.878	-144
885.920	71
885.984	549
886.000	587
886.080	364
886.089	380
886.160	749
886.195	721
886.240	382
886.300	169
886.320	166
886.400	80
886.406	54
886.480	500
886.511	864
886.560	715
886.616	284
886.640	163
886.720	-230
886.722	-239
886.800	94
886.827	157
886.879	136
886.932	274
886.959	453
887.038	831
887.039	832
887.119	530
887.143	396
887.198	62
887.248	-176
887.278	-27
887.354	253
887.358	271
887.437	645
887.459	716
887.517	845
887.564	1013
887.596	790
887.669	104
887.676	97
887.755	218
887.774	168
887.835	263
887.880	524
887.914	808
887.985	1060
887.994	990
888.073	484
888.090	386
888.153	270
888.195	108
888.232	170
888.300	362
888.311	383
888.391	527
888.405	531
888.470	428
888.510	360
888.549	448
888.615	698
888.628	626
888.708	79
888.720	-10
888.787	-302
888.825	-464
888.866	-253
888.930	81
888.945	163
889.024	575
889.035	630
889.103	1030
889.140	1222
889.182	912
889.245	478
889.261	435
889.340	228
889.349	198
889.419	452
889.454	606
889.498	584
889.559	539
889.577	617
889.656	965
889.664	998
889.735	1007
889.768	1011
889.814	1018
889.873	1023
889.978	1276
890.083	874
890.187	1006
890.292	207
890.397	979
890.501	536
890.606	153
890.710	264
890.815	417
890.919	801
891.024	592
891.128	34
891.233	498
891.337	719
891.442	846
891.546	684
891.650	455
891.755	1272
891.859	1156
891.963	417
892.068	51
892.172	-54
892.276	550
892.380	584
892.484	651
892.589	394
892.693	689
892.797	235
892.901	292
893.005	178
893.109	287
893.213	781
893.317	1260
893.421	806
893.525	-145
893.629	856
893.733	1088
893.837	277
893.941	736
894.045	-135
894.148	152
894.252	1005
894.356	477
894.460	1019
894.564	1175
894.667	592
894.771	903
894.875	-51
894.978	-89
895.082	591
895.186	440
895.289	1072
895.393	-236
895.496	480
895.600	754
895.703	414
895.807	-62
895.910	925
896.014	110
896.117	279
896.221	1040
896.324	32
896.427	1045
896.531	-196
896.634	934
896.737	-66
896.840	114
896.944	416
897.047	562
897.150	1087
897.253	9
897.356	-105
897.460	579
897.563	562
897.666	659
897.769	783
897.872	-672
897.975	1157
898.078	870
898.181	2
898.284	182
898.387	794
898.490	513
898.593	7
898.695	578
898.798	-343
898.901	204
899.004	192
899.107	406
899.209	153
899.312	-350
899.415	694
899.518	659
899.620	730
899.723	772
899.826	1082
899.928	1162
900.031	71
900.133	554
900.236	-427
900.338	685
900.441	557
900.543	739
900.646	411
900.748	365
900.851	-80
900.953	488
901.055	-253
901.158	375
901.260	709
901.362	1267
901.465	254
901.567	450
901.669	-165
901.771	-132
901.873	387
901.976	912
902.078	524
902.180	572
902.282	340
902.384	12
902.486	688
902.588	830
902.690	-4
902.792	130
902.894	151
902.996	66
903.098	44
903.200	353
903.302	867
903.404	71
903.505	432
903.607	-180
903.709	1046
903.811	307
903.913	905
904.014	590
904.116	-24
904.218	411
904.319	625
904.421	1091
904.523	-77
904.624	304
904.726	743
904.827	754
904.929	-103
905.030	-258
905.132	-126
905.233	-10
905.335	-307
905.436	-310
905.537	-282
905.639	649
905.740	416
905.841	199
905.943	804
906.044	-111
906.145	236
906.247	610
906.348	612
906.449	214
906.550	206
906.651	763
906.752	167
906.854	315
906.955	-553
907.056	211
907.157	-236
907.258	463
907.359	-165
907.460	-249
907.561	14
907.662	664
907.762	327
907.863	370
907.964	369
908.065	563
908.166	500
908.267	-225
908.367	122
908.468	644
908.569	-522
908.670	30
908.770	1021
908.871	681
908.971	-46
909.072	389
909.173	363
909.273	192
909.374	324
909.474	738
909.575	205
909.675	-233
909.776	-472
909.876	-127
909.977	-573
910.077	756
910.177	64
910.278	360
910.378	619
910.478	334
910.579	386
910.679	524
910.779	-244
910.879	210
910.980	20
911.080	725
911.180	393
911.280	156
911.380	123
911.480	820
911.580	646
911.680	179
911.780	-304
911.880	-649
911.980	-81
912.080	-682
912.180	517
912.280	190
912.380	110
912.480	-1
912.580	-568
912.679	330
912.779	929
912.879	-545
912.979	421
913.078	718
913.178	87
913.278	263
913.377	56
913.477	-196
913.577	195
913.676	137
913.776	-441
913.875	432
913.975	53
914.074	-691
914.174	43
914.273	-50
914.373	635
914.472	485
914.572	241
914.671	346
914.770	635
914.870	94
914.969	-597
915.068	-453
915.167	-396
915.267	685
915.366	153
915.465	524
915.564	793
915.663	239
915.763	353
915.862	877
915.961	790
916.060	-479
916.159	851
916.258	344
916.357	246
916.456	863
916.555	-393
916.654	318
916.752	186
916.851	43
916.950	311
917.049	87
917.148	-546
917.247	10
917.345	-875
917.444	6
917.543	-207
917.642	-546
917.740	-377
917.839	242
917.937	-2
918.036	684
918.135	174
918.233	274
918.332	-213
918.430	150
918.529	-738
918.627	-600
918.726	-296
918.824	298
918.923	-306
919.021	-532
919.119	-432
919.218	-263
919.316	354
919.414	-105
919.512	-269
919.611	470
919.709	168
919.807	25
919.905	-646
920.003	3
920.102	-413
920.200	1279
920.298	327
920.396	348
920.494	-282
920.592	-776
920.690	299
920.788	607
920.886	99
920.984	6
921.082	-305
921.180	-128
921.277	121
921.375	783
921.473	-387
921.571	433
921.669	971
921.766	-418
921.864	138
921.962	134
922.060	581
922.157	57
922.255	-39
922.352	897
922.450	627
922.548	-97
922.645	338
922.743	157
922.840	642
922.938	663
923.035	62
923.133	153
923.230	675
923.327	1209
923.425	998
923.522	1182
923.619	350
923.717	488
923.814	1877
923.911	67
924.008	1336
924.106	801
924.203	444
924.300	263
924.397	898
924.494	776
924.591	191
924.688	70
924.786	738
924.883	1546
924.979	914
925.077	939
925.173	1444
925.270	239
925.367	783
925.464	1589
925.561	1332
925.658	1267
925.755	50
925.852	1058
925.948	972
926.045	1015
926.142	527
926.239	1222
926.335	114
926.432	1493
926.529	206
926.625	1170
926.722	515
926.818	624
926.915	347
927.011	131
927.108	559
927.204	313
927.301	1115
927.397	331
927.494	1249
927.590	503
927.687	152
927.783	1014
927.879	716
927.976	338
928.072	-22
928.168	697
928.264	680
928.361	266
928.457	98
928.553	-68
928.649	445
928.745	626
928.841	461
928.937	1116
929.033	-56
929.129	908
929.225	222
929.321	360
929.417	75
929.513	-122
929.609	11
929.705	-342
929.801	912
929.897	469
929.993	342
930.089	926
930.184	-245
930.280	277
930.376	873
930.471	314
930.567	688
930.663	818
930.758	-114
930.854	-368
930.950	284
931.045	573
931.141	409
931.236	715
931.332	681
931.427	-50
931.523	294
931.618	-22
931.714	-212
931.809	475
931.905	337
932.000	-334
932.095	-485
932.191	42
932.286	325
932.381	-245
932.476	166
932.572	251
932.667	786
932.762	245
932.857	265
932.952	648
933.047	489
933.142	177
933.237	770
933.332	147
933.427	661
933.522	331
933.617	-12
933.712	185
933.807	-273
933.902	463
933.997	68
934.092	-160
934.187	205
934.282	667
934.376	444
934.471	210
934.566	147
934.661	-196
934.755	138
934.850	639
934.945	473
935.039	-358
935.134	773
935.228	-720
935.323	149
935.417	228
935.512	-85
935.606	-895
935.701	-70
935.795	1008
935.890	-705
935.984	351
936.079	688
936.173	-213
936.267	-603
936.362	-263
936.456	661
936.550	-47
936.644	-341
936.738	52
936.833	-499
936.927	-436
937.021	76
937.115	182
937.209	-543
937.303	291
937.397	-1134
937.491	-655
937.585	160
937.679	24
937.773	7
937.867	-67
937.961	-69
938.055	-29
938.149	-101
938.243	-192
938.337	-61
938.430	-223
938.524	345
938.618	132
938.712	-719
938.805	-231
938.899	127
938.993	-199
939.086	155
939.180	137
939.274	-370
939.367	-117
939.461	169
939.554	-416
939.648	16
939.741	-646
939.835	263
939.928	-317
940.022	560
940.115	-594
940.208	-441
940.302	525
940.395	573
940.488	-890
940.582	560
940.675	-591
940.768	163
940.861	-626
940.954	-46
941.048	-308
941.141	-563
941.234	-284
941.327	230
941.420	246
941.513	365
941.606	308
941.699	-278
941.792	-167
941.885	-644
941.978	-319
942.071	-601
942.164	-431
942.257	-569
942.349	-669
942.442	-344
942.535	-429
942.628	80
942.721	-102
942.813	-718
942.906	474
942.999	-304
943.091	-363
943.184	130
943.277	-548
943.369	-695
943.462	-947
943.554	334
943.647	-112
943.739	225
943.832	-486
943.924	-855
944.017	-421
944.109	-1529
944.201	-209
944.294	-21
944.386	186
944.478	-200
944.571	-654
944.663	190
944.755	-110
944.847	-604
944.940	-536
945.032	-1111
945.124	215
945.216	89
945.308	750
945.400	285
945.492	-449
945.584	-449
945.676	-403
945.768	-25
945.860	320
945.952	-358
946.044	164
946.136	392
946.228	-1108
946.320	-113
946.412	-367
946.503	80
946.595	269
946.687	-905
946.779	-592
946.870	-573
946.962	-466
947.054	-96
947.145	-239
947.237	-220
947.329	-361
947.420	-65
947.512	-406
947.603	-50
947.695	-310
947.786	-21
947.878	-881
947.969	-512
948.061	-191
948.152	-393
948.243	-140
948.335	170
948.426	-1527
948.517	-635
948.609	368
948.700	-305
948.791	-196
948.882	-285
948.973	259
949.065	-633
949.156	-1160
949.247	-785
949.338	-281
949.429	-711
949.520	-870
949.611	-856
949.702	-285
949.793	-32
949.884	159
949.975	-479
950.066	-798
950.157	-1027
950.247	384
950.338	-986
950.429	-774
950.520	-346
950.611	-338
950.701	-535
950.792	-641
950.883	450
950.973	-518
951.064	-272
951.155	265
951.245	-121
951.336	-596
951.427	-1232
951.517	137
951.608	-900
951.698	-410
951.788	-767
951.879	-963
951.969	-305
952.060	-580
952.150	-665
952.240	-619
952.331	-1907
952.421	1127
952.511	-377
952.602	-952
952.692	-1136
952.782	-263
952.872	-701
952.962	-123
953.052	-448
953.143	-1611
953.233	-214
953.323	-458
953.413	-444
953.503	-156
953.593	-345
953.683	6
953.773	-801
953.863	-197
953.953	-88
954.042	-45
954.132	-1501
954.222	-652
954.312	302
954.402	-1070
954.492	-339
954.581	-441
954.671	-1084
954.761	-772
954.850	76
954.940	-93
955.030	-896
955.119	-426
955.209	-1512
955.298	-1060
955.388	-576
955.477	-176
955.567	-314
955.656	-900
955.746	-264
955.835	-166
955.925	-835
956.014	-802
956.103	-617
956.193	-146
956.282	-276
956.371	-499
956.461	-518
956.550	-1149
956.639	-249
956.728	-665
956.817	-428
956.906	-1121
956.995	-79
957.085	-940
957.174	254
957.263	-248
957.352	-669
957.441	-818
957.530	-489
957.619	-1066
957.708	-689
957.796	-1144
957.885	108
957.974	-788
958.063	168
958.152	-819
958.241	-183
958.329	-548
958.418	-1063
958.507	-951
958.596	-43
958.684	-567
958.773	-442
958.861	-1142
958.950	-205
959.039	-362
959.127	-718
959.216	-109
959.304	-752
959.393	-638
959.481	-378
959.570	1
959.658	-394
959.746	-75
959.835	135
959.923	-687
960.011	-759
960.100	-191
960.188	-544
960.276	-510
960.365	-83
960.453	-1166
960.541	-270
960.629	-400
960.717	-118
960.805	-1549
960.893	-395
960.981	-1606
961.069	-275
961.158	-884
961.245	267
961.333	-660
961.421	-1644
961.509	-329
961.597	-331
961.685	-817
961.773	-417
961.861	-539
961.949	-21
962.036	-1632
962.124	-586
962.212	-1527
962.299	-1243
962.387	-608
962.475	-851
962.562	-1419
962.650	89
962.738	-1425
962.825	-836
962.913	-686
963.000	-1037
963.088	-849
963.175	-1072
963.263	-567
963.350	-1957
963.438	-1088
963.525	-908
963.612	-195
963.700	-91
963.787	2170
963.874	-419
963.962	-1189
964.049	-1138
964.136	-244
964.223	-894
964.310	-452
964.398	-1159
964.485	-980
964.572	-934
964.659	48
964.746	-808
964.833	-1017
964.920	-1217
965.007	-351
965.094	-321
965.181	-1026
965.268	-647
965.355	-352
965.441	-428
965.528	-1234
965.615	-304
965.702	-100
965.789	-819
965.875	-1382
965.962	-649
966.049	-2019
966.136	-1336
966.222	-816
966.309	-778
966.395	-1122
966.482	-879
966.569	-1165
966.655	-1089
966.742	-1213
966.828	-702
966.915	-879
967.001	-1201
967.087	-1351
967.174	-1241
967.260	-1279
967.347	-1873
967.433	-297
967.519	847
967.605	222
967.692	-506
967.778	-992
967.864	-1352
967.950	-952
968.036	-839
968.123	-887
968.209	-606
968.295	-1756
968.381	-232
968.467	-537
968.553	-1690
968.639	-514
968.725	-1446
968.811	-516
968.897	-1209
968.983	-1743
969.069	-1601
969.154	-406
969.240	-785
969.326	-1904
969.412	-1213
969.497	-991
969.583	-834
969.669	-19
969.755	-1551
969.840	-1510
969.926	-946
970.012	-1391
970.097	-663
970.183	-1745
970.268	-1360
970.354	-425
970.439	-199
970.525	-28
970.610	-1782
970.696	-292
970.781	-770
970.866	-1601
970.952	-842
971.037	-1729
971.122	-1463
971.208	-999
971.293	-594
971.378	-2416
971.463	-1523
971.549	-934
971.634	-1043
971.719	-1102
971.804	-372
971.889	-412
971.974	-742
972.059	-833
972.144	-1124
972.229	-1362
972.314	-1713
972.399	-968
972.484	-936
972.569	-721
972.654	-1895
972.739	-775
972.824	-653
972.908	-1321
972.993	-1441
973.078	-2291
973.163	-1614
973.247	-1445
973.332	-2495
973.417	-132
973.501	-1988
973.586	-1063
973.671	-777
973.755	-847
973.840	-1165
973.924	-697
974.009	-1517
974.093	-970
974.178	-407
974.262	-338
974.346	-1091
974.431	-908
974.515	-1666
974.600	-1061
974.684	-807
974.768	-1474
974.852	-621
974.937	-2198
975.021	-1110
975.105	-1034
975.189	-1711
975.273	-1614
975.358	-1948
975.442	-2050
975.526	-516
975.610	-2677
975.694	-1917
975.778	-662
975.862	-1779
975.946	-3097
976.030	-215
976.114	-1689
976.198	-1310
976.281	-1065
976.365	-755
976.449	-1920
976.533	-1098
976.617	-1292
976.700	-327
976.784	-1165
976.868	-1455
976.951	-1007
977.035	-1806
977.119	-1036
977.202	-1403
977.286	-1159
977.369	-417
977.453	-531
977.536	-1108
977.620	-2444
977.703	-461
977.787	-1858
977.870	-332
977.953	-1100
978.037	-2738
978.120	-592
978.203	-1759
978.287	-980
978.370	-898
978.453	-1169
978.536	-2010
978.620	-893
978.703	-432
978.786	-732
978.869	-1878
978.952	-1759
979.035	-129
979.118	-931
979.201	-1228
979.284	-1510
979.367	-2396
979.450	-1235
979.533	-1245
979.616	-1896
979.699	-1889
979.782	-1525
979.865	-1125
979.948	-1974
980.030	-1782
980.113	-1238
980.196	-2579
980.279	-1168
980.361	-1499
980.444	-1401
980.526	-902
980.609	-970
980.692	-944
980.774	-1375
980.857	-1928
980.939	-1247
981.022	-1724
981.104	-1083
981.187	-1456
981.269	-1321
981.352	-1572
981.434	-2618
981.516	-2275
981.599	-716
981.681	-1608
981.763	-1331
981.846	-2126
981.928	-1531
982.010	-1826
982.092	-2028
982.174	-658
982.256	-2022
982.339	-1409
982.421	-2081
982.503	-1036
982.585	-2553
982.667	-1447
982.749	-1665
982.831	-1506
982.913	-1997
982.995	-836
983.077	-2329
983.158	-214
983.240	-3714
983.322	-1993
983.404	-850
983.486	-1165
983.568	-942
983.649	-1543
983.731	-1317
983.813	-1394
983.894	-1198
983.976	-2138
984.058	-1618
984.139	-692
984.221	-1459
984.302	-419
984.384	-1876
984.465	-2229
984.547	-1279
984.628	-2590
984.710	-844
984.791	-1630
984.872	-1621
984.954	-1572
985.035	-940
985.116	-1751
985.198	-1962
985.279	-34
985.360	-1961
985.441	-1954
985.522	-1076
985.604	-1235
985.685	-2593
985.766	-314
985.847	-88
985.928	-2051
986.009	-1549
986.090	-1450
986.171	-1734
986.252	-1563
986.333	-1330
986.414	-1109
986.495	-1809
986.576	-1060
986.656	-1217
986.737	-873
986.818	-1026
986.899	-1955
986.980	-1488
987.060	-501
987.141	-1366
987.222	-1517
987.302	-1374
987.383	-885
987.464	-1529
987.544	-1059
987.625	-873
987.705	-637
987.786	-897
987.866	-653
987.947	-845
988.027	-1675
988.108	-1718
988.188	-126
988.268	-1340
988.349	-1301
988.429	-1128
988.509	-1027
988.589	-1136
988.670	-2703
988.750	213
988.830	-1360
988.910	-1003
988.990	-1922
989.070	-731
989.151	-1216
989.231	-1494
989.311	-1612
989.391	-1096
989.471	-1035
989.551	-1448
989.631	-1563
989.711	-974
989.791	-2015
989.870	-1775
989.950	-410
990.030	-2185
990.110	-1398
990.190	-2384
990.269	-1656
990.349	-1885
990.429	-1342
990.509	-1710
990.588	-2059
990.668	-1286
990.747	-1020
990.827	-1329
990.907	-1346
990.986	-1870
991.066	-1166
991.145	-2306
991.225	-948
991.304	-1586
991.383	-1106
991.463	-1313
991.542	-1004
991.622	-1324
991.701	-1961
991.780	-1298
991.859	-1242
991.939	-1130
992.018	-1186
992.097	-893
992.176	-1001
992.256	-1522
992.335	-2295
992.414	-876
992.493	-2089
992.572	-1358
992.651	-293
992.730	-1220
992.809	-966
992.888	-1812
992.967	-1707
993.046	-1698
993.125	-1951
993.203	-1187
993.282	-819
993.361	-2272
993.440	-1649
993.519	-1522
993.597	-1811
993.676	-1443
993.755	-491
993.834	-1357
993.912	-2178
993.991	346
994.069	-1821
994.148	-1679
994.226	-1432
994.305	-1237
994.384	-2136
994.462	-1117
994.540	-2507
994.619	-1917
994.697	-1360
994.776	-1902
994.854	-916
994.932	-1388
995.011	-1556
995.089	-2321
995.167	-1897
995.245	-875
995.324	-2296
995.402	-1034
995.480	-2190
995.558	-980
995.636	-2446
995.714	-2509
995.792	-989
995.870	-1605
995.948	-2005
996.026	-1032
996.104	-2328
996.182	-973
996.260	-1315
996.338	-2009
996.416	-2028
996.494	-1507
996.572	-1558
996.649	-1220
996.727	-1623
996.805	-1253
996.883	-1950
996.960	-1825
997.038	-1668
997.116	-1645
997.193	-2156
997.271	-1266
997.348	-1927
997.426	-1637
997.504	-2002
997.581	-1381
997.658	-1371
997.736	-2017
997.813	-2356
997.891	-1978
997.968	-1934
998.046	-1777
998.123	-1384
998.200	-1410
998.277	-2720
998.355	-1800
998.432	-2017
998.509	-2451
998.586	-1011
998.663	-1206
998.741	-1028
998.818	-1891
998.895	-2140
998.972	-1210
999.049	-1615
999.126	-2069
999.203	-1043
999.280	-1418
999.357	-1441
999.434	-2775
999.511	-678
999.587	-1201
999.664	-2208
999.741	-1479
999.818	-1525
999.895	-2182
999.971	-2024
1000.048	-2172
1000.125	-1288
1000.202	-2929
1000.278	-1126
1000.355	-1787
1000.431	-1572
1000.508	-2382
1000.584	-1729
1000.661	-1294
1000.738	-2179
1000.814	-2149
1000.890	-2164
1000.967	-2355
1001.043	-1473
1001.120	-2126
1001.196	-1703
1001.272	-1938
1001.349	-1282
1001.425	-1535
1001.501	-1843
1001.577	-2740
1001.654	-1538
1001.730	-2193
1001.806	-2395
1001.882	-2535
1001.958	-2009
1002.034	-1603
1002.110	-1618
1002.186	-1684
1002.262	-1523
1002.338	-2102
1002.414	-1976
1002.490	-1004
1002.566	-1977
1002.642	-2544
1002.718	-1499
1002.794	-2016
1002.870	-2421
1002.945	-1721
1003.021	-1799
1003.097	-1754
1003.173	-1928
1003.248	-2284
1003.324	-1472
1003.400	-2052
1003.475	-1868
1003.551	-1395
1003.626	-1213
1003.702	-1358
1003.777	-2464
1003.853	-2671
1003.928	-1919
1004.004	-1558
1004.079	-1845
1004.155	-1379
1004.230	-2512
1004.305	-1478
1004.381	-2510
1004.456	-2241
1004.531	-2224
1004.607	-1174
1004.682	-1956
1004.757	-1627
1004.832	-2270
1004.907	-2503
1004.982	-1855
1005.057	-1496
1005.133	-1919
1005.208	-2119
1005.283	-2314
1005.358	-1508
1005.433	-2796
1005.508	-1584
1005.583	-2380
1005.657	-1812
1005.732	-1151
1005.807	-1900
1005.882	-2233
1005.957	-2201
1006.032	-1492
1006.106	-1329
1006.181	-1877
1006.256	-1652
1006.331	-2070
1006.405	-2059
1006.480	-1943
1006.554	-2721
1006.629	-2201
1006.704	-2232
1006.778	-1113
1006.853	-1320
1006.927	-1971
1007.002	-1765
1007.076	-2282
1007.150	-2602
1007.225	-2003
1007.299	-2510
1007.373	-2728
1007.448	-2090
1007.522	-1268
1007.596	-1832
1007.671	-2053
1007.745	-1836
1007.819	-2857
1007.893	-2316
1007.967	-1278
1008.041	-2608
1008.115	-1736
1008.190	-2519
1008.264	-1745
1008.338	-3555
1008.412	-1383
1008.486	-1055
1008.560	-1574
1008.633	-3036
1008.707	-1853
1008.781	-1839
1008.855	-2625
1008.929	-2202
1009.003	-1949
1009.076	-2199
1009.150	-2705
1009.224	-2082
1009.298	-2404
1009.371	-2324
1009.445	-1204
1009.519	-1469
1009.592	-3179
1009.666	-2733
1009.739	-2449
1009.813	-2331
1009.886	-1118
1009.960	-2685
1010.033	-1667
1010.107	-2144
1010.180	-2734
1010.253	-1675
1010.327	-2577
1010.400	-1821
1010.473	-2914
1010.547	-1185
1010.620	-1463
1010.693	-1260
1010.766	-2528
1010.840	-2383
1010.913	-2300
1010.986	-2783
1011.059	-2321
1011.132	-2261
1011.205	-1330
1011.278	-2441
1011.351	-2197
1011.424	-1606
1011.497	-2226
1011.570	-1786
1011.643	-2509
1011.716	-1962
1011.789	-2144
1011.862	-2106
1011.934	-464
1012.007	-2743
1012.080	-2370
1012.153	-1878
1012.225	-1133
1012.298	-1794
1012.371	-2768
1012.443	-1772
1012.516	-2329
1012.588	-1747
1012.661	-2559
1012.733	-1849
1012.806	-1738
1012.879	-1586
1012.951	-2039
1013.023	-1958
1013.096	-1864
1013.168	-1615
1013.241	-946
1013.313	-2112
1013.385	-1301
1013.458	-1759
1013.530	-1307
1013.602	-2389
1013.674	-1697
1013.746	-1786
1013.819	-1863
1013.891	-1076
1013.963	-2619
1014.035	-1985
1014.107	-2470
1014.179	-2813
1014.251	-2060
1014.323	-1652
1014.395	-2898
1014.467	-1679
1014.539	-1933
1014.611	-2764
1014.683	-1821
1014.754	-1276
1014.826	-2165
1014.898	-1796
1014.970	-3035
1015.042	-1539
1015.113	-1592
1015.185	-1488
1015.257	-2545
1015.328	-2105
1015.400	-2583
1015.471	-1707
1015.543	-3376
1015.615	-2070
1015.686	-2239
1015.757	-1256
1015.829	-1616
1015.901	-1812
1015.972	-1930
1016.043	-2169
1016.115	-2090
1016.186	-2156
1016.257	-2341
1016.328	-1939
1016.400	-1476
1016.471	-2619
1016.542	-1822
1016.613	-2100
1016.685	-2821
1016.756	-1669
1016.827	-1627
1016.898	-2529
1016.969	-1518
1017.040	-2074
1017.111	-2148
1017.182	-2535
1017.253	-2681
1017.324	-2148
1017.395	-2255
1017.466	-1731
1017.537	-2161
1017.608	-2263
1017.678	-1351
1017.749	-1958
1017.820	-2289
1017.891	-2097
1017.961	-1939
1018.032	-2576
1018.103	-2344
1018.173	-2154
1018.244	-2415
1018.315	-1683
1018.385	-1938
1018.456	-1918
1018.526	-2642
1018.597	-2055
1018.667	-2270
1018.738	-2629
1018.808	-2454
1018.878	-2492
1018.949	-1587
1019.019	-2068
1019.089	-1604
1019.160	-2292
1019.230	-2307
1019.300	-1185
1019.371	-2331
1019.441	-2408
1019.511	-2228
1019.581	-2029
1019.651	-2010
1019.721	-1667
1019.791	-2582
1019.861	-1871
1019.931	-1943
1020.001	-1881
1020.071	-2298
1020.141	-1971
1020.211	-2029
1020.281	-1905
1020.351	-1986
1020.421	-1690
1020.491	-1837
1020.560	-2380
1020.630	-1529
1020.700	-2363
1020.770	-3282
1020.839	-2869
1020.909	-1870
1020.979	-3143
1021.048	-2076
1021.118	-2036
1021.187	-2391
1021.257	-1629
1021.326	-1922
1021.396	-2057
1021.465	-1861
1021.535	-2173
1021.604	-3142
1021.674	-2104
1021.743	-1455
1021.812	-2353
1021.882	-1688
1021.951	-2243
1022.020	-2823
1022.089	-2202
1022.159	-2396
1022.228	-1662
1022.297	-2253
1022.366	-2578
1022.435	-2754
1022.504	-2345
1022.573	-2378
1022.642	-1616
1022.711	-1633
1022.781	-2039
1022.849	-1935
1022.918	-2412
1022.987	-2045
1023.056	-2485
1023.125	-2352
1023.194	-1515
1023.263	-2429
1023.331	-1489
1023.400	-2203
1023.469	-3494
1023.538	-1867
1023.606	-2472
1023.675	-1984
1023.744	-2627
1023.812	-2034
1023.881	-2542
1023.949	-2129
1024.018	-2344
1024.086	-2301
1024.155	-2724
1024.223	-2605
1024.292	-1919
1024.360	-2402
1024.429	-2617
1024.497	-2137
1024.565	-2190
1024.634	-1467
1024.702	-1550
1024.770	-2035
1024.838	-2703
1024.907	-1345
1024.975	-2771
1025.043	-1947
1025.111	-2289
1025.179	-1957
1025.247	-2824
1025.315	-1957
1025.383	-952
1025.451	-2065
1025.519	-2634
1025.587	-2300
1025.655	-2331
1025.723	-1990
1025.791	-1608
1025.859	-2687
1025.927	-1972
1025.995	-2823
1026.062	-1986
1026.130	-2753
1026.198	-1927
1026.266	-1884
1026.333	-2510
1026.401	-2276
1026.469	-3006
1026.536	-2323
1026.604	-2784
1026.671	-2107
1026.739	-1959
1026.806	-2613
1026.874	-2401
1026.941	-2028
1027.009	-2171
1027.076	-2795
1027.144	-2144
1027.211	-2213
1027.278	-2652
1027.345	-2825
1027.413	-2106
1027.480	-2376
1027.547	-1641
1027.614	-1740
1027.682	-2440
1027.749	-2833
1027.816	-2265
1027.883	-2140
1027.950	-2200
1028.017	-2796
1028.084	-1676
1028.151	-2154
1028.218	-2578
1028.285	-2076
1028.352	-2190
1028.419	-2478
1028.486	-1796
1028.553	-2671
1028.619	-2326
1028.686	-2271
1028.753	-2259
1028.820	-2438
1028.886	-3339
1028.953	-1681
1029.020	-2554
1029.086	-3137
1029.153	-2440
1029.220	-2891
1029.286	-2481
1029.353	-2553
1029.419	-2927
1029.486	-2216
1029.552	-2552
1029.619	-2445
1029.685	-2410
1029.751	-2763
1029.818	-1938
1029.884	-2879
1029.951	-1172
1030.017	-2054
1030.083	-3150
1030.149	-2002
1030.216	-2260
1030.282	-2289
1030.348	-1990
1030.414	-2761
1030.480	-2988
1030.546	-3291
1030.612	-2281
1030.678	-2168
1030.744	-2646
1030.810	-2780
1030.876	-1856
1030.942	-3038
1031.008	-2437
1031.074	-2867
1031.140	-2738
1031.206	-1390
1031.272	-2823
1031.337	-2946
1031.403	-2113
1031.469	-2781
1031.534	-2489
1031.600	-1537
1031.666	-2554
1031.731	-2318
1031.797	-1566
1031.863	-2872
1031.928	-2453
1031.994	-2490
1032.059	-3164
1032.125	-2897
1032.190	-2219
1032.256	-2774
1032.321	-2764
1032.386	-2201
1032.452	-2111
1032.517	-2432
1032.582	-3084
1032.647	-2550
1032.713	-2902
1032.778	-2957
1032.843	-2201
1032.908	-3241
1032.974	-2509
1033.039	-2749
1033.104	-2357
1033.169	-2800
1033.234	-2969
1033.299	-2269
1033.364	-2793
1033.429	-1859
1033.494	-1706
1033.559	-2439
1033.624	-2245
1033.688	-1461
1033.753	-2523
1033.818	-2183
1033.883	-2345
1033.948	-2819
1034.013	-2765
1034.077	-2852
1034.142	-1720
1034.207	-1790
1034.271	-2095
1034.336	-1916
1034.400	-2578
1034.465	-2391
1034.530	-2408
1034.594	-2330
1034.658	-3148
1034.723	-2449
1034.787	-2359
1034.852	-2587
1034.916	-2719
1034.981	-2601
1035.045	-2312
1035.109	-2856
1035.173	-1916
1035.238	-3129
1035.302	-2748
1035.366	-2599
1035.430	-2344
1035.495	-2840
1035.559	-3333
1035.623	-2860
1035.687	-2521
1035.751	-2939
1035.815	-2818
1035.879	-2807
1035.943	-2848
1036.007	-2853
1036.071	-2587
1036.135	-2618
1036.198	-2235
1036.262	-2914
1036.326	-2574
1036.390	-3281
1036.454	-2285
1036.517	-2808
1036.581	-2721
1036.645	-2514
1036.709	-1996
1036.772	-2354
1036.836	-2981
1036.900	-2529
1036.963	-3218
1037.026	-2887
1037.090	-2931
1037.154	-2849
1037.217	-1824
1037.280	-2749
1037.344	-2435
1037.407	-2888
1037.471	-1872
1037.534	-2933
1037.597	-2870
1037.661	-2542
1037.724	-3222
1037.787	-3075
1037.850	-2381
1037.913	-2141
1037.977	-2028
1038.040	-2388
1038.103	-2050
1038.166	-2298
1038.229	-1831
1038.292	-1966
1038.355	-2128
1038.418	-2381
1038.481	-1678
1038.544	-3368
1038.607	-2181
1038.670	-2299
1038.732	-2832
1038.795	-2295
1038.858	-3381
1038.921	-2069
1038.984	-1734
1039.046	-2307
1039.109	-2601
1039.172	-2374
1039.234	-2831
1039.297	-3180
1039.360	-2529
1039.422	-2826
1039.485	-2527
1039.547	-2057
1039.610	-2111
1039.672	-2835
1039.734	-2752
1039.797	-2167
1039.859	-2176
1039.922	-2879
1039.984	-2798
1040.046	-1912
1040.109	-2158
1040.171	-2615
1040.233	-2236
1040.295	-2616
1040.358	-2599
1040.420	-3041
1040.482	-2396
1040.544	-3257
1040.606	-2166
1040.668	-3082
1040.730	-3147
1040.792	-3554
1040.854	-2335
1040.916	-1991
1040.978	-3089
1041.040	-1799
1041.102	-2293
1041.164	-2579
1041.225	-1985
1041.287	-2026
1041.349	-2165
1041.411	-2189
1041.472	-3133
1041.534	-2124
1041.596	-2486
1041.657	-2539
1041.719	-2456
1041.781	-2922
1041.842	-2432
1041.904	-2515
1041.965	-2373
1042.027	-1983
1042.088	-2008
1042.150	-2811
1042.211	-2423
1042.272	-2109
1042.334	-2799
1042.395	-2505
1042.456	-2404
1042.518	-2627
1042.579	-2788
1042.640	-2606
1042.701	-2438
1042.763	-2229
1042.824	-2435
1042.885	-2692
1042.946	-2457
1043.007	-1967
1043.068	-2448
1043.129	-2137
1043.190	-2583
1043.251	-1656
1043.312	-1705
1043.373	-2410
1043.434	-1807
1043.495	-2035
1043.556	-2558
1043.616	-2828
1043.677	-2468
1043.738	-1903
1043.799	-1673
1043.859	-1979
1043.920	-1575
1043.981	-2339
1044.041	-1529
1044.102	-2724
1044.162	-1995
1044.223	-2147
1044.284	-2688
1044.344	-2083
1044.405	-2156
1044.465	-1885
1044.525	-2608
1044.586	-2619
1044.646	-2014
1044.707	-2048
1044.767	-2969
1044.827	-2511
1044.887	-1766
1044.948	-2404
1045.008	-1861
1045.068	-1812
1045.128	-2499
1045.188	-2068
1045.249	-2004
1045.309	-2657
1045.369	-2562
1045.429	-2804
1045.489	-2568
1045.549	-2445
1045.609	-1504
1045.669	-2431
1045.729	-2395
1045.789	-2282
1045.848	-1923
1045.908	-1872
1045.968	-2429
1046.028	-2235
1046.088	-2300
1046.147	-938
1046.207	-1658
1046.267	-2054
1046.326	-874
1046.386	-2357
1046.446	-1553
1046.505	-1744
1046.565	-1004
1046.624	-435
1046.684	-606
1046.743	-1213
1046.803	-987
1046.862	-760
1046.922	0
