'Start Wavelength	183.907
'End Wavelength	1046.922
'Gate Delay	5.000
'Gate Width (ms)	1.050
'Laser Output Level	0.000
'X Position	0.000
'Y Position	0.000
'Z Position	0.000
'Grid Point Number	1.000
'Shot Number	100.000
183.907	1232.000
183.977	555.000
184.047	-276
184.116	451
184.186	-184
184.256	321
184.325	-968
184.395	-247
184.465	852
184.534	217
184.604	-547
184.674	136
184.743	-454
184.813	435
184.883	361
184.952	370
185.022	323
185.092	707
185.161	-187
185.231	86
185.301	-569
185.370	468
185.440	347
185.509	-5
185.579	-382
185.649	478
185.718	906
185.788	326
185.857	-404
185.927	-8
185.996	458
186.066	318
186.136	-623
186.205	397
186.275	116
186.344	-17
186.414	-276
186.483	-325
186.553	825
186.622	97
186.692	-268
186.761	212
186.831	-221
186.900	-262
186.970	844
187.039	799
187.109	279
187.178	756
187.248	-238
187.317	477
187.387	-139
187.456	255
187.526	75
187.595	965
187.664	-278
187.734	356
187.803	-65
187.873	361
187.942	588
188.012	430
188.081	-57
188.150	40
188.220	48
188.289	-508
188.358	503
188.428	627
188.497	-187
188.567	709
188.636	126
188.705	63
188.775	122
188.844	-181
188.913	318
188.983	506
189.052	-391
189.121	357
189.191	26
189.260	748
189.329	-173
189.399	472
189.468	-25
189.537	-366
189.606	301
189.676	589
189.745	135
189.814	1236
189.883	-428
189.953	430
190.022	434
190.091	2253
190.161	2508
190.230	1171
190.299	-172
190.368	-406
190.437	432
190.507	31
190.576	-193
190.645	-118
190.714	-207
190.783	602
190.853	1211
190.922	465
190.991	-236
191.060	1042
191.129	-256
191.198	213
191.268	38
191.337	152
191.406	574
191.475	662
191.544	-199
191.613	596
191.682	-265
191.752	444
191.821	-140
191.890	5
191.959	226
192.028	242
192.097	-204
192.166	499
192.235	-651
192.304	656
192.373	296
192.442	729
192.511	465
192.580	502
192.650	76
192.719	714
192.788	721
192.857	1259
192.926	62
192.995	865
193.064	1858
193.133	1635
193.202	960
193.271	1018
193.340	575
193.409	1627
193.478	1587
193.547	1223
193.615	1654
193.684	1976
193.753	1310
193.822	1799
193.891	540
193.960	889
194.029	406
194.098	583
194.167	-242
194.236	1028
194.305	182
194.374	694
194.443	1103
194.512	1003
194.580	266
194.649	450
194.718	56
194.787	655
194.856	-147
194.925	848
194.994	268
195.062	907
195.131	24
195.200	202
195.269	812
195.338	1278
195.407	53
195.475	724
195.544	596
195.613	144
195.682	626
195.751	221
195.819	124
195.888	89
195.957	1504
196.026	734
196.094	877
196.163	1132
196.232	704
196.301	740
196.369	972
196.438	523
196.507	2
196.576	993
196.644	107
196.713	305
196.782	806
196.850	95
196.919	728
196.988	757
197.056	-89
197.125	878
197.194	359
197.262	794
197.331	387
197.400	428
197.468	308
197.537	999
197.606	501
197.674	2563
197.743	4431
197.812	1980
197.880	3941
197.949	2894
198.017	3157
198.086	3186
198.155	815
198.223	1828
198.292	4610
198.360	2073
198.429	784
198.497	1502
198.566	2841
198.635	5607
198.703	1281
198.772	1962
198.840	6296
198.909	7068
198.977	1563
199.046	2139
199.114	1638
199.183	836
199.251	1009
199.320	1410
199.388	513
199.457	704
199.525	682
199.594	226
199.662	414
199.731	950
199.799	507
199.867	1149
199.936	869
200.004	1199
200.073	1153
200.141	1052
200.210	538
200.278	430
200.346	1248
200.415	1152
200.483	634
200.552	1180
200.620	919
200.688	610
200.757	529
200.825	551
200.893	526
200.962	1214
201.030	443
201.098	1030
201.167	727
201.235	1813
201.303	842
201.372	902
201.440	1090
201.508	959
201.577	543
201.645	460
201.713	556
201.781	854
201.850	1793
201.918	1203
201.986	1119
202.055	833
202.123	100
202.191	955
202.259	1060
202.327	1547
202.396	311
202.464	1066
202.532	261
202.600	3189
202.669	1844
202.737	529
202.805	397
202.873	360
202.941	1040
203.009	790
203.078	798
203.146	235
203.214	916
203.282	438
203.350	666
203.418	82
203.487	1902
203.555	913
203.623	1044
203.691	1175
203.759	742
203.827	866
203.895	-123
203.963	1319
204.031	863
204.099	835
204.168	749
204.236	1137
204.304	1245
204.372	821
204.440	812
204.508	540
204.576	285
204.644	1076
204.712	357
204.780	637
204.848	1064
204.916	-365
204.984	803
205.052	1012
205.120	463
205.188	1072
205.256	28
205.324	1133
205.392	311
205.460	1504
205.528	366
205.596	1487
205.664	1159
205.732	1259
205.799	3825
205.867	8763
205.935	1708
206.003	2446
206.071	645
206.139	949
206.207	1614
206.275	1113
206.343	911
206.411	1407
206.478	821
206.546	693
206.614	599
206.682	1064
206.750	355
206.818	2017
206.885	1884
206.953	405
207.021	1768
207.089	1965
207.157	216
207.225	1634
207.292	971
207.360	987
207.428	1166
207.496	1164
207.563	477
207.631	1744
207.699	1103
207.767	1191
207.834	425
207.902	1520
207.970	1175
208.038	1553
208.105	771
208.173	1286
208.241	1991
208.309	1607
208.376	1085
208.444	3051
208.512	1754
208.579	700
208.647	1422
208.715	2241
208.782	975
208.850	1146
208.918	1093
208.985	1208
209.053	1021
209.120	1705
209.188	608
209.256	2115
209.323	244
209.391	1498
209.459	2811
209.526	1873
209.594	1186
209.661	1896
209.729	1495
209.796	2151
209.864	838
209.932	221
209.999	2358
210.067	2412
210.134	1512
210.202	1804
210.269	2418
210.337	1799
210.404	1279
210.472	2410
210.539	1340
210.607	1131
210.674	1473
210.742	1301
210.809	1440
210.877	1835
210.944	1591
211.012	578
211.079	2929
211.146	1776
211.214	1425
211.281	2210
211.349	2373
211.416	1249
211.484	1676
211.551	1821
211.618	1948
211.686	2025
211.753	1711
211.821	2674
211.888	1628
211.955	1827
212.023	1600
212.090	2909
212.157	2034
212.225	3378
212.292	4984
212.359	11963
212.427	38021
212.494	15789
212.561	5017
212.629	3766
212.696	2652
212.763	2862
212.831	1710
212.898	2987
212.965	2245
213.032	2443
213.100	2308
213.167	2116
213.234	2629
213.301	2387
213.369	1860
213.436	1781
213.503	1169
213.570	3450
213.638	2580
213.705	969
213.772	1082
213.839	2894
213.906	3666
213.973	2598
214.041	1751
214.108	2814
214.175	1800
214.242	2270
214.309	2189
214.376	3134
214.444	1504
214.511	2246
214.578	1336
214.645	2382
214.712	2173
214.779	1782
214.846	729
214.913	3155
214.980	1993
215.048	2421
215.115	3238
215.182	2605
215.249	2235
215.316	2631
215.383	2226
215.450	1921
215.517	2338
215.584	2973
215.651	1391
215.718	1746
215.785	2156
215.852	1757
215.919	2171
215.986	1948
216.053	1721
216.120	2479
216.187	3014
216.254	2227
216.321	2710
216.388	2851
216.455	2182
216.522	2929
216.589	2370
216.656	4799
216.722	4981
216.789	3226
216.856	3198
216.923	2345
216.990	2612
217.057	3368
217.124	2987
217.191	2991
217.258	4262
217.324	4175
217.391	4254
217.458	4325
217.525	2743
217.592	2125
217.659	1635
217.725	3571
217.792	4696
217.859	5382
217.926	1446
217.993	1774
218.059	2028
218.126	2780
218.193	1915
218.260	2005
218.327	1896
218.393	2269
218.460	1709
218.527	1465
218.594	2611
218.660	4234
218.727	4995
218.794	2221
218.860	2104
218.927	1620
218.994	1547
219.061	2060
219.127	2109
219.194	4779
219.261	2912
219.327	1512
219.394	1844
219.461	769
219.527	1495
219.594	3553
219.661	3028
219.727	1390
219.794	2379
219.860	1813
219.927	2327
219.994	3286
220.060	4657
220.127	3364
220.193	2945
220.260	3515
220.326	4405
220.393	6284
220.460	6877
220.526	5181
220.593	3602
220.659	5697
220.726	4247
220.792	14672
220.859	11490
220.925	10084
220.992	13240
221.058	17562
221.125	21474
221.191	15840
221.258	5937
221.324	4276
221.391	3912
221.457	3356
221.524	3237
221.590	5206
221.657	21516
221.723	14485
221.789	11268
221.856	10938
221.922	4323
221.989	4021
222.055	1969
222.121	1991
222.188	3855
222.254	2733
222.321	2382
222.387	1680
222.453	1999
222.520	2173
222.586	939
222.652	2751
222.719	1638
222.785	1961
222.851	1675
222.918	2456
222.984	1606
223.050	1741
223.116	1069
223.183	2913
223.249	1721
223.315	1237
223.382	1569
223.448	1790
223.514	1084
223.580	2149
223.647	485
223.713	1657
223.779	2114
223.845	1884
223.911	2449
223.978	1266
224.044	2104
224.110	1283
224.176	1450
224.242	1897
224.309	1637
224.375	2765
224.441	1080
224.507	1837
224.573	726
224.639	2972
224.705	1235
224.772	2211
224.838	327
224.904	2586
224.970	1604
225.036	1661
225.102	1502
225.168	2314
225.234	1720
225.300	1900
225.366	2241
225.432	2087
225.499	1389
225.565	2025
225.631	1523
225.697	2278
225.763	2729
225.829	3646
225.895	2928
225.961	5465
226.027	4240
226.093	4433
226.159	4607
226.225	7588
226.291	13038
226.357	20496
226.423	11776
226.489	6669
226.554	5341
226.620	4767
226.686	6628
226.752	8893
226.818	13884
226.884	27764
226.950	24568
227.016	10777
227.082	7193
227.148	4782
227.214	4265
227.279	4330
227.345	3123
227.411	3103
227.477	2113
227.543	4312
227.609	4971
227.674	4549
227.740	2204
227.806	3422
227.872	2339
227.938	3162
228.003	4674
228.069	2788
228.135	1360
228.201	2425
228.267	1976
228.332	2609
228.398	2100
228.464	2704
228.530	1048
228.595	2145
228.661	1389
228.727	2530
228.792	3206
228.858	2009
228.924	516
228.990	4668
229.055	2173
229.121	3653
229.187	2007
229.252	2076
229.318	947
229.384	2483
229.449	2701
229.515	816
229.581	-53
229.646	3274
229.712	2381
229.777	5056
229.843	6042
229.909	4877
229.974	3792
230.040	4586
230.105	2454
230.171	3667
230.236	5020
230.302	6863
230.368	4937
230.433	2607
230.499	3607
230.564	3846
230.630	2916
230.695	2786
230.761	3343
230.826	1481
230.892	3986
230.957	1934
231.023	1507
231.088	2636
231.154	2280
231.219	2150
231.284	3377
231.350	4105
231.415	2221
231.481	3363
231.546	1564
231.612	2598
231.677	1265
231.742	1312
231.808	3583
231.873	1920
231.939	-271
232.004	4018
232.069	4214
232.135	2182
232.200	2304
232.265	1536
232.331	1211
232.396	1882
232.461	1627
232.527	2025
232.592	1449
232.657	2854
232.723	3058
232.788	3544
232.853	2326
232.918	1915
232.984	1276
233.049	1986
233.114	2583
233.179	4385
233.245	6140
233.310	8226
233.375	2180
233.440	2948
233.506	1693
233.571	3030
233.636	1977
233.701	2579
233.766	3936
233.832	6315
233.897	2504
233.962	1875
234.027	3152
234.092	2950
234.157	2308
234.222	2792
234.288	4703
234.353	16978
234.418	11849
234.483	6873
234.548	4215
234.613	3574
234.678	4075
234.743	4160
234.808	14150
234.873	9367
234.938	4610
235.004	3183
235.069	2978
235.134	2533
235.199	3599
235.264	3325
235.329	1486
235.394	3606
235.459	3888
235.524	3091
235.589	4042
235.654	3357
235.719	1750
235.784	2919
235.849	3650
235.913	8259
235.978	7454
236.043	9436
236.108	4589
236.173	3708
236.238	4127
236.303	3737
236.368	3715
236.433	6522
236.498	10010
236.563	8558
236.627	12747
236.692	42938
236.757	35148
236.822	15778
236.887	11288
236.952	9414
237.017	6423
237.081	9188
237.146	10606
237.211	20698
237.276	44250
237.341	72466
237.405	34022
237.470	14683
237.535	10587
237.600	7301
237.664	5420
237.729	4703
237.794	5984
237.859	12734
237.923	8808
237.988	6316
238.053	7898
238.118	8707
238.182	25749
238.247	24466
238.312	8131
238.376	7001
238.441	3898
238.506	5799
238.570	2469
238.635	4852
238.700	3961
238.764	3219
238.829	8653
238.893	11954
238.958	5316
239.023	4500
239.087	3582
239.152	4783
239.216	3038
239.281	3635
239.346	3918
239.410	3879
239.475	4067
239.539	22202
239.604	19292
239.668	6849
239.733	3429
239.797	4373
239.862	6709
239.926	15995
239.991	7149
240.055	3619
240.120	3029
240.184	3105
240.249	1870
240.313	3396
240.378	3640
240.442	11400
240.507	22457
240.571	6496
240.635	8125
240.700	11942
240.764	3500
240.829	2902
240.893	1989
240.957	3573
241.022	11714
241.086	18953
241.151	8890
241.215	2794
241.279	5447
241.344	9333
241.408	4739
241.472	3591
241.537	4097
241.601	4507
241.665	3044
241.730	2898
241.794	4304
241.858	3945
241.922	3826
241.987	4203
242.051	3208
242.115	2882
242.179	3135
242.244	3132
242.308	4596
242.372	4124
242.436	4817
242.501	4383
242.565	3094
242.629	2595
242.693	3497
242.757	2886
242.822	3234
242.886	4615
242.950	4365
243.014	4115
243.078	4100
243.142	4158
243.206	4506
243.271	6358
243.335	6467
243.399	9988
243.463	31814
243.527	89353
243.591	26471
243.655	9703
243.719	5813
243.783	6446
243.847	9114
243.911	12472
243.975	10729
244.040	7053
244.104	5685
244.168	5081
244.232	4740
244.296	7843
244.360	10228
244.424	5536
244.488	4862
244.552	4480
244.615	1408
244.679	3875
244.743	3866
244.807	4193
244.871	2759
244.935	4491
244.999	2036
245.063	3682
245.127	4701
245.191	7514
245.255	6738
245.319	4770
245.383	3074
245.446	4740
245.510	2288
245.574	3669
245.638	4010
245.702	2787
245.766	9042
245.829	6661
245.893	3478
245.957	4187
246.021	4745
246.085	4370
246.149	5063
246.212	12430
246.276	21707
246.340	8736
246.404	5926
246.467	7034
246.531	7895
246.595	6925
246.659	6359
246.722	4168
246.786	5587
246.850	7041
246.913	8077
246.977	3312
247.041	5757
247.104	5398
247.168	5088
247.232	11018
247.295	30290
247.359	13374
247.423	5363
247.486	9959
247.550	6031
247.614	4330
247.677	6720
247.741	6106
247.804	4321
247.868	8046
247.932	11604
247.995	28394
248.059	9880
248.122	5374
248.186	8077
248.249	12643
248.313	49582
248.376	49426
248.440	29685
248.503	11310
248.567	8545
248.630	11384
248.694	14607
248.757	20403
248.821	55926
248.884	28280
248.948	26238
249.011	37034
249.075	60606
249.138	49760
249.202	16790
249.265	12061
249.328	16085
249.392	11022
249.455	8697
249.519	7163
249.582	8678
249.645	13196
249.709	10463
249.772	9966
249.835	8181
249.899	9015
249.962	7916
250.025	6976
250.089	19012
250.152	24781
250.215	11557
250.279	8984
250.342	10066
250.405	11087
250.468	9751
250.532	14149
250.595	21205
250.658	86944
250.721	153038
250.785	45103
250.848	22821
250.911	13801
250.974	12199
251.038	17878
251.101	34107
251.164	18781
251.227	18334
251.290	19215
251.354	30469
251.417	128928
251.480	129230
251.543	79774
251.606	237558
251.669	175977
251.732	59920
251.795	51791
251.859	53872
251.922	144808
251.985	81277
252.048	30296
252.111	21888
252.174	19657
252.237	31554
252.300	68566
252.363	74693
252.426	182040
252.489	69655
252.552	31729
252.615	22601
252.678	23517
252.741	52871
252.804	75357
252.867	191058
252.930	94108
252.993	41313
253.056	24356
253.119	17185
253.182	14014
253.245	24102
253.308	19417
253.371	15011
253.434	14509
253.497	12817
253.559	25779
253.622	16833
253.685	17031
253.748	16573
253.811	9127
253.874	13282
253.937	12415
254.000	9260
254.062	16935
254.125	27807
254.188	20449
254.251	17306
254.314	8520
254.376	14737
254.439	15889
254.502	12368
254.565	16948
254.628	30075
254.690	14233
254.753	7772
254.816	7740
254.878	8759
254.941	18911
255.004	19939
255.067	8345
255.129	7509
255.192	5219
255.255	3580
255.317	5649
255.380	4492
255.443	2944
255.505	3119
255.568	2880
255.631	3496
255.693	4612
255.756	3503
255.819	4392
255.881	2767
255.944	3780
256.006	3697
256.069	3968
256.132	3809
256.194	5326
256.257	14881
256.319	10826
256.382	10068
256.444	6389
256.507	5701
256.569	4793
256.632	6418
256.694	9869
256.757	23374
256.819	67513
256.882	27613
256.944	11601
257.007	8711
257.069	9236
257.132	6540
257.194	7533
257.257	5452
257.319	6542
257.381	8150
257.444	20420
257.506	79326
257.569	80874
257.631	36114
257.693	19430
257.756	9411
257.818	9565
257.880	6068
257.943	6642
258.005	4562
258.067	4955
258.130	5142
258.192	5492
258.254	10067
258.317	7986
258.379	6269
258.441	14676
258.503	12726
258.566	19559
258.628	26139
258.690	6745
258.753	6334
258.815	8883
258.877	5829
258.939	5049
259.001	5135
259.064	4827
259.126	5694
259.188	8154
259.250	6233
259.312	7040
259.375	14778
259.437	9548
259.499	5257
259.561	5319
259.623	5757
259.685	6041
259.747	6362
259.809	19800
259.872	36187
259.934	61451
259.996	49514
260.058	12688
260.120	5972
260.182	5511
260.244	3985
260.306	4442
260.368	4559
260.430	4759
260.492	8072
260.554	16308
260.616	10843
260.678	22833
260.740	33701
260.802	8966
260.864	6050
260.926	4718
260.988	6174
261.050	6819
261.112	12344
261.174	37930
261.236	30221
261.298	9242
261.359	14337
261.421	20072
261.483	5652
261.545	6602
261.607	3060
261.669	4219
261.731	8853
261.793	20207
261.854	8069
261.916	6630
261.978	5843
262.040	5468
262.102	5118
262.164	8116
262.225	7004
262.287	3820
262.349	9349
262.411	7622
262.472	5669
262.534	9649
262.596	19617
262.658	7411
262.719	3976
262.781	7240
262.843	18255
262.904	10374
262.966	7647
263.028	10670
263.090	45378
263.151	116724
263.213	34337
263.275	15468
263.336	6863
263.398	6060
263.459	3759
263.521	4834
263.583	9459
263.644	6931
263.706	2554
263.767	2713
263.829	3956
263.891	2229
263.952	2206
264.014	2239
264.075	5562
264.137	13076
264.198	6527
264.260	3709
264.321	2912
264.383	7768
264.444	19625
264.506	6696
264.567	4788
264.629	9171
264.690	16280
264.752	6626
264.813	4400
264.875	3062
264.936	4298
264.998	3223
265.059	2977
265.120	5077
265.182	6672
265.243	30902
265.305	30862
265.366	8910
265.427	4962
265.489	4751
265.550	1873
265.611	4160
265.673	3027
265.734	3786
265.795	3749
265.857	3599
265.918	4195
265.979	10509
266.040	52923
266.102	43719
266.163	12150
266.224	8727
266.286	5411
266.347	3890
266.408	3482
266.469	4142
266.530	3506
266.592	3222
266.653	5718
266.714	8681
266.775	3371
266.836	3132
266.898	2226
266.959	5315
267.020	3577
267.081	3748
267.142	2560
267.203	2979
267.264	1816
267.326	3551
267.387	2499
267.448	1751
267.509	2658
267.570	2677
267.631	1757
267.692	2613
267.753	3544
267.814	2520
267.875	5875
267.936	13187
267.997	7441
268.058	7188
268.119	2766
268.180	3685
268.241	1480
268.302	3821
268.363	1816
268.424	2299
268.485	3412
268.546	2515
268.607	2211
268.668	1774
268.729	2599
268.790	2516
268.851	2776
268.912	7903
268.972	8883
269.033	4740
269.094	2462
269.155	2364
269.216	2155
269.277	3426
269.338	2636
269.398	3062
269.459	1822
269.520	4265
269.581	4873
269.642	4992
269.702	3942
269.763	4504
269.824	3454
269.885	4048
269.945	5101
270.006	3437
270.067	1883
270.128	2548
270.188	2231
270.249	2137
270.310	1554
270.370	3327
270.431	2184
270.492	2320
270.553	3190
270.613	5771
270.674	10245
270.734	4982
270.795	3131
270.856	4462
270.916	4738
270.977	2789
271.038	3690
271.098	3504
271.159	4907
271.219	5597
271.280	3134
271.340	3426
271.401	2754
271.462	9214
271.522	5157
271.583	4289
271.643	4909
271.704	3815
271.764	3886
271.825	9637
271.885	38732
271.946	56568
272.006	15598
272.066	24489
272.127	42181
272.187	11738
272.248	7329
272.308	6801
272.369	26183
272.429	15259
272.489	9291
272.550	9282
272.610	8121
272.671	6964
272.731	7680
272.791	11871
272.852	5628
272.912	5882
272.972	3538
273.033	3261
273.093	5922
273.153	6753
273.214	4008
273.274	5437
273.334	17758
273.394	33684
273.455	11898
273.515	12571
273.575	26259
273.635	11633
273.696	16112
273.756	36157
273.816	13517
273.876	7986
273.936	19831
273.997	34136
274.057	9841
274.117	6619
274.177	10197
274.237	42647
274.297	37932
274.358	24716
274.418	27525
274.478	18098
274.538	7608
274.598	6832
274.658	26800
274.718	33869
274.778	13502
274.838	7974
274.898	15634
274.958	47126
275.018	42226
275.078	24415
275.138	9427
275.198	5793
275.258	4417
275.318	6470
275.378	9698
275.438	9603
275.498	8254
275.558	22969
275.618	45916
275.678	23076
275.738	11901
275.798	10065
275.858	6117
275.918	3138
275.978	4745
276.038	4486
276.098	2913
276.157	6855
276.217	18780
276.277	9029
276.337	6225
276.397	4354
276.457	4168
276.517	4298
276.576	3395
276.636	2986
276.696	5044
276.756	12317
276.815	8487
276.875	3988
276.935	4996
276.995	4269
277.055	3331
277.114	2860
277.174	4762
277.234	15020
277.293	6927
277.353	4614
277.413	3224
277.472	3193
277.532	3659
277.592	4481
277.651	11207
277.711	18889
277.771	7214
277.830	24390
277.890	18884
277.950	16615
278.009	47249
278.069	16605
278.128	14280
278.188	17939
278.248	8978
278.307	20791
278.367	12642
278.426	6299
278.486	4488
278.545	4610
278.605	4012
278.664	4311
278.724	5023
278.783	14765
278.843	36086
278.902	10826
278.962	6747
279.021	6699
279.081	9556
279.140	10428
279.199	7680
279.259	9112
279.318	9724
279.378	13160
279.437	21034
279.496	65643
279.556	215016
279.615	165764
279.675	38870
279.734	22560
279.793	29468
279.853	50415
279.912	20164
279.971	12800
280.031	11214
280.090	20812
280.149	34138
280.208	26462
280.268	142721
280.327	146356
280.386	30759
280.445	19834
280.505	16368
280.564	9523
280.623	7685
280.682	11431
280.742	14855
280.801	6538
280.860	4973
280.919	4601
280.978	4154
281.037	4415
281.097	3429
281.156	5106
281.215	3715
281.274	4857
281.333	20982
281.392	16315
281.451	4387
281.510	3889
281.569	2624
281.628	3195
281.688	3504
281.747	3896
281.806	3199
281.865	2677
281.924	1784
281.983	3052
282.042	1555
282.101	2330
282.160	2973
282.219	3109
282.278	3331
282.337	9509
282.396	6289
282.454	3719
282.513	4013
282.572	14067
282.631	7853
282.690	3103
282.749	1861
282.808	4454
282.867	3112
282.926	3923
282.985	2436
283.043	2793
283.102	2017
283.161	3068
283.220	8465
283.279	18422
283.338	6615
283.396	3067
283.455	2832
283.514	2795
283.573	5244
283.631	3625
283.690	3515
283.749	3341
283.808	6293
283.866	7401
283.925	3271
283.984	3275
284.043	4843
284.101	5510
284.160	2976
284.219	5079
284.277	4397
284.336	6750
284.395	19553
284.453	16137
284.512	5851
284.570	7250
284.629	6020
284.688	5605
284.746	5961
284.805	7335
284.863	8946
284.922	10760
284.981	14095
285.039	20130
285.098	32847
285.156	79611
285.215	243933
285.273	234303
285.332	93061
285.390	45822
285.449	26514
285.507	18271
285.566	13304
285.624	12595
285.683	9747
285.741	8931
285.799	6924
285.858	6290
285.916	5258
285.975	4679
286.033	3632
286.091	4614
286.150	3366
286.208	3734
286.267	4027
286.325	4557
286.383	5624
286.442	5117
286.500	3146
286.558	3457
286.616	3311
286.675	4128
286.733	3378
286.791	3553
286.850	3917
286.908	5736
286.966	7271
287.024	3670
287.083	3374
287.141	3048
287.199	3448
287.257	5198
287.315	3361
287.374	4881
287.432	8794
287.490	6345
287.548	4286
287.606	4470
287.664	4741
287.723	6281
287.781	7794
287.839	7374
287.897	9783
287.955	14605
288.013	22172
288.071	40779
288.129	150526
288.187	411971
288.245	195639
288.303	62274
288.361	34141
288.419	22184
288.477	15449
288.535	12501
288.593	9938
288.651	8844
288.709	6359
288.767	6827
288.825	5466
288.883	4887
288.941	3695
288.999	4052
289.057	3193
289.115	2956
289.173	2829
289.231	3546
289.289	3323
289.346	3475
289.404	3228
289.462	5386
289.520	5907
289.578	3857
289.636	1997
289.694	2618
289.751	2100
289.809	3099
289.867	2301
289.925	4468
289.983	3705
290.040	3528
290.098	2583
290.156	3405
290.214	2941
290.271	1831
290.329	2293
290.387	2244
290.444	1920
290.502	2068
290.560	1966
290.617	1609
290.675	2061
290.733	1974
290.790	2821
290.848	2604
290.906	2124
290.963	2704
291.021	2278
291.078	2097
291.136	2550
291.194	8795
291.251	18089
291.309	6040
291.366	2626
291.424	2055
291.481	2170
291.539	2429
291.596	1493
291.654	1894
291.711	1348
291.769	2456
291.826	5609
291.884	3582
291.941	1532
291.999	2097
292.056	2705
292.114	2312
292.171	1167
292.228	1806
292.286	1589
292.343	5150
292.401	6417
292.458	4360
292.515	3093
292.573	3885
292.630	3582
292.687	4443
292.745	3377
292.802	3774
292.859	11217
292.917	18345
292.974	10352
293.031	4674
293.089	3238
293.146	1715
293.203	1837
293.260	2121
293.318	3126
293.375	5737
293.432	2461
293.489	4222
293.546	2776
293.604	4554
293.661	13956
293.718	38706
293.775	19056
293.832	7737
293.889	5197
293.947	6643
294.004	4897
294.061	4599
294.118	8737
294.175	17747
294.232	23699
294.289	10132
294.346	5620
294.403	6810
294.460	4430
294.517	3554
294.574	3696
294.631	3399
294.688	4973
294.745	11243
294.802	44142
294.859	43826
294.916	17379
294.973	9497
295.030	6413
295.087	6118
295.144	4432
295.201	4388
295.258	4119
295.315	5215
295.372	15621
295.429	30969
295.486	13207
295.542	8432
295.599	18086
295.656	29688
295.713	20443
295.770	24753
295.827	10555
295.883	5650
295.940	4810
295.997	7726
296.054	6224
296.111	4942
296.167	3481
296.224	2734
296.281	2844
296.338	2266
296.394	4142
296.451	4984
296.508	11560
296.564	22206
296.621	15696
296.678	36395
296.734	54399
296.791	20048
296.848	9210
296.904	8936
296.961	15532
297.018	29848
297.074	22308
297.131	11074
297.187	7380
297.244	10032
297.301	33397
297.357	62663
297.414	22506
297.470	9301
297.527	5457
297.583	5562
297.640	4371
297.696	4039
297.753	3321
297.809	2515
297.866	3129
297.922	3544
297.979	2970
298.035	3753
298.092	6234
298.148	17438
298.204	16195
298.261	9231
298.317	16113
298.374	44529
298.430	27089
298.486	11859
298.543	8376
298.599	8336
298.656	7425
298.712	12929
298.768	34883
298.824	29837
298.881	9623
298.937	5887
298.993	3512
299.050	5327
299.106	5383
299.162	4958
299.218	4870
299.275	4423
299.331	5481
299.387	10421
299.443	37617
299.500	38338
299.556	14268
299.612	7467
299.668	5883
299.724	5615
299.780	5640
299.837	5674
299.893	7827
299.949	24194
300.005	28348
300.061	26713
300.117	49723
300.173	25609
300.229	9516
300.285	10459
300.341	11321
300.397	7149
300.453	4432
300.510	4115
300.566	4380
300.622	4858
300.678	9729
300.734	20896
300.790	25120
300.845	34187
300.901	19304
300.957	21492
301.013	18274
301.069	8330
301.125	5085
301.181	5329
301.237	4981
301.293	3057
301.349	3216
301.405	3568
301.461	3602
301.516	5463
301.572	4963
301.628	7286
301.684	6432
301.740	11637
301.796	17834
301.851	13695
301.907	20135
301.963	20671
302.019	38543
302.074	113085
302.130	113221
302.186	50647
302.242	20016
302.297	12093
302.353	11262
302.409	18246
302.464	16862
302.520	13911
302.576	32062
302.631	37392
302.687	20858
302.743	10368
302.798	5698
302.854	5165
302.910	4964
302.965	6115
303.021	9619
303.076	9200
303.132	10803
303.187	11792
303.243	6333
303.299	5437
303.354	3941
303.410	3757
303.465	4024
303.521	3529
303.576	4052
303.632	5623
303.687	10050
303.743	33704
303.798	29169
303.853	12125
303.909	7098
303.964	5009
304.020	6569
304.075	10600
304.130	8283
304.186	14372
304.241	14621
304.297	13875
304.352	7327
304.358	7130
304.407	5530
304.449	5199
304.463	5089
304.518	5607
304.539	5564
304.573	5520
304.629	6082
304.630	6136
304.684	9286
304.720	21515
304.739	27247
304.794	40873
304.811	35195
304.850	21809
304.902	9774
304.905	9026
304.960	7323
304.992	6907
305.015	6533
305.071	6325
305.083	6076
305.126	5185
305.173	3990
305.181	3812
305.236	3757
305.264	4137
305.292	4573
305.347	4912
305.354	4947
305.402	5170
305.445	6241
305.457	6503
305.512	8103
305.535	7897
305.567	8092
305.622	8358
305.626	8656
305.678	17150
305.716	33423
305.733	38041
305.788	40833
305.807	35251
305.843	28385
305.897	39278
305.898	39335
305.953	37952
305.988	24095
306.008	17511
306.063	10581
306.078	9503
306.118	7142
306.168	5627
306.173	5530
306.228	4027
306.259	4230
306.283	4487
306.338	4658
306.349	4895
306.393	5988
306.440	6586
306.448	6722
306.503	7696
306.530	8050
306.558	10665
306.613	20632
306.620	21966
306.668	28779
306.711	36068
306.723	35838
306.778	25885
306.801	19242
306.833	13672
306.888	6751
306.892	6543
306.943	5887
306.982	5545
306.997	5365
307.052	5322
307.072	5200
307.107	6128
307.162	9456
307.163	9475
307.217	12929
307.253	16194
307.272	16502
307.327	15731
307.343	14440
307.381	13608
307.434	13755
307.436	14198
307.491	27170
307.524	37529
307.546	37192
307.600	31605
307.614	27629
307.655	19107
307.704	12413
307.710	12588
307.765	16993
307.795	21353
307.819	23870
307.874	32274
307.885	32653
307.929	30285
307.975	27077
307.984	29456
308.038	48427
308.065	60298
308.093	107124
308.148	215841
308.156	237259
308.202	296040
308.246	325854
308.257	313908
308.312	175511
308.336	117344
308.366	86417
308.421	49646
308.426	46556
308.475	31424
308.517	22895
308.530	21539
308.585	18551
308.607	17625
308.639	18915
308.694	22555
308.697	22832
308.748	36957
308.787	49974
308.803	48406
308.857	35696
308.877	30677
308.912	30586
308.967	32121
308.967	32137
309.021	47743
309.058	59451
309.076	80057
309.130	146706
309.148	171018
309.185	293073
309.238	497623
309.239	498101
309.293	463256
309.328	390649
309.348	335797
309.402	163039
309.418	118961
309.457	84456
309.508	51386
309.511	50513
309.566	41061
309.598	36655
309.620	36668
309.674	39336
309.688	40155
309.729	36984
309.778	31185
309.783	30979
309.837	28482
309.868	27164
309.892	35983
309.946	58257
309.959	64112
310.001	68364
310.049	70160
310.055	67531
310.109	39153
310.139	22953
310.163	19076
310.218	12983
310.229	11924
310.272	10637
310.319	9755
310.326	9698
310.381	9030
310.409	8782
310.435	8619
310.489	8139
310.499	8144
310.543	9098
310.589	9767
310.598	9585
310.652	8528
310.679	7916
310.706	7366
310.760	6038
310.769	5807
310.814	5179
310.859	4862
310.868	5008
310.923	5652
310.948	6030
310.977	6933
311.031	8618
311.038	8851
311.085	7967
311.128	6758
311.139	6774
311.193	6957
311.218	7020
311.247	7061
311.301	7164
311.308	7149
311.356	6593
311.398	6102
311.410	6101
311.464	5958
311.488	5902
311.518	6033
311.572	6258
311.578	6272
311.626	8788
311.668	10950
311.680	10972
311.734	10881
311.758	10792
311.788	10729
311.842	10597
311.847	10552
311.896	14728
311.937	18330
311.950	17503
312.004	13575
312.027	11809
312.058	10304
312.112	7580
312.117	7292
312.165	7979
312.207	8536
312.297	12576
312.386	9585
312.476	10444
312.566	15646
312.656	7072
312.745	6048
312.835	7479
312.925	8624
313.015	8486
313.104	7986
313.194	6665
313.284	7133
313.374	8513
313.463	7466
313.553	5976
313.643	5686
313.732	4927
313.822	5807
313.912	6731
314.001	7342
314.091	9949
314.180	12397
314.270	10084
314.360	11819
314.449	9173
314.539	6406
314.628	5498
314.718	8540
314.808	9098
314.897	7168
314.987	5913
315.076	8727
315.166	10250
315.255	9695
315.345	10100
315.434	9477
315.524	9932
315.613	10695
315.703	11874
315.792	16885
315.881	29710
315.971	15217
316.060	20911
316.150	30300
316.239	27103
316.328	9764
316.418	6533
316.507	7122
316.597	9374
316.686	8737
316.775	18925
316.865	27896
316.954	6848
317.043	5677
317.133	6085
317.222	5852
317.311	5592
317.400	5369
317.490	10722
317.579	8965
317.668	7550
317.757	12233
317.847	25776
317.936	55191
318.025	26855
318.114	15994
318.203	12797
318.293	24919
318.382	36098
318.471	29475
318.560	56141
318.649	81256
318.738	15370
318.828	13396
318.917	13128
319.006	20652
319.095	54990
319.184	115906
319.273	48180
319.362	20988
319.451	9121
319.540	11373
319.629	28140
319.718	28393
319.807	18252
319.896	59303
319.985	134269
320.074	34096
320.163	14217
320.252	21128
320.341	19397
320.430	15850
320.519	18857
320.608	10544
320.697	10536
320.786	10613
320.875	12039
320.964	16776
321.053	24897
321.142	37724
321.230	30799
321.319	36072
321.408	57812
321.497	22933
321.586	24273
321.675	35760
321.764	26498
321.852	23603
321.941	36661
322.030	21456
322.119	37579
322.207	61507
322.296	41316
322.385	24429
322.474	35472
322.562	75017
322.651	30927
322.740	32642
322.829	40856
322.917	41394
323.006	21799
323.095	19361
323.183	17238
323.272	27489
323.361	64817
323.449	127360
323.538	44764
323.626	100402
323.715	40776
323.804	31942
323.892	87060
323.981	33636
324.069	17571
324.158	54814
324.246	32275
324.335	18640
324.424	19126
324.512	10823
324.601	15541
324.689	43794
324.778	53806
324.866	29463
324.954	9124
325.043	11859
325.131	23281
325.220	36770
325.308	35119
325.397	28854
325.485	13900
325.574	7369
325.662	6459
325.750	7850
325.839	6693
325.927	7140
326.015	9334
326.104	19090
326.192	18398
326.280	6759
326.369	7329
326.457	12812
326.545	17662
326.634	6990
326.722	5998
326.810	5962
326.898	6059
326.987	8535
327.075	19949
327.163	17788
327.251	11395
327.340	28701
327.428	23825
327.516	6488
327.604	7862
327.692	7348
327.781	11253
327.869	15925
327.957	10351
328.045	8771
328.133	6599
328.221	9121
328.309	7326
328.397	7542
328.485	8982
328.574	17365
328.662	40707
328.750	20918
328.838	9982
328.926	7427
329.014	7130
329.102	13783
329.190	30325
329.278	13848
329.366	7066
329.454	7505
329.542	7342
329.630	8375
329.718	10078
329.806	13027
329.893	16896
329.981	24546
330.069	61085
330.157	231438
330.245	398794
330.333	162153
330.421	35648
330.509	29397
330.597	57222
330.684	29514
330.772	16322
330.860	22862
330.948	25025
331.036	10069
331.123	5683
331.211	7586
331.299	10352
331.387	29796
331.475	31549
331.562	10051
331.650	6768
331.738	9209
331.825	10234
331.913	6180
332.001	6293
332.089	11352
332.176	21029
332.264	49874
332.352	26311
332.439	10801
332.527	8054
332.614	8340
332.702	8602
332.790	8644
332.877	25454
332.965	32455
333.052	8988
333.140	12621
333.228	18174
333.315	7753
333.403	10164
333.490	27531
333.578	17105
333.665	19030
333.753	11444
333.840	6248
333.928	12013
334.015	30866
334.103	67554
334.190	134503
334.278	24172
334.365	12634
334.452	8557
334.540	8135
334.627	11680
334.715	15538
334.802	44139
334.889	191349
334.977	113103
335.064	14501
335.151	9986
335.239	11483
335.326	21828
335.413	95703
335.501	72887
335.588	12194
335.675	9200
335.762	15765
335.850	19506
335.937	15684
336.024	59169
336.111	163070
336.199	41675
336.286	11144
336.373	6799
336.460	5323
336.547	7137
336.635	10009
336.722	8347
336.809	8181
336.896	16556
336.983	58106
337.070	123204
337.157	140506
337.245	116318
337.332	53367
337.419	10309
337.506	7932
337.593	12144
337.680	55386
337.767	89315
337.854	28740
337.941	31565
338.028	33024
338.115	11610
338.202	18661
338.289	44376
338.376	95476
338.463	30788
338.550	76816
338.637	47733
338.724	25708
338.811	24812
338.898	6791
338.984	6542
339.071	8906
339.158	13185
339.245	25963
339.332	13700
339.419	25054
339.506	15292
339.593	4457
339.679	5556
339.766	5778
339.853	11476
339.940	15413
340.027	5659
340.113	8390
340.200	9861
340.287	8006
340.374	11696
340.460	14686
340.547	7324
340.634	19104
340.720	51603
340.807	18910
340.894	5429
340.980	6264
341.067	5267
341.154	7923
341.240	15183
341.327	21117
341.414	8632
341.500	7543
341.587	6353
341.674	7090
341.760	18266
341.847	16461
341.933	5720
342.020	3564
342.106	3961
342.193	9119
342.279	11641
342.366	12359
342.452	14581
342.539	9926
342.625	29260
342.712	47924
342.798	19172
342.885	8029
342.971	4410
343.058	4184
343.144	4770
343.230	4718
343.317	5088
343.403	4896
343.490	4065
343.576	5002
343.662	5832
343.749	7620
343.835	10837
343.921	29466
344.008	170819
344.094	225503
344.180	38670
344.267	24420
344.353	76917
344.439	53417
344.525	22430
344.612	17413
344.698	15629
344.784	9541
344.870	6407
344.957	7550
345.043	9798
345.129	9614
345.215	14077
345.301	9186
345.387	5502
345.474	4624
345.560	5893
345.646	7033
345.732	6282
345.818	7538
345.904	6596
345.990	7712
346.076	9617
346.162	13967
346.249	6435
346.335	5823
346.421	9135
346.507	45270
346.593	82465
346.679	15683
346.765	7177
346.851	6385
346.937	5308
347.023	6291
347.108	6884
347.194	5268
347.280	6379
347.366	10155
347.452	44000
347.538	115651
347.624	76719
347.710	46747
347.796	8830
347.882	6958
347.967	7198
348.053	10769
348.139	6508
348.225	5284
348.311	4807
348.397	4841
348.482	8041
348.568	7650
348.654	4646
348.740	4946
348.825	5012
348.911	17030
348.997	75600
349.083	85048
349.168	11629
349.254	7657
349.340	6577
349.425	5402
349.511	8379
349.597	10749
349.682	26380
349.768	60791
349.854	20144
349.939	6609
350.025	4619
350.110	5974
350.196	4315
350.282	3355
350.367	4756
350.453	12643
350.538	9442
350.624	9291
350.709	7055
350.795	4190
350.880	4329
350.966	8298
351.051	11082
351.137	6783
351.222	7522
351.308	30037
351.393	44671
351.479	11340
351.564	5155
351.649	6222
351.735	4502
351.820	4743
351.906	5737
351.991	11778
352.076	43793
352.162	38628
352.247	8429
352.332	9548
352.418	16406
352.503	26835
352.588	80033
352.673	41682
352.759	11611
352.844	7315
352.929	9487
353.014	9516
353.100	9597
353.185	15083
353.270	20819
353.355	15140
353.441	7169
353.526	9883
353.611	19995
353.696	16830
353.781	11436
353.866	5816
353.952	8697
354.037	21757
354.122	36218
354.207	29677
354.292	10581
354.377	6128
354.462	6582
354.547	9130
354.632	8755
354.717	16564
354.802	13392
354.887	6269
354.972	5273
355.057	4918
355.142	4422
355.227	9131
355.312	14035
355.397	33306
355.482	56434
355.567	23755
355.652	22786
355.737	30023
355.822	82868
355.907	40875
355.991	8675
356.076	6042
356.161	5937
356.246	5388
356.331	9050
356.416	34099
356.501	154188
356.585	98662
356.670	15799
356.755	13584
356.840	27872
356.924	143200
357.009	294346
357.094	79086
357.179	22068
357.263	14054
357.348	16788
357.433	15652
357.517	13095
357.602	10533
357.687	10442
357.771	28197
357.856	59677
357.941	35414
358.025	125551
358.110	325555
358.195	105515
358.279	19260
358.364	20317
358.448	70636
358.533	131173
358.617	91142
358.702	84211
358.787	26329
358.871	18783
358.956	13512
359.040	6303
359.125	6002
359.209	11089
359.294	36600
359.378	39050
359.462	15759
359.547	8761
359.631	6720
359.716	5063
359.800	7416
359.885	11077
359.969	6772
360.053	7272
360.138	8037
360.222	12203
360.306	19943
360.391	16588
360.475	43439
360.559	61680
360.644	54110
360.728	36732
360.812	104717
360.896	177797
360.981	68879
361.065	28676
361.149	10427
361.233	9999
361.318	9254
361.402	8958
361.486	9058
361.570	7363
361.654	12205
361.739	42176
361.823	159995
361.907	159941
361.991	26654
362.075	22416
362.159	36891
362.243	22734
362.327	18932
362.411	16390
362.495	12526
362.580	8556
362.664	6877
362.748	6420
362.832	9179
362.916	14656
363.000	44622
363.084	159053
363.168	185994
363.252	38288
363.336	17751
363.420	36604
363.503	124599
363.587	93727
363.671	18068
363.755	14481
363.839	17930
363.923	11304
364.007	23236
364.091	23903
364.175	63188
364.258	163336
364.342	71440
364.426	39709
364.510	23887
364.594	24477
364.677	61047
364.761	183662
364.845	89088
364.929	34629
365.013	24612
365.096	25097
365.180	26302
365.264	72679
365.347	163633
365.431	53757
365.515	14888
365.598	7961
365.682	9639
365.766	19765
365.849	18505
365.933	10940
366.017	15662
366.100	9561
366.184	4555
366.267	6222
366.351	6209
366.435	5264
366.518	4730
366.602	4746
366.685	5661
366.769	8499
366.852	18896
366.936	24126
367.019	12051
367.103	15680
367.186	21484
367.270	6420
367.353	4685
367.436	5941
367.520	5262
367.603	9240
367.687	14670
367.770	20482
367.853	17625
367.937	59631
368.020	62579
368.104	14813
368.187	19690
368.270	23440
368.353	21854
368.437	38932
368.520	68145
368.603	40072
368.687	72584
368.770	82172
368.853	21102
368.936	25461
369.020	20910
369.103	7494
369.186	7497
369.269	7786
369.352	18626
369.436	19972
369.519	12553
369.602	5293
369.685	9709
369.768	8408
369.851	7703
369.934	5833
370.018	11489
370.101	17962
370.184	14611
370.267	13251
370.350	22951
370.433	40485
370.516	97788
370.599	78172
370.682	30258
370.765	54908
370.848	80818
370.931	116875
371.014	36658
371.097	8541
371.180	7546
371.263	5240
371.346	4895
371.429	6752
371.511	6829
371.594	14222
371.677	24246
371.760	24429
371.843	35969
371.926	166500
372.009	243380
372.091	63527
372.174	67195
372.257	113421
372.340	36889
372.423	39030
372.505	35743
372.588	18021
372.671	57202
372.754	118164
372.836	49584
372.919	65070
373.002	82711
373.085	22137
373.167	26164
373.250	68603
373.332	126811
373.415	224668
373.498	327476
373.580	115027
373.663	193633
373.746	184579
373.828	38421
373.911	19789
373.993	36769
374.076	106802
374.159	70976
374.241	48116
374.324	103984
374.406	62365
374.489	147896
374.571	262140
374.654	82995
374.736	77821
374.819	195749
374.901	268322
374.983	207992
375.066	32999
375.148	26886
375.231	101969
375.313	129465
375.395	39227
375.478	10579
375.560	9452
375.643	17814
375.725	86403
375.807	228912
375.890	141128
375.972	56849
376.054	40176
376.136	52030
376.219	27880
376.301	92722
376.383	165639
376.465	52988
376.548	39768
376.630	70679
376.712	143808
376.794	47215
376.877	7957
376.959	5792
377.041	10402
377.123	23916
377.205	19616
377.287	5806
377.369	5786
377.452	5807
377.534	5421
377.616	6106
377.698	5531
377.780	4212
377.862	6999
377.944	7134
378.026	4250
378.108	5532
378.190	4848
378.272	5492
378.354	3563
378.436	5568
378.518	18341
378.600	41835
378.682	39461
378.764	74156
378.846	41176
378.928	18689
379.010	19083
379.091	10198
379.173	6837
379.255	5705
379.337	13168
379.419	53086
379.501	93769
379.583	29705
379.664	13354
379.746	34667
379.828	78191
379.910	94887
379.991	64487
380.073	12308
380.155	9434
380.237	7280
380.318	6548
380.400	8722
380.482	18946
380.564	22627
380.645	25464
380.727	19646
380.809	11500
380.890	8498
380.972	6717
381.053	8112
381.135	11907
381.217	35711
381.298	66533
381.380	29761
381.461	55041
381.543	181470
381.624	148047
381.706	26649
381.787	17329
381.869	26015
381.951	114308
382.032	272185
382.113	123573
382.195	27252
382.276	26579
382.358	69175
382.439	141053
382.521	178814
382.602	220296
382.684	114414
382.765	195248
382.846	157862
382.928	137902
383.009	76524
383.090	109204
383.172	279178
383.253	275639
383.334	150175
383.416	195895
383.497	81436
383.578	47240
383.659	102980
383.741	315622
383.822	482572
383.903	208375
383.984	158922
384.066	234365
384.147	113512
384.228	26360
384.309	20933
384.390	14968
384.471	12825
384.553	14919
384.634	20508
384.715	17425
384.796	11132
384.877	24865
384.958	74064
385.039	63364
385.120	20903
385.201	13580
385.282	17733
385.363	17728
385.444	17579
385.525	46593
385.606	115954
385.687	71160
385.768	22870
385.849	45692
385.930	162993
386.011	195655
386.092	42230
386.173	12953
386.254	11445
386.335	12087
386.416	20112
386.496	54137
386.577	61067
386.658	23666
386.739	16483
386.820	16267
386.901	13910
386.981	12431
387.062	10401
387.143	29904
387.224	72657
387.304	48999
387.385	20590
387.466	15266
387.547	17519
387.627	13887
387.708	46691
387.789	141758
387.869	128378
387.950	29243
388.031	9182
388.111	14190
388.192	32653
388.273	37571
388.353	20786
388.434	15169
388.514	47050
388.595	150457
388.676	137824
388.756	63001
388.837	63090
388.917	29067
388.998	9378
389.078	8949
389.159	8930
389.239	7560
389.320	14328
389.400	13084
389.480	40821
389.561	70328
389.641	27079
389.722	15267
389.802	23430
389.883	46505
389.963	90892
390.043	45212
390.124	19572
390.204	40169
390.284	79831
390.365	52436
390.445	119205
390.525	252452
390.605	168211
390.686	38358
390.766	13937
390.846	9260
390.927	8369
391.007	7803
391.087	10387
391.167	9213
391.247	8907
391.328	17095
391.408	23009
391.488	14253
391.568	6430
391.648	10837
391.728	12877
391.808	14683
391.888	20239
391.969	50414
392.049	57377
392.129	27205
392.209	45980
392.289	81336
392.369	42839
392.449	41626
392.529	21687
392.609	19242
392.689	38305
392.769	87109
392.849	57933
392.929	65059
393.009	120194
393.089	67795
393.169	68808
393.248	298105
393.328	872649
393.408	683283
393.488	130910
393.568	39872
393.648	24218
393.728	16846
393.807	14628
393.887	14747
393.967	16560
394.047	21912
394.127	32034
394.206	70595
394.286	301265
394.366	833378
394.446	676245
394.525	160197
394.605	48807
394.685	44075
394.764	78929
394.844	105521
394.924	57859
395.003	20732
395.083	16338
395.163	15804
395.242	15385
395.322	14242
395.402	13033
395.481	22073
395.561	63516
395.640	112788
395.720	90156
395.799	138925
395.879	100301
395.958	115540
396.038	431731
396.117	1070593
396.197	922324
396.276	280263
396.356	101509
396.435	65253
396.515	41220
396.594	41999
396.673	79844
396.753	328340
396.832	742263
396.912	414048
396.991	85263
397.070	27671
397.150	16567
397.229	14725
397.308	16392
397.388	17848
397.467	12397
397.546	9372
397.625	7109
397.705	12447
397.784	12110
397.863	7139
397.942	6110
398.022	12577
398.101	56418
398.180	104750
398.259	43745
398.338	13007
398.417	9509
398.497	7485
398.576	7920
398.655	5243
398.734	6179
398.813	12541
398.892	56931
398.971	117393
399.050	40801
399.129	6842
399.208	5752
399.287	6425
399.366	5445
399.445	4841
399.524	5580
399.603	6091
399.682	16369
399.761	56672
399.840	133039
399.919	73057
399.998	10644
400.077	4684
400.156	4513
400.235	7739
400.313	6075
400.392	13363
400.471	46336
400.550	48876
400.629	11992
400.708	8489
400.786	12964
400.865	29618
400.944	23825
401.023	11061
401.102	4179
401.180	5488
401.259	5845
401.338	6385
401.416	9414
401.495	7539
401.574	6966
401.652	6803
401.731	9880
401.810	6958
401.888	4386
401.967	3642
402.046	6013
402.124	9587
402.203	10089
402.281	7410
402.360	16015
402.438	34466
402.517	18558
402.596	8871
402.674	7346
402.753	5574
402.831	5553
402.910	12154
402.988	48040
403.066	93423
403.145	39794
403.223	45095
403.302	78883
403.380	55824
403.459	49051
403.537	16829
403.615	7627
403.694	2757
403.772	5073
403.850	4180
403.929	4287
404.007	5870
404.085	14626
404.164	12592
404.242	11950
404.320	44021
404.398	102582
404.477	128045
404.555	230230
404.633	150997
404.711	68972
404.789	33515
404.868	11990
404.946	5600
405.024	4934
405.102	3971
405.180	3304
405.258	3551
405.336	5837
405.415	6523
405.493	13734
405.571	9844
405.649	4482
405.727	4454
405.805	9072
405.883	8306
405.961	10368
406.039	9040
406.117	6128
406.195	15870
406.273	74783
406.351	163860
406.429	70861
406.507	14328
406.585	6657
406.663	7477
406.740	8217
406.818	6336
406.896	4862
406.974	7886
407.052	31200
407.130	115174
407.208	106171
407.285	18292
407.363	5235
407.441	5569
407.519	5214
407.596	8283
407.674	21454
407.752	45477
407.830	39564
407.907	17095
407.985	6161
408.063	5371
408.141	5871
408.218	10674
408.296	8881
408.373	6223
408.451	7013
408.529	5858
408.606	3923
408.684	2570
408.762	3548
408.839	1625
408.917	2729
408.994	2765
409.072	2679
409.149	3085
409.227	5814
409.304	4443
409.382	4115
409.459	3186
409.537	6205
409.614	5242
409.692	3958
409.769	4350
409.846	6652
409.924	9076
410.001	6222
410.079	5449
410.156	5515
410.233	6844
410.311	5042
410.388	4660
410.465	5618
410.543	4983
410.620	4221
410.697	5798
410.775	5726
410.852	2783
410.929	7273
411.006	8007
411.083	7430
411.161	13193
411.238	13574
411.315	6428
411.392	4650
411.469	6680
411.547	7178
411.624	4065
411.701	3670
411.778	7184
411.855	12177
411.932	5681
412.009	3705
412.086	4520
412.163	6472
412.240	6650
412.317	9415
412.394	5945
412.471	4227
412.548	3395
412.625	4493
412.702	8400
412.779	12269
412.856	6871
412.933	3769
413.010	4963
413.087	14807
413.164	43339
413.241	39582
413.318	9676
413.395	9650
413.471	10855
413.548	4394
413.625	4622
413.702	6655
413.779	4700
413.855	2369
413.932	3072
414.009	1993
414.086	2732
414.162	4475
414.239	13251
414.316	49202
414.393	69002
414.469	18098
414.546	3419
414.623	3347
414.699	3487
414.776	3862
414.853	2997
414.929	4391
415.006	5366
415.082	5999
415.159	4830
415.236	4576
415.312	5329
415.389	10058
415.465	9801
415.542	5947
415.618	4830
415.695	8003
415.771	5474
415.848	4235
415.924	4965
416.000	4526
416.077	2938
416.153	1089
416.230	1646
416.306	2349
416.383	3478
416.459	3181
416.535	2131
416.612	2452
416.688	2761
416.764	3158
416.841	2142
416.917	3856
416.993	3621
417.069	5998
417.146	11416
417.222	12982
417.298	5773
417.374	3516
417.451	4710
417.527	6085
417.603	5499
417.679	4788
417.755	3898
417.831	1994
417.908	2043
417.984	3513
418.060	4458
418.136	11389
418.212	11621
418.288	3992
418.364	4015
418.440	3639
418.516	7321
418.592	13473
418.668	19792
418.744	22640
418.820	13731
418.896	3795
418.972	2134
419.048	5032
419.124	10997
419.200	6176
419.276	2510
419.352	1456
419.428	3160
419.504	4345
419.579	4828
419.655	3965
419.731	5957
419.807	18664
419.883	26927
419.959	14664
420.034	6387
420.110	20890
420.186	50494
420.262	27128
420.337	6724
420.413	4907
420.489	2787
420.565	4029
420.640	2627
420.716	4273
420.792	1421
420.867	3786
420.943	3913
421.019	7327
421.094	5255
421.170	3383
421.245	2273
421.321	3831
421.397	3181
421.472	11728
421.548	20405
421.623	11719
421.699	5802
421.774	5639
421.850	5613
421.925	10633
422.001	7637
422.076	6777
422.152	8474
422.227	12617
422.302	14671
422.378	21908
422.453	42589
422.529	127515
422.604	409281
422.679	609268
422.755	271838
422.830	65958
422.905	26441
422.981	15246
423.056	11157
423.131	9079
423.207	7205
423.282	9786
423.357	15031
423.432	9676
423.508	13513
423.583	23635
423.658	13335
423.733	6624
423.808	8220
423.883	9126
423.959	6039
424.034	4606
424.109	3505
424.184	2760
424.259	2808
424.334	2921
424.409	2208
424.484	3349
424.559	2830
424.634	4004
424.709	5702
424.784	6322
424.859	5100
424.934	13083
425.009	39889
425.084	48057
425.159	13114
425.234	3574
425.309	4720
425.384	21195
425.459	23862
425.534	7569
425.609	4284
425.683	2648
425.758	2856
425.833	4289
425.908	8031
425.983	29620
426.058	52531
426.132	17805
426.207	6812
426.282	12082
426.357	7258
426.431	3812
426.506	3181
426.581	4413
426.655	4372
426.730	2993
426.805	2586
426.879	4315
426.954	4878
427.029	18509
427.103	79281
427.178	130657
427.253	41224
427.327	9590
427.402	17928
427.476	31045
427.551	11340
427.625	6708
427.700	4277
427.774	4650
427.849	4963
427.923	3277
427.998	3242
428.072	5022
428.147	14592
428.221	47281
428.296	75307
428.370	24878
428.444	8518
428.519	16289
428.593	26518
428.667	22893
428.742	25775
428.816	29257
428.890	76794
428.965	75857
429.039	32486
429.113	27383
429.188	8385
429.262	3812
429.336	12249
429.410	26420
429.485	16454
429.559	22270
429.633	13969
429.707	6703
429.781	26944
429.855	86679
429.930	89032
430.004	79262
430.078	119944
430.152	97472
430.226	137819
430.300	88197
430.374	13397
430.448	14787
430.522	61724
430.596	112750
430.670	67110
430.744	140849
430.818	137545
430.892	24750
430.966	5859
431.040	3643
431.114	2123
431.188	3301
431.262	3624
431.336	4845
431.410	17847
431.484	31790
431.557	13710
431.631	3276
431.705	5168
431.779	27602
431.853	67034
431.927	30479
432.000	4632
432.074	4664
432.148	5052
432.222	4163
432.295	2268
432.369	4407
432.443	16066
432.516	82432
432.590	127135
432.664	33948
432.737	5276
432.811	1836
432.885	1690
432.958	2824
433.032	1889
433.106	1618
433.179	1204
433.253	1757
433.326	1633
433.400	1302
433.473	1431
433.547	1589
433.620	2881
433.694	6796
433.767	5402
433.841	2071
433.914	1181
433.988	2099
434.061	2600
434.134	1660
434.208	837
434.281	478
434.355	1527
434.428	2655
434.501	1919
434.575	2166
434.648	2006
434.721	1130
434.795	579
434.868	460
434.941	498
435.014	560
435.088	1421
435.161	4050
435.234	6200
435.307	5967
435.381	2356
435.454	2614
435.527	2312
435.600	2547
435.673	2030
435.746	2109
435.819	1987
435.892	1972
435.966	2642
436.039	1860
436.112	2110
436.185	1175
436.258	708
436.331	531
436.404	1348
436.477	1052
436.550	1411
436.623	1857
436.696	1162
436.769	2694
436.842	2523
436.915	3130
436.987	3693
437.060	2228
437.133	1244
437.206	1677
437.279	1957
437.352	1353
437.425	1373
437.498	3444
437.570	7624
437.643	5007
437.716	2559
437.789	2919
437.861	9643
437.934	16545
438.007	5228
438.080	2608
438.152	3809
438.225	18911
438.298	112241
438.370	182479
438.443	54849
438.516	12782
438.588	4056
438.661	1851
438.734	2811
438.806	3848
438.879	4210
438.951	5749
439.024	7773
439.096	2217
439.169	1980
439.241	1906
439.314	3444
439.386	5695
439.459	8725
439.531	10040
439.604	3174
439.676	1939
439.749	1221
439.821	1343
439.893	2092
439.966	2684
440.038	3719
440.110	3163
440.183	2562
440.255	1942
440.327	7980
440.400	50052
440.472	121402
440.544	49296
440.617	7264
440.689	7679
440.761	10022
440.833	13687
440.905	6060
440.978	2283
441.050	1028
441.122	1954
441.194	898
441.266	2198
441.338	1586
441.411	10381
441.483	44220
441.555	37669
441.627	7531
441.699	8071
441.771	5779
441.843	2313
441.915	640
441.987	1272
442.059	1591
442.131	3990
442.203	6023
442.275	7523
442.347	5007
442.419	8249
442.491	32634
442.563	46241
442.635	23990
442.706	29340
442.778	14996
442.850	2700
442.922	1679
442.994	4611
443.066	4873
443.137	4167
443.209	3027
443.281	6879
443.353	15695
443.425	55462
443.496	112854
443.568	73273
443.640	23073
443.711	6692
443.783	3158
443.855	2778
443.926	1960
443.998	3910
444.070	4620
444.141	4712
444.213	6994
444.285	6910
444.356	6610
444.428	5024
444.499	1674
444.571	871
444.642	2104
444.714	3574
444.785	5645
444.857	11638
444.928	19557
445.000	9943
445.071	15902
445.143	13694
445.214	8514
445.285	19878
445.357	48964
445.428	121895
445.500	171663
445.571	88610
445.642	37887
445.714	31600
445.785	28337
445.856	9230
445.928	7829
445.999	6808
446.070	4407
446.141	5707
446.213	6495
446.284	3608
446.355	4905
446.426	3184
446.497	3232
446.569	8516
446.640	9065
446.711	5005
446.782	2054
446.853	4228
446.924	4725
446.995	3813
447.066	4724
447.138	7666
447.209	3659
447.280	1365
447.351	1296
447.422	2813
447.493	3968
447.564	5261
447.635	4990
447.706	2384
447.777	1208
447.847	1257
447.918	1655
447.989	4165
448.060	6847
448.131	14899
448.202	10000
448.273	6211
448.344	3345
448.414	2241
448.485	1225
448.556	1757
448.627	1399
448.698	2489
448.768	1131
448.839	3529
448.910	7783
448.981	5108
449.051	2392
449.122	1553
449.193	1336
449.263	2174
449.334	1630
449.405	5179
449.475	8570
449.546	6769
449.616	9743
449.687	5680
449.758	2630
449.828	3090
449.899	1441
449.969	1665
450.040	2565
450.110	4002
450.181	4025
450.251	2334
450.322	2053
450.392	2360
450.463	1999
450.533	1643
450.604	1866
450.674	1568
450.744	1769
450.815	960
450.885	1406
450.955	2129
451.026	1303
451.096	2131
451.166	3219
451.237	13156
451.307	18932
451.377	5479
451.447	1300
451.518	1787
451.588	2008
451.658	3099
451.728	8631
451.799	27165
451.869	17644
451.939	3311
452.009	1968
452.079	1912
452.149	3595
452.219	11295
452.289	29079
452.360	12360
452.430	2657
452.500	3548
452.570	3628
452.640	6691
452.710	18191
452.780	20789
452.850	15184
452.920	10024
452.990	3265
453.060	4137
453.129	6044
453.199	8967
453.269	52179
453.339	64466
453.409	76802
453.479	109366
453.549	138146
453.619	121928
453.688	31255
453.758	6723
453.828	3496
453.898	2885
453.968	2473
454.037	1955
454.087	2423
454.107	2588
454.168	2227
454.177	2144
454.247	1161
454.249	1224
454.316	1775
454.330	2537
454.386	4899
454.411	9352
454.456	16197
454.492	15066
454.525	14138
454.574	7609
454.595	4837
454.655	2908
454.665	2643
454.734	5605
454.736	5902
454.804	11777
454.817	15278
454.873	27338
454.898	24986
454.943	20574
454.979	13907
455.013	8536
455.060	5907
455.082	5115
455.141	9564
455.152	10265
455.221	26941
455.222	27364
455.291	37193
455.303	38669
455.360	43962
455.384	53438
455.430	65547
455.465	46622
455.499	30024
455.546	26779
455.569	24539
455.627	11133
455.638	9010
455.707	3431
455.708	3466
455.777	3301
455.789	3306
455.846	3085
455.869	2895
455.916	2586
455.950	3372
455.985	3911
456.031	2973
456.054	2518
456.112	2952
456.124	3064
456.193	2643
456.193	2604
456.262	3590
456.274	3875
456.332	4919
456.355	5096
456.401	4666
456.436	3577
456.470	2800
456.516	2581
456.540	2507
456.597	2148
456.609	2027
456.678	2537
456.678	2516
456.747	2235
456.759	2184
456.817	1934
456.840	1931
456.886	1785
456.920	2019
456.955	2431
457.001	3020
457.024	3402
457.082	4498
457.093	4609
457.162	5885
457.163	5932
457.232	7005
457.243	6459
457.301	3697
457.324	3305
457.370	3200
457.405	3353
457.439	3484
457.485	3877
457.508	3998
457.566	3972
457.577	4012
457.646	5193
457.647	5225
457.715	6297
457.727	6640
457.784	8235
457.808	9400
457.853	11023
457.889	11919
457.922	11898
457.969	10955
457.991	11199
458.050	12826
458.060	13092
458.129	16569
458.130	16715
458.198	15768
458.211	14604
458.267	9721
458.292	8009
458.336	7012
458.372	6810
458.405	7955
458.453	10533
458.474	12155
458.533	19256
458.543	19880
458.611	26530
458.614	26625
458.680	17082
458.694	14734
458.749	9627
458.775	7913
458.818	6512
458.855	5585
458.887	5060
458.936	5210
458.955	5192
459.016	5184
459.024	5274
459.093	5639
459.097	5710
459.162	6271
459.177	6397
459.230	7145
459.257	7530
459.299	7598
459.338	7826
459.368	8171
459.418	8759
459.437	8351
459.499	6262
459.505	6174
459.574	5913
459.579	5894
459.643	5586
459.659	5554
459.711	6093
459.740	6535
459.780	6657
459.820	6753
459.849	7179
459.900	8089
459.917	8050
459.981	8082
459.986	8052
460.054	7205
460.061	7181
460.123	7952
460.141	8120
460.191	8924
460.222	9769
460.260	10507
460.302	11264
460.328	10480
460.382	8028
460.397	8193
460.462	9612
460.465	9902
460.534	16899
460.543	17822
460.602	36214
460.623	44026
460.671	66993
460.703	86820
460.739	72498
460.783	42471
460.808	33920
460.864	11358
460.876	9586
460.944	8508
460.945	8491
461.013	8113
461.024	8167
461.081	8747
461.104	8910
461.150	8133
461.184	7593
461.218	7867
461.264	8090
461.286	8003
461.345	7919
461.355	7981
461.423	8601
461.425	8611
461.491	11054
461.505	11678
461.559	23247
461.585	28709
461.628	40371
461.665	52261
461.696	52691
461.745	54671
461.764	47296
461.825	13334
461.832	12643
461.901	10065
461.905	10085
461.969	9137
461.985	8855
462.037	9886
462.065	10183
462.105	13006
462.145	16476
462.173	20984
462.225	29209
462.241	31564
462.305	43925
462.310	42586
462.378	17151
462.385	14161
462.446	11005
462.465	10635
462.514	10553
462.545	10680
462.582	10680
462.625	10625
462.650	10574
462.705	10380
462.718	10927
462.785	13742
462.786	13819
462.854	17910
462.865	18741
462.922	21187
462.945	22096
462.990	16116
463.025	10501
463.058	9960
463.104	9945
463.126	9927
463.184	9681
463.194	9801
463.262	10630
463.264	10672
463.330	12004
463.344	12178
463.398	13001
463.424	13441
463.466	12978
463.504	12699
463.533	12795
463.583	12479
463.601	12882
463.663	14622
463.669	15147
463.737	21078
463.743	21611
463.805	34386
463.823	38100
463.873	54913
463.903	65784
463.940	63796
463.982	61351
464.008	48560
464.062	17866
464.076	16628
464.142	11899
464.144	11882
464.211	11969
464.221	12049
464.279	12944
464.301	13187
464.347	14725
464.381	15849
464.414	17663
464.461	20326
464.482	20446
464.540	20777
464.550	20336
464.617	16223
464.620	16071
464.685	16970
464.699	17146
464.753	19466
464.779	20683
464.820	22747
464.859	24581
464.888	24655
464.938	24601
464.956	24576
465.018	24425
465.023	24187
465.091	20289
465.098	19862
465.158	19820
465.177	19879
465.226	20064
465.257	20024
465.293	20631
465.336	21228
465.361	22903
465.416	26742
465.428	29265
465.495	42744
465.496	42952
465.563	64493
465.575	68272
465.631	73239
465.654	75201
465.698	47684
465.734	23633
465.765	22721
465.813	22069
465.833	22146
465.893	22533
465.900	22606
465.968	23022
465.972	23005
466.035	23548
466.052	23658
466.102	24146
466.131	24343
466.170	24953
466.210	25525
466.237	25983
466.290	26711
466.304	27134
466.369	28716
466.372	28786
466.439	29383
466.449	29401
466.506	33632
466.528	35154
466.573	48875
466.607	59108
466.641	76048
466.687	99397
466.708	103866
466.766	116022
466.775	107806
466.842	43486
466.845	40369
466.909	36036
466.925	35005
466.977	34798
467.004	34622
467.044	35533
467.083	36326
467.111	37781
467.163	40311
467.178	40772
467.242	42265
467.245	42228
467.312	39761
467.321	39352
467.379	39278
467.400	39137
467.446	41523
467.480	43097
467.559	36243
467.638	33815
467.717	33211
467.796	35143
467.875	36315
467.955	36355
468.034	60513
468.113	108982
468.192	138018
468.271	33807
468.350	28458
468.429	27129
468.508	26973
468.588	27024
468.667	27779
468.746	30054
468.825	28093
468.904	24633
468.983	31211
469.062	46113
469.141	48951
469.220	23275
469.299	23581
469.378	27281
469.456	29573
469.535	25231
469.614	26435
469.693	28347
469.772	36131
469.851	48688
469.930	29756
470.009	23315
470.088	22659
470.166	24850
470.245	25789
470.324	27861
470.403	26507
470.482	24038
470.560	23310
470.639	24137
470.718	26544
470.797	22877
470.875	31005
470.954	40251
471.033	39305
471.111	18453
471.190	19211
471.269	18799
471.347	19103
471.426	20039
471.505	23925
471.583	23084
471.662	21876
471.740	20625
471.819	20076
471.898	19635
471.976	19565
472.055	19277
472.133	23606
472.212	32016
472.290	31006
472.369	20197
472.447	19271
472.526	18436
472.604	20137
472.683	20834
472.761	21491
472.839	19921
472.918	20147
472.996	19853
473.075	24749
473.153	22081
473.231	19925
473.310	23276
473.388	20886
473.466	20533
473.545	22969
473.623	28558
473.701	26107
473.780	19920
473.858	19736
473.936	23468
474.014	19978
474.093	24818
474.171	36548
474.249	49489
474.327	25807
474.405	18602
474.484	18852
474.562	18949
474.640	19624
474.718	23019
474.796	22997
474.874	22159
474.952	20853
475.030	21570
475.108	23714
475.187	27455
475.265	32240
475.343	38103
475.421	38449
475.499	22916
475.577	24913
475.655	34332
475.733	63347
475.811	103783
475.889	89159
475.966	45520
476.044	22432
476.122	26473
476.200	32568
476.278	23265
476.356	18103
476.434	19430
476.512	25383
476.590	30888
476.667	24389
476.745	17814
476.823	18576
476.901	18005
476.979	19475
477.056	19526
477.134	19281
477.212	20543
477.290	19183
477.367	16812
477.445	17046
477.523	16861
477.601	16776
477.678	18166
477.756	23772
477.834	24317
477.911	16339
477.989	16766
478.066	17253
478.144	21337
478.222	24401
478.299	37484
478.377	28604
478.454	16032
478.532	16163
478.609	16903
478.687	18716
478.764	15783
478.842	17743
478.919	18189
478.997	17068
479.074	17408
479.152	21308
479.229	27209
479.307	16609
479.384	14515
479.461	15210
479.539	16756
479.616	20758
479.694	17179
479.771	19235
479.848	22239
479.926	29238
480.003	26496
480.080	15532
480.157	15808
480.235	14746
480.312	15636
480.389	20651
480.467	32387
480.544	38013
480.621	18480
480.698	18206
480.775	20966
480.853	20472
480.930	17260
481.007	19218
481.084	22804
481.161	23244
481.238	20214
481.315	14786
481.392	15644
481.470	16844
481.547	17422
481.624	16508
481.701	15684
481.778	17294
481.855	20575
481.932	34813
482.009	54585
482.086	28870
482.163	18284
482.240	27792
482.317	45634
482.393	28932
482.470	17930
482.547	17549
482.624	15789
482.701	17497
482.778	16807
482.855	14811
482.932	14365
483.009	14613
483.085	16611
483.162	20647
483.239	19065
483.316	14873
483.393	14779
483.469	16533
483.546	20008
483.623	20792
483.699	16616
483.776	17944
483.853	22036
483.930	38468
484.006	88429
484.083	130773
484.160	55161
484.236	74090
484.313	54412
484.389	43736
484.466	39653
484.543	38417
484.619	37773
484.696	40735
484.772	44351
484.849	46405
484.925	36891
485.002	36655
485.078	39629
485.155	38391
485.231	34680
485.308	35806
485.384	37906
485.461	52303
485.537	85709
485.614	87027
485.690	35158
485.766	34158
485.843	38004
485.919	47992
485.995	44910
486.072	32390
486.148	31760
486.224	31968
486.301	34892
486.377	40163
486.453	38763
486.530	37957
486.606	49983
486.682	55203
486.758	71935
486.835	78971
486.911	68274
486.987	107800
487.063	91206
487.139	101204
487.215	69780
487.292	39390
487.368	35976
487.444	38858
487.520	47316
487.596	41711
487.672	52577
487.748	86943
487.824	106749
487.900	57895
487.976	42469
488.052	43046
488.128	48902
488.204	39036
488.280	35957
488.356	52159
488.432	107169
488.508	135323
488.584	39064
488.660	32138
488.736	32798
488.812	34111
488.888	41469
488.964	56861
489.039	110915
489.115	144921
489.191	75925
489.267	35010
489.343	32046
489.418	27314
489.494	28605
489.570	26385
489.646	28883
489.722	28802
489.797	33110
489.873	61766
489.949	117276
490.024	71764
490.100	28204
490.176	29845
490.251	34556
490.327	39832
490.403	26760
490.478	25470
490.554	23276
490.629	24756
490.705	24445
490.781	27543
490.856	27479
490.932	31270
491.007	29008
491.083	29706
491.158	29108
491.234	47308
491.309	91054
491.385	72842
491.460	29398
491.536	31376
491.611	26243
491.686	29291
491.762	39689
491.837	72798
491.913	114919
491.988	159489
492.063	163164
492.139	60477
492.214	36331
492.289	22363
492.365	23580
492.440	27852
492.515	28272
492.590	26020
492.666	23640
492.741	36676
492.816	49161
492.891	25655
492.967	21989
493.042	21959
493.117	22707
493.192	27769
493.267	63046
493.342	167518
493.418	170988
493.493	29148
493.568	21111
493.643	22445
493.718	29487
493.793	42071
493.868	37527
493.943	25332
494.018	22116
494.093	20930
494.168	20824
494.243	19085
494.318	17745
494.393	19905
494.468	18622
494.543	18744
494.618	22326
494.693	20961
494.768	21547
494.842	20937
494.917	19866
494.992	21726
495.067	19590
495.142	21631
495.217	21634
495.292	22260
495.366	25360
495.441	30235
495.516	36311
495.591	56748
495.665	161880
495.740	295948
495.815	99575
495.890	34286
495.964	28082
496.039	30828
496.114	29634
496.188	32650
496.263	31868
496.338	31226
496.412	35938
496.487	39150
496.561	41506
496.636	40252
496.710	37382
496.785	42088
496.860	46273
496.934	38167
497.009	40936
497.083	42272
497.158	44900
497.232	53093
497.307	59814
497.381	57026
497.455	70502
497.530	82701
497.604	67769
497.679	76306
497.753	102885
497.827	117631
497.902	112247
497.976	136177
498.050	297321
498.125	767961
498.199	552905
498.273	141467
498.348	124135
498.422	114301
498.496	109410
498.570	98906
498.645	89129
498.719	84236
498.793	89642
498.867	110528
498.941	147461
499.016	378615
499.090	716638
499.164	177898
499.238	56440
499.312	52837
499.386	55161
499.460	50575
499.534	48576
499.609	55619
499.683	69991
499.757	69809
499.831	186055
499.905	537497
499.979	342339
500.053	78621
500.127	72066
500.201	50366
500.275	38037
500.349	36203
500.422	39419
500.496	57738
500.570	122460
500.644	321728
500.718	452993
500.792	72510
500.866	39322
500.940	47024
501.013	35602
501.087	38272
501.161	56772
501.235	78115
501.309	210749
501.382	489532
501.456	285325
501.530	96989
501.603	147627
501.677	44099
501.751	27152
501.825	35670
501.898	83001
501.972	194900
502.046	80802
502.119	38062
502.193	102380
502.266	195368
502.340	74074
502.413	107549
502.487	164199
502.561	84282
502.634	29887
502.708	24325
502.781	21663
502.855	19708
502.928	18802
503.002	18743
503.075	19961
503.149	20451
503.222	21800
503.295	24283
503.369	28888
503.442	50546
503.516	177715
503.589	350093
503.662	176415
503.736	75942
503.809	167989
503.882	120083
503.956	193087
504.029	119772
504.102	57894
504.175	55637
504.249	30047
504.322	30269
504.395	25842
504.468	19938
504.542	19156
504.615	15371
504.688	15338
504.761	14062
504.834	19966
504.907	23755
504.980	30834
505.053	19449
505.127	22725
505.200	28178
505.273	31554
505.346	16944
505.419	15493
505.492	14293
505.565	12438
505.638	13578
505.711	14162
505.784	12457
505.857	13994
505.930	15500
506.003	13028
506.076	18014
506.149	24058
506.221	24638
506.294	29769
506.367	95139
506.440	242708
506.513	81046
506.586	28235
506.659	16404
506.731	14535
506.804	20559
506.877	25212
506.950	17430
507.022	15474
507.095	21628
507.168	22863
507.241	15048
507.313	12748
507.386	14928
507.459	18525
507.531	13329
507.604	12132
507.677	12531
507.749	11153
507.822	19075
507.894	32228
507.967	32076
508.040	20277
508.112	19188
508.185	19127
508.257	17597
508.330	24420
508.402	18421
508.475	19771
508.547	19698
508.620	22354
508.692	32795
508.765	17804
508.837	14019
508.909	14987
508.982	14940
509.054	17788
509.127	15004
509.199	14875
509.271	14215
509.344	13301
509.416	13982
509.488	15216
509.560	15068
509.633	16951
509.705	17601
509.777	19522
509.849	25463
509.922	17245
509.994	16801
510.066	17961
510.138	19873
510.210	33304
510.283	27477
510.355	22695
510.427	21390
510.499	20357
510.571	19853
510.643	21872
510.715	30728
510.787	21980
510.859	21004
510.931	24748
511.003	28392
511.076	24178
511.148	18016
511.219	21744
511.291	37228
511.363	33963
511.435	18739
511.507	16757
511.579	18116
511.651	18385
511.723	17527
511.795	16752
511.867	17637
511.939	27445
512.010	50937
512.082	29373
512.154	17995
512.226	18735
512.298	29078
512.369	33492
512.441	26563
512.513	25467
512.585	20453
512.656	23889
512.728	23681
512.800	19639
512.871	20117
512.943	18640
513.015	15970
513.086	19362
513.158	20836
513.230	22383
513.301	27043
513.373	25709
513.444	18763
513.516	17707
513.588	18254
513.659	18967
513.731	21881
513.802	22477
513.874	44402
513.945	57362
514.016	22121
514.088	18554
514.159	20286
514.231	26769
514.302	31481
514.374	24999
514.445	28611
514.516	57142
514.588	33310
514.659	30906
514.730	51789
514.802	36720
514.873	38642
514.944	41030
515.016	36337
515.087	35779
515.158	48070
515.229	53173
515.301	46811
515.372	60626
515.443	48834
515.514	36246
515.585	27891
515.656	25883
515.728	22795
515.799	19957
515.870	20882
515.941	21196
516.012	20599
516.083	27330
516.154	27330
516.225	30866
516.296	29736
516.367	26153
516.438	26217
516.509	32632
516.580	49156
516.651	147988
516.722	370529
516.793	121963
516.864	45439
516.935	42329
517.006	45076
517.077	64106
517.148	151478
517.219	449210
517.289	519148
517.360	253663
517.431	65784
517.502	28798
517.573	26907
517.643	27067
517.714	29675
517.785	30254
517.856	30041
517.926	34000
517.997	36142
518.068	40121
518.138	50538
518.209	90562
518.280	355876
518.350	889846
518.421	249772
518.492	48197
518.562	36450
518.633	35890
518.703	33590
518.774	47457
518.845	67355
518.915	54576
518.986	36467
519.056	38759
519.127	64679
519.197	116156
519.268	262446
519.338	107778
519.408	36735
519.479	40162
519.549	25733
519.620	22459
519.690	18609
519.760	19045
519.831	19774
519.901	19103
519.971	18033
520.042	20462
520.112	25317
520.182	25661
520.253	25776
520.323	22196
520.393	34704
520.463	43149
520.534	40369
520.604	63091
520.674	28922
520.744	36766
520.814	78228
520.885	56524
520.955	115662
521.025	292411
521.095	66224
521.165	23721
521.235	20664
521.305	17387
521.375	16928
521.445	19339
521.515	22483
521.585	26051
521.655	21501
521.725	22383
521.795	20505
521.865	16924
521.935	30884
522.005	20834
522.075	15300
522.145	19212
522.215	22156
522.285	31788
522.355	48510
522.424	82159
522.494	58565
522.564	30560
522.634	65697
522.704	133672
522.774	35994
522.843	18436
522.913	18646
522.983	20636
523.053	16639
523.122	19096
523.192	28885
523.262	84607
523.331	57471
523.401	19000
523.471	13758
523.540	14806
523.610	11599
523.680	13613
523.749	14901
523.819	20671
523.888	18245
523.958	14132
524.027	14688
524.097	15563
524.166	14683
524.236	15494
524.305	16765
524.375	12760
524.444	12245
524.514	16131
524.583	16830
524.653	20629
524.722	21984
524.791	13509
524.861	15124
524.930	12872
524.999	14968
525.069	20592
525.138	18232
525.207	21738
525.277	15482
525.346	14457
525.415	13971
525.484	16424
525.554	19298
525.623	18523
525.692	16186
525.761	16321
525.830	16107
525.900	18306
525.969	25858
526.038	32895
526.107	60177
526.176	124419
526.245	81282
526.314	51416
526.383	85588
526.452	89999
526.522	176290
526.591	142887
526.660	70823
526.729	35593
526.797	45033
526.867	128286
526.935	422720
527.004	413491
527.073	142420
527.142	27447
527.211	19617
527.280	21630
527.349	18377
527.418	12551
527.487	13756
527.555	12313
527.624	12502
527.693	10546
527.762	12720
527.831	10410
527.899	12716
527.968	12014
528.037	11583
528.106	16994
528.174	27791
528.243	23666
528.312	39541
528.380	34686
528.449	13756
528.518	12065
528.586	8655
528.655	11234
528.723	10653
528.792	11629
528.861	11739
528.929	10109
528.998	11495
529.066	10379
529.135	10476
529.203	10041
529.272	9392
529.340	12513
529.409	12979
529.477	11727
529.545	17878
529.614	18897
529.682	23018
529.751	22800
529.819	25550
529.887	15746
529.956	12615
530.024	13267
530.092	10630
530.161	14935
530.229	20271
530.297	12463
530.365	12262
530.434	11443
530.502	10575
530.570	11657
530.638	9864
530.707	12283
530.775	13428
530.843	10150
530.911	10773
530.979	10860
531.047	11086
531.115	11795
531.183	10674
531.252	10787
531.320	11844
531.388	10049
531.456	11778
531.524	10548
531.592	12517
531.660	14663
531.728	11957
531.796	11292
531.864	12582
531.932	12827
532.000	13223
532.067	13640
532.135	14604
532.203	16565
532.271	18180
532.339	34647
532.407	64087
532.475	32339
532.542	19453
532.610	21115
532.678	36143
532.746	151746
532.814	219668
532.881	42052
532.949	16658
533.017	14709
533.084	13541
533.152	13316
533.220	13950
533.287	14548
533.355	12346
533.423	13387
533.490	12580
533.558	13045
533.625	13872
533.693	13639
533.761	14307
533.828	15486
533.896	16789
533.963	30976
534.031	35521
534.098	42563
534.166	19849
534.233	16910
534.300	18738
534.368	18142
534.435	16019
534.503	16844
534.570	18174
534.637	15099
534.705	15422
534.772	17946
534.840	25627
534.907	74866
534.974	55037
535.041	19074
535.109	18788
535.176	12092
535.243	13143
535.310	13605
535.378	12455
535.445	12694
535.512	11446
535.579	12537
535.646	11504
535.714	12900
535.781	16072
535.848	15850
535.915	18518
535.982	17783
536.049	18389
536.116	17913
536.183	15653
536.250	16461
536.317	16185
536.384	18595
536.451	23848
536.518	21910
536.585	18095
536.652	24524
536.719	27092
536.786	19908
536.853	19848
536.920	30022
536.987	36482
537.053	44807
537.120	155037
537.187	71185
537.254	15398
537.321	12455
537.388	14479
537.454	11532
537.521	11774
537.588	12260
537.654	15941
537.721	16107
537.788	15275
537.855	12089
537.921	13884
537.988	12698
538.055	12783
538.121	12957
538.188	15763
538.254	25868
538.321	35913
538.388	19689
538.454	13933
538.521	13796
538.587	11690
538.654	11896
538.720	11590
538.787	12005
538.853	13989
538.920	16879
538.986	17602
539.053	14526
539.119	14518
539.185	14672
539.252	17666
539.318	22969
539.385	17882
539.451	16868
539.517	16519
539.583	21902
539.650	56332
539.716	85858
539.782	21237
539.849	13521
539.915	15202
539.981	14916
540.047	16608
540.114	15716
540.180	16707
540.246	15762
540.312	23430
540.378	38600
540.444	32466
540.510	56814
540.576	97600
540.643	23311
540.709	13343
540.775	14382
540.841	15073
540.907	26003
540.973	32451
541.039	24751
541.105	21407
541.171	15168
541.237	13520
541.303	16522
541.369	18395
541.435	24560
541.500	29254
541.566	17575
541.632	12760
541.698	11781
541.764	12717
541.830	13084
541.896	12389
541.961	14063
542.027	14123
542.093	13856
542.159	14936
542.224	16989
542.290	25715
542.356	34195
542.421	28868
542.487	19139
542.553	17075
542.618	17412
542.684	14420
542.750	14144
542.815	19144
542.881	38369
542.947	105631
543.012	42325
543.078	13669
543.143	13390
543.209	14927
543.274	14119
543.340	19485
543.405	47631
543.471	44422
543.536	13908
543.602	14088
543.667	12707
543.732	13348
543.798	13612
543.863	13532
543.928	10873
543.994	11771
544.059	12207
544.124	13252
544.190	12612
544.255	13217
544.320	13852
544.386	13998
544.451	19684
544.516	20023
544.581	26252
544.646	76607
544.712	70953
544.777	18642
544.842	18565
544.907	18790
544.972	15448
545.037	15204
545.102	17106
545.168	17819
545.233	17743
545.298	20356
545.363	22432
545.428	23818
545.493	46416
545.558	71402
545.623	25314
545.688	17105
545.753	16705
545.818	16915
545.883	17016
545.947	16008
546.012	19471
546.077	18986
546.142	17149
546.207	18097
546.272	21685
546.337	20432
546.401	17881
546.466	17932
546.531	16327
546.596	18538
546.661	18152
546.725	17503
546.790	15514
546.855	16400
546.919	15361
546.984	17955
547.049	19499
547.113	22260
547.178	18402
547.243	22614
547.307	23414
547.372	28980
547.436	27787
547.501	20657
547.565	23204
547.630	26201
547.695	26836
547.759	30260
547.823	23933
547.888	20800
547.952	20980
548.017	22782
548.081	28823
548.146	36029
548.210	28621
548.274	20823
548.339	19645
548.403	20746
548.468	19102
548.532	19426
548.596	20056
548.660	20158
548.725	23409
548.789	27351
548.853	27264
548.917	24274
548.982	35861
549.046	28417
549.110	19390
549.174	20637
549.238	18963
549.303	19453
549.367	21813
549.431	20208
549.495	20620
549.559	20406
549.623	22052
549.687	26621
549.751	31489
549.815	25896
549.879	24596
549.943	22982
550.007	26207
550.071	26017
550.135	29682
550.199	25186
550.263	24271
550.327	29450
550.391	36043
550.455	26084
550.519	24923
550.582	28149
550.646	36541
550.710	31888
550.774	27279
550.838	27054
550.901	29208
550.965	31022
551.029	31805
551.093	37012
551.156	50038
551.220	91861
551.284	68628
551.347	51070
551.411	113120
551.475	77736
551.538	30531
551.602	26548
551.666	25669
551.729	23503
551.793	25528
551.856	25086
551.920	25406
551.983	24559
552.047	25456
552.110	25294
552.174	24047
552.237	24524
552.301	22743
552.364	22622
552.428	23082
552.491	23867
552.554	24033
552.618	24831
552.681	26443
552.745	27085
552.808	34554
552.871	37419
552.934	31432
552.998	28211
553.061	29494
553.124	27569
553.187	27589
553.251	28494
553.314	31002
553.377	33928
553.440	58867
553.503	185047
553.567	173817
553.630	36023
553.693	27160
553.756	25826
553.819	24485
553.882	23319
553.945	23932
554.008	22926
554.071	23093
554.134	23123
554.197	22344
554.260	22105
554.323	25504
554.386	23472
554.449	22844
554.512	22934
554.575	21909
554.638	23035
554.701	21692
554.764	21776
554.827	21310
554.889	19868
554.952	19806
555.015	20283
555.078	21096
555.141	21058
555.203	19405
555.266	20428
555.329	21369
555.391	19802
555.454	21251
555.517	20266
555.580	18489
555.642	18843
555.705	19120
555.768	19559
555.830	18380
555.893	17637
555.955	18534
556.018	19368
556.080	18165
556.143	18486
556.206	18148
556.268	19575
556.330	18487
556.393	19560
556.455	21539
556.518	32841
556.580	25737
556.643	17315
556.705	18458
556.767	16960
556.830	18054
556.892	20896
556.955	27534
557.017	19591
557.079	17735
557.142	18383
557.204	22006
557.266	37586
557.328	25612
557.391	16977
557.453	16767
557.515	17059
557.577	21325
557.639	19319
557.701	16588
557.764	16619
557.826	16685
557.888	18121
557.950	18412
558.012	19073
558.074	24014
558.136	51718
558.198	74984
558.260	28999
558.322	21411
558.384	22476
558.446	23702
558.508	26022
558.570	33978
558.632	53554
558.694	65214
558.756	82734
558.818	255902
558.880	380416
558.942	100195
559.003	85353
559.065	36686
559.127	25625
559.189	24917
559.251	28628
559.312	43222
559.374	120085
559.436	256544
559.498	80031
559.559	26536
559.621	24482
559.683	31050
559.744	56843
559.806	154132
559.868	133160
559.929	32571
559.991	28943
560.052	44275
560.114	84135
560.176	45823
560.237	64499
560.299	66548
560.360	21986
560.422	18323
560.483	17857
560.545	17383
560.606	16741
560.667	16654
560.729	15595
560.790	15689
560.852	16620
560.913	15778
560.974	14575
561.036	15720
561.097	16190
561.158	16715
561.220	16637
561.281	16707
561.342	17516
561.403	20544
561.465	27087
561.526	55293
561.587	50115
561.648	19880
561.709	16746
561.771	17237
561.832	16826
561.893	15644
561.954	16011
562.015	15514
562.076	16063
562.137	16243
562.198	16089
562.259	16456
562.320	16413
562.381	19579
562.442	23683
562.503	18913
562.564	16626
562.625	15930
562.686	16822
562.747	17784
562.808	16631
562.869	17546
562.930	20366
562.991	19858
563.051	17930
563.112	17267
563.173	16629
563.234	16557
563.294	16701
563.355	16645
563.416	16202
563.477	16513
563.537	17814
563.598	18824
563.659	17839
563.720	18071
563.780	18444
563.841	18687
563.901	18322
563.962	18072
564.023	18518
564.083	18401
564.144	18608
564.204	18865
564.265	19419
564.325	26062
564.386	46861
564.446	30174
564.507	19140
564.567	17948
564.628	18215
564.688	19117
564.749	20054
564.809	22725
564.869	24508
564.930	20519
564.990	20223
565.050	19562
565.111	20147
565.171	20095
565.231	20548
565.292	20321
565.352	20180
565.412	22774
565.472	22373
565.532	22706
565.593	22431
565.653	22269
565.713	23995
565.773	25794
565.833	28261
565.893	30570
565.953	26056
566.013	25818
566.074	29301
566.134	37639
566.194	50850
566.254	46834
566.314	37809
566.374	33517
566.434	34987
566.494	35995
566.554	36521
566.614	38533
566.673	41152
566.733	43201
566.793	45567
566.853	46711
566.913	48444
566.973	48583
567.033	48412
567.092	46792
567.152	48985
567.212	51276
567.272	52601
567.331	56250
567.391	56998
567.451	59954
567.511	67655
567.570	61682
567.630	51823
567.690	51666
567.749	54332
567.809	57109
567.868	63871
567.928	72321
567.988	81946
568.047	97385
568.107	118855
568.166	157378
568.226	221988
568.285	271223
568.345	255444
568.404	233815
568.464	214825
568.523	209811
568.582	212324
568.642	230922
568.701	273451
568.761	359766
568.820	465474
568.879	458141
568.939	398546
568.998	332582
569.057	276829
569.116	236903
569.176	202906
569.235	172740
569.294	149996
569.353	131099
569.413	116539
569.472	103419
569.531	91696
569.590	84473
569.649	75489
569.708	69602
569.767	65563
569.827	63302
569.886	54350
569.945	50766
570.004	47919
570.063	46437
570.122	44561
570.181	43479
570.240	42387
570.299	41403
570.358	36865
570.417	33346
570.475	31269
570.534	32304
570.593	31206
570.652	31650
570.711	29796
570.770	28250
570.829	29290
570.887	27477
570.946	27179
571.005	23813
571.064	23811
571.122	26108
571.181	26489
571.240	21990
571.299	21854
571.357	24364
571.416	23260
571.475	26531
571.533	23677
571.592	22395
571.650	20549
571.709	20272
571.768	19881
571.826	19186
571.885	19155
571.943	18222
572.002	18455
572.060	19027
572.119	17371
572.177	17604
572.236	16966
572.294	15432
572.352	16583
572.411	16410
572.469	16479
572.528	15848
572.586	16619
572.644	19144
572.703	20405
572.761	17068
572.819	15814
572.877	15498
572.936	15123
572.994	16294
573.052	15155
573.110	15438
573.169	15372
573.227	15162
573.285	14644
573.343	14621
573.401	14904
573.459	14470
573.517	14622
573.576	14314
573.634	15308
573.692	16215
573.750	15086
573.808	15120
573.866	17406
573.924	20472
573.982	18174
574.040	14166
574.098	15435
574.155	13694
574.213	14150
574.271	14019
574.329	14716
574.387	14232
574.445	14107
574.503	12136
574.560	13209
574.618	13256
574.676	12963
574.734	13067
574.792	12958
574.849	13391
574.907	12897
574.965	13386
575.022	12149
575.080	12645
575.138	13448
575.195	13531
575.253	13089
575.311	15153
575.368	13016
575.426	12365
575.483	13563
575.541	12447
575.598	13073
575.656	14189
575.713	13397
575.771	13339
575.828	12858
575.886	13270
575.943	14630
576.001	14165
576.058	14421
576.115	15093
576.173	16649
576.230	18817
576.287	18275
576.345	15883
576.402	14337
576.459	15845
576.517	15933
576.574	16172
576.631	15334
576.688	14795
576.746	13961
576.803	14128
576.860	14213
576.917	15229
576.974	14165
577.031	14727
577.089	14276
577.146	14644
577.203	15018
577.260	16064
577.317	16610
577.374	17248
577.431	15947
577.488	15271
577.545	14421
577.602	15783
577.659	15043
577.716	16931
577.773	17177
577.830	16590
577.886	15810
577.943	14091
578.000	16144
578.057	17801
578.114	17545
578.171	20089
578.227	23442
578.284	22225
578.341	20960
578.398	18860
578.454	19398
578.511	19617
578.568	18949
578.625	17115
578.681	16472
578.738	15540
578.794	15648
578.851	15857
578.908	16199
578.964	16467
579.021	16599
579.077	16860
579.134	16014
579.190	15645
579.247	15177
579.303	14974
579.360	15481
579.416	14804
579.473	14582
579.529	15095
579.586	14664
579.642	16307
579.698	16106
579.755	17628
579.811	16504
579.867	17370
579.924	16580
579.980	18808
580.036	21666
580.093	25360
580.149	31404
580.205	32014
580.261	27649
580.317	25508
580.374	24478
580.430	24355
580.486	21558
580.542	20007
580.598	20301
580.619	19703
580.654	18685
580.692	18705
580.710	18750
580.765	18666
580.767	18683
580.823	17472
580.838	17342
580.879	17067
580.911	17406
580.935	17685
580.984	18040
580.991	18115
581.047	18376
581.057	18376
581.103	18437
581.130	19109
581.159	19837
581.203	20494
581.215	20698
581.270	21500
581.276	21243
581.326	18906
581.349	18804
581.382	18722
581.422	18743
581.438	18764
581.494	18740
581.494	18719
581.550	17853
581.567	18173
581.606	18890
581.640	18519
581.661	18326
581.713	18751
581.717	18795
581.773	17840
581.786	18003
581.829	18617
581.859	18789
581.885	18950
581.932	18429
581.940	18348
581.996	18052
582.004	18222
582.052	19185
582.077	18848
582.107	18438
582.150	18928
582.163	19121
582.219	18676
582.223	18714
582.274	19298
582.296	19836
582.330	20682
582.368	20205
582.386	19969
582.441	19301
582.441	19306
582.497	20115
582.514	20188
582.552	20360
582.587	21042
582.608	21453
582.659	20345
582.663	20248
582.719	20035
582.732	20141
582.774	20655
582.805	20313
582.830	20089
582.877	21148
582.885	21301
582.941	20872
582.950	21093
582.996	22184
583.023	22922
583.052	24069
583.095	24975
583.107	25142
583.162	26479
583.168	26642
583.218	28057
583.240	27470
583.273	26385
583.313	25625
583.328	25398
583.384	24840
583.385	24850
583.439	25056
583.458	24551
583.494	23575
583.531	23168
583.549	23125
583.603	22704
583.605	22675
583.660	22961
583.676	23293
583.715	24261
583.748	24282
583.770	24420
583.820	25083
583.825	25099
583.881	23968
583.893	24123
583.936	25018
583.965	24850
583.991	24377
584.038	24121
584.046	24182
584.101	25190
584.110	25235
584.156	25217
584.183	25496
584.211	25866
584.255	25816
584.266	25744
584.321	26040
584.328	26087
584.376	26554
584.400	26707
584.431	26864
584.472	26678
584.486	26583
584.541	27872
584.545	27828
584.596	27315
584.617	27648
584.651	28168
584.689	28793
584.706	29110
584.761	29689
584.762	29702
584.816	30091
584.834	30275
584.871	30820
584.906	30856
584.926	30732
584.978	31242
584.980	31275
585.035	32492
585.051	32820
585.090	33612
585.123	34294
585.145	34822
585.195	35843
585.200	35970
585.254	37910
585.267	38718
585.309	41593
585.340	43229
585.364	43551
585.412	41735
585.419	41538
585.473	42613
585.484	43111
585.528	46099
585.556	49237
585.583	53772
585.628	64463
585.637	67933
585.692	100939
585.700	104867
585.747	119695
585.772	108695
585.801	84040
585.845	59221
585.856	55759
585.910	49069
585.917	48534
585.965	48489
585.989	48426
586.019	48385
586.061	49162
586.074	49410
586.128	49993
586.133	50106
586.183	51941
586.205	52655
586.237	53330
586.277	53865
586.292	54011
586.346	54908
586.349	55005
586.401	57118
586.421	58245
586.455	59994
586.493	62504
586.509	65071
586.564	75253
586.565	75636
586.618	95163
586.637	95461
586.672	83291
586.709	73998
586.727	72040
586.781	71392
586.781	71380
586.835	73389
586.853	73876
586.889	74659
586.925	76405
586.944	77857
586.996	81844
586.998	81918
587.052	84724
587.068	85973
587.106	89034
587.140	91511
587.161	92990
587.212	97491
587.215	97703
587.269	101419
587.284	103028
587.323	107809
587.356	112019
587.377	114549
587.427	120631
587.431	121054
587.485	127070
587.499	129081
587.539	135477
587.571	140683
587.593	145161
587.643	155635
587.648	156512
587.702	167244
587.715	170668
587.755	182534
587.786	190742
587.810	197212
587.858	212359
587.864	214273
587.917	234425
587.930	239478
587.971	258903
588.001	274075
588.025	286686
588.073	313856
588.079	317683
588.133	355223
588.145	363836
588.187	397910
588.217	424350
588.241	449743
588.288	502701
588.295	511026
588.348	587278
588.360	604321
588.402	676976
588.431	731071
588.456	786362
588.503	901290
588.510	921223
588.564	1091481
588.575	1129686
588.617	1316742
588.646	1451395
588.671	1600058
588.718	1888507
588.725	1938787
588.778	2316887
588.789	2386109
588.832	2613344
588.861	2730928
588.886	2708352
588.932	2591138
588.939	2570503
588.993	2469243
589.004	2469783
589.047	2710175
589.075	2809444
589.100	2713386
589.147	2458813
589.154	2418028
589.207	2081224
589.218	2015423
589.261	1890239
589.290	1820374
589.314	1853514
589.361	1940656
589.368	1977730
589.421	2292883
589.433	2354799
589.475	2572507
589.504	2679251
589.528	2634200
589.576	2533887
589.582	2538064
589.635	2644828
589.647	2640290
589.689	2350958
589.718	2110898
589.742	1880826
589.790	1425628
589.795	1393624
589.849	1099924
589.861	1034594
589.902	902397
589.932	806668
589.955	738537
590.004	600708
590.009	592820
590.062	510032
590.075	490493
590.115	432232
590.146	387573
590.168	369225
590.218	331095
590.222	328584
590.275	297928
590.289	289978
590.328	269746
590.360	254021
590.381	245505
590.431	225839
590.435	224753
590.488	207885
590.503	203196
590.541	192240
590.574	183033
590.594	178630
590.645	167984
590.647	167567
590.700	156758
590.716	153612
590.753	146344
590.787	139995
590.806	137530
590.859	130762
590.859	130639
590.912	123666
590.930	121319
590.965	117934
591.001	114812
591.018	112873
591.071	107267
591.072	107211
591.124	103370
591.143	102070
591.177	99259
591.214	96442
591.230	95993
591.283	94181
591.285	94108
591.336	91845
591.356	90860
591.389	88780
591.427	86238
591.442	85004
591.495	80449
591.498	80120
591.547	77767
591.569	76584
591.600	74768
591.640	72512
591.653	72427
591.706	72011
591.711	71973
591.759	71007
591.782	70501
591.811	71054
591.853	71732
591.864	70740
591.917	65428
591.924	64672
591.969	63635
591.995	63050
592.022	62235
592.066	60833
592.075	61336
592.127	64420
592.137	64986
592.180	66572
592.208	67367
592.233	63486
592.279	56148
592.285	55998
592.338	54662
592.350	54354
592.390	53262
592.421	52425
592.443	52260
592.491	51840
592.495	51756
592.548	50433
592.562	50059
592.600	49565
592.633	49123
592.653	48656
592.704	47166
592.705	47414
592.775	46339
592.846	46347
592.916	46551
592.987	46879
593.058	44711
593.128	42071
593.199	41211
593.270	40508
593.341	40134
593.411	40374
593.482	39326
593.553	38317
593.623	37086
593.694	37109
593.764	38881
593.835	36273
593.906	34767
593.976	36349
594.047	34943
594.117	40214
594.188	40401
594.258	32488
594.329	32896
594.399	31763
594.470	31249
594.540	31182
594.611	30831
594.681	30106
594.751	30697
594.822	33115
594.892	32694
594.963	33641
595.033	30943
595.103	31787
595.174	33019
595.244	45701
595.314	54785
595.384	32461
595.455	28913
595.525	28496
595.595	28143
595.665	27995
595.736	28189
595.806	28443
595.876	26045
595.946	26038
596.016	25694
596.087	25886
596.157	27229
596.227	26059
596.297	27120
596.367	27306
596.437	30993
596.507	39714
596.577	48619
596.647	28879
596.717	26633
596.787	26354
596.857	25191
596.927	26334
596.997	26443
597.067	26505
597.137	28169
597.207	27332
597.277	25362
597.347	25898
597.417	25167
597.487	25577
597.557	25848
597.626	26741
597.696	27316
597.766	34283
597.836	45061
597.906	29277
597.975	25195
598.045	24352
598.115	23506
598.185	23848
598.254	25860
598.324	26697
598.394	27037
598.464	27123
598.533	24404
598.603	23618
598.672	25304
598.742	24151
598.812	24166
598.881	24319
598.951	22540
599.020	22229
599.090	23041
599.159	23720
599.229	22964
599.299	22341
599.368	21655
599.437	23615
599.507	22977
599.576	25131
599.646	25572
599.715	25535
599.785	23549
599.854	24685
599.924	27922
599.993	24681
600.062	22336
600.132	22241
600.201	23652
600.270	25803
600.340	24853
600.409	23343
600.478	23462
600.547	22879
600.617	22529
600.686	21830
600.755	22306
600.824	23278
600.894	21660
600.963	20849
601.032	20079
601.101	20814
601.170	20394
601.239	21450
601.308	22807
601.378	21509
601.447	19946
601.516	20698
601.585	22166
601.654	24451
601.723	22922
601.792	22079
601.861	23567
601.930	27165
601.999	25144
602.068	22764
602.137	24669
602.206	24980
602.275	22866
602.343	25743
602.412	25261
602.481	21299
602.550	20038
602.619	21716
602.688	21510
602.756	20729
602.825	19698
602.894	20213
602.963	19979
603.032	20975
603.100	19774
603.169	21341
603.238	20241
603.307	19559
603.375	20335
603.444	21545
603.513	19588
603.581	19569
603.650	20819
603.719	19684
603.787	19047
603.856	19780
603.924	20974
603.993	20897
604.061	18914
604.130	21745
604.198	21418
604.267	21307
604.335	20413
604.404	20523
604.472	20551
604.541	21749
604.609	20194
604.678	20430
604.746	20881
604.815	20983
604.883	21111
604.951	22010
605.020	20830
605.088	20798
605.156	20787
605.225	21074
605.293	21661
605.361	21073
605.429	21453
605.498	21648
605.566	22371
605.634	22627
605.702	22958
605.771	21925
605.839	22327
605.907	22133
605.975	20793
606.043	21536
606.111	21738
606.180	23553
606.248	26373
606.316	28271
606.384	23868
606.452	27905
606.520	28902
606.588	23325
606.656	19852
606.724	18450
606.792	19378
606.860	18298
606.928	17144
606.996	17829
607.064	15835
607.132	16940
607.200	17745
607.267	17920
607.335	17379
607.403	18505
607.471	17767
607.539	17461
607.607	17570
607.674	17398
607.742	18904
607.810	18267
607.878	18170
607.946	16246
608.013	17310
608.081	18151
608.149	18510
608.216	17426
608.284	18236
608.352	17974
608.419	19375
608.487	27573
608.555	19348
608.622	18252
608.690	16879
608.757	18091
608.825	18924
608.893	19886
608.960	22928
609.028	26446
609.095	31564
609.163	20831
609.230	18758
609.298	18807
609.365	16005
609.432	18368
609.500	18386
609.567	19389
609.635	21807
609.702	22002
609.769	22858
609.837	23934
609.904	21224
609.971	21631
610.039	26999
610.106	37603
610.173	70843
610.241	159417
610.308	152685
610.375	76297
610.442	30688
610.509	22088
610.577	19919
610.644	19353
610.711	18819
610.778	18371
610.845	19157
610.912	20440
610.980	23780
611.047	30582
611.114	25820
611.181	19172
611.248	16730
611.315	20155
611.382	18457
611.449	18355
611.516	19552
611.583	19177
611.650	20029
611.717	19496
611.784	21353
611.851	23924
611.918	27778
611.984	32833
612.051	52367
612.118	112605
612.185	284370
612.252	198724
612.319	44549
612.386	28013
612.452	24770
612.519	26679
612.586	33461
612.653	25480
612.719	21577
612.786	20825
612.853	19010
612.919	18351
612.986	19728
613.053	17866
613.120	16875
613.186	16724
613.253	19035
613.319	17439
613.386	18401
613.453	19692
613.519	21156
613.586	26975
613.652	36986
613.719	30645
613.785	26141
613.852	20185
613.918	19627
613.985	25686
614.051	38111
614.118	79216
614.184	76287
614.250	25074
614.317	20185
614.383	18748
614.449	17886
614.516	18958
614.582	20139
614.648	19080
614.715	18856
614.781	18982
614.847	19096
614.914	20723
614.980	19776
615.046	20900
615.112	21571
615.179	24661
615.245	31859
615.311	48227
615.377	88807
615.443	115895
615.509	72325
615.575	45639
615.642	35806
615.708	34581
615.774	37422
615.840	44943
615.906	62323
615.972	108769
616.038	219526
616.104	335234
616.170	476857
616.236	406139
616.302	104705
616.368	57105
616.434	40665
616.500	35446
616.565	35469
616.631	38293
616.697	33496
616.763	34022
616.829	45349
616.895	73868
616.961	76829
617.026	42178
617.092	26780
617.158	23978
617.224	21776
617.289	20607
617.355	20695
617.421	18655
617.487	19276
617.552	18543
617.618	17663
617.684	17261
617.749	19634
617.815	17346
617.880	16785
617.946	17537
618.012	17015
618.077	16994
618.143	16359
618.208	17703
618.274	18309
618.339	18276
618.405	16064
618.470	17785
618.536	18025
618.601	19977
618.667	17993
618.732	17033
618.798	16556
618.863	16871
618.928	16048
618.994	18418
619.059	21217
619.124	29429
619.190	21248
619.255	16127
619.320	17477
619.386	16365
619.451	15732
619.516	15649
619.581	15733
619.647	15878
619.712	16728
619.777	16315
619.842	16656
619.907	17506
619.972	16438
620.038	17099
620.103	15417
620.168	15266
620.233	15404
620.298	15324
620.363	14962
620.428	15850
620.493	15237
620.558	15761
620.623	14767
620.688	15300
620.753	15057
620.818	15281
620.883	15932
620.948	16692
621.013	15649
621.078	16004
621.143	15102
621.207	20006
621.272	18495
621.337	19444
621.402	20068
621.467	25565
621.532	27004
621.596	21882
621.661	19314
621.726	17659
621.791	16935
621.855	19806
621.920	20968
621.985	22117
622.049	25814
622.114	23543
622.179	20265
622.243	19366
622.308	18673
622.373	20729
622.437	19117
622.502	18592
622.566	17435
622.631	17113
622.695	19036
622.760	19624
622.824	18521
622.889	19954
622.953	21305
623.018	33030
623.082	31946
623.147	19793
623.211	20164
623.276	19238
623.340	17602
623.404	17822
623.469	17439
623.533	17775
623.597	17055
623.662	17348
623.726	15637
623.790	16310
623.854	16152
623.919	16837
623.983	17343
624.047	17256
624.111	16841
624.176	18043
624.240	19197
624.304	21850
624.368	17144
624.432	17693
624.496	17739
624.560	20644
624.625	21371
624.689	17942
624.753	16536
624.817	17228
624.881	16358
624.945	17047
625.009	16782
625.073	17341
625.137	18335
625.201	23639
625.265	22197
625.329	16420
625.393	18368
625.456	18642
625.520	18539
625.584	22224
625.648	28672
625.712	46019
625.776	109502
625.839	123640
625.903	44292
625.967	23848
626.031	42149
626.095	66485
626.158	23517
626.222	14283
626.286	13975
626.349	13585
626.413	13163
626.477	16207
626.540	14085
626.604	13569
626.668	14827
626.731	12693
626.795	14192
626.858	14423
626.922	11342
626.986	13544
627.049	11325
627.113	14008
627.176	12719
627.240	11718
627.303	11952
627.366	12850
627.430	12750
627.493	12421
627.557	12072
627.620	13964
627.684	12307
627.747	13198
627.810	11429
627.874	12144
627.937	10891
628.000	13612
628.064	12473
628.127	10046
628.190	12462
628.253	12540
628.317	11446
628.380	11922
628.443	12295
628.506	11848
628.569	11080
628.632	11065
628.696	11143
628.759	10697
628.822	11227
628.885	9833
628.948	10611
629.011	11230
629.074	11121
629.137	10352
629.200	10282
629.263	12945
629.326	9696
629.389	10029
629.452	10414
629.515	10285
629.578	11605
629.641	12027
629.704	10875
629.767	11838
629.830	10330
629.892	9972
629.955	9633
630.018	13434
630.081	11638
630.144	16799
630.207	11769
630.269	13338
630.332	13377
630.395	11943
630.458	9551
630.520	8717
630.583	9697
630.646	10878
630.708	8867
630.771	8725
630.834	9532
630.896	8143
630.959	8921
631.021	9343
631.084	9819
631.146	11917
631.209	13822
631.272	9581
631.334	9722
631.397	9766
631.459	8947
631.522	10692
631.584	9306
631.646	9864
631.709	11119
631.771	14438
631.834	11198
631.896	9788
631.958	7277
632.021	9567
632.083	7597
632.145	9260
632.208	8469
632.270	9688
632.332	8121
632.395	8241
632.457	9733
632.519	8638
632.581	9652
632.643	8358
632.706	8904
632.768	7604
632.830	8721
632.892	8586
632.954	8231
633.016	8969
633.078	8214
633.141	7832
633.203	8615
633.265	9229
633.327	9226
633.389	7989
633.451	9732
633.513	12335
633.575	12203
633.637	11917
633.698	10266
633.760	9294
633.822	8952
633.884	9269
633.946	9584
634.008	8965
634.070	10047
634.132	12300
634.193	9544
634.255	10218
634.317	9762
634.379	10960
634.441	8569
634.502	8461
634.564	10149
634.626	10895
634.687	10731
634.749	8226
634.811	8266
634.873	7227
634.934	7219
634.996	8813
635.057	7130
635.119	7873
635.181	7990
635.242	9607
635.304	6565
635.365	9789
635.427	8161
635.488	8554
635.550	6428
635.611	7661
635.673	6283
635.734	10390
635.796	8532
635.857	10627
635.918	8184
635.980	10324
636.041	8133
636.102	9433
636.164	9108
636.225	9872
636.286	8078
636.348	8451
636.409	9188
636.470	7080
636.531	8698
636.593	9085
636.654	9605
636.715	7583
636.776	7631
636.838	6981
636.899	7242
636.960	7396
637.021	6868
637.082	7874
637.143	8334
637.204	5504
637.265	6759
637.326	7078
637.387	7185
637.448	5293
637.509	7209
637.570	5961
637.631	7516
637.692	6001
637.753	6021
637.814	6660
637.875	6236
637.936	7969
637.997	6278
638.058	8377
638.119	7605
638.179	6572
638.240	6426
638.301	6393
638.362	5616
638.423	6678
638.483	7037
638.544	5362
638.605	6882
638.666	5730
638.726	7124
638.787	6286
638.848	6004
638.908	5308
638.969	6104
639.030	6366
639.090	4891
639.151	6454
639.211	7468
639.272	11070
639.332	16293
639.393	9723
639.453	5835
639.514	6650
639.574	6204
639.635	5594
639.695	6221
639.756	5764
639.816	6801
639.877	9294
639.937	15199
639.997	19663
640.058	7225
640.118	5700
640.178	6945
640.239	6264
640.299	5131
640.359	5012
640.420	6180
640.480	7112
640.540	6341
640.600	5935
640.661	7468
640.721	6521
640.781	10108
640.841	6901
640.901	7768
640.961	6355
641.021	7476
641.082	7756
641.142	12608
641.202	8289
641.262	4998
641.322	6472
641.382	3866
641.442	6935
641.502	5401
641.562	6369
641.622	4876
641.682	6487
641.742	6855
641.802	5921
641.861	7756
641.921	6955
641.981	7377
642.041	8730
642.101	9422
642.161	5265
642.221	4998
642.280	5141
642.340	4748
642.400	4760
642.460	6178
642.519	5187
642.579	5275
642.639	6170
642.698	3180
642.758	7961
642.818	6320
642.877	5343
642.937	5432
642.997	7964
643.056	11455
643.116	5023
643.175	6990
643.235	5408
643.294	5325
643.354	6688
643.414	6282
643.473	8620
643.532	8945
643.592	11865
643.651	19160
643.711	32540
643.770	61380
643.830	144947
643.889	314990
643.948	75424
644.008	13688
644.067	8824
644.126	6923
644.186	6481
644.245	7528
644.304	4396
644.363	7623
644.423	4785
644.482	5979
644.541	6715
644.600	3465
644.659	6868
644.719	7059
644.778	9349
644.837	13310
644.896	26187
644.955	55223
645.014	21725
645.073	9366
645.132	7023
645.191	5815
645.250	4880
645.309	6380
645.368	4910
645.427	7216
645.486	8371
645.545	13149
645.604	6315
645.663	6263
645.722	5495
645.781	6000
645.840	6658
645.898	8131
645.957	11697
646.016	15643
646.075	27758
646.134	52227
646.192	136398
646.251	201993
646.310	31573
646.369	9102
646.427	7674
646.486	4961
646.545	6014
646.603	5808
646.662	5291
646.721	5467
646.779	4199
646.838	4468
646.896	7169
646.955	6251
647.014	9240
647.072	13174
647.131	34357
647.189	17179
647.248	5117
647.306	4818
647.365	5609
647.423	2987
647.481	5361
647.540	3326
647.598	4040
647.657	3809
647.715	3951
647.773	3479
647.832	4774
647.890	3209
647.948	3648
648.007	5514
648.065	3311
648.123	3994
648.181	7006
648.240	7561
648.298	5958
648.356	4614
648.414	4792
648.472	4676
648.531	5417
648.589	4164
648.647	4302
648.705	4575
648.763	4961
648.821	4212
648.879	5707
648.937	5091
648.995	6001
649.053	6024
649.111	8327
649.169	12259
649.227	20237
649.285	38783
649.343	106498
649.401	57009
649.459	27208
649.516	19577
649.574	14870
649.632	32649
649.690	39391
649.748	15081
649.806	15101
649.863	23423
649.921	26604
649.979	17395
650.037	5871
650.094	2911
650.152	4154
650.210	3599
650.268	5903
650.325	3806
650.383	5052
650.440	2721
650.498	4207
650.556	3511
650.613	3445
650.671	3693
650.728	4325
650.786	4596
650.843	4419
650.901	2480
650.958	3614
651.016	3516
651.073	3698
651.131	2531
651.188	3239
651.246	3869
651.303	3180
651.360	4268
651.418	3111
651.475	3965
651.532	2916
651.590	3835
651.647	2665
651.704	3759
651.762	3503
651.819	4576
651.876	3538
651.933	2601
651.990	4514
652.048	2250
652.105	3374
652.162	3726
652.219	3142
652.276	3700
652.333	4080
652.390	2312
652.448	3425
652.505	3698
652.562	4375
652.619	4366
652.676	8484
652.733	8458
652.790	4200
652.847	2837
652.904	3678
652.961	2434
653.017	2586
653.074	4296
653.131	3583
653.188	2475
653.245	2572
653.302	3827
653.359	3067
653.415	3477
653.472	3330
653.529	3203
653.586	2394
653.642	2647
653.699	4027
653.756	2755
653.813	2183
653.869	3102
653.926	2296
653.983	2132
654.039	2906
654.096	3572
654.152	4236
654.209	2193
654.266	3377
654.322	3075
654.379	4781
654.435	5182
654.492	4754
654.548	7263
654.605	10486
654.661	5812
654.717	3773
654.774	4371
654.830	4115
654.887	3886
654.943	3702
655.000	3526
655.056	3626
655.112	4608
655.168	3487
655.225	3256
655.281	4680
655.337	6527
655.394	11290
655.450	7004
655.506	7045
655.562	11068
655.618	9500
655.675	3394
655.731	3913
655.787	3473
655.843	4958
655.899	2883
655.955	4508
656.011	4388
656.067	3619
656.123	4926
656.179	6111
656.235	6958
656.291	4508
656.347	6099
656.403	4345
656.459	4769
656.515	5832
656.571	4563
656.627	4336
656.683	3699
656.739	3902
656.795	4435
656.850	3782
656.906	4612
656.962	4183
657.018	2818
657.074	2488
657.129	3629
657.185	4067
657.241	4095
657.297	4170
657.352	4053
657.408	2509
657.464	4384
657.519	3336
657.575	1563
657.630	2845
657.686	2464
657.742	2305
657.797	2833
657.853	2361
657.908	4392
657.964	1819
658.019	3492
658.075	3291
658.130	3177
658.186	1606
658.241	2821
658.297	3264
658.352	1827
658.407	3511
658.463	2106
658.518	2711
658.573	2199
658.629	1398
658.684	2777
658.739	3481
658.795	1975
658.850	2751
658.905	2187
658.960	3348
659.016	1903
659.071	2967
659.126	3662
659.181	3686
659.236	6896
659.291	8185
659.346	3989
659.401	4478
659.457	4417
659.512	7217
659.567	4912
659.622	3252
659.677	2521
659.732	2162
659.787	3355
659.842	3510
659.897	5403
659.952	3550
660.007	2798
660.061	3930
660.116	2019
660.171	2505
660.226	1911
660.281	3570
660.336	2005
660.391	2683
660.445	2154
660.500	2377
660.555	2986
660.610	2268
660.664	2461
660.719	2584
660.774	2689
660.828	3285
660.883	3221
660.938	2852
660.992	1450
661.047	2887
661.101	2178
661.156	3023
661.211	1751
661.265	2283
661.320	1968
661.374	2253
661.429	2628
661.483	3471
661.538	1593
661.592	2246
661.647	2971
661.701	3036
661.755	3016
661.810	2628
661.864	2219
661.919	1912
661.973	2938
662.027	2750
662.081	2640
662.136	2575
662.190	3602
662.244	3390
662.299	2121
662.353	2383
662.407	2421
662.461	2755
662.515	3052
662.569	2948
662.624	3668
662.678	3505
662.732	2823
662.786	2532
662.840	2559
662.894	3201
662.948	2081
663.002	3073
663.056	2284
663.110	2844
663.164	2065
663.218	3085
663.272	2725
663.326	3145
663.380	2345
663.434	3320
663.488	3083
663.542	2601
663.595	2764
663.649	2656
663.703	2870
663.757	2741
663.811	1566
663.864	2813
663.918	3076
663.972	3240
664.026	2403
664.079	2940
664.133	3398
664.187	2898
664.240	2364
664.294	2863
664.348	3019
664.401	2853
664.455	2508
664.508	2910
664.562	2477
664.615	2987
664.669	2587
664.722	1706
664.776	1819
664.829	2815
664.883	2814
664.936	2587
664.990	2855
665.043	3363
665.097	3200
665.150	3046
665.203	3585
665.257	3386
665.310	3543
665.363	2999
665.417	3229
665.470	3007
665.523	2662
665.576	4211
665.630	2726
665.683	2763
665.736	3305
665.789	2851
665.842	2724
665.895	3195
665.949	3315
666.002	3036
666.055	3525
666.108	3882
666.161	2205
666.214	4047
666.267	3292
666.320	3441
666.373	2587
666.426	3200
666.479	3134
666.532	3882
666.585	4004
666.638	5040
666.691	4244
666.744	4700
666.796	3980
666.849	3859
666.902	4593
666.955	3301
667.008	2626
667.060	2790
667.113	2303
667.166	2188
667.219	1843
667.271	3051
667.324	3116
667.377	2890
667.430	3577
667.482	4844
667.535	3701
667.587	3506
667.640	3558
667.693	4177
667.745	6931
667.798	7772
667.850	3373
667.903	3126
667.955	2679
668.008	2593
668.060	3220
668.113	3405
668.165	4148
668.218	3751
668.270	2835
668.322	3520
668.375	3408
668.427	3670
668.479	3177
668.532	3733
668.584	3153
668.636	3340
668.689	3252
668.741	3345
668.793	3695
668.845	2872
668.898	4316
668.950	3388
669.002	2859
669.054	3601
669.106	2956
669.158	4148
669.211	3267
669.263	4050
669.315	5726
669.367	6217
669.419	5135
669.471	5716
669.523	5286
669.575	7449
669.627	6460
669.679	5397
669.731	5414
669.783	5329
669.835	5594
669.886	5354
669.938	5234
669.990	4688
670.042	3548
670.094	5897
670.146	6048
670.197	5665
670.249	7497
670.301	10415
670.353	14357
670.404	19624
670.456	28665
670.508	44304
670.560	71228
670.611	118324
670.663	204738
670.715	485098
670.766	766509
670.818	267153
670.869	48304
670.921	23237
670.972	15772
671.024	12158
671.075	10042
671.127	8284
671.178	6579
671.230	6109
671.281	5953
671.333	5545
671.384	6373
671.436	4931
671.487	5891
671.538	5667
671.590	6761
671.641	8127
671.692	10175
671.744	16501
671.795	14967
671.846	8630
671.897	6078
671.949	5475
672.000	4613
672.051	4308
672.102	5184
672.153	4114
672.204	4756
672.256	4296
672.307	3946
672.358	4577
672.409	3600
672.460	4574
672.511	3231
672.562	3048
672.613	3737
672.664	3600
672.715	3847
672.766	3564
672.817	3183
672.868	3624
672.919	3513
672.970	3241
673.021	3724
673.071	3492
673.122	3808
673.173	4214
673.224	3868
673.275	3005
673.326	2883
673.376	4148
673.427	3393
673.478	3229
673.528	3927
673.579	3344
673.630	3841
673.680	3516
673.731	2094
673.782	3129
673.832	3510
673.883	4393
673.934	3374
673.984	3339
674.035	3674
674.085	3118
674.136	4613
674.186	3967
674.237	5416
674.287	7370
674.338	4605
674.388	3833
674.438	2888
674.489	3890
674.539	3541
674.589	3576
674.640	3648
674.690	3203
674.740	3337
674.791	4251
674.841	3985
674.891	4052
674.942	3087
674.992	3711
675.042	2858
675.092	2393
675.142	3238
675.193	2534
675.243	2399
675.293	3275
675.343	2963
675.393	3395
675.443	3117
675.493	3479
675.543	2369
675.593	3633
675.643	2587
675.693	3652
675.743	2421
675.793	3180
675.843	2666
675.893	2605
675.943	3705
675.993	2665
676.043	3123
676.093	3596
676.142	2139
676.192	3212
676.242	2820
676.292	2322
676.341	3103
676.391	2947
676.441	2170
676.491	2484
676.540	2113
676.590	3424
676.640	2091
676.689	2236
676.739	2985
676.789	3315
676.838	2767
676.888	2867
676.937	1687
676.987	2258
677.037	2562
677.086	2351
677.136	2399
677.185	2103
677.235	2203
677.284	2285
677.333	2203
677.383	2719
677.432	2138
677.482	2373
677.531	2731
677.580	2833
677.630	2249
677.679	2080
677.728	1792
677.778	2987
677.827	2120
677.876	1828
677.925	2496
677.975	2878
678.024	2095
678.073	3087
678.122	2628
678.171	3092
678.220	2626
678.269	3603
678.319	2619
678.368	2974
678.417	3245
678.466	3164
678.515	3000
678.564	3006
678.613	2715
678.662	2429
678.711	2349
678.760	2645
678.809	2618
678.857	2282
678.906	2213
678.955	2846
679.004	2916
679.053	3024
679.102	2950
679.151	3269
679.199	2511
679.248	1949
679.297	2602
679.346	2503
679.394	2430
679.443	2722
679.492	2933
679.540	2515
679.589	1847
679.638	2773
679.686	2972
679.735	2573
679.784	2270
679.832	2504
679.881	2010
679.929	2393
679.978	1553
680.026	2548
680.075	1843
680.123	2683
680.172	2055
680.220	2511
680.268	2512
680.317	1655
680.365	1994
680.414	2604
680.462	2210
680.510	2938
680.559	2033
680.607	2393
680.655	2772
680.703	3926
680.752	2362
680.800	2064
680.848	1972
680.896	2638
680.945	2358
680.993	2857
681.041	2022
681.089	2578
681.137	2187
681.185	1488
681.233	2348
681.258	2243
681.281	2133
681.329	1912
681.377	2246
681.380	2241
681.425	1967
681.473	3082
681.502	2557
681.521	2166
681.569	2399
681.617	1492
681.624	1605
681.665	2290
681.713	2281
681.745	2291
681.761	2279
681.809	2054
681.857	2624
681.867	2455
681.904	1837
681.952	2660
681.989	2118
682.000	1941
682.048	2062
682.096	1688
682.111	1869
682.143	2250
682.191	2638
682.233	2927
682.239	2955
682.286	2250
682.334	2129
682.354	2178
682.382	2259
682.430	2951
682.476	1795
682.477	1760
682.525	2744
682.572	1946
682.598	2087
682.620	2201
682.667	2710
682.715	2650
682.720	2737
682.763	3451
682.810	2597
682.841	2739
682.857	2798
682.905	2362
682.952	2230
682.963	2264
683.000	2361
683.047	2816
683.085	2753
683.095	2723
683.142	2514
683.190	2570
683.206	2585
683.237	2567
683.284	2417
683.328	2887
683.332	2922
683.379	2875
683.426	2204
683.449	2374
683.473	2552
683.521	2928
683.568	3000
683.571	3003
683.615	2830
683.662	2505
683.693	2500
683.709	2515
683.757	2062
683.804	2681
683.814	2774
683.851	3115
683.898	2370
683.936	2859
683.945	2945
683.992	3129
684.039	3006
684.057	2990
684.086	2989
684.133	3105
684.179	2797
684.180	2779
684.227	3399
684.274	3140
684.300	3311
684.321	3474
684.368	2582
684.415	3437
684.422	3365
684.462	2803
684.509	3328
684.543	2650
684.556	2421
684.603	3025
684.649	2678
684.665	2836
684.696	3093
684.743	2909
684.786	3117
684.790	3136
684.837	3235
684.883	3423
684.908	3793
684.930	4098
684.977	3497
685.023	2955
685.029	3034
685.070	3468
685.117	3140
685.150	3230
685.164	3340
685.210	3571
685.257	3906
685.272	3915
685.303	3765
685.350	3641
685.393	3727
685.396	3746
685.443	4225
685.490	4081
685.514	3894
685.536	3662
685.583	3901
685.629	3970
685.636	3902
685.675	3324
685.722	3396
685.757	3688
685.768	3827
685.815	3718
685.861	3727
685.878	3912
685.908	4179
685.954	3360
686.000	4457
686.000	4474
686.047	4146
686.093	4926
686.121	4868
686.139	4711
686.185	4939
686.232	3725
686.242	3697
686.278	3674
686.324	3556
686.363	3716
686.370	3742
686.416	3521
686.463	4161
686.484	3838
686.509	3504
686.555	3977
686.601	4058
686.606	4048
686.647	3845
686.693	3416
686.727	3754
686.739	3934
686.785	3505
686.831	3703
686.848	3862
686.877	4054
686.923	3608
686.969	3554
686.969	3553
687.015	3703
687.061	3963
687.090	4000
687.107	3947
687.153	4107
687.199	4182
687.211	3969
687.245	3705
687.291	4230
687.332	4541
687.336	4548
687.382	4506
687.428	4321
687.453	4428
687.474	4421
687.520	4612
687.565	3591
687.574	3587
687.611	3832
687.657	3882
687.695	3682
687.702	3668
687.748	4382
687.794	4978
687.816	5205
687.839	5188
687.885	4206
687.931	4071
687.937	4043
687.976	3995
688.022	4054
688.058	4132
688.067	4213
688.113	3712
688.158	4108
688.179	4573
688.204	5056
688.249	4569
688.295	4886
688.300	4897
688.340	4869
688.386	5075
688.421	4778
688.431	4702
688.477	4347
688.522	4348
688.542	4516
688.567	4768
688.613	4525
688.658	4215
688.663	4276
688.703	4871
688.749	4588
688.784	4649
688.794	4639
688.839	4718
688.884	4496
688.905	4555
688.930	4595
688.975	4242
689.020	4334
689.026	4352
689.065	4710
689.110	4250
689.146	4128
689.155	4091
689.201	5135
689.246	4465
689.267	4797
689.291	5048
689.336	4417
689.381	4483
689.388	4384
689.426	4133
689.471	4557
689.509	5106
689.516	5175
689.561	4614
689.606	4698
689.630	4686
689.651	4814
689.696	4321
689.741	4674
689.750	4782
689.785	5054
689.830	4709
689.871	4899
689.875	4917
689.920	5359
689.965	5089
689.992	4704
690.010	4541
690.054	4686
690.099	4895
690.112	4985
690.144	5060
690.189	4866
690.233	4919
690.233	4926
690.278	4662
690.323	4922
690.354	4877
690.367	4913
690.412	5164
690.457	5454
690.474	5557
690.501	5627
690.546	5353
690.590	5627
690.595	5660
690.635	6268
690.680	6299
690.716	6656
690.724	6840
690.769	7959
690.813	9423
690.836	9472
690.857	9987
690.902	12244
690.946	14574
690.957	15230
690.991	19829
691.035	27094
691.077	34476
691.080	34616
691.124	32223
691.168	29674
691.198	28019
691.213	26038
691.257	20946
691.301	15699
691.318	14021
691.346	13061
691.390	10621
691.434	8564
691.439	8378
691.478	8148
691.522	7626
691.559	6879
691.567	6807
691.611	6975
691.655	6582
691.680	6463
691.699	6390
691.743	6464
691.787	6480
691.800	6281
691.831	6009
691.875	6219
691.919	6658
691.921	6652
691.964	6654
692.008	6365
692.041	6305
692.052	6303
692.096	6589
692.139	6458
692.162	6271
692.183	6092
692.227	6216
692.271	6070
692.282	6072
692.315	6394
692.359	6598
692.402	6894
692.403	6905
692.447	6781
692.490	6538
692.523	6476
692.534	6552
692.578	6602
692.622	6660
692.643	6671
692.666	6487
692.709	5887
692.753	5722
692.763	5640
692.797	5860
692.840	6126
692.884	6414
692.884	6428
692.928	6741
692.971	6543
693.004	6897
693.015	6939
693.059	6622
693.102	6697
693.124	6518
693.146	6595
693.189	6794
693.233	6947
693.245	7120
693.276	7933
693.320	8475
693.363	9111
693.365	9119
693.407	9639
693.450	10334
693.485	10721
693.493	11129
693.537	13322
693.580	15614
693.605	16875
693.624	18901
693.667	23921
693.710	28953
693.725	30868
693.753	39895
693.797	54958
693.840	71102
693.845	72524
693.883	68652
693.926	62454
693.966	57216
693.970	56089
694.013	43956
694.056	32627
694.086	24748
694.099	23535
694.142	19641
694.185	15828
694.206	14020
694.229	13441
694.272	12292
694.315	11272
694.326	10981
694.358	10612
694.401	10158
694.444	9560
694.446	9510
694.487	9189
694.530	8976
694.566	8531
694.573	8440
694.616	8145
694.659	7632
694.686	7310
694.702	7310
694.745	7366
694.787	7207
694.806	7295
694.830	7317
694.873	7078
694.916	6690
694.926	6633
694.959	6831
695.002	6999
695.044	7057
695.046	7050
695.087	6904
695.130	6627
695.166	6436
695.172	6489
695.215	6631
695.258	7148
695.286	7027
695.301	6949
695.343	7101
695.386	7305
695.406	7284
695.428	7137
695.471	6933
695.514	6813
695.526	6707
695.556	6600
695.599	6756
695.641	6378
695.646	6362
695.684	6588
695.726	6701
695.766	6887
695.769	6903
695.811	6855
695.854	6693
695.886	6589
695.896	6588
695.938	6666
695.981	6508
696.005	6490
696.023	6635
696.065	6979
696.108	7076
696.125	7214
696.150	7138
696.192	6891
696.235	6569
696.245	6475
696.277	6536
696.319	6790
696.361	6894
696.365	6887
696.404	7130
696.446	7205
696.485	7356
696.488	7394
696.530	7706
696.572	8125
696.604	8250
696.614	8183
696.656	7947
696.698	7571
696.724	7496
696.740	7504
696.783	7164
696.825	7017
696.844	6905
696.867	7032
696.909	7094
696.951	7295
696.964	7354
696.992	7185
697.034	6797
697.076	6415
697.083	6348
697.118	6703
697.160	7057
697.202	7474
697.203	7465
697.244	7146
697.286	6801
697.323	6367
697.327	6412
697.369	6808
697.411	7218
697.442	7461
697.453	7465
697.494	7371
697.536	7339
697.562	7266
697.578	7379
697.620	7681
697.661	7892
697.682	8021
697.703	7855
697.744	7382
697.786	7046
697.801	6877
697.828	7056
697.869	7303
697.911	7476
697.921	7542
697.952	7604
697.994	7530
698.035	7491
698.040	7468
698.077	7344
698.118	7101
698.160	6944
698.160	6924
698.201	6907
698.243	6820
698.279	6748
698.284	6803
698.325	7150
698.367	7503
698.399	7725
698.408	7698
698.449	7504
698.491	7315
698.518	7158
698.532	7221
698.573	7371
698.614	7484
698.638	7542
698.656	7589
698.697	7645
698.738	7702
698.757	7720
698.779	7730
698.820	7686
698.862	7639
698.877	7607
698.903	7730
698.944	7892
698.985	8053
698.996	8078
699.026	8289
699.067	8556
699.116	8853
699.235	7525
699.354	7845
699.474	8029
699.593	8316
699.713	7943
699.832	7936
699.951	7531
700.070	7779
700.190	7249
700.309	8389
700.428	7505
700.547	8201
700.667	7585
700.786	7996
700.905	8074
701.024	7599
701.143	7249
701.262	7352
701.381	7646
701.500	7642
701.619	7778
701.738	7153
701.857	6540
701.976	7184
702.095	6612
702.214	7832
702.333	7236
702.452	6898
702.571	5929
702.690	7335
702.809	7213
702.928	6913
703.047	7290
703.165	6723
703.284	6126
703.403	6914
703.522	7431
703.640	7543
703.759	8731
703.878	10253
703.997	7313
704.115	6732
704.234	6996
704.353	6680
704.471	6938
704.590	6115
704.708	6561
704.827	6841
704.946	7094
705.064	6947
705.183	6411
705.301	8618
705.420	9699
705.538	9455
705.656	9557
705.775	9817
705.893	17269
706.012	18037
706.130	8430
706.249	8778
706.367	8205
706.485	9033
706.604	8192
706.722	9316
706.840	9627
706.958	10604
707.077	8930
707.195	8166
707.313	7995
707.431	7666
707.549	7547
707.668	7109
707.786	7808
707.904	6941
708.022	7234
708.140	7325
708.258	7117
708.376	8455
708.494	7636
708.612	8675
708.730	10407
708.848	10384
708.966	10374
709.084	9480
709.202	8340
709.320	8996
709.438	8926
709.556	8669
709.674	8598
709.791	7934
709.909	8749
710.027	9243
710.145	7937
710.263	8885
710.380	8482
710.498	9249
710.616	8005
710.733	8744
710.851	8914
710.969	8930
711.086	8253
711.204	8189
711.322	7916
711.439	8129
711.557	9127
711.674	8860
711.792	8434
711.909	9589
712.027	9250
712.144	8228
712.262	8174
712.379	9201
712.497	12526
712.614	12582
712.732	9883
712.849	10115
712.966	10591
713.084	11783
713.201	9366
713.318	11119
713.436	9833
713.553	9464
713.670	10337
713.787	11360
713.905	10184
714.022	9967
714.139	10064
714.256	11061
714.373	12095
714.490	15919
714.608	30522
714.725	108583
714.842	92053
714.959	13440
715.076	9782
715.193	10065
715.310	8442
715.427	9892
715.544	8297
715.661	10097
715.778	8961
715.895	9531
716.011	9332
716.128	9795
716.245	8922
716.362	10368
716.479	9862
716.596	9425
716.713	8358
716.829	9174
716.946	8312
717.063	8018
717.180	8329
717.296	7837
717.413	8026
717.530	8905
717.646	8105
717.763	8209
717.880	7236
717.996	7639
718.113	7010
718.229	7672
718.346	7309
718.462	7457
718.579	9855
718.695	13407
718.812	10895
718.928	10607
719.045	8449
719.161	7104
719.277	7610
719.394	7935
719.510	8493
719.626	8175
719.743	8621
719.859	9556
719.975	12552
720.092	32625
720.208	54332
720.324	11402
720.440	7853
720.557	9009
720.673	11259
720.789	16509
720.905	28928
721.021	10246
721.137	6915
721.253	7839
721.369	7720
721.486	9467
721.602	10258
721.718	7770
721.834	7021
721.950	7363
722.066	6251
722.181	6856
722.297	7236
722.413	7168
722.529	5923
722.645	6909
722.761	6906
722.877	6367
722.993	5848
723.108	6482
723.224	6497
723.340	7503
723.456	6535
723.571	6696
723.687	6496
723.803	5932
723.918	5922
724.034	6439
724.150	6265
724.265	8023
724.381	14626
724.497	13902
724.612	5775
724.728	5934
724.843	6455
724.959	7846
725.074	13897
725.190	11928
725.305	6236
725.421	5543
725.536	5511
725.651	5869
725.767	5150
725.882	4960
725.997	5023
726.113	5688
726.228	5119
726.343	6058
726.459	5506
726.574	6170
726.689	5041
726.804	5578
726.920	5111
727.035	5456
727.150	5138
727.265	6055
727.380	5329
727.495	6074
727.610	5589
727.725	6026
727.841	7092
727.956	12587
728.071	8643
728.186	5776
728.301	4951
728.416	5108
728.531	6088
728.645	5321
728.760	5827
728.875	6060
728.990	6542
729.105	5782
729.220	4783
729.335	5381
729.449	4811
729.564	5146
729.679	4296
729.794	5271
729.908	5269
730.023	4793
730.138	3780
730.253	5196
730.367	4280
730.482	5445
730.596	4775
730.711	5575
730.826	4980
730.940	5012
731.055	5710
731.169	5265
731.284	4419
731.398	4715
731.513	5441
731.627	5114
731.742	6035
731.856	5960
731.970	4295
732.085	5054
732.199	6193
732.313	7519
732.428	13259
732.542	29082
732.656	15311
732.771	6004
732.885	4813
732.999	4598
733.113	5053
733.227	4740
733.342	4431
733.456	4426
733.570	4379
733.684	4762
733.798	3989
733.912	4740
734.026	4146
734.140	4322
734.254	5154
734.368	8418
734.482	7951
734.596	3550
734.710	3789
734.824	4469
734.938	3915
735.052	4748
735.166	4502
735.280	4880
735.393	3817
735.507	4388
735.621	6491
735.735	9158
735.849	4193
735.962	5286
736.076	4645
736.190	4350
736.303	6033
736.417	7078
736.531	3860
736.644	4938
736.758	3276
736.872	3499
736.985	3403
737.099	3455
737.212	3591
737.326	4661
737.439	3603
737.553	4114
737.666	4191
737.780	3872
737.893	3703
738.007	4671
738.120	2715
738.233	4310
738.347	3693
738.460	4090
738.573	4037
738.687	3400
738.800	4101
738.913	4814
739.026	3186
739.140	4522
739.253	3908
739.366	3802
739.479	2797
739.592	2512
739.705	2676
739.818	3437
739.932	3034
740.045	3718
740.158	3858
740.271	3858
740.384	3413
740.497	4241
740.610	3353
740.723	3702
740.836	4410
740.949	4464
741.062	4917
741.174	4548
741.287	2981
741.400	3740
741.513	3800
741.626	4718
741.739	4242
741.851	3749
741.964	3567
742.077	3579
742.189	4932
742.302	6799
742.415	5172
742.527	3991
742.640	3271
742.753	3837
742.865	3683
742.978	3488
743.090	3259
743.203	2860
743.316	3143
743.428	3772
743.541	3107
743.653	3695
743.766	2669
743.878	3256
743.990	4704
744.103	6278
744.215	7402
744.327	4380
744.440	4257
744.552	5278
744.664	3319
744.777	3357
744.889	2209
745.001	3672
745.113	2378
745.226	3402
745.338	2584
745.450	2958
745.562	3346
745.674	3266
745.786	3391
745.898	3668
746.010	3107
746.122	3099
746.234	2497
746.347	2548
746.459	3519
746.570	3768
746.682	5498
746.794	10401
746.906	4803
747.018	2921
747.130	2669
747.242	3283
747.354	2505
747.466	3484
747.577	2901
747.689	4002
747.801	3100
747.913	2145
748.024	2072
748.136	2659
748.248	2599
748.359	2869
748.471	3065
748.583	2653
748.694	3307
748.806	4348
748.918	4344
749.029	3114
749.141	2542
749.252	3699
749.364	2801
749.475	6268
749.587	3370
749.698	2531
749.809	3370
749.921	3004
750.032	2674
750.144	2708
750.255	2706
750.366	2177
750.478	2424
750.589	3006
750.700	2620
750.811	3164
750.923	4266
751.034	6871
751.145	4180
751.256	3216
751.367	2197
751.479	3322
751.590	3202
751.701	3268
751.812	1895
751.923	2639
752.034	2241
752.145	3301
752.256	2536
752.367	2497
752.478	2169
752.589	3001
752.700	2506
752.811	3286
752.922	2744
753.032	3605
753.143	3945
753.254	2129
753.365	2838
753.476	2948
753.586	3440
753.697	2613
753.808	2326
753.919	2823
754.029	2982
754.140	2902
754.251	2765
754.361	3426
754.472	3493
754.582	3421
754.693	3067
754.804	3483
754.914	2344
755.025	3482
755.135	2853
755.246	2752
755.356	2449
755.466	3562
755.577	3151
755.687	3618
755.798	2517
755.908	3980
756.018	3365
756.129	3450
756.239	3026
756.349	3352
756.460	3453
756.570	3407
756.680	3030
756.790	2893
756.900	3953
757.011	3003
757.121	3763
757.231	2917
757.341	4027
757.451	3596
757.561	3412
757.671	2953
757.781	3019
757.891	3786
758.001	3637
758.111	4178
758.221	3721
758.331	4056
758.441	3667
758.551	5334
758.661	3902
758.771	4308
758.880	4265
758.990	4064
759.100	3826
759.210	4151
759.320	3834
759.429	4560
759.539	4714
759.649	4413
759.758	4720
759.868	4866
759.978	4847
760.087	5435
760.197	5031
760.307	5913
760.416	5034
760.526	4220
760.635	5735
760.745	4884
760.854	5429
760.964	5612
761.073	5372
761.182	6128
761.292	4733
761.401	6359
761.511	5454
761.620	6191
761.729	6340
761.839	6555
761.948	6985
762.057	6540
762.166	5800
762.276	6385
762.385	7326
762.494	7136
762.603	6173
762.712	7563
762.822	7511
762.931	8266
763.040	7918
763.149	8109
763.258	8661
763.367	10312
763.476	9946
763.585	10006
763.694	10485
763.803	11854
763.912	12958
764.021	12399
764.130	12435
764.238	14528
764.347	14908
764.456	15735
764.565	16723
764.674	18041
764.783	18950
764.891	21507
765.000	25900
765.109	28016
765.217	32741
765.326	39012
765.435	48471
765.543	56357
765.652	72259
765.761	95971
765.869	134007
765.978	200164
766.086	321797
766.195	553253
766.303	959010
766.412	1184237
766.520	1162035
766.629	738949
766.737	392977
766.846	238311
766.954	157853
767.062	116032
767.171	88109
767.279	67937
767.387	52905
767.496	45313
767.604	39560
767.712	34389
767.820	30253
767.928	28369
768.037	26775
768.145	26231
768.253	24590
768.361	23554
768.469	23008
768.577	23237
768.685	24540
768.793	27877
768.901	29272
769.009	35514
769.117	42306
769.225	56003
769.333	81112
769.441	128240
769.549	224340
769.657	451515
769.765	877513
769.873	1044301
769.981	690711
770.088	298721
770.196	158660
770.304	102792
770.412	72708
770.519	53773
770.627	42213
770.735	35986
770.842	28631
770.950	26124
771.058	21460
771.165	20784
771.273	17681
771.380	16327
771.488	14385
771.595	13872
771.703	12262
771.810	12939
771.918	10887
772.025	11614
772.133	9593
772.240	8934
772.348	8480
772.455	8861
772.562	8867
772.670	8150
772.777	7935
772.884	6888
772.991	6775
773.099	7049
773.206	6128
773.313	6778
773.420	5926
773.528	6382
773.635	5917
773.742	6498
773.849	6215
773.956	5694
774.063	5101
774.170	5001
774.277	5713
774.384	5143
774.491	4066
774.598	5424
774.705	5296
774.812	5203
774.919	4361
775.026	5297
775.133	4454
775.239	4422
775.346	4857
775.453	4545
775.560	3798
775.667	4226
775.773	3355
775.880	4919
775.987	4529
776.093	3635
776.200	3567
776.307	4820
776.413	3793
776.520	4175
776.627	4361
776.733	4027
776.840	3443
776.946	6702
777.053	9251
777.159	19194
777.266	10653
777.372	16084
777.478	12775
777.585	7302
777.691	2692
777.798	3598
777.904	3934
778.010	5544
778.117	4178
778.223	2966
778.329	2849
778.435	2483
778.542	2542
778.648	3040
778.754	2402
778.860	3379
778.966	2799
779.072	3565
779.178	3132
779.284	4176
779.391	2892
779.497	3518
779.603	7061
779.708	8746
779.815	23987
779.920	92268
780.026	117582
780.132	16010
780.238	4344
780.344	4121
780.450	4418
780.556	3999
780.661	2975
780.767	2416
780.873	2384
780.979	3064
781.085	1711
781.190	2592
781.296	1907
781.402	2384
781.507	1385
781.613	2234
781.719	2489
781.824	2313
781.930	2785
782.035	2247
782.141	2295
782.246	3010
782.352	1764
782.457	2270
782.563	2518
782.668	2582
782.773	2330
782.879	2178
782.984	2740
783.090	4001
783.195	2981
783.300	2492
783.405	2121
783.511	2865
783.616	1713
783.721	2148
783.826	1853
783.932	2782
784.037	2243
784.142	2129
784.247	2229
784.352	2313
784.457	1972
784.562	2248
784.667	2147
784.772	2062
784.877	1800
784.982	1681
785.087	1762
785.192	2749
785.297	1986
785.402	1570
785.507	1787
785.611	1729
785.716	2016
785.821	1751
785.926	855
786.031	1888
786.135	2024
786.240	2042
786.345	569
786.450	2535
786.554	1245
786.659	1655
786.763	437
786.868	3038
786.973	2150
787.077	2179
787.182	1574
787.286	2237
787.391	2016
787.495	1438
787.600	1595
787.704	879
787.809	1452
787.913	958
788.017	1786
788.122	1809
788.226	1342
788.330	1031
788.435	1979
788.539	1992
788.643	657
788.747	1754
788.852	1703
788.956	683
789.060	1166
789.164	1448
789.268	829
789.372	1139
789.476	1888
789.580	1784
789.684	1213
789.788	2181
789.892	952
789.996	1988
790.100	870
790.204	1094
790.308	1705
790.412	1342
790.516	1788
790.620	1676
790.724	1614
790.828	1839
790.931	1082
791.035	3234
791.139	861
791.242	-55
791.346	2008
791.450	794
791.554	1036
791.657	608
791.761	2380
791.864	2470
791.968	1734
792.072	1856
792.175	1704
792.279	840
792.382	1367
792.486	1831
792.589	1515
792.693	2019
792.796	1050
792.899	2460
793.003	1622
793.106	222
793.209	1258
793.313	3529
793.416	-184
793.519	2320
793.623	2516
793.726	2728
793.829	1175
793.932	1821
794.035	536
794.138	2555
794.242	2866
794.345	3285
794.448	5374
794.551	13421
794.654	48045
794.757	65222
794.860	9495
794.963	2755
795.066	1065
795.169	2660
795.272	1259
795.375	1341
795.477	828
795.580	1676
795.683	494
795.786	145
795.889	-215
795.991	1853
796.094	2033
796.197	548
796.300	1928
796.402	547
796.505	569
796.608	722
796.710	1073
796.813	706
796.915	-4
797.018	609
797.120	1402
797.223	-167
797.326	2697
797.428	468
797.530	264
797.633	1851
797.735	1430
797.838	2740
797.940	1587
798.042	648
798.145	707
798.247	1382
798.349	-416
798.452	624
798.554	453
798.656	523
798.758	1271
798.860	921
798.962	18
799.065	610
799.167	-378
799.269	2121
799.371	748
799.473	876
799.575	140
799.677	855
799.779	2747
799.881	173
799.983	908
800.085	497
800.187	638
800.289	-261
800.390	455
800.492	1796
800.594	1230
800.696	-8
800.798	981
800.899	350
801.001	797
801.103	965
801.205	709
801.306	636
801.408	-563
801.509	448
801.611	108
801.713	925
801.814	479
801.916	492
802.017	291
802.119	76
802.220	1043
802.322	-1435
802.423	2065
802.525	-370
802.626	144
802.727	797
802.829	667
802.930	-1008
803.031	1611
803.133	623
803.234	483
803.335	51
803.436	-1061
803.538	584
803.639	-464
803.740	708
803.841	-922
803.942	949
804.043	53
804.144	-123
804.245	-184
804.346	-278
804.447	387
804.548	901
804.649	927
804.750	170
804.851	-215
804.952	-101
805.053	-1
805.154	-507
805.255	1000
805.355	609
805.456	275
805.557	-327
805.658	-1258
805.758	1114
805.859	35
805.960	6
806.061	-1082
806.161	-450
806.262	739
806.362	414
806.463	21
806.564	1252
806.664	-256
806.765	1130
806.865	689
806.966	622
807.066	-472
807.166	785
807.267	243
807.367	547
807.468	417
807.568	-797
807.668	24
807.769	960
807.869	-339
807.969	470
808.069	942
808.170	1313
808.270	192
808.370	892
808.470	825
808.570	-123
808.670	-259
808.770	488
808.870	232
808.970	420
809.070	-207
809.170	-117
809.271	392
809.370	705
809.470	623
809.570	180
809.670	-434
809.770	197
809.870	805
809.970	308
810.070	-130
810.169	1119
810.269	-914
810.369	655
810.469	-660
810.568	657
810.668	-676
810.768	292
810.867	225
810.967	96
811.066	-97
811.166	532
811.265	1049
811.365	808
811.464	52
811.564	957
811.663	268
811.763	-677
811.862	1207
811.962	1447
812.061	1081
812.160	-11
812.260	125
812.359	561
812.458	522
812.557	3266
812.657	3473
812.756	1458
812.855	687
812.954	839
813.053	1748
813.153	799
813.252	47
813.351	1140
813.450	745
813.549	1112
813.648	918
813.747	925
813.846	786
813.945	8
814.044	-162
814.143	528
814.242	1418
814.341	1063
814.439	750
814.538	1675
814.637	227
814.736	1868
814.835	1854
814.933	1213
815.032	1609
815.131	893
815.229	994
815.328	1867
815.427	904
815.525	2217
815.624	1276
815.722	1808
815.821	2210
815.919	2707
816.018	1340
816.116	2991
816.215	2787
816.313	2581
816.412	2212
816.510	3346
816.609	3970
816.707	4010
816.805	3470
816.904	3761
817.002	4069
817.100	6889
817.198	6577
817.296	7222
817.395	8241
817.493	11969
817.591	11677
817.689	19234
817.787	25943
817.885	42867
817.983	77137
818.081	154260
818.179	338382
818.277	659356
818.375	494024
818.473	199622
818.571	92305
818.669	60830
818.767	51535
818.865	52529
818.963	60580
819.061	89568
819.158	145181
819.256	284052
819.354	578120
819.452	890560
819.549	586626
819.647	264289
819.745	130037
819.842	78324
819.940	52424
820.038	37809
820.135	28887
820.233	23100
820.330	17267
820.428	14378
820.525	13756
820.623	11799
820.720	9753
820.818	9623
820.915	8377
821.012	8085
821.110	6284
821.207	6320
821.304	4112
821.402	6329
821.499	7492
821.596	10384
821.693	6294
821.791	4908
821.888	3517
821.985	5321
822.082	3345
822.179	5097
822.276	4101
822.373	2827
822.470	2076
822.567	2600
822.664	1604
822.761	2703
822.858	587
822.955	2860
823.052	1064
823.149	1893
823.246	815
823.343	810
823.440	1333
823.536	1784
823.633	542
823.730	1551
823.827	1485
823.923	1189
824.020	2027
824.117	1922
824.213	1957
824.310	2401
824.407	1272
824.503	1363
824.600	827
824.696	1598
824.793	1517
824.889	884
824.986	813
825.082	1241
825.179	829
825.275	175
825.371	163
825.468	1861
825.564	86
825.660	1034
825.757	498
825.853	1309
825.949	417
826.045	728
826.142	78
826.238	52
826.334	986
826.430	-583
826.526	1298
826.622	127
826.718	-304
826.814	-607
826.910	198
827.006	310
827.102	-59
827.198	1151
827.294	-417
827.390	423
827.486	142
827.582	129
827.678	-1081
827.774	1210
827.869	-57
827.965	1014
828.061	-137
828.157	125
828.252	-843
828.348	-200
828.444	1190
828.539	-72
828.635	182
828.731	920
828.826	-1089
828.922	98
829.017	-475
829.113	437
829.208	-186
829.304	-322
829.399	993
829.495	353
829.590	695
829.685	-829
829.781	-686
829.876	203
829.971	324
830.066	-108
830.162	139
830.257	171
830.352	-61
830.447	1010
830.543	807
830.638	-780
830.733	688
830.828	-679
830.923	961
831.018	-125
831.113	173
831.208	-407
831.303	-616
831.398	-236
831.493	-80
831.588	254
831.683	-949
831.778	829
831.873	-31
831.967	1115
832.062	-1145
832.157	-223
832.252	860
832.346	142
832.441	671
832.536	188
832.631	2910
832.725	1354
832.820	-1294
832.914	-331
833.009	-1079
833.104	-64
833.198	334
833.293	-653
833.387	-103
833.482	134
833.576	-773
833.670	69
833.765	305
833.859	-244
833.954	883
834.048	509
834.142	288
834.237	-391
834.331	-315
834.425	-754
834.519	-696
834.613	1307
834.708	-728
834.802	40
834.896	-568
834.990	816
835.084	125
835.178	-221
835.272	-819
835.366	-171
835.460	435
835.554	371
835.648	122
835.742	-543
835.836	117
835.930	-732
836.024	406
836.117	1011
836.211	-822
836.305	681
836.399	1566
836.493	-1513
836.586	757
836.680	-67
836.774	-240
836.867	887
836.961	-567
837.055	151
837.148	-187
837.242	106
837.335	-123
837.429	549
837.522	380
837.616	865
837.709	1805
837.803	-385
837.896	164
837.989	567
838.083	847
838.176	2757
838.269	904
838.363	1236
838.456	-497
838.549	1176
838.642	944
838.735	3450
838.829	783
838.922	-273
839.015	-330
839.108	-346
839.201	-688
839.294	444
839.387	66
839.480	297
839.573	-88
839.666	499
839.759	344
839.852	-158
839.945	441
840.038	-437
840.131	-232
840.223	-304
840.316	1115
840.409	-426
840.502	-908
840.594	671
840.687	-1566
840.780	830
840.873	-849
840.965	-222
841.058	468
841.150	2118
841.243	-453
841.336	-433
841.428	530
841.521	-66
841.613	-1034
841.706	126
841.798	235
841.890	-97
841.983	-1108
842.075	1066
842.167	374
842.260	-40
842.352	1288
842.444	1327
842.537	2884
842.629	3503
842.721	-76
842.813	539
842.905	-728
842.997	-61
843.090	590
843.182	2166
843.274	2241
843.366	7850
843.458	11844
843.550	5554
843.642	-181
843.734	439
843.826	227
843.918	158
844.009	394
844.101	-248
844.193	-261
844.285	289
844.377	578
844.469	2536
844.560	2678
844.652	3390
844.744	1501
844.835	54
844.927	-165
845.019	284
845.110	405
845.202	55
845.293	-344
845.385	-395
845.476	-28
845.568	810
845.659	23
845.751	868
845.842	635
845.934	-296
846.025	-719
846.116	1072
846.208	-575
846.299	-272
846.390	-240
846.482	322
846.573	599
846.664	1145
846.755	1181
846.846	1137
846.937	-1461
847.029	544
847.120	-269
847.211	275
847.302	1246
847.393	-969
847.484	-269
847.575	-171
847.666	-170
847.757	57
847.847	-565
847.938	702
848.029	-83
848.120	-308
848.211	-309
848.302	418
848.392	-1200
848.483	702
848.574	-509
848.664	26
848.755	-561
848.846	27
848.936	-784
849.027	-374
849.118	-802
849.208	-825
849.299	-94
849.389	337
849.480	1720
849.570	2728
849.661	5615
849.751	7675
849.841	1604
849.932	807
850.022	-452
850.112	462
850.203	-365
850.293	-60
850.383	196
850.474	-410
850.564	-741
850.654	83
850.744	-469
850.834	-33
850.924	-552
851.014	-644
851.104	-191
851.194	-192
851.284	12
851.374	136
851.464	93
851.554	-65
851.644	300
851.734	1754
851.824	1210
851.914	1527
852.004	2137
852.094	1637
852.183	-330
852.273	71
852.363	-188
852.452	4
852.542	337
852.632	82
852.721	-265
852.811	-223
852.901	-145
852.990	106
853.080	-338
853.169	147
853.259	10
853.348	142
853.438	51
853.527	966
853.617	924
853.706	2468
853.795	4173
853.885	12488
853.974	21767
854.063	43216
854.152	57451
854.242	17541
854.331	2173
854.420	877
854.509	-266
854.598	509
854.687	169
854.777	447
854.866	-213
854.955	860
855.044	-493
855.133	-439
855.222	-784
855.311	69
855.400	-58
855.488	-175
855.577	-520
855.666	-466
855.755	391
855.844	1685
855.933	-115
856.021	272
856.110	69
856.199	-693
856.288	-385
856.376	-19
856.465	-501
856.554	27
856.642	-836
856.731	644
856.819	234
856.908	-294
856.996	42
857.085	-399
857.173	-1152
857.262	-985
857.350	-195
857.438	-266
857.527	-233
857.615	-185
857.703	98
857.792	22
857.880	-209
857.968	122
858.056	-554
858.145	235
858.233	-1157
858.321	-11
858.409	-564
858.497	-605
858.585	-739
858.673	-1008
858.761	-1073
858.849	-203
858.937	-1060
859.025	-6
859.113	-428
859.201	70
859.289	502
859.377	-139
859.465	-574
859.552	77
859.640	-480
859.728	184
859.816	296
859.903	357
859.991	-1268
860.079	-207
860.166	-849
860.254	-868
860.342	-71
860.429	-1045
860.517	-1052
860.604	83
860.692	-628
860.779	-573
860.867	-80
860.954	376
861.042	-951
861.129	-387
861.216	-1040
861.304	-390
861.391	-1142
861.478	-486
861.565	87
861.653	1089
861.740	75
861.827	-22
861.914	-674
862.001	-1174
862.089	-68
862.176	481
862.263	-1148
862.350	-579
862.437	-706
862.524	287
862.611	491
862.698	214
862.785	1147
862.871	1679
862.958	386
863.045	-456
863.132	-270
863.219	-202
863.306	-1737
863.392	27
863.479	-575
863.566	-370
863.652	-1041
863.739	-32
863.826	-573
863.912	-280
863.999	-544
864.086	-480
864.172	-1342
864.259	-74
864.345	-403
864.432	-700
864.518	-604
864.604	-647
864.691	-312
864.777	431
864.863	366
864.950	858
865.036	-447
865.122	687
865.209	-63
865.295	810
865.381	1021
865.467	786
865.553	380
865.639	384
865.726	1743
865.812	4970
865.898	9992
865.984	15330
866.070	29566
866.156	26331
866.242	5351
866.328	1161
866.414	-122
866.499	465
866.585	-164
866.671	190
866.757	111
866.843	-543
866.928	-742
867.014	-184
867.100	-61
867.186	648
867.271	568
867.357	1252
867.442	584
867.528	952
867.614	729
867.699	719
867.785	1658
867.870	2944
867.956	4096
868.041	2146
868.127	1623
868.212	2298
868.297	865
868.383	435
868.468	1895
868.553	2501
868.639	1798
868.724	4116
868.809	1500
868.894	570
868.979	240
869.065	435
869.150	-1034
869.235	-776
869.320	-654
869.405	-211
869.490	-337
869.575	-102
869.660	-64
869.745	736
869.830	-1275
869.915	-847
870.000	-1345
870.085	-15
870.169	173
870.254	863
870.339	-811
870.424	-89
870.509	-621
870.593	-144
870.678	-105
870.763	-35
870.847	210
870.932	232
871.016	918
871.101	-79
871.186	-25
871.270	292
871.355	-543
871.439	-39
871.523	-827
871.608	-342
871.692	243
871.777	702
871.861	407
871.945	37
872.030	-734
872.114	-613
872.198	-904
872.282	-357
872.367	-670
872.451	-754
872.535	88
872.619	367
872.703	-528
872.787	-836
872.871	-701
872.955	-670
873.039	-149
873.123	-533
873.207	-1466
873.291	239
873.375	-531
873.459	800
873.543	-888
873.627	-310
873.711	-1211
873.794	433
873.878	-1054
873.962	239
874.045	-909
874.129	-144
874.137	-211
874.213	-885
874.245	-529
874.296	46
874.352	-524
874.380	-803
874.460	201
874.464	241
874.547	-543
874.568	-378
874.631	95
874.676	-442
874.714	-880
874.784	-379
874.798	-286
874.881	944
874.892	789
874.965	-271
874.999	-157
875.048	-1
875.107	414
875.131	581
875.215	-489
875.215	-488
875.298	115
875.323	-160
875.381	-883
875.430	-382
875.465	14
875.538	39
875.548	36
875.631	-727
875.646	-727
875.714	-761
875.753	-526
875.798	-223
875.861	-195
875.881	-178
875.964	6
875.968	-18
876.047	-534
876.076	-499
876.130	-382
876.183	10
876.213	193
876.291	913
876.296	966
876.379	-359
876.398	-388
876.462	-415
876.506	-407
876.545	-467
876.613	-279
876.628	-236
876.711	-499
876.721	-506
876.794	-433
876.828	-435
876.877	-525
876.935	-253
876.960	-108
877.043	652
877.043	649
877.125	83
877.150	141
877.208	362
877.258	567
877.291	647
877.365	97
877.374	48
877.456	797
877.472	712
877.539	328
877.579	574
877.622	724
877.687	367
877.704	321
877.787	126
877.794	87
877.869	-405
877.901	-111
877.952	435
878.008	318
878.034	226
878.115	-39
878.117	-41
878.199	-638
878.222	-346
878.282	474
878.329	362
878.364	195
878.437	277
878.447	321
878.529	59
878.544	235
878.611	832
878.651	488
878.694	218
878.758	766
878.776	893
878.858	274
878.865	273
878.941	404
878.972	176
879.023	-224
879.078	69
879.105	251
879.185	119
879.187	115
879.269	625
879.292	563
879.351	557
879.399	756
879.433	828
879.506	462
879.516	432
879.598	214
879.613	261
879.680	351
879.720	367
879.762	413
879.827	-50
879.844	-114
879.926	447
879.933	489
880.007	643
880.040	320
880.089	-64
880.147	389
880.171	645
880.253	1741
880.254	1738
880.335	1071
880.360	1299
880.417	2881
880.467	4206
880.499	4741
880.574	5581
880.580	5468
880.662	1837
880.680	1239
880.744	574
880.787	488
880.825	380
880.893	212
880.907	167
880.989	325
881.000	269
881.070	245
881.106	380
881.152	537
881.213	910
881.233	949
881.315	421
881.319	414
881.396	696
881.426	688
881.478	730
881.532	1009
881.559	945
881.639	-175
881.641	-185
881.722	906
881.745	694
881.803	488
881.852	1110
881.885	1089
881.958	656
881.966	704
882.047	1483
882.064	1509
882.129	1347
882.171	1323
882.210	1564
882.277	1950
882.291	1900
882.372	1411
882.383	1333
882.454	721
882.489	539
882.535	557
882.596	569
882.616	519
882.697	353
882.702	339
882.778	596
882.808	708
882.859	844
882.914	721
882.940	622
883.020	285
883.021	289
883.102	601
883.127	643
883.183	843
883.233	909
883.264	883
883.339	1224
883.345	1232
883.426	471
883.445	547
883.507	1339
883.551	1312
883.587	1086
883.657	1167
883.668	1212
883.749	1383
883.763	1306
883.830	824
883.869	866
883.910	982
883.975	860
883.991	765
884.072	764
884.081	750
884.152	1188
884.187	1004
884.233	598
884.292	874
884.314	1094
884.394	1359
884.398	1359
884.475	799
884.504	748
884.555	914
884.610	909
884.636	860
884.716	933
884.716	938
884.797	715
884.821	616
884.877	689
884.927	705
884.958	788
885.033	1197
885.038	1202
885.118	1120
885.139	1092
885.199	865
885.244	697
885.279	887
885.350	1118
885.359	1121
885.439	1341
885.456	1284
885.520	1165
885.561	1415
885.600	1443
885.667	1155
885.680	1136
885.760	1138
885.773	1086
885.840	1097
885.878	1135
885.920	1242
885.984	1574
886.000	1613
886.080	1600
886.089	1580
886.160	1015
886.195	797
886.240	1045
886.300	1344
886.320	1426
886.400	1768
886.406	1776
886.480	1683
886.511	1661
886.560	1724
886.616	1695
886.640	1819
886.720	2362
886.722	2361
886.800	1281
886.827	940
886.879	1455
886.932	1898
886.959	1818
887.038	1638
887.039	1646
887.119	1587
887.143	1542
887.198	1429
887.248	1473
887.278	1706
887.354	2179
887.358	2193
887.437	2111
887.459	2123
887.517	2259
887.564	2404
887.596	2173
887.669	1526
887.676	1508
887.755	1235
887.774	1139
887.835	1438
887.880	1732
887.914	1767
887.985	1709
887.994	1701
888.073	1683
888.090	1652
888.153	1391
888.195	1161
888.232	1352
888.300	1820
888.311	1831
888.391	1702
888.405	1709
888.470	1625
888.510	1440
888.549	1519
888.615	1778
888.628	1762
888.708	1543
888.720	1511
888.787	2204
888.825	2552
888.866	2120
888.930	1490
888.945	1706
889.024	2767
889.035	2910
889.103	2215
889.140	1794
889.182	2252
889.245	2940
889.261	2825
889.340	2215
889.349	2144
889.419	2286
889.454	2318
889.498	2204
889.559	2044
889.577	2118
889.656	2424
889.664	2448
889.735	2161
889.768	2016
889.814	2119
889.873	2242
889.978	2424
890.083	1950
890.187	2141
890.292	2220
890.397	2301
890.501	2726
890.606	2643
890.710	3044
890.815	2790
890.919	2664
891.024	2708
891.128	2038
891.233	2275
891.337	3025
891.442	2433
891.546	2452
891.650	1638
891.755	2256
891.859	2936
891.963	2663
892.068	3010
892.172	1562
892.276	2331
892.380	2327
892.484	1971
892.589	2670
892.693	2841
892.797	2451
892.901	2541
893.005	2081
893.109	2244
893.213	2213
893.317	1856
893.421	2316
893.525	1369
893.629	2363
893.733	1943
893.837	2651
893.941	1593
894.045	2563
894.148	2986
894.252	6727
894.356	3966
894.460	2058
894.564	1784
894.667	2367
894.771	1721
894.875	1839
894.978	2218
895.082	1730
895.186	2535
895.289	1536
895.393	1623
895.496	1666
895.600	1755
895.703	1104
895.807	1362
895.910	2267
896.014	1029
896.117	1722
896.221	2480
896.324	2652
896.427	1765
896.531	1420
896.634	1033
896.737	1936
896.840	1415
896.944	2365
897.047	1859
897.150	1765
897.253	1905
897.356	1937
897.460	1686
897.563	1162
897.666	3287
897.769	1339
897.872	1799
897.975	1511
898.078	1714
898.181	2068
898.284	1295
898.387	1928
898.490	2653
898.593	2165
898.695	2299
898.798	2070
898.901	1635
899.004	2243
899.107	1879
899.209	1834
899.312	1659
899.415	1796
899.518	1608
899.620	1210
899.723	2365
899.826	3035
899.928	3540
900.031	2533
900.133	1001
900.236	1680
900.338	1231
900.441	1469
900.543	1400
900.646	1764
900.748	2295
900.851	1584
900.953	1553
901.055	1249
901.158	992
901.260	1780
901.362	2219
901.465	1439
901.567	814
901.669	1915
901.771	1340
901.873	1921
901.976	1415
902.078	963
902.180	2284
902.282	2312
902.384	1676
902.486	1838
902.588	2218
902.690	2658
902.792	1512
902.894	2563
902.996	2158
903.098	1296
903.200	2329
903.302	1908
903.404	2286
903.505	2021
903.607	1272
903.709	2389
903.811	2164
903.913	2712
904.014	1321
904.116	1707
904.218	1120
904.319	1873
904.421	2369
904.523	3047
904.624	1339
904.726	1402
904.827	1610
904.929	2232
905.030	2372
905.132	2585
905.233	2150
905.335	1096
905.436	962
905.537	1140
905.639	1570
905.740	1470
905.841	2138
905.943	3217
906.044	2409
906.145	2486
906.247	818
906.348	2001
906.449	1532
906.550	1084
906.651	2230
906.752	1123
906.854	1288
906.955	2035
907.056	941
907.157	1895
907.258	1998
907.359	1759
907.460	1650
907.561	1578
907.662	1513
907.762	2184
907.863	1506
907.964	1850
908.065	1126
908.166	1637
908.267	973
908.367	1662
908.468	1353
908.569	1434
908.670	1400
908.770	3104
908.871	2457
908.971	2381
909.072	1396
909.173	1721
909.273	1204
909.374	1525
909.474	1671
909.575	1694
909.675	1609
909.776	1990
909.876	1386
909.977	1348
910.077	1564
910.177	1733
910.278	1494
910.378	1593
910.478	1783
910.579	1364
910.679	1206
910.779	1863
910.879	1554
910.980	1383
911.080	1687
911.180	957
911.280	1188
911.380	1700
911.480	1961
911.580	1549
911.680	720
911.780	1670
911.880	1370
911.980	1695
912.080	1444
912.180	1623
912.280	1284
912.380	2613
912.480	1724
912.580	2049
912.679	1308
912.779	1788
912.879	1277
912.979	1882
913.078	1618
913.178	1127
913.278	1960
913.377	1565
913.477	1785
913.577	1263
913.676	2136
913.776	1115
913.875	1070
913.975	1919
914.074	1377
914.174	2023
914.273	854
914.373	1343
914.472	2139
914.572	935
914.671	1721
914.770	1167
914.870	1191
914.969	1528
915.068	974
915.167	1092
915.267	1700
915.366	1132
915.465	1920
915.564	1235
915.663	1948
915.763	1599
915.862	807
915.961	1026
916.060	679
916.159	1007
916.258	1048
916.357	1391
916.456	2029
916.555	2270
916.654	1526
916.752	1719
916.851	1672
916.950	1290
917.049	1720
917.148	1111
917.247	1341
917.345	1651
917.444	1588
917.543	1448
917.642	1760
917.740	489
917.839	1230
917.937	2055
918.036	732
918.135	1596
918.233	1404
918.332	1990
918.430	922
918.529	1604
918.627	1030
918.726	1546
918.824	1207
918.923	1694
919.021	2100
919.119	1974
919.218	1301
919.316	1819
919.414	545
919.512	1931
919.611	1711
919.709	1801
919.807	1495
919.905	837
920.003	1460
920.102	1813
920.200	1227
920.298	1450
920.396	1793
920.494	1610
920.592	1730
920.690	2306
920.788	1932
920.886	2236
920.984	1969
921.082	1126
921.180	1730
921.277	2069
921.375	1027
921.473	1547
921.571	755
921.669	2150
921.766	1268
921.864	2818
921.962	1562
922.060	1754
922.157	2125
922.255	1404
922.352	2414
922.450	2440
922.548	1580
922.645	2049
922.743	1632
922.840	1899
922.938	2464
923.035	2958
923.133	2077
923.230	2310
923.327	2088
923.425	2274
923.522	2463
923.619	2133
923.717	1170
923.814	2411
923.911	2147
924.008	3525
924.106	1432
924.203	1950
924.300	1197
924.397	2226
924.494	2368
924.591	2067
924.688	1740
924.786	2307
924.883	2296
924.979	2581
925.077	1719
925.173	1928
925.270	1804
925.367	1694
925.464	2182
925.561	2429
925.658	1681
925.755	2285
925.852	2616
925.948	2720
926.045	3452
926.142	4255
926.239	4073
926.335	3011
926.432	3304
926.529	4052
926.625	4442
926.722	3030
926.818	2090
926.915	2357
927.011	2427
927.108	1831
927.204	2078
927.301	2490
927.397	1609
927.494	2773
927.590	2388
927.687	1841
927.783	1649
927.879	1353
927.976	2177
928.072	1719
928.168	1399
928.264	1845
928.361	1065
928.457	2563
928.553	2077
928.649	1793
928.745	1517
928.841	1466
928.937	1412
929.033	1151
929.129	927
929.225	2075
929.321	2257
929.417	1521
929.513	2132
929.609	1527
929.705	1454
929.801	1606
929.897	1120
929.993	1169
930.089	1328
930.184	2060
930.280	1754
930.376	2148
930.471	1224
930.567	2120
930.663	1862
930.758	1640
930.854	1432
930.950	2101
931.045	2179
931.141	2118
931.236	1523
931.332	1881
931.427	1240
931.523	1366
931.618	1793
931.714	1022
931.809	1843
931.905	1446
932.000	1107
932.095	1437
932.191	1652
932.286	2250
932.381	1797
932.476	2072
932.572	1232
932.667	1708
932.762	2122
932.857	1922
932.952	1586
933.047	1929
933.142	795
933.237	2310
933.332	1738
933.427	1642
933.522	1448
933.617	1007
933.712	2108
933.807	1702
933.902	1525
933.997	735
934.092	1639
934.187	1298
934.282	868
934.376	915
934.471	1518
934.566	1504
934.661	1764
934.755	1647
934.850	2224
934.945	1944
935.039	1436
935.134	2119
935.228	1259
935.323	1766
935.417	1601
935.512	1507
935.606	1332
935.701	1649
935.795	1278
935.890	1170
935.984	1372
936.079	1875
936.173	1271
936.267	1185
936.362	1461
936.456	1574
936.550	438
936.644	2110
936.738	1517
936.833	1855
936.927	2324
937.021	2224
937.115	897
937.209	879
937.303	1861
937.397	1060
937.491	1244
937.585	1740
937.679	940
937.773	1266
937.867	861
937.961	1154
938.055	1199
938.149	1797
938.243	1497
938.337	2241
938.430	1622
938.524	2891
938.618	4375
938.712	3423
938.805	2649
938.899	2057
938.993	1336
939.086	2453
939.180	4700
939.274	5289
939.367	2671
939.461	1833
939.554	1175
939.648	1653
939.741	1686
939.835	1412
939.928	1487
940.022	1764
940.115	1779
940.208	1382
940.302	1671
940.395	2264
940.488	343
940.582	1896
940.675	712
940.768	1611
940.861	1904
940.954	1752
941.048	1223
941.141	1340
941.234	1377
941.327	2361
941.420	3222
941.513	1311
941.606	608
941.699	2240
941.792	1221
941.885	1655
941.978	548
942.071	1292
942.164	631
942.257	1601
942.349	1175
942.442	1341
942.535	1345
942.628	875
942.721	716
942.813	268
942.906	2070
942.999	1396
943.091	1208
943.184	1752
943.277	859
943.369	1224
943.462	1452
943.554	1130
943.647	1307
943.739	670
943.832	1320
943.924	591
944.017	994
944.109	595
944.201	1102
944.294	1181
944.386	1219
944.478	1160
944.571	830
944.663	1146
944.755	711
944.847	1421
944.940	1547
945.032	550
945.124	1422
945.216	1890
945.308	1019
945.400	2060
945.492	1570
945.584	1533
945.676	553
945.768	1036
945.860	1176
945.952	1090
946.044	2086
946.136	405
946.228	665
946.320	1567
946.412	1408
946.503	478
946.595	1003
946.687	635
946.779	1023
946.870	1271
946.962	93
947.054	1183
947.145	1635
947.237	1409
947.329	1505
947.420	1070
947.512	1162
947.603	842
947.695	347
947.786	568
947.878	937
947.969	853
948.061	690
948.152	1063
948.243	743
948.335	1609
948.426	1341
948.517	1861
948.609	806
948.700	1267
948.791	369
948.882	662
948.973	256
949.065	1314
949.156	1218
949.247	1090
949.338	902
949.429	995
949.520	1259
949.611	1121
949.702	1119
949.793	1676
949.884	1531
949.975	772
950.066	824
950.157	1304
950.247	400
950.338	997
950.429	1152
950.520	872
950.611	1639
950.701	1188
950.792	1012
950.883	1736
950.973	1249
951.064	1941
951.155	1218
951.245	1446
951.336	928
951.427	895
951.517	1439
951.608	879
951.698	174
951.788	1173
951.879	1016
951.969	791
952.060	1446
952.150	895
952.240	1040
952.331	-243
952.421	1988
952.511	158
952.602	1000
952.692	1118
952.782	668
952.872	623
952.962	883
953.052	1233
953.143	-94
953.233	1601
953.323	971
953.413	-59
953.503	1243
953.593	1407
953.683	-29
953.773	506
953.863	503
953.953	-39
954.042	275
954.132	161
954.222	1305
954.312	995
954.402	151
954.492	1464
954.581	2351
954.671	1532
954.761	0
954.850	1969
954.940	-35
955.030	1363
955.119	523
955.209	446
955.298	318
955.388	711
955.477	2154
955.567	466
955.656	1380
955.746	997
955.835	876
955.925	616
956.014	629
956.103	996
956.193	1528
956.282	1340
956.371	538
956.461	317
956.550	1624
956.639	1405
956.728	384
956.817	1622
956.906	1419
956.995	1747
957.085	422
957.174	1495
957.263	1005
957.352	1606
957.441	1198
957.530	1102
957.619	783
957.708	851
957.796	1626
957.885	1084
957.974	424
958.063	626
958.152	394
958.241	2439
958.329	1970
958.418	1197
958.507	1480
958.596	1459
958.684	83
958.773	1960
958.861	1622
958.950	2453
959.039	1944
959.127	1728
959.216	1846
959.304	2012
959.393	1471
959.481	2027
959.570	2935
959.658	1931
959.746	2164
959.835	3145
959.923	3083
960.011	2020
960.100	2610
960.188	1685
960.276	1482
960.365	2013
960.453	1653
960.541	719
960.629	1564
960.717	508
960.805	477
960.893	1452
960.981	1206
961.069	2408
961.158	805
961.245	1446
961.333	1433
961.421	1295
961.509	1123
961.597	598
961.685	85
961.773	918
961.861	496
961.949	1046
962.036	325
962.124	1644
962.212	340
962.299	605
962.387	480
962.475	1327
962.562	665
962.650	1287
962.738	1020
962.825	828
962.913	34
963.000	987
963.088	1359
963.175	604
963.263	913
963.350	2140
963.438	835
963.525	597
963.612	2808
963.700	8235
963.787	11232
963.874	3433
963.962	1229
964.049	486
964.136	208
964.223	480
964.310	310
964.398	609
964.485	1200
964.572	1691
964.659	1309
964.746	1673
964.833	395
964.920	1007
965.007	-5
965.094	330
965.181	-630
965.268	955
965.355	-263
965.441	860
965.528	-378
965.615	1210
965.702	315
965.789	-349
965.875	1152
965.962	1102
966.049	13
966.136	521
966.222	304
966.309	157
966.395	-182
966.482	781
966.569	-418
966.655	377
966.742	-26
966.828	998
966.915	464
967.001	-133
967.087	-723
967.174	454
967.260	847
967.347	2102
967.433	5185
967.519	6793
967.605	1367
967.692	567
967.778	84
967.864	635
967.950	340
968.036	-293
968.123	550
968.209	30
968.295	-891
968.381	1257
968.467	655
968.553	-289
968.639	945
968.725	-374
968.811	1393
968.897	1521
968.983	745
969.069	184
969.154	1018
969.240	685
969.326	837
969.412	88
969.497	-67
969.583	732
969.669	1219
969.755	584
969.840	-179
969.926	955
970.012	335
970.097	1672
970.183	510
970.268	769
970.354	1603
970.439	2122
970.525	4652
970.610	335
970.696	836
970.781	-160
970.866	-223
970.952	187
971.037	-985
971.122	178
971.208	89
971.293	78
971.378	-622
971.463	453
971.549	867
971.634	567
971.719	1409
971.804	430
971.889	973
971.974	-321
972.059	-365
972.144	528
972.229	169
972.314	154
972.399	535
972.484	1022
972.569	716
972.654	722
972.739	2816
972.824	1597
972.908	115
972.993	321
973.078	1058
973.163	-229
973.247	428
973.332	-1056
973.417	801
973.501	-119
973.586	30
973.671	247
973.755	286
973.840	1190
973.924	1241
974.009	299
974.093	224
974.178	2103
974.262	2211
974.346	1253
974.431	536
974.515	351
974.600	-168
974.684	991
974.768	-969
974.852	1363
974.937	-1167
975.021	408
975.105	45
975.189	-138
975.273	102
975.358	-911
975.442	-518
975.526	414
975.610	-629
975.694	264
975.778	824
975.862	91
975.946	-1764
976.030	1192
976.114	-308
976.198	-417
976.281	71
976.365	628
976.449	43
976.533	497
976.617	-600
976.700	773
976.784	232
976.868	33
976.951	592
977.035	43
977.119	-4
977.202	418
977.286	248
977.369	188
977.453	-474
977.536	-240
977.620	-1328
977.703	446
977.787	-506
977.870	638
977.953	705
978.037	357
978.120	1385
978.203	1300
978.287	1714
978.370	428
978.453	92
978.536	206
978.620	1255
978.703	401
978.786	-333
978.869	235
978.952	-711
979.035	1412
979.118	59
979.201	-768
979.284	-554
979.367	-708
979.450	-274
979.533	-1086
979.616	-116
979.699	-418
979.782	-443
979.865	611
979.948	-455
980.030	-801
980.113	195
980.196	-1661
980.279	-386
980.361	416
980.444	-211
980.526	-337
980.609	-405
980.692	-638
980.774	134
980.857	-1033
980.939	214
981.022	393
981.104	-302
981.187	-311
981.269	194
981.352	434
981.434	-574
981.516	-506
981.599	-419
981.681	219
981.763	-417
981.846	16
981.928	-430
982.010	-292
982.092	-903
982.174	1035
982.256	-990
982.339	-205
982.421	-243
982.503	-721
982.585	-1165
982.667	-310
982.749	180
982.831	-237
982.913	-721
982.995	709
983.077	-921
983.158	702
983.240	-1025
983.322	-108
983.404	757
983.486	-861
983.568	539
983.649	-357
983.731	595
983.813	-371
983.894	-171
983.976	-459
984.058	-362
984.139	744
984.221	-1394
984.302	171
984.384	-230
984.465	-465
984.547	201
984.628	-402
984.710	783
984.791	-703
984.872	-256
984.954	-613
985.035	-284
985.116	-449
985.198	-1061
985.279	972
985.360	-509
985.441	-372
985.522	-466
985.604	-116
985.685	-1826
985.766	1116
985.847	173
985.928	-863
986.009	217
986.090	-299
986.171	178
986.252	255
986.333	-256
986.414	-22
986.495	250
986.576	-562
986.656	-402
986.737	-110
986.818	-203
986.899	-7
986.980	24
987.060	458
987.141	-1348
987.222	-215
987.302	-422
987.383	-79
987.464	-430
987.544	550
987.625	163
987.705	-21
987.786	209
987.866	-56
987.947	-873
988.027	46
988.108	-559
988.188	76
988.268	35
988.349	-712
988.429	-748
988.509	424
988.589	-413
988.670	-1657
988.750	746
988.830	-995
988.910	-631
988.990	-199
989.070	328
989.151	-299
989.231	-669
989.311	340
989.391	20
989.471	-587
989.551	-269
989.631	-837
989.711	156
989.791	-943
989.870	-925
989.950	573
990.030	-509
990.110	-135
990.190	20
990.269	-997
990.349	-787
990.429	637
990.509	112
990.588	-276
990.668	338
990.747	-433
990.827	289
990.907	-102
990.986	-528
991.066	414
991.145	-405
991.225	686
991.304	-1505
991.383	-127
991.463	-221
991.542	180
991.622	-484
991.701	-727
991.780	-736
991.859	92
991.939	-165
992.018	-654
992.097	-72
992.176	9
992.256	-529
992.335	-1241
992.414	149
992.493	-283
992.572	-427
992.651	872
992.730	-849
992.809	355
992.888	-1091
992.967	-1278
993.046	-501
993.125	-670
993.203	-653
993.282	-657
993.361	-561
993.440	430
993.519	-1388
993.597	-88
993.676	-820
993.755	-144
993.834	-160
993.912	-1568
993.991	-329
994.069	-975
994.148	-508
994.226	-756
994.305	-214
994.384	-921
994.462	508
994.540	-1598
994.619	-581
994.697	-87
994.776	-564
994.854	127
994.932	-211
995.011	148
995.089	-1771
995.167	-169
995.245	5
995.324	-1425
995.402	-638
995.480	-692
995.558	266
995.636	-680
995.714	-1067
995.792	553
995.870	-1182
995.948	-101
996.026	-691
996.104	-1879
996.182	-464
996.260	-622
996.338	-90
996.416	-1071
996.494	-686
996.572	1058
996.649	-1658
996.727	-1350
996.805	-716
996.883	-602
996.960	-1261
997.038	782
997.116	-543
997.193	-651
997.271	457
997.348	-512
997.426	-825
997.504	-1127
997.581	84
997.658	114
997.736	-1212
997.813	-1167
997.891	-651
997.968	-747
998.046	-277
998.123	-827
998.200	-600
998.277	-1170
998.355	31
998.432	-1190
998.509	-392
998.586	-392
998.663	-283
998.741	314
998.818	-913
998.895	-1198
998.972	-341
999.049	-187
999.126	-1726
999.203	-24
999.280	-276
999.357	-549
999.434	-729
999.511	473
999.587	135
999.664	-335
999.741	-414
999.818	352
999.895	-1423
999.971	-639
1000.048	-968
1000.125	0
1000.202	-1288
1000.278	-563
1000.355	-179
1000.431	-386
1000.508	-881
1000.584	-175
1000.661	49
1000.738	-624
1000.814	-332
1000.890	-413
1000.967	-989
1001.043	-231
1001.120	-897
1001.196	43
1001.272	-1490
1001.349	-362
1001.425	141
1001.501	-429
1001.577	-762
1001.654	35
1001.730	-1556
1001.806	-711
1001.882	-1343
1001.958	-661
1002.034	-621
1002.110	76
1002.186	-916
1002.262	-822
1002.338	-971
1002.414	-643
1002.490	-237
1002.566	-630
1002.642	-1479
1002.718	283
1002.794	178
1002.870	-830
1002.945	-273
1003.021	-703
1003.097	-846
1003.173	343
1003.248	-1136
1003.324	-178
1003.400	-393
1003.475	-865
1003.551	-912
1003.626	-165
1003.702	-918
1003.777	-985
1003.853	-641
1003.928	-643
1004.004	1
1004.079	-201
1004.155	85
1004.230	-1639
1004.305	912
1004.381	-800
1004.456	-550
1004.531	-831
1004.607	-766
1004.682	-443
1004.757	-144
1004.832	-416
1004.907	-219
1004.982	-310
1005.057	-388
1005.133	93
1005.208	-104
1005.283	-694
1005.358	-291
1005.433	-683
1005.508	-90
1005.583	-551
1005.657	-762
1005.732	-820
1005.807	-1002
1005.882	-724
1005.957	-801
1006.032	-101
1006.106	-333
1006.181	-359
1006.256	-786
1006.331	-733
1006.405	-1539
1006.480	-584
1006.554	-1232
1006.629	32
1006.704	-1090
1006.778	338
1006.853	-456
1006.927	-748
1007.002	-796
1007.076	-905
1007.150	246
1007.225	-756
1007.299	-305
1007.373	-858
1007.448	-301
1007.522	-204
1007.596	-555
1007.671	-943
1007.745	-741
1007.819	-478
1007.893	-745
1007.967	-132
1008.041	-2076
1008.115	636
1008.190	-987
1008.264	-435
1008.338	-2336
1008.412	-964
1008.486	-302
1008.560	-1472
1008.633	-1254
1008.707	-263
1008.781	-456
1008.855	-550
1008.929	-434
1009.003	-1342
1009.076	-1283
1009.150	-529
1009.224	-401
1009.298	-338
1009.371	-1503
1009.445	-577
1009.519	-1044
1009.592	-1005
1009.666	-194
1009.739	-941
1009.813	-1073
1009.886	267
1009.960	-2132
1010.033	-487
1010.107	-491
1010.180	-1262
1010.253	-952
1010.327	-1163
1010.400	-558
1010.473	14
1010.547	-347
1010.620	-1352
1010.693	-973
1010.766	-835
1010.840	-35
1010.913	-619
1010.986	-1424
1011.059	-714
1011.132	-1270
1011.205	-384
1011.278	-817
1011.351	-565
1011.424	-78
1011.497	-737
1011.570	-939
1011.643	-520
1011.716	-1038
1011.789	-1344
1011.862	-1263
1011.934	-692
1012.007	-1916
1012.080	-300
1012.153	-1250
1012.225	-330
1012.298	-993
1012.371	-1358
1012.443	-89
1012.516	-1430
1012.588	-741
1012.661	-167
1012.733	-2015
1012.806	-358
1012.879	-1021
1012.951	-845
1013.023	-744
1013.096	-1018
1013.168	-1648
1013.241	-240
1013.313	-1057
1013.385	-1631
1013.458	-1363
1013.530	-546
1013.602	-1532
1013.674	-411
1013.746	-1564
1013.819	-1416
1013.891	-875
1013.963	-872
1014.035	-1821
1014.107	-437
1014.179	-479
1014.251	-1034
1014.323	87
1014.395	-317
1014.467	-132
1014.539	-350
1014.611	-968
1014.683	-719
1014.754	-945
1014.826	-952
1014.898	-1301
1014.970	-1755
1015.042	-833
1015.113	-453
1015.185	-957
1015.257	-1316
1015.328	-466
1015.400	-1134
1015.471	-980
1015.543	-1428
1015.615	-1283
1015.686	-1554
1015.757	-1985
1015.829	-829
1015.901	-1312
1015.972	-1144
1016.043	-1146
1016.115	-1119
1016.186	-1345
1016.257	-2059
1016.328	-235
1016.400	-108
1016.471	-1772
1016.542	-1110
1016.613	-631
1016.685	-840
1016.756	-378
1016.827	-1019
1016.898	-1541
1016.969	-817
1017.040	-1870
1017.111	-1264
1017.182	-1263
1017.253	-346
1017.324	-1279
1017.395	-890
1017.466	-836
1017.537	-1867
1017.608	-899
1017.678	-725
1017.749	-1903
1017.820	-1367
1017.891	-1416
1017.961	-1487
1018.032	-1099
1018.103	-645
1018.173	-1291
1018.244	-1272
1018.315	-656
1018.385	-780
1018.456	-1113
1018.526	-1795
1018.597	-159
1018.667	-1477
1018.738	-1416
1018.808	-728
1018.878	-1993
1018.949	-1201
1019.019	-998
1019.089	-1280
1019.160	-1753
1019.230	-2089
1019.300	-1272
1019.371	-1604
1019.441	-619
1019.511	-802
1019.581	-1236
1019.651	-941
1019.721	-1434
1019.791	-1561
1019.861	-1433
1019.931	-825
1020.001	-2021
1020.071	-559
1020.141	-881
1020.211	-1066
1020.281	-1983
1020.351	-1515
1020.421	-1186
1020.491	-371
1020.560	-1482
1020.630	-1111
1020.700	-1122
1020.770	-1307
1020.839	-1428
1020.909	-1219
1020.979	-1794
1021.048	-1182
1021.118	-1376
1021.187	-624
1021.257	-1376
1021.326	-1207
1021.396	-2020
1021.465	-895
1021.535	-1410
1021.604	-1568
1021.674	-1322
1021.743	-823
1021.812	-2012
1021.882	-754
1021.951	-604
1022.020	-1542
1022.089	-1423
1022.159	-1381
1022.228	-2315
1022.297	-1319
1022.366	-1447
1022.435	-1175
1022.504	-1437
1022.573	-2342
1022.642	-1169
1022.711	-1684
1022.781	-1712
1022.849	-1313
1022.918	-1226
1022.987	-959
1023.056	-1595
1023.125	-1776
1023.194	-1439
1023.263	-263
1023.331	-1078
1023.400	-1378
1023.469	-2173
1023.538	-688
1023.606	-2053
1023.675	-1025
1023.744	-1355
1023.812	-2010
1023.881	-1042
1023.949	-1154
1024.018	-736
1024.086	-1727
1024.155	-1074
1024.223	-1891
1024.292	-1384
1024.360	-1150
1024.429	-1786
1024.497	-1843
1024.565	-1884
1024.634	-1466
1024.702	-1026
1024.770	-1682
1024.838	-1286
1024.907	-1171
1024.975	-2156
1025.043	-1086
1025.111	-2339
1025.179	-1632
1025.247	-1941
1025.315	-2069
1025.383	-2029
1025.451	-2375
1025.519	-1676
1025.587	-1775
1025.655	-1392
1025.723	-1215
1025.791	-1793
1025.859	-952
1025.927	-1815
1025.995	-1433
1026.062	-1920
1026.130	-1808
1026.198	-1841
1026.266	-1146
1026.333	-1312
1026.401	-1079
1026.469	-2242
1026.536	-1514
1026.604	-1644
1026.671	-1678
1026.739	-1849
1026.806	-1896
1026.874	-2179
1026.941	-876
1027.009	-1263
1027.076	-1700
1027.144	-1439
1027.211	-1943
1027.278	-2334
1027.345	-1822
1027.413	-1614
1027.480	-2296
1027.547	-1798
1027.614	-2131
1027.682	-1162
1027.749	-2486
1027.816	-1784
1027.883	-1002
1027.950	-1500
1028.017	-1714
1028.084	-1657
1028.151	-1526
1028.218	-1903
1028.285	-1202
1028.352	-1659
1028.419	-2249
1028.486	-2121
1028.553	-2787
1028.619	-2021
1028.686	-2306
1028.753	-1802
1028.820	-1729
1028.886	-1925
1028.953	-978
1029.020	-1850
1029.086	-2261
1029.153	-1878
1029.220	-1616
1029.286	-1311
1029.353	-1956
1029.419	-1874
1029.486	-1368
1029.552	-1101
1029.619	-1584
1029.685	-1507
1029.751	-2043
1029.818	-1297
1029.884	-1304
1029.951	-337
1030.017	-1774
1030.083	-1832
1030.149	-1597
1030.216	-1775
1030.282	-1374
1030.348	-1099
1030.414	-2100
1030.480	-1867
1030.546	-2168
1030.612	-1784
1030.678	-1514
1030.744	-1750
1030.810	-2128
1030.876	-926
1030.942	-1423
1031.008	-1573
1031.074	-1466
1031.140	-1209
1031.206	-1058
1031.272	-1545
1031.337	-2217
1031.403	-1682
1031.469	-1315
1031.534	-1856
1031.600	-1330
1031.666	-2095
1031.731	-1856
1031.797	-1772
1031.863	-1669
1031.928	-1731
1031.994	-2135
1032.059	-1302
1032.125	-1865
1032.190	-2688
1032.256	-1526
1032.321	-2432
1032.386	-2191
1032.452	-1457
1032.517	-1520
1032.582	-1564
1032.647	-1881
1032.713	-1837
1032.778	-1856
1032.843	-2058
1032.908	-2002
1032.974	-887
1033.039	-1904
1033.104	-1694
1033.169	-1546
1033.234	-1290
1033.299	-1170
1033.364	-1683
1033.429	-1377
1033.494	-1873
1033.559	-1934
1033.624	-1857
1033.688	-1804
1033.753	-1753
1033.818	-1897
1033.883	-1331
1033.948	-2484
1034.013	-1663
1034.077	-1706
1034.142	-1725
1034.207	-1256
1034.271	-1621
1034.336	-1153
1034.400	-2127
1034.465	-1478
1034.530	-1440
1034.594	-2113
1034.658	-1760
1034.723	-1832
1034.787	-2487
1034.852	-1561
1034.916	-2165
1034.981	-1995
1035.045	-1784
1035.109	-613
1035.173	-1267
1035.238	-2140
1035.302	-1773
1035.366	-1555
1035.430	-2018
1035.495	-1599
1035.559	-919
1035.623	-1599
1035.687	-3313
1035.751	-1740
1035.815	-1525
1035.879	-1797
1035.943	-1403
1036.007	-2132
1036.071	-1376
1036.135	-1574
1036.198	-1498
1036.262	-2795
1036.326	-1159
1036.390	-1612
1036.454	-1699
1036.517	-970
1036.581	-1490
1036.645	-1374
1036.709	-1160
1036.772	-2206
1036.836	-1738
1036.900	-1112
1036.963	-1500
1037.026	-1215
1037.090	-1768
1037.154	-1349
1037.217	-1272
1037.280	-2342
1037.344	-1939
1037.407	-1559
1037.471	-1075
1037.534	-1231
1037.597	-2372
1037.661	-1759
1037.724	-2237
1037.787	-1938
1037.850	-1856
1037.913	-1251
1037.977	-1422
1038.040	-1639
1038.103	-1922
1038.166	-1652
1038.229	-1830
1038.292	-2022
1038.355	-1780
1038.418	-1573
1038.481	-1534
1038.544	-1483
1038.607	-2113
1038.670	-1562
1038.732	-1916
1038.795	-1635
1038.858	-2433
1038.921	-1406
1038.984	-1221
1039.046	-1244
1039.109	-1790
1039.172	-846
1039.234	-2057
1039.297	-1356
1039.360	-1398
1039.422	-1943
1039.485	-1499
1039.547	-2120
1039.610	-1945
1039.672	-1408
1039.734	-2336
1039.797	-1639
1039.859	-1648
1039.922	-1597
1039.984	-1176
1040.046	-2188
1040.109	-1697
1040.171	-1852
1040.233	-1669
1040.295	-2422
1040.358	-1784
1040.420	-1461
1040.482	-1832
1040.544	-1851
1040.606	-1967
1040.668	-1450
1040.730	-1324
1040.792	-984
1040.854	-2315
1040.916	-1954
1040.978	-1390
1041.040	-1613
1041.102	-1158
1041.164	-1692
1041.225	-1564
1041.287	-1549
1041.349	-1775
1041.411	-1892
1041.472	-2644
1041.534	-1234
1041.596	-2131
1041.657	-1075
1041.719	-2052
1041.781	-1986
1041.842	-1864
1041.904	-1541
1041.965	-1744
1042.027	-1548
1042.088	-1491
1042.150	-1477
1042.211	-583
1042.272	-1824
1042.334	-1304
1042.395	-1194
1042.456	-2334
1042.518	-242
1042.579	-1085
1042.640	-1351
1042.701	-1975
1042.763	-2112
1042.824	-1783
1042.885	-1745
1042.946	-1717
1043.007	-2337
1043.068	-1262
1043.129	-817
1043.190	-2153
1043.251	-1551
1043.312	-1334
1043.373	-1248
1043.434	-1582
1043.495	-1381
1043.556	-1437
1043.616	-1369
1043.677	-1689
1043.738	-1461
1043.799	-1686
1043.859	-1120
1043.920	-1951
1043.981	-1665
1044.041	-1229
1044.102	-1651
1044.162	-1972
1044.223	-1850
1044.284	-2165
1044.344	-1498
1044.405	-2431
1044.465	-1828
1044.525	-2006
1044.586	-1229
1044.646	-2091
1044.707	-2067
1044.767	-2093
1044.827	-1231
1044.887	-1553
1044.948	-1355
1045.008	-1340
1045.068	-1832
1045.128	-1835
1045.188	-1081
1045.249	-1814
1045.309	-2157
1045.369	-1253
1045.429	-1470
1045.489	-1707
1045.549	-1901
1045.609	-1468
1045.669	-2210
1045.729	-1611
1045.789	-1771
1045.848	-1542
1045.908	-856
1045.968	-917
1046.028	-1597
1046.088	-1154
1046.147	-1326
1046.207	-1990
1046.267	-1460
1046.326	-1593
1046.386	-1077
1046.446	-1044
1046.505	-947
1046.565	-1012
1046.624	-1036
1046.684	-362
1046.743	-332
1046.803	-628
1046.862	266
1046.922	0
