'Start Wavelength	183.907
'End Wavelength	1046.922
'Gate Delay	5.000
'Gate Width (ms)	1.050
'Laser Output Level	0.000
'X Position	0.000
'Y Position	0.000
'Z Position	0.000
'Grid Point Number	1.000
'Shot Number	100.000
183.907	793.000
183.977	-204.000
184.047	-86
184.116	-285
184.186	339
184.256	-484
184.325	-555
184.395	-393
184.465	-366
184.534	-1074
184.604	-958
184.674	86
184.743	-400
184.813	-120
184.883	313
184.952	923
185.022	-105
185.092	-113
185.161	-10
185.231	-259
185.301	-768
185.370	108
185.440	-327
185.509	-19
185.579	-859
185.649	-207
185.718	61
185.788	-95
185.857	-692
185.927	-839
185.996	210
186.066	-666
186.136	-329
186.205	-859
186.275	440
186.344	-203
186.414	-313
186.483	-204
186.553	289
186.622	-295
186.692	-557
186.761	265
186.831	167
186.900	-449
186.970	242
187.039	50
187.109	813
187.178	-395
187.248	-98
187.317	461
187.387	-831
187.456	443
187.526	-185
187.595	-369
187.664	-84
187.734	186
187.803	-300
187.873	371
187.942	-368
188.012	-625
188.081	4
188.150	271
188.220	-637
188.289	-29
188.358	-350
188.428	219
188.497	-369
188.567	152
188.636	-136
188.705	-558
188.775	-478
188.844	-935
188.913	-24
188.983	152
189.052	-264
189.121	7
189.191	-221
189.260	130
189.329	-295
189.399	-466
189.468	50
189.537	216
189.606	-69
189.676	136
189.745	718
189.814	-442
189.883	-163
189.953	-103
190.022	202
190.091	1021
190.161	763
190.230	636
190.299	-874
190.368	-944
190.437	164
190.507	-85
190.576	-571
190.645	-400
190.714	-339
190.783	39
190.853	326
190.922	406
190.991	-664
191.060	-106
191.129	-1283
191.198	-397
191.268	-208
191.337	204
191.406	493
191.475	-34
191.544	196
191.613	-145
191.682	-790
191.752	303
191.821	-695
191.890	-892
191.959	-184
192.028	442
192.097	-101
192.166	-85
192.235	-600
192.304	579
192.373	-738
192.442	-818
192.511	-273
192.580	443
192.650	-217
192.719	-526
192.788	-256
192.857	88
192.926	-514
192.995	327
193.064	-296
193.133	-245
193.202	-666
193.271	194
193.340	88
193.409	223
193.478	-13
193.547	100
193.615	193
193.684	372
193.753	-44
193.822	119
193.891	135
193.960	61
194.029	-728
194.098	-242
194.167	-635
194.236	-542
194.305	-345
194.374	60
194.443	-182
194.512	-274
194.580	296
194.649	-342
194.718	-707
194.787	-397
194.856	-673
194.925	78
194.994	-95
195.062	515
195.131	-266
195.200	-14
195.269	-788
195.338	543
195.407	-11
195.475	-670
195.544	71
195.613	-242
195.682	166
195.751	63
195.819	-21
195.888	396
195.957	1058
196.026	476
196.094	232
196.163	-677
196.232	-307
196.301	-600
196.369	-15
196.438	282
196.507	34
196.576	-125
196.644	-178
196.713	-186
196.782	-263
196.850	584
196.919	-95
196.988	-285
197.056	-332
197.125	-776
197.194	126
197.262	183
197.331	-533
197.400	-293
197.468	-293
197.537	-214
197.606	-888
197.674	354
197.743	567
197.812	179
197.880	774
197.949	596
198.017	1000
198.086	-367
198.155	-22
198.223	-171
198.292	282
198.360	65
198.429	-107
198.497	209
198.566	188
198.635	668
198.703	291
198.772	-4
198.840	255
198.909	470
198.977	80
199.046	-418
199.114	-387
199.183	110
199.251	-67
199.320	-10
199.388	-924
199.457	-326
199.525	457
199.594	354
199.662	174
199.731	-316
199.799	47
199.867	-1008
199.936	-828
200.004	142
200.073	79
200.141	30
200.210	-1214
200.278	-307
200.346	-99
200.415	138
200.483	-500
200.552	10
200.620	-275
200.688	231
200.757	381
200.825	-554
200.893	-1028
200.962	246
201.030	385
201.098	-425
201.167	-104
201.235	216
201.303	-763
201.372	-73
201.440	-386
201.508	-90
201.577	365
201.645	-293
201.713	6
201.781	99
201.850	207
201.918	-223
201.986	-383
202.055	26
202.123	-35
202.191	294
202.259	417
202.327	518
202.396	-685
202.464	288
202.532	-377
202.600	682
202.669	396
202.737	-550
202.805	-46
202.873	-6
202.941	-62
203.009	-68
203.078	-1074
203.146	-86
203.214	-372
203.282	-799
203.350	-122
203.418	-254
203.487	410
203.555	-24
203.623	-398
203.691	-42
203.759	-503
203.827	-732
203.895	-341
203.963	-702
204.031	-445
204.099	-398
204.168	-550
204.236	32
204.304	-312
204.372	-275
204.440	-642
204.508	-159
204.576	-312
204.644	59
204.712	-276
204.780	-462
204.848	-338
204.916	299
204.984	-127
205.052	69
205.120	-210
205.188	39
205.256	-519
205.324	-25
205.392	-371
205.460	-40
205.528	-111
205.596	154
205.664	-462
205.732	-64
205.799	1182
205.867	2122
205.935	-298
206.003	226
206.071	-689
206.139	-252
206.207	227
206.275	-491
206.343	-995
206.411	408
206.478	445
206.546	144
206.614	-583
206.682	-441
206.750	-640
206.818	524
206.885	0
206.953	-1184
207.021	118
207.089	240
207.157	-630
207.225	202
207.292	-810
207.360	-13
207.428	-698
207.496	401
207.563	-107
207.631	-13
207.699	-177
207.767	219
207.834	-211
207.902	-600
207.970	2
208.038	-954
208.105	-1009
208.173	219
208.241	-196
208.309	494
208.376	-127
208.444	695
208.512	-456
208.579	-705
208.647	-638
208.715	301
208.782	-358
208.850	262
208.918	-454
208.985	66
209.053	-316
209.120	-426
209.188	62
209.256	-139
209.323	-506
209.391	-266
209.459	1049
209.526	562
209.594	-529
209.661	72
209.729	6
209.796	282
209.864	-374
209.932	-1502
209.999	722
210.067	-201
210.134	-205
210.202	374
210.269	521
210.337	667
210.404	-53
210.472	95
210.539	-216
210.607	-215
210.674	352
210.742	-660
210.809	-292
210.877	-35
210.944	164
211.012	-341
211.079	817
211.146	54
211.214	-596
211.281	-164
211.349	-60
211.416	-139
211.484	558
211.551	-110
211.618	37
211.686	251
211.753	-1216
211.821	261
211.888	195
211.955	405
212.023	477
212.090	255
212.157	-395
212.225	289
212.292	1555
212.359	2426
212.427	5800
212.494	2586
212.561	804
212.629	-59
212.696	-315
212.763	674
212.831	-158
212.898	462
212.965	156
213.032	-265
213.100	-1010
213.167	58
213.234	174
213.301	1091
213.369	52
213.436	-436
213.503	130
213.570	875
213.638	-186
213.705	561
213.772	-630
213.839	1038
213.906	643
213.973	-90
214.041	-382
214.108	1146
214.175	327
214.242	449
214.309	309
214.376	-32
214.444	-516
214.511	170
214.578	420
214.645	-425
214.712	201
214.779	-456
214.846	-776
214.913	825
214.980	85
215.048	668
215.115	-302
215.182	376
215.249	229
215.316	-725
215.383	262
215.450	-311
215.517	20
215.584	-314
215.651	-499
215.718	4
215.785	565
215.852	178
215.919	697
215.986	960
216.053	646
216.120	-230
216.187	-51
216.254	563
216.321	-107
216.388	-329
216.455	461
216.522	17
216.589	171
216.656	918
216.722	357
216.789	-458
216.856	648
216.923	729
216.990	371
217.057	429
217.124	170
217.191	425
217.258	375
217.324	354
217.391	1637
217.458	574
217.525	836
217.592	118
217.659	-637
217.725	208
217.792	-447
217.859	1395
217.926	-326
217.993	137
218.059	1046
218.126	-108
218.193	-10
218.260	54
218.327	-308
218.393	-267
218.460	189
218.527	-506
218.594	-57
218.660	1485
218.727	608
218.794	189
218.860	38
218.927	-458
218.994	182
219.061	488
219.127	215
219.194	187
219.261	495
219.327	87
219.394	388
219.461	-261
219.527	51
219.594	685
219.661	249
219.727	-841
219.794	858
219.860	-1014
219.927	263
219.994	731
220.060	766
220.127	225
220.193	318
220.260	-173
220.326	897
220.393	739
220.460	1795
220.526	771
220.593	597
220.659	1808
220.726	269
220.792	1967
220.859	947
220.925	1653
220.992	2914
221.058	3320
221.125	3532
221.191	2779
221.258	423
221.324	768
221.391	-54
221.457	-72
221.524	116
221.590	889
221.657	2893
221.723	1806
221.789	1360
221.856	1738
221.922	-76
221.989	525
222.055	-108
222.121	-910
222.188	1068
222.254	-233
222.321	-135
222.387	265
222.453	615
222.520	-84
222.586	-385
222.652	560
222.719	-737
222.785	-239
222.851	-285
222.918	402
222.984	-230
223.050	40
223.116	-1581
223.183	1061
223.249	-521
223.315	370
223.382	248
223.448	-448
223.514	-596
223.580	321
223.647	-395
223.713	-368
223.779	-687
223.845	138
223.911	626
223.978	-1168
224.044	632
224.110	-414
224.176	-611
224.242	81
224.309	-783
224.375	256
224.441	-415
224.507	-448
224.573	-799
224.639	578
224.705	-459
224.772	-250
224.838	39
224.904	920
224.970	-158
225.036	-118
225.102	-457
225.168	225
225.234	322
225.300	-66
225.366	-110
225.432	838
225.499	194
225.565	475
225.631	-541
225.697	260
225.763	-115
225.829	460
225.895	-130
225.961	1176
226.027	65
226.093	10
226.159	905
226.225	422
226.291	2255
226.357	5342
226.423	1666
226.489	1290
226.554	309
226.620	756
226.686	790
226.752	1476
226.818	1579
226.884	6165
226.950	7154
227.016	1162
227.082	845
227.148	445
227.214	680
227.279	-6
227.345	108
227.411	830
227.477	-885
227.543	333
227.609	-343
227.674	462
227.740	-517
227.806	182
227.872	-316
227.938	220
228.003	1255
228.069	241
228.135	-66
228.201	184
228.267	169
228.332	362
228.398	-898
228.464	366
228.530	-420
228.595	-190
228.661	600
228.727	-114
228.792	1541
228.858	499
228.924	-969
228.990	1310
229.055	-1223
229.121	910
229.187	-280
229.252	-656
229.318	-594
229.384	698
229.449	-711
229.515	-1274
229.581	-1200
229.646	1032
229.712	2
229.777	727
229.843	602
229.909	650
229.974	608
230.040	907
230.105	244
230.171	411
230.236	397
230.302	2020
230.368	575
230.433	414
230.499	1154
230.564	800
230.630	-12
230.695	362
230.761	748
230.826	-1251
230.892	1087
230.957	111
231.023	614
231.088	940
231.154	380
231.219	864
231.284	-564
231.350	1163
231.415	-801
231.481	1020
231.546	-386
231.612	-34
231.677	100
231.742	-879
231.808	842
231.873	-452
231.939	-1800
232.004	1390
232.069	1206
232.135	-67
232.200	-192
232.265	668
232.331	125
232.396	-540
232.461	-835
232.527	-472
232.592	-745
232.657	-265
232.723	500
232.788	-178
232.853	351
232.918	-231
232.984	-669
233.049	-188
233.114	-118
233.179	1014
233.245	1348
233.310	1803
233.375	-717
233.440	887
233.506	408
233.571	176
233.636	-114
233.701	113
233.766	36
233.832	1617
233.897	-749
233.962	-772
234.027	1187
234.092	79
234.157	-236
234.222	112
234.288	398
234.353	3412
234.418	2997
234.483	1858
234.548	1401
234.613	14
234.678	600
234.743	-220
234.808	3859
234.873	1028
234.938	1299
235.004	306
235.069	205
235.134	646
235.199	1138
235.264	412
235.329	-1352
235.394	663
235.459	1028
235.524	-193
235.589	364
235.654	4
235.719	-1057
235.784	1121
235.849	1
235.913	1467
235.978	1481
236.043	2108
236.108	-102
236.173	486
236.238	1211
236.303	73
236.368	-161
236.433	1630
236.498	1429
236.563	828
236.627	1230
236.692	9426
236.757	6454
236.822	2752
236.887	1532
236.952	2062
237.017	-71
237.081	2021
237.146	676
237.211	3482
237.276	7487
237.341	16779
237.405	5796
237.470	1982
237.535	1957
237.600	1164
237.664	547
237.729	-72
237.794	-51
237.859	2590
237.923	754
237.988	904
238.053	2202
238.118	2050
238.182	4662
238.247	5947
238.312	950
238.376	1205
238.441	-907
238.506	1414
238.570	46
238.635	1454
238.700	-80
238.764	154
238.829	1462
238.893	1748
238.958	948
239.023	1101
239.087	-273
239.152	1142
239.216	253
239.281	148
239.346	1074
239.410	252
239.475	-132
239.539	4909
239.604	3514
239.668	1364
239.733	-296
239.797	1064
239.862	820
239.926	2995
239.991	1573
240.055	296
240.120	-446
240.184	707
240.249	156
240.313	519
240.378	676
240.442	2276
240.507	5029
240.571	1043
240.635	1364
240.700	3006
240.764	362
240.829	570
240.893	-672
240.957	1086
241.022	2630
241.086	5191
241.151	995
241.215	-239
241.279	1858
241.344	2646
241.408	817
241.472	-481
241.537	1393
241.601	1405
241.665	-514
241.730	-658
241.794	1337
241.858	319
241.922	10
241.987	554
242.051	598
242.115	342
242.179	673
242.244	-427
242.308	518
242.372	615
242.436	760
242.501	196
242.565	-75
242.629	294
242.693	1933
242.757	-282
242.822	372
242.886	962
242.950	1223
243.014	-61
243.078	449
243.142	484
243.206	-474
243.271	888
243.335	-712
243.399	1464
243.463	5311
243.527	18447
243.591	5157
243.655	1942
243.719	336
243.783	1313
243.847	1773
243.911	2895
243.975	1254
244.040	559
244.104	2371
244.168	974
244.232	312
244.296	2018
244.360	2085
244.424	-404
244.488	-577
244.552	508
244.615	-1057
244.679	390
244.743	174
244.807	3
244.871	121
244.935	936
244.999	-393
245.063	258
245.127	1033
245.191	1663
245.255	839
245.319	1374
245.383	-399
245.446	1971
245.510	-306
245.574	409
245.638	983
245.702	-1212
245.766	1829
245.829	1781
245.893	-755
245.957	108
246.021	881
246.085	-58
246.149	876
246.212	3609
246.276	4063
246.340	1597
246.404	1138
246.467	1398
246.531	973
246.595	1657
246.659	2173
246.722	200
246.786	220
246.850	1185
246.913	1330
246.977	153
247.041	706
247.104	519
247.168	396
247.232	3079
247.295	6463
247.359	2922
247.423	616
247.486	2300
247.550	1948
247.614	435
247.677	1075
247.741	610
247.804	379
247.868	546
247.932	1984
247.995	6286
248.059	1285
248.122	294
248.186	1625
248.249	2099
248.313	9522
248.376	11384
248.440	7095
248.503	1150
248.567	2413
248.630	2298
248.694	3168
248.757	5053
248.821	10587
248.884	6618
248.948	4968
249.011	8518
249.075	13217
249.138	11597
249.202	3974
249.265	2274
249.328	3704
249.392	1792
249.455	2267
249.519	1395
249.582	779
249.645	3025
249.709	1956
249.772	1258
249.835	1500
249.899	2171
249.962	2489
250.025	810
250.089	4608
250.152	5877
250.215	2905
250.279	1837
250.342	2981
250.405	1964
250.468	2131
250.532	2190
250.595	5562
250.658	14838
250.721	29505
250.785	9493
250.848	5711
250.911	2926
250.974	3621
251.038	3607
251.101	7535
251.164	3352
251.227	4203
251.290	3474
251.354	5665
251.417	22681
251.480	25131
251.543	15201
251.606	44593
251.669	34974
251.732	11720
251.795	10950
251.859	12052
251.922	27362
251.985	16790
252.048	7684
252.111	4497
252.174	3754
252.237	6033
252.300	14240
252.363	15376
252.426	36807
252.489	14249
252.552	7582
252.615	5380
252.678	5194
252.741	10467
252.804	14843
252.867	37439
252.930	21301
252.993	9032
253.056	6864
253.119	4853
253.182	4118
253.245	5942
253.308	5393
253.371	3000
253.434	2851
253.497	3493
253.559	7513
253.622	5103
253.685	4650
253.748	4238
253.811	2255
253.874	4035
253.937	2131
254.000	1749
254.062	3770
254.125	6543
254.188	6406
254.251	4697
254.314	2081
254.376	3333
254.439	4290
254.502	3784
254.565	3541
254.628	7292
254.690	2935
254.753	2422
254.816	1750
254.878	1122
254.941	3780
255.004	5006
255.067	1578
255.129	1431
255.192	991
255.255	637
255.317	1902
255.380	1468
255.443	512
255.505	-18
255.568	8
255.631	853
255.693	273
255.756	-75
255.819	1108
255.881	-417
255.944	-307
256.006	40
256.069	-304
256.132	299
256.194	1535
256.257	3871
256.319	2371
256.382	2068
256.444	1703
256.507	599
256.569	-332
256.632	603
256.694	980
256.757	4237
256.819	13340
256.882	4274
256.944	1647
257.007	1787
257.069	1152
257.132	1121
257.194	1630
257.257	184
257.319	-233
257.381	94
257.444	2420
257.506	14650
257.569	16010
257.631	4021
257.693	2847
257.756	1545
257.818	2151
257.880	416
257.943	1063
258.005	-24
258.067	52
258.130	-19
258.192	592
258.254	1714
258.317	1161
258.379	759
258.441	2081
258.503	2848
258.566	5092
258.628	7400
258.690	639
258.753	770
258.815	2719
258.877	1017
258.939	89
259.001	167
259.064	660
259.126	169
259.188	1495
259.250	1135
259.312	989
259.375	1503
259.437	707
259.499	922
259.561	473
259.623	314
259.685	-21
259.747	1311
259.809	4474
259.872	8753
259.934	14834
259.996	11941
260.058	3704
260.120	628
260.182	876
260.244	644
260.306	200
260.368	1458
260.430	276
260.492	784
260.554	3423
260.616	385
260.678	5949
260.740	9528
260.802	1661
260.864	1295
260.926	-407
260.988	997
261.050	1272
261.112	2552
261.174	10767
261.236	7942
261.298	2002
261.359	4199
261.421	6252
261.483	632
261.545	1300
261.607	-470
261.669	651
261.731	1828
261.793	6277
261.854	994
261.916	1976
261.978	197
262.040	1544
262.102	655
262.164	425
262.225	1680
262.287	916
262.349	1288
262.411	2316
262.472	1273
262.534	2005
262.596	5262
262.658	1881
262.719	138
262.781	1631
262.843	4258
262.904	2618
262.966	996
263.028	1616
263.090	10238
263.151	30990
263.213	9917
263.275	3151
263.336	1514
263.398	1707
263.459	-171
263.521	83
263.583	1818
263.644	782
263.706	291
263.767	-193
263.829	-11
263.891	50
263.952	-1018
264.014	-183
264.075	805
264.137	3174
264.198	1047
264.260	211
264.321	133
264.383	1367
264.444	5244
264.506	1563
264.567	803
264.629	2012
264.690	2808
264.752	1153
264.813	354
264.875	-424
264.936	1165
264.998	-568
265.059	-978
265.120	110
265.182	429
265.243	5094
265.305	4645
265.366	1111
265.427	-69
265.489	797
265.550	-1358
265.611	299
265.673	-993
265.734	-17
265.795	303
265.857	-1581
265.918	-1110
265.979	1681
266.040	10545
266.102	8413
266.163	1730
266.224	1103
266.286	494
266.347	-607
266.408	436
266.469	134
266.530	-951
266.592	107
266.653	107
266.714	1735
266.775	-143
266.836	-133
266.898	-1055
266.959	51
267.020	-586
267.081	532
267.142	-354
267.203	-541
267.264	-955
267.326	823
267.387	-676
267.448	-188
267.509	-495
267.570	-525
267.631	-955
267.692	-328
267.753	189
267.814	-969
267.875	102
267.936	2024
267.997	707
268.058	175
268.119	178
268.180	-597
268.241	-554
268.302	-567
268.363	-717
268.424	-798
268.485	-625
268.546	-596
268.607	-959
268.668	-518
268.729	-515
268.790	-294
268.851	-506
268.912	622
268.972	1337
269.033	-432
269.094	-940
269.155	95
269.216	-292
269.277	-500
269.338	-450
269.398	-424
269.459	-352
269.520	257
269.581	159
269.642	856
269.702	-116
269.763	-557
269.824	-364
269.885	-386
269.945	-137
270.006	-960
270.067	-285
270.128	-64
270.188	-392
270.249	-932
270.310	-167
270.370	-987
270.431	-642
270.492	-923
270.553	-706
270.613	579
270.674	1961
270.734	11
270.795	-8
270.856	142
270.916	-103
270.977	53
271.038	-237
271.098	185
271.159	644
271.219	179
271.280	-14
271.340	-141
271.401	269
271.462	1902
271.522	520
271.583	-408
271.643	153
271.704	602
271.764	314
271.825	1011
271.885	8213
271.946	13360
272.006	3468
272.066	5378
272.127	11915
272.187	2914
272.248	442
272.308	1014
272.369	7307
272.429	5149
272.489	1701
272.550	1603
272.610	1921
272.671	1578
272.731	1962
272.791	3605
272.852	455
272.912	1118
272.972	765
273.033	185
273.093	948
273.153	1015
273.214	343
273.274	1073
273.334	4793
273.394	11260
273.455	3381
273.515	3477
273.575	7888
273.635	3854
273.696	5151
273.756	12018
273.816	4211
273.876	1387
273.936	4902
273.997	10092
274.057	1765
274.117	817
274.177	1857
274.237	12411
274.297	12802
274.358	7381
274.418	8054
274.478	5893
274.538	1632
274.598	1924
274.658	8042
274.718	10974
274.778	2826
274.838	1615
274.898	3350
274.958	14780
275.018	12652
275.078	8635
275.138	2155
275.198	1375
275.258	228
275.318	1222
275.378	1428
275.438	2332
275.498	1445
275.558	5539
275.618	13655
275.678	7619
275.738	3139
275.798	3018
275.858	1097
275.918	1125
275.978	525
276.038	705
276.098	174
276.157	772
276.217	5910
276.277	1903
276.337	831
276.397	690
276.457	861
276.517	340
276.576	537
276.636	676
276.696	693
276.756	2923
276.815	2319
276.875	1172
276.935	527
276.995	1505
277.055	348
277.114	804
277.174	788
277.234	5173
277.293	2163
277.353	473
277.413	313
277.472	910
277.532	759
277.592	774
277.651	5645
277.711	13579
277.771	3680
277.830	13186
277.890	12719
277.950	8192
278.009	28553
278.069	11605
278.128	8249
278.188	13888
278.248	4988
278.307	12147
278.367	9620
278.426	2772
278.486	1041
278.545	18
278.605	1267
278.664	690
278.724	818
278.783	5114
278.843	13618
278.902	4278
278.962	1459
279.021	1839
279.081	3168
279.140	3268
279.199	1906
279.259	1827
279.318	1947
279.378	2635
279.437	5153
279.496	16852
279.556	68157
279.615	68023
279.675	16006
279.734	8167
279.793	8944
279.853	11441
279.912	4701
279.971	2940
280.031	2264
280.090	3682
280.149	6018
280.208	9813
280.268	47989
280.327	61926
280.386	13728
280.445	7558
280.505	7035
280.564	3836
280.623	2669
280.682	3690
280.742	4434
280.801	1722
280.860	950
280.919	57
280.978	776
281.037	463
281.097	327
281.156	882
281.215	332
281.274	745
281.333	6697
281.392	7410
281.451	1576
281.510	530
281.569	531
281.628	519
281.688	255
281.747	690
281.806	943
281.865	445
281.924	-91
281.983	272
282.042	-66
282.101	242
282.160	200
282.219	-160
282.278	104
282.337	2300
282.396	2056
282.454	673
282.513	955
282.572	4719
282.631	2743
282.690	369
282.749	-293
282.808	754
282.867	879
282.926	784
282.985	57
283.043	-174
283.102	-308
283.161	381
283.220	2401
283.279	7824
283.338	1945
283.396	246
283.455	638
283.514	855
283.573	1464
283.631	1201
283.690	550
283.749	-58
283.808	1291
283.866	2202
283.925	236
283.984	281
284.043	800
284.101	1358
284.160	282
284.219	1992
284.277	835
284.336	2234
284.395	7188
284.453	8393
284.512	2415
284.570	2035
284.629	2286
284.688	2130
284.746	2490
284.805	3023
284.863	4288
284.922	5624
284.981	5011
285.039	7977
285.098	14568
285.156	39639
285.215	104716
285.273	112005
285.332	51188
285.390	24281
285.449	13081
285.507	9779
285.566	6975
285.624	5961
285.683	3172
285.741	2773
285.799	2677
285.858	2222
285.916	897
285.975	1430
286.033	505
286.091	1322
286.150	772
286.208	963
286.267	1638
286.325	588
286.383	1456
286.442	2021
286.500	143
286.558	636
286.616	-397
286.675	676
286.733	1270
286.791	584
286.850	1308
286.908	1157
286.966	2347
287.024	1647
287.083	-682
287.141	187
287.199	392
287.257	870
287.315	897
287.374	796
287.432	3234
287.490	1619
287.548	1042
287.606	579
287.664	801
287.723	1916
287.781	2189
287.839	1519
287.897	1310
287.955	2452
288.013	4066
288.071	11538
288.129	41570
288.187	130656
288.245	67003
288.303	18458
288.361	9009
288.419	7671
288.477	5261
288.535	3473
288.593	2918
288.651	1545
288.709	922
288.767	477
288.825	124
288.883	766
288.941	1124
288.999	285
289.057	254
289.115	669
289.173	-68
289.231	938
289.289	89
289.346	807
289.404	-156
289.462	1515
289.520	739
289.578	-511
289.636	-655
289.694	-289
289.751	-19
289.809	-101
289.867	-377
289.925	-195
289.983	-147
290.040	480
290.098	-297
290.156	209
290.214	311
290.271	-184
290.329	586
290.387	-62
290.444	-977
290.502	-853
290.560	-310
290.617	-138
290.675	-232
290.733	281
290.790	-118
290.848	484
290.906	-34
290.963	373
291.021	354
291.078	-91
291.136	260
291.194	2465
291.251	9140
291.309	3092
291.366	-410
291.424	-413
291.481	-231
291.539	-306
291.596	93
291.654	188
291.711	-1131
291.769	-42
291.826	1182
291.884	632
291.941	-459
291.999	-584
292.056	42
292.114	-235
292.171	-129
292.228	-38
292.286	180
292.343	1134
292.401	1607
292.458	1068
292.515	279
292.573	563
292.630	-61
292.687	966
292.745	295
292.802	565
292.859	4514
292.917	7514
292.974	5717
293.031	526
293.089	296
293.146	802
293.203	689
293.260	-243
293.318	-324
293.375	1161
293.432	803
293.489	-375
293.546	-315
293.604	792
293.661	5249
293.718	18129
293.775	10437
293.832	3703
293.889	1865
293.947	1312
294.004	372
294.061	929
294.118	3358
294.175	8608
294.232	12516
294.289	5543
294.346	1568
294.403	1806
294.460	1351
294.517	1152
294.574	-184
294.631	643
294.688	374
294.745	4168
294.802	18860
294.859	24774
294.916	8436
294.973	2617
295.030	2359
295.087	2483
295.144	432
295.201	1716
295.258	593
295.315	1991
295.372	5768
295.429	15619
295.486	7113
295.542	4080
295.599	7548
295.656	17335
295.713	10998
295.770	14599
295.827	5838
295.883	2155
295.940	1352
295.997	2427
296.054	2769
296.111	1099
296.167	778
296.224	-128
296.281	145
296.338	-304
296.394	-587
296.451	190
296.508	4392
296.564	10544
296.621	7316
296.678	14167
296.734	25000
296.791	9877
296.848	3933
296.904	2683
296.961	6162
297.018	15504
297.074	13575
297.131	4990
297.187	3257
297.244	5296
297.301	14684
297.357	35278
297.414	14853
297.470	4972
297.527	2416
297.583	1527
297.640	1649
297.696	1614
297.753	592
297.809	790
297.866	-216
297.922	-2
297.979	334
298.035	140
298.092	1236
298.148	7178
298.204	9299
298.261	4836
298.317	5950
298.374	20191
298.430	14217
298.486	5974
298.543	3242
298.599	1948
298.656	2005
298.712	5245
298.768	15612
298.824	15755
298.881	4991
298.937	2257
298.993	1611
299.050	1204
299.106	1382
299.162	1725
299.218	1046
299.275	333
299.331	1824
299.387	4465
299.443	15309
299.500	20241
299.556	6954
299.612	2943
299.668	1483
299.724	1393
299.780	1261
299.837	1546
299.893	2745
299.949	10912
300.005	15752
300.061	12883
300.117	25152
300.173	15258
300.229	5462
300.285	3554
300.341	4791
300.397	3191
300.453	1192
300.510	1156
300.566	551
300.622	1092
300.678	2802
300.734	8290
300.790	12589
300.845	18983
300.901	12232
300.957	10006
301.013	10696
301.069	3618
301.125	1798
301.181	2100
301.237	1108
301.293	695
301.349	228
301.405	207
301.461	-85
301.516	697
301.572	-73
301.628	1860
301.684	2766
301.740	4528
301.796	9198
301.851	5725
301.907	8264
301.963	12042
302.019	17875
302.074	50616
302.130	59402
302.186	29752
302.242	9883
302.297	5987
302.353	4142
302.409	8623
302.464	10034
302.520	8074
302.576	16200
302.631	23412
302.687	11916
302.743	4558
302.798	2832
302.854	908
302.910	1675
302.965	2576
303.021	3888
303.076	4402
303.132	4310
303.187	5561
303.243	3484
303.299	1281
303.354	1190
303.410	1348
303.465	81
303.521	528
303.576	1606
303.632	2265
303.687	4107
303.743	16189
303.798	18149
303.853	8025
303.909	2686
303.964	1537
304.020	2798
304.075	4649
304.130	4027
304.186	6909
304.241	8540
304.297	5912
304.352	3254
304.358	3072
304.407	1598
304.449	1492
304.463	1460
304.518	1145
304.539	1152
304.573	1158
304.629	2098
304.630	2139
304.684	4064
304.720	9163
304.739	11724
304.794	21998
304.811	19649
304.850	13870
304.902	5849
304.905	5339
304.960	2818
304.992	2005
305.015	1397
305.071	1944
305.083	1763
305.126	1105
305.173	1454
305.181	1532
305.236	102
305.264	734
305.292	1292
305.347	1579
305.354	1535
305.402	1357
305.445	1120
305.457	1052
305.512	1974
305.535	2162
305.567	2426
305.622	3388
305.626	3505
305.678	6540
305.716	13128
305.733	15409
305.788	23041
305.807	20439
305.843	16208
305.897	17450
305.898	17437
305.953	20617
305.988	14589
306.008	11386
306.063	5330
306.078	4675
306.118	3271
306.168	2611
306.173	2562
306.228	1873
306.259	1525
306.283	1218
306.338	1465
306.349	1384
306.393	1065
306.440	1706
306.448	1869
306.503	2962
306.530	3106
306.558	4000
306.613	10198
306.620	11160
306.668	16393
306.711	18248
306.723	18137
306.778	16043
306.801	12289
306.833	8023
306.888	3603
306.892	3479
306.943	2561
306.982	2169
306.997	2074
307.052	2398
307.072	2454
307.107	2880
307.162	4536
307.163	4564
307.217	8163
307.253	10413
307.272	10692
307.327	11513
307.343	10594
307.381	8929
307.434	6477
307.436	6553
307.491	12465
307.524	18840
307.546	20454
307.600	19117
307.614	16926
307.655	11026
307.704	5534
307.710	5275
307.765	6950
307.795	8845
307.819	10697
307.874	19019
307.885	19448
307.929	16306
307.975	9199
307.984	8612
308.038	8452
308.065	10148
308.093	17449
308.148	36316
308.156	41114
308.202	66618
308.246	90922
308.257	90940
308.312	50672
308.336	34395
308.366	24219
308.421	15003
308.426	14360
308.475	9583
308.517	6780
308.530	6147
308.585	5299
308.607	4988
308.639	5121
308.694	6575
308.697	6694
308.748	14557
308.787	23714
308.803	23777
308.857	19460
308.877	15650
308.912	11567
308.967	8062
308.967	8043
309.021	9798
309.058	11871
309.076	14420
309.130	25299
309.148	29769
309.185	59236
309.238	109392
309.239	109706
309.293	132378
309.328	124409
309.348	109422
309.402	49568
309.418	35522
309.457	22674
309.508	13596
309.511	13296
309.566	12469
309.598	12988
309.620	16014
309.674	25412
309.688	28274
309.729	26734
309.778	20313
309.783	19786
309.837	12391
309.868	9208
309.892	10151
309.946	13955
309.959	15417
310.001	19831
310.049	24301
310.055	23623
310.109	15325
310.139	9465
310.163	7155
310.218	4253
310.229	3816
310.272	3589
310.319	3852
310.326	3795
310.381	3312
310.409	3085
310.435	3018
310.489	2909
310.499	2912
310.543	3334
310.589	3872
310.598	3843
310.652	3653
310.679	3408
310.706	2954
310.760	1992
310.769	1842
310.814	1545
310.859	1542
310.868	1592
310.923	1568
310.948	1668
310.977	1930
311.031	2539
311.038	2603
311.085	2463
311.128	2158
311.139	2133
311.193	2221
311.218	2192
311.247	2246
311.301	2427
311.308	2442
311.356	2166
311.398	1929
311.410	1948
311.464	2010
311.488	2005
311.518	1704
311.572	1182
311.578	1130
311.626	1722
311.668	2260
311.680	2485
311.734	3398
311.758	3820
311.788	3578
311.842	3114
311.847	3064
311.896	4150
311.937	5109
311.950	4952
312.004	4263
312.027	3941
312.058	3329
312.112	2248
312.117	2145
312.165	1938
312.207	1770
312.297	3475
312.386	2546
312.476	1730
312.566	4357
312.656	2279
312.745	1209
312.835	1512
312.925	2252
313.015	1837
313.104	2648
313.194	1433
313.284	1255
313.374	1853
313.463	2242
313.553	2062
313.643	1015
313.732	2079
313.822	787
313.912	1609
314.001	1744
314.091	1941
314.180	2696
314.270	3215
314.360	3245
314.449	2480
314.539	1754
314.628	1503
314.718	1905
314.808	3355
314.897	1697
314.987	1412
315.076	1762
315.166	2907
315.255	3008
315.345	2931
315.434	2957
315.524	2771
315.613	3100
315.703	2887
315.792	2821
315.881	4076
315.971	2901
316.060	6210
316.150	12895
316.239	13645
316.328	4456
316.418	2198
316.507	1713
316.597	3340
316.686	2851
316.775	5589
316.865	14888
316.954	2591
317.043	577
317.133	1074
317.222	998
317.311	1777
317.400	810
317.490	2639
317.579	1731
317.668	1486
317.757	1588
317.847	2894
317.936	6102
318.025	5819
318.114	2913
318.203	2416
318.293	3430
318.382	6693
318.471	5904
318.560	9290
318.649	25913
318.738	5562
318.828	3464
318.917	3610
319.006	5936
319.095	14410
319.184	33755
319.273	15620
319.362	5972
319.451	2577
319.540	2814
319.629	4696
319.718	8463
319.807	5169
319.896	9946
319.985	40587
320.074	12667
320.163	3632
320.252	8275
320.341	5344
320.430	4446
320.519	4372
320.608	2324
320.697	2408
320.786	2394
320.875	3159
320.964	4226
321.053	5272
321.142	7073
321.230	8232
321.319	6820
321.408	14628
321.497	6950
321.586	7218
321.675	12100
321.764	10797
321.852	6350
321.941	8998
322.030	5498
322.119	7152
322.207	17066
322.296	18513
322.385	6782
322.474	7039
322.562	17038
322.651	9310
322.740	6616
322.829	11527
322.917	18612
323.006	6840
323.095	5288
323.183	5454
323.272	9406
323.361	16611
323.449	59846
323.538	19222
323.626	39794
323.715	23473
323.804	10234
323.892	36946
323.981	17959
324.069	6630
324.158	21850
324.246	19815
324.335	3746
324.424	6059
324.512	2147
324.601	2068
324.689	2607
324.778	5703
324.866	11908
324.954	4382
325.043	2531
325.131	6766
325.220	17244
325.308	18183
325.397	12074
325.485	6584
325.574	1509
325.662	1487
325.750	948
325.839	1856
325.927	1106
326.015	2274
326.104	6392
326.192	9216
326.280	1892
326.369	1375
326.457	2512
326.545	4304
326.634	2044
326.722	742
326.810	1430
326.898	823
326.987	1468
327.075	3436
327.163	7160
327.251	2550
327.340	1442
327.428	1648
327.516	908
327.604	1063
327.692	2198
327.781	3441
327.869	6239
327.957	3426
328.045	1270
328.133	1112
328.221	1942
328.309	1557
328.397	1008
328.485	2124
328.574	1997
328.662	8530
328.750	7194
328.838	3155
328.926	1310
329.014	1300
329.102	2485
329.190	5886
329.278	3050
329.366	940
329.454	1854
329.542	937
329.630	-6
329.718	1185
329.806	1686
329.893	1818
329.981	507
330.069	1013
330.157	3220
330.245	11053
330.333	5670
330.421	1784
330.509	2938
330.597	9414
330.684	7092
330.772	3114
330.860	5594
330.948	6612
331.036	2536
331.123	842
331.211	1696
331.299	1217
331.387	4766
331.475	8653
331.562	2754
331.650	1081
331.738	2453
331.825	4248
331.913	792
332.001	1883
332.089	2214
332.176	7044
332.264	20583
332.352	13246
332.439	3003
332.527	1798
332.614	2262
332.702	3706
332.790	2766
332.877	7976
332.965	19254
333.052	4366
333.140	3214
333.228	9221
333.315	2486
333.403	2497
333.490	11273
333.578	8857
333.665	9592
333.753	4112
333.840	589
333.928	3942
334.015	12388
334.103	16818
334.190	50602
334.278	11000
334.365	4183
334.452	3167
334.540	1442
334.627	3311
334.715	5350
334.802	13566
334.889	72258
334.977	66020
335.064	6626
335.151	1983
335.239	2994
335.326	4589
335.413	21628
335.501	28839
335.588	3021
335.675	2105
335.762	3018
335.850	5600
335.937	3716
336.024	13435
336.111	67824
336.199	22184
336.286	3193
336.373	1463
336.460	752
336.547	762
336.635	2305
336.722	2020
336.809	2359
336.896	2868
336.983	11914
337.070	29555
337.157	48626
337.245	46617
337.332	33159
337.419	3057
337.506	1800
337.593	2679
337.680	9575
337.767	27881
337.854	6297
337.941	8611
338.028	15480
338.115	3934
338.202	4938
338.289	12887
338.376	46690
338.463	12979
338.550	16080
338.637	18006
338.724	8799
338.811	15611
338.898	2894
338.984	954
339.071	1944
339.158	2287
339.245	5566
339.332	3797
339.419	9873
339.506	8338
339.593	138
339.679	1481
339.766	436
339.853	1520
339.940	3501
340.027	1815
340.113	905
340.200	1981
340.287	1536
340.374	2157
340.460	3247
340.547	-56
340.634	2850
340.720	10621
340.807	5492
340.894	941
340.980	839
341.067	1209
341.154	2310
341.240	1715
341.327	4092
341.414	1094
341.500	811
341.587	1404
341.674	1394
341.760	3074
341.847	3380
341.933	1315
342.020	-31
342.106	132
342.193	907
342.279	2168
342.366	1214
342.452	3126
342.539	1449
342.625	4468
342.712	10290
342.798	3237
342.885	1100
342.971	145
343.058	265
343.144	348
343.230	809
343.317	524
343.403	586
343.490	820
343.576	420
343.662	729
343.749	740
343.835	1295
343.921	4427
344.008	31014
344.094	70640
344.180	14059
344.267	4870
344.353	16703
344.439	19027
344.525	5278
344.612	2192
344.698	1542
344.784	1214
344.870	517
344.957	1046
345.043	2022
345.129	432
345.215	3223
345.301	668
345.387	569
345.474	-40
345.560	431
345.646	834
345.732	977
345.818	1252
345.904	1130
345.990	1871
346.076	2554
346.162	4994
346.249	2009
346.335	136
346.421	1678
346.507	6507
346.593	25051
346.679	4950
346.765	1641
346.851	1074
346.937	466
347.023	805
347.108	645
347.194	1382
347.280	1007
347.366	1619
347.452	6413
347.538	30793
347.624	21073
347.710	17047
347.796	2724
347.882	634
347.967	848
348.053	1872
348.139	406
348.225	554
348.311	728
348.397	200
348.482	2147
348.568	896
348.654	312
348.740	367
348.825	-728
348.911	2956
348.997	14309
349.083	29670
349.168	4562
349.254	278
349.340	423
349.425	342
349.511	1116
349.597	1446
349.682	3419
349.768	14227
349.854	5517
349.939	1228
350.025	678
350.110	1522
350.196	240
350.282	-496
350.367	1109
350.453	3642
350.538	3040
350.624	960
350.709	1858
350.795	-52
350.880	54
350.966	1520
351.051	2592
351.137	2467
351.222	1047
351.308	4184
351.393	10660
351.479	1675
351.564	-225
351.649	1549
351.735	509
351.820	-225
351.906	151
351.991	709
352.076	7124
352.162	9544
352.247	1663
352.332	676
352.418	1094
352.503	2675
352.588	15500
352.673	12198
352.759	2100
352.844	668
352.929	966
353.014	855
353.100	1091
353.185	1508
353.270	2797
353.355	3010
353.441	1337
353.526	2097
353.611	3578
353.696	2238
353.781	2448
353.866	114
353.952	1371
354.037	1929
354.122	7824
354.207	6454
354.292	2122
354.377	272
354.462	496
354.547	1518
354.632	2063
354.717	1714
354.802	678
354.887	117
354.972	757
355.057	-70
355.142	206
355.227	899
355.312	2041
355.397	4756
355.482	11572
355.567	4379
355.652	3645
355.737	4618
355.822	16889
355.907	11767
355.991	2926
356.076	449
356.161	881
356.246	166
356.331	1066
356.416	3510
356.501	35037
356.585	32710
356.670	3226
356.755	3058
356.840	3765
356.924	20728
357.009	81053
357.094	27452
357.179	4659
357.263	2348
357.348	3653
357.433	3264
357.517	2159
357.602	1642
357.687	662
357.771	1180
357.856	2220
357.941	3288
358.025	17436
358.110	83420
358.195	33789
358.279	4189
358.364	2813
358.448	10170
358.533	29170
358.617	19523
358.702	19621
358.787	6194
358.871	3605
358.956	2589
359.040	705
359.125	717
359.209	477
359.294	597
359.378	531
359.462	1723
359.547	1388
359.631	1595
359.716	-298
359.800	508
359.885	2902
359.969	308
360.053	833
360.138	311
360.222	1283
360.306	3387
360.391	2791
360.475	3356
360.559	6815
360.644	9258
360.728	6190
360.812	18702
360.896	51567
360.981	17382
361.065	6910
361.149	2084
361.233	2100
361.318	264
361.402	1283
361.486	2114
361.570	763
361.654	2084
361.739	5397
361.823	32510
361.907	51277
361.991	6585
362.075	3069
362.159	6254
362.243	4376
362.327	1995
362.411	4128
362.495	2113
362.580	1292
362.664	1255
362.748	81
362.832	214
362.916	946
363.000	5359
363.084	28480
363.168	55960
363.252	10203
363.336	3306
363.420	5753
363.503	29389
363.587	33489
363.671	4857
363.755	1883
363.839	3526
363.923	465
364.007	3227
364.091	4769
364.175	8992
364.258	47338
364.342	19411
364.426	6373
364.510	2261
364.594	5144
364.677	8496
364.761	44177
364.845	29464
364.929	6520
365.013	4518
365.096	4610
365.180	5326
365.264	12017
365.347	50826
365.431	18479
365.515	3166
365.598	154
365.682	1839
365.766	3548
365.849	3388
365.933	1857
366.017	3513
366.100	2161
366.184	-78
366.267	1317
366.351	1069
366.435	253
366.518	-465
366.602	196
366.685	446
366.769	1128
366.852	3021
366.936	5076
367.019	1548
367.103	1057
367.186	5254
367.270	815
367.353	-1433
367.436	628
367.520	-740
367.603	438
367.687	796
367.770	3410
367.853	2217
367.937	10739
368.020	17393
368.104	2738
368.187	3820
368.270	4391
368.353	3114
368.437	9801
368.520	30977
368.603	13087
368.687	11577
368.770	22292
368.853	4540
368.936	4678
369.020	5022
369.103	459
369.186	544
369.269	42
369.352	2725
369.436	4425
369.519	2600
369.602	-448
369.685	2435
369.768	327
369.851	1255
369.934	413
370.018	775
370.101	1586
370.184	4652
370.267	1723
370.350	3346
370.433	6345
370.516	20018
370.599	23465
370.682	3477
370.765	9853
370.848	14220
370.931	28833
371.014	10864
371.097	874
371.180	1186
371.263	1241
371.346	-1176
371.429	955
371.511	10
371.594	2375
371.677	4383
371.760	5512
371.843	4036
371.926	26207
372.009	61973
372.091	17724
372.174	12032
372.257	32927
372.340	10433
372.423	7299
372.505	9354
372.588	3217
372.671	9073
372.754	28372
372.836	13191
372.919	13188
373.002	25785
373.085	5605
373.167	5106
373.250	10239
373.332	28369
373.415	42343
373.498	90242
373.580	27998
373.663	37095
373.746	52378
373.828	9757
373.911	4776
373.993	5381
374.076	26156
374.159	24191
374.241	8335
374.324	22459
374.406	15112
374.489	25338
374.571	73874
374.654	24970
374.736	12849
374.819	45033
374.901	65778
374.983	67098
375.066	9302
375.148	3230
375.231	21651
375.313	40417
375.395	11009
375.478	2064
375.560	2270
375.643	2895
375.725	12357
375.807	59975
375.890	53701
375.972	25295
376.054	12172
376.136	25179
376.219	8213
376.301	15703
376.383	47635
376.465	16050
376.548	7689
376.630	11631
376.712	37360
376.794	14743
376.877	1545
376.959	338
377.041	1891
377.123	4119
377.205	4899
377.287	321
377.369	471
377.452	58
377.534	631
377.616	789
377.698	1100
377.780	-340
377.862	343
377.944	1026
378.026	-694
378.108	367
378.190	1014
378.272	995
378.354	-76
378.436	-110
378.518	1384
378.600	7796
378.682	6654
378.764	14696
378.846	10618
378.928	2696
379.010	1969
379.091	2192
379.173	882
379.255	273
379.337	1538
379.419	8000
379.501	22192
379.583	7863
379.664	2064
379.746	4132
379.828	14806
379.910	18716
379.991	17106
380.073	1801
380.155	1405
380.237	612
380.318	547
380.400	256
380.482	3580
380.564	4006
380.645	2932
380.727	2512
380.809	3227
380.890	1788
380.972	-276
381.053	864
381.135	1170
381.217	5042
381.298	15617
381.380	6633
381.461	6372
381.543	38130
381.624	43277
381.706	6748
381.787	3058
381.869	3953
381.951	16791
382.032	71622
382.113	41634
382.195	5045
382.276	5236
382.358	10029
382.439	33754
382.521	40274
382.602	67039
382.684	26224
382.765	43344
382.846	47261
382.928	77076
383.009	37720
383.090	25465
383.172	109553
383.253	170004
383.334	51901
383.416	53696
383.497	26016
383.578	10232
383.659	21116
383.741	90757
383.822	258550
383.903	119763
383.984	35430
384.066	57918
384.147	31831
384.228	7015
384.309	3986
384.390	3386
384.471	1912
384.553	2040
384.634	3906
384.715	5076
384.796	1934
384.877	2062
384.958	14007
385.039	14066
385.120	4256
385.201	2723
385.282	3018
385.363	4183
385.444	2830
385.525	6057
385.606	26196
385.687	22275
385.768	4341
385.849	5260
385.930	31004
386.011	54739
386.092	11836
386.173	2527
386.254	1755
386.335	2726
386.416	2168
386.496	8726
386.577	14162
386.658	5152
386.739	2299
386.820	4704
386.901	2208
386.981	1584
387.062	576
387.143	1927
387.224	14707
387.304	12763
387.385	4453
387.466	951
387.547	3398
387.627	464
387.708	5333
387.789	28914
387.869	33246
387.950	8669
388.031	916
388.111	-1174
388.192	5157
388.273	8671
388.353	3908
388.434	2464
388.514	5305
388.595	33364
388.676	38476
388.756	13649
388.837	13114
388.917	6443
388.998	-229
389.078	1827
389.159	1616
389.239	-70
389.320	3725
389.400	-175
389.480	5772
389.561	16476
389.641	7630
389.722	2320
389.802	2518
389.883	6930
389.963	22428
390.043	14633
390.124	4072
390.204	5345
390.284	15962
390.365	9844
390.445	19956
390.525	66028
390.605	51016
390.686	9143
390.766	2204
390.846	1523
390.927	-529
391.007	181
391.087	1632
391.167	823
391.247	-38
391.328	4841
391.408	6217
391.488	2890
391.568	-438
391.648	1102
391.728	2508
391.808	2287
391.888	1080
391.969	7525
392.049	12271
392.129	5900
392.209	5977
392.289	18714
392.369	9118
392.449	9239
392.529	3886
392.609	3247
392.689	4542
392.769	17903
392.849	13663
392.929	10172
393.009	25979
393.089	15157
393.169	6318
393.248	19900
393.328	129923
393.408	136489
393.488	21902
393.568	4995
393.648	2742
393.728	1583
393.807	762
393.887	2284
393.967	1404
394.047	2029
394.127	2346
394.206	5494
394.286	23864
394.366	139139
394.446	141577
394.525	22621
394.605	4476
394.685	4538
394.764	14178
394.844	23750
394.924	14694
395.003	2499
395.083	1658
395.163	1739
395.242	1234
395.322	1484
395.402	441
395.481	3307
395.561	8455
395.640	25352
395.720	16127
395.799	32549
395.879	22772
395.958	8108
396.038	34815
396.117	177691
396.197	182791
396.276	39955
396.356	11073
396.435	7881
396.515	4229
396.594	2814
396.673	5958
396.753	31375
396.832	128974
396.912	88069
396.991	15677
397.070	4314
397.150	152
397.229	2007
397.308	375
397.388	1189
397.467	1082
397.546	696
397.625	-2076
397.705	2413
397.784	1100
397.863	301
397.942	53
398.022	468
398.101	7706
398.180	29102
398.259	12302
398.338	2635
398.417	483
398.497	520
398.576	1094
398.655	-841
398.734	328
398.813	922
398.892	8633
398.971	31924
399.050	14225
399.129	269
399.208	269
399.287	413
399.366	-229
399.445	87
399.524	112
399.603	-1297
399.682	2036
399.761	7436
399.840	34627
399.919	24577
399.998	1668
400.077	-975
400.156	-895
400.235	1878
400.313	-495
400.392	386
400.471	6614
400.550	11072
400.629	1422
400.708	664
400.786	187
400.865	4166
400.944	3807
401.023	2570
401.102	-894
401.180	-474
401.259	811
401.338	198
401.416	1223
401.495	124
401.574	1032
401.652	-417
401.731	1522
401.810	-750
401.888	184
401.967	-1256
402.046	-244
402.124	1309
402.203	-34
402.281	901
402.360	300
402.438	7332
402.517	3121
402.596	490
402.674	265
402.753	-881
402.831	702
402.910	491
402.988	835
403.066	3324
403.145	2645
403.223	1913
403.302	1976
403.380	2100
403.459	614
403.537	-86
403.615	-575
403.694	-1468
403.772	650
403.850	-151
403.929	86
404.007	-1369
404.085	1405
404.164	-1042
404.242	-848
404.320	3244
404.398	10243
404.477	14376
404.555	48854
404.633	41952
404.711	9512
404.789	3204
404.868	-276
404.946	-756
405.024	-652
405.102	-277
405.180	-327
405.258	-1762
405.336	21
405.415	-12
405.493	1528
405.571	896
405.649	-940
405.727	-1495
405.805	1548
405.883	430
405.961	775
406.039	905
406.117	-1677
406.195	1922
406.273	7900
406.351	37927
406.429	20410
406.507	1516
406.585	-864
406.663	290
406.740	768
406.818	-143
406.896	-225
406.974	1296
407.052	890
407.130	20853
407.208	27772
407.285	4603
407.363	-876
407.441	317
407.519	-572
407.596	328
407.674	470
407.752	1601
407.830	5203
407.907	2615
407.985	-425
408.063	-100
408.141	-1096
408.218	1036
408.296	-445
408.373	-482
408.451	-242
408.529	195
408.606	-817
408.684	-636
408.762	-539
408.839	-1090
408.917	-1140
408.994	-773
409.072	-1247
409.149	-1233
409.227	-1117
409.304	-612
409.382	-1007
409.459	-287
409.537	-15
409.614	-657
409.692	-888
409.769	-1103
409.846	-1043
409.924	-53
410.001	-1705
410.079	-404
410.156	456
410.233	-412
410.311	-525
410.388	-654
410.465	-672
410.543	-957
410.620	178
410.697	318
410.775	-1051
410.852	-1915
410.929	384
411.006	1077
411.083	-306
411.161	660
411.238	1567
411.315	658
411.392	-1341
411.469	486
411.547	-274
411.624	-1773
411.701	-946
411.778	13
411.855	635
411.932	-925
412.009	-607
412.086	-124
412.163	-310
412.240	428
412.317	1210
412.394	-248
412.471	214
412.548	-547
412.625	-574
412.702	72
412.779	181
412.856	4
412.933	-588
413.010	134
413.087	1375
413.164	5191
413.241	8198
413.318	556
413.395	644
413.471	891
413.548	190
413.625	81
413.702	-1070
413.779	-409
413.855	-721
413.932	-935
414.009	-1476
414.086	-418
414.162	350
414.239	295
414.316	6436
414.393	15230
414.469	2972
414.546	-184
414.623	-538
414.699	-787
414.776	-591
414.853	-515
414.929	-342
415.006	-359
415.082	135
415.159	27
415.236	-76
415.312	605
415.389	539
415.465	121
415.542	-152
415.618	-1047
415.695	-251
415.771	-259
415.848	-685
415.924	-263
416.000	-390
416.077	32
416.153	-1945
416.230	-1426
416.306	-478
416.383	-63
416.459	513
416.535	-445
416.612	-905
416.688	-608
416.764	-918
416.841	-649
416.917	-531
416.993	-200
417.069	-78
417.146	417
417.222	467
417.298	-66
417.374	-812
417.451	-315
417.527	-442
417.603	-88
417.679	-1041
417.755	-99
417.831	-724
417.908	-1510
417.984	-414
418.060	-1154
418.136	1197
418.212	1117
418.288	26
418.364	-315
418.440	-1427
418.516	202
418.592	585
418.668	2010
418.744	2715
418.820	2076
418.896	-147
418.972	-1128
419.048	-947
419.124	1454
419.200	-328
419.276	-694
419.352	-1340
419.428	-275
419.504	-430
419.579	-79
419.655	-935
419.731	-320
419.807	2059
419.883	4033
419.959	2698
420.034	276
420.110	538
420.186	8492
420.262	6058
420.337	-221
420.413	67
420.489	-499
420.565	-1013
420.640	-487
420.716	-269
420.792	-1425
420.867	-284
420.943	-1765
421.019	-22
421.094	-687
421.170	-774
421.245	-1443
421.321	-394
421.397	-1452
421.472	-738
421.548	-436
421.623	-216
421.699	-757
421.774	-465
421.850	-1428
421.925	-58
422.001	581
422.076	-599
422.152	-339
422.227	492
422.302	694
422.378	2
422.453	1482
422.529	4861
422.604	32042
422.679	80339
422.755	35063
422.830	4677
422.905	753
422.981	357
423.056	-1252
423.131	-325
423.207	-538
423.282	-750
423.357	1327
423.432	597
423.508	746
423.583	2741
423.658	1888
423.733	449
423.808	-469
423.883	963
423.959	-99
424.034	-1675
424.109	-106
424.184	-1871
424.259	-1078
424.334	-985
424.409	-1732
424.484	-1353
424.559	-646
424.634	-882
424.709	-153
424.784	268
424.859	125
424.934	-124
425.009	5810
425.084	10601
425.159	2974
425.234	-68
425.309	-1593
425.384	-651
425.459	-1210
425.534	-301
425.609	-776
425.683	-690
425.758	-1087
425.833	-354
425.908	145
425.983	2327
426.058	11389
426.132	4165
426.207	-49
426.282	1836
426.357	508
426.431	-348
426.506	-795
426.581	-587
426.655	-208
426.730	-778
426.805	-1884
426.879	-552
426.954	-324
427.029	1679
427.103	11686
427.178	33158
427.253	14291
427.327	956
427.402	454
427.476	2266
427.551	-619
427.625	58
427.700	159
427.774	-918
427.849	204
427.923	-927
427.998	-993
428.072	-661
428.147	449
428.221	3605
428.296	8256
428.370	2071
428.444	315
428.519	1804
428.593	5354
428.667	4729
428.742	5054
428.816	4086
428.890	8808
428.965	8846
429.039	4668
429.113	6207
429.188	1383
429.262	-192
429.336	793
429.410	4497
429.485	2932
429.559	4382
429.633	2819
429.707	-35
429.781	1436
429.855	13354
429.930	19431
430.004	16824
430.078	31512
430.152	23422
430.226	12723
430.300	12380
430.374	1262
430.448	680
430.522	9235
430.596	31548
430.670	17896
430.744	20413
430.818	36685
430.892	8252
430.966	396
431.040	-154
431.114	-956
431.188	-1523
431.262	-670
431.336	-693
431.410	2740
431.484	6771
431.557	4922
431.631	-158
431.705	-434
431.779	-443
431.853	5625
431.927	3802
432.000	106
432.074	-259
432.148	49
432.222	-696
432.295	-886
432.369	-290
432.443	795
432.516	13248
432.590	37805
432.664	14225
432.737	1342
432.811	-675
432.885	-848
432.958	-261
433.032	-835
433.106	-1659
433.179	-715
433.253	-1234
433.326	-705
433.400	-1645
433.473	-707
433.547	-1542
433.620	-977
433.694	-432
433.767	733
433.841	-844
433.914	-1253
433.988	-943
434.061	-1029
434.134	-1428
434.208	-783
434.281	-1608
434.355	-1128
434.428	-224
434.501	-1283
434.575	-1393
434.648	-1024
434.721	-1959
434.795	-1404
434.868	-1607
434.941	-1452
435.014	-1644
435.088	-285
435.161	-613
435.234	372
435.307	577
435.381	-251
435.454	-305
435.527	-773
435.600	-808
435.673	-1493
435.746	-1089
435.819	-990
435.892	-815
435.966	-1116
436.039	-1537
436.112	-611
436.185	-919
436.258	-1100
436.331	-1770
436.404	-961
436.477	-1489
436.550	-1209
436.623	-1244
436.696	-828
436.769	-1241
436.842	-1144
436.915	-1022
436.987	-378
437.060	-497
437.133	-1160
437.206	-1505
437.279	190
437.352	-1204
437.425	-1014
437.498	-1120
437.570	603
437.643	699
437.716	-490
437.789	-1509
437.861	-1123
437.934	2053
438.007	1640
438.080	-1233
438.152	-25
438.225	1191
438.298	20725
438.370	65330
438.443	29638
438.516	4018
438.588	63
438.661	-985
438.734	-564
438.806	-789
438.879	-159
438.951	122
439.024	945
439.096	-890
439.169	-585
439.241	-1085
439.314	-518
439.386	314
439.459	1652
439.531	3013
439.604	1173
439.676	-930
439.749	-1234
439.821	-555
439.893	-626
439.966	-755
440.038	-163
440.110	-141
440.183	-683
440.255	-991
440.327	516
440.400	7564
440.472	36612
440.544	29340
440.617	3814
440.689	817
440.761	789
440.833	2144
440.905	2070
440.978	-873
441.050	-597
441.122	-287
441.194	-1721
441.266	-812
441.338	-1263
441.411	-4
441.483	8252
441.555	16559
441.627	3884
441.699	669
441.771	2274
441.843	-92
441.915	-207
441.987	-1563
442.059	-1073
442.131	154
442.203	1120
442.275	907
442.347	923
442.419	212
442.491	861
442.563	4718
442.635	5671
442.706	7957
442.778	8256
442.850	181
442.922	-850
442.994	-389
443.066	1218
443.137	164
443.209	-482
443.281	347
443.353	1041
443.425	4332
443.496	11914
443.568	11865
443.640	4045
443.711	377
443.783	125
443.855	-242
443.926	-551
443.998	-348
444.070	954
444.141	-185
444.213	1089
444.285	1966
444.356	1356
444.428	2384
444.499	251
444.571	-627
444.642	-713
444.714	140
444.785	1125
444.857	1445
444.928	7243
445.000	6006
445.071	4069
445.143	6062
445.214	1991
445.285	2047
445.357	11080
445.428	16683
445.500	28326
445.571	24707
445.642	10712
445.714	7962
445.785	14635
445.856	4650
445.928	695
445.999	887
446.070	421
446.141	79
446.213	957
446.284	331
446.355	724
446.426	-88
446.497	-635
446.569	1019
446.640	4032
446.711	2043
446.782	583
446.853	1986
446.924	2552
446.995	646
447.066	251
447.138	1907
447.209	947
447.280	-1370
447.351	-348
447.422	-1224
447.493	389
447.564	994
447.635	1475
447.706	134
447.777	-846
447.847	-1090
447.918	-547
447.989	331
448.060	1112
448.131	5267
448.202	5038
448.273	2832
448.344	1264
448.414	-22
448.485	-315
448.556	201
448.627	-1349
448.698	317
448.768	-947
448.839	-405
448.910	2231
448.981	3379
449.051	-51
449.122	-522
449.193	-443
449.263	-497
449.334	-156
449.405	195
449.475	1159
449.546	2967
449.616	3128
449.687	3340
449.758	-473
449.828	-342
449.899	-905
449.969	-1112
450.040	-369
450.110	1485
450.181	2485
450.251	-524
450.322	-126
450.392	456
450.463	-636
450.533	-950
450.604	-374
450.674	-733
450.744	148
450.815	-792
450.885	42
450.955	-510
451.026	44
451.096	-481
451.166	507
451.237	2375
451.307	11050
451.377	6130
451.447	-435
451.518	-497
451.588	-1205
451.658	-530
451.728	1715
451.799	10103
451.869	16543
451.939	4193
452.009	-298
452.079	-158
452.149	152
452.219	1459
452.289	13090
452.360	14848
452.430	1463
452.500	648
452.570	842
452.640	1579
452.710	5865
452.780	13593
452.850	9169
452.920	6261
452.990	2634
453.060	805
453.129	1081
453.199	3387
453.269	15522
453.339	45877
453.409	76283
453.479	58748
453.549	89547
453.619	96153
453.688	52367
453.758	7043
453.828	1614
453.898	160
453.968	448
454.037	528
454.087	436
454.107	393
454.168	-296
454.177	-410
454.247	-394
454.249	-381
454.316	-289
454.330	-82
454.386	661
454.411	2469
454.456	5271
454.492	8725
454.525	11790
454.574	7031
454.595	5006
454.655	1076
454.665	458
454.734	1065
454.736	1143
454.804	3194
454.817	5082
454.873	12157
454.898	15068
454.943	20186
454.979	14422
455.013	9285
455.060	5326
455.082	3779
455.141	2807
455.152	2718
455.221	11529
455.222	11821
455.291	32696
455.303	36947
455.360	51907
455.384	75422
455.430	111150
455.465	92654
455.499	77477
455.546	39253
455.569	21635
455.627	14315
455.638	13077
455.707	2882
455.708	2880
455.777	832
455.789	837
455.846	728
455.869	441
455.916	21
455.950	-1
455.985	-160
456.031	307
456.054	508
456.112	674
456.124	743
456.193	104
456.193	90
456.262	474
456.274	755
456.332	1737
456.355	1959
456.401	2107
456.436	2116
456.470	2186
456.516	689
456.540	11
456.597	-523
456.609	-635
456.678	-393
456.678	-402
456.747	-285
456.759	-336
456.817	-358
456.840	-192
456.886	-132
456.920	-184
456.955	-11
457.001	574
457.024	915
457.082	1039
457.093	1065
457.162	2988
457.163	3011
457.232	4695
457.243	4503
457.301	2984
457.324	1814
457.370	195
457.405	641
457.439	952
457.485	99
457.508	-313
457.566	-60
457.577	22
457.646	376
457.647	385
457.715	817
457.727	893
457.784	1155
457.808	1393
457.853	1703
457.889	2145
457.922	2340
457.969	2009
457.991	1968
458.050	1805
458.060	1793
458.129	2609
458.130	2626
458.198	2026
458.211	2044
458.267	2112
458.292	1562
458.336	829
458.372	909
458.405	1102
458.453	1062
458.474	1407
458.533	3195
458.543	3343
458.611	5109
458.614	5161
458.680	3433
458.694	2720
458.749	1559
458.775	1261
458.818	648
458.855	572
458.887	580
458.936	188
458.955	88
459.016	871
459.024	1005
459.093	1533
459.097	1529
459.162	795
459.177	926
459.230	1608
459.257	1706
459.299	1657
459.338	1647
459.368	1728
459.418	1796
459.437	1692
459.499	780
459.505	754
459.574	1076
459.579	1112
459.643	946
459.659	882
459.711	1170
459.740	1229
459.780	937
459.820	1215
459.849	1478
459.900	1101
459.917	1035
459.981	1740
459.986	1744
460.054	1392
460.061	1314
460.123	1061
460.141	1164
460.191	1796
460.222	1952
460.260	1778
460.302	2201
460.328	2306
460.382	2000
460.397	1994
460.462	831
460.465	782
460.534	1305
460.543	1306
460.602	2697
460.623	3330
460.671	5048
460.703	6631
460.739	6281
460.783	5091
460.808	4412
460.864	1947
460.876	1836
460.944	2004
460.945	2000
461.013	2348
461.024	2251
461.081	1380
461.104	1484
461.150	1617
461.184	1350
461.218	1238
461.264	991
461.286	1029
461.345	1354
461.355	1398
461.423	1855
461.425	1857
461.491	2034
461.505	2170
461.559	4461
461.585	5421
461.628	9495
461.665	14522
461.696	17023
461.745	22882
461.764	21008
461.825	9351
461.832	9203
461.901	3250
461.905	3208
461.969	1853
461.985	1644
462.037	2326
462.065	2501
462.105	2472
462.145	2656
462.173	4150
462.225	6852
462.241	7626
462.305	12942
462.310	12700
462.378	8366
462.385	7426
462.446	3665
462.465	2626
462.514	1875
462.545	2146
462.582	1776
462.625	1456
462.650	1405
462.705	1245
462.718	1340
462.785	2096
462.786	2138
462.854	3907
462.865	4363
462.922	6010
462.945	6852
462.990	5634
463.025	3660
463.058	3138
463.104	2398
463.126	2161
463.184	2135
463.194	2207
463.262	2516
463.264	2536
463.330	2087
463.344	1934
463.398	2369
463.424	2647
463.466	2771
463.504	3059
463.533	3380
463.583	3547
463.601	3567
463.663	3550
463.669	3624
463.737	4922
463.743	5022
463.805	8303
463.823	9276
463.873	14535
463.903	18171
463.940	18948
463.982	20690
464.008	17329
464.062	7546
464.076	7170
464.142	3233
464.144	3149
464.211	2245
464.221	2222
464.279	2073
464.301	1967
464.347	2491
464.381	2948
464.414	3527
464.461	4459
464.482	4576
464.540	5006
464.550	4801
464.617	2793
464.620	2715
464.685	3375
464.699	3569
464.753	4136
464.779	4527
464.820	4577
464.859	4515
464.888	4469
464.938	4323
464.956	4559
465.018	5621
465.023	5514
465.091	3928
465.098	3709
465.158	3522
465.177	3583
465.226	3319
465.257	3106
465.293	3320
465.336	3594
465.361	4182
465.416	5566
465.428	6038
465.495	8451
465.496	8511
465.563	15956
465.575	17305
465.631	22060
465.654	24298
465.698	15515
465.734	7331
465.765	6041
465.813	3522
465.833	3022
465.893	2665
465.900	2731
465.968	3242
465.972	3274
466.035	2097
466.052	1787
466.102	3050
466.131	3749
466.170	3278
466.210	2721
466.237	2985
466.290	3615
466.304	3714
466.369	3955
466.372	3962
466.439	4076
466.449	4070
466.506	4598
466.528	4834
466.573	7436
466.607	9360
466.641	15421
466.687	23827
466.708	26238
466.766	33139
466.775	30489
466.842	10179
466.845	9191
466.909	6110
466.925	5464
466.977	5083
467.004	4986
467.044	4842
467.083	4700
467.111	5219
467.163	6158
467.178	6217
467.242	6422
467.245	6416
467.312	6083
467.321	6029
467.379	6123
467.400	6142
467.446	6834
467.480	7315
467.559	6575
467.638	5737
467.717	6205
467.796	6126
467.875	7032
467.955	7089
468.034	11273
468.113	29422
468.192	43265
468.271	9470
468.350	5019
468.429	5297
468.508	4772
468.588	4440
468.667	4595
468.746	4478
468.825	4279
468.904	4338
468.983	5713
469.062	10812
469.141	14288
469.220	5269
469.299	4807
469.378	5005
469.456	6311
469.535	5662
469.614	4490
469.693	6489
469.772	9372
469.851	11621
469.930	7901
470.009	6148
470.088	5192
470.166	7833
470.245	11417
470.324	13600
470.403	8111
470.482	5465
470.560	4722
470.639	4402
470.718	6394
470.797	5030
470.875	6359
470.954	8389
471.033	10018
471.111	4390
471.190	3775
471.269	3584
471.347	3784
471.426	4567
471.505	5985
471.583	4746
471.662	4211
471.740	4033
471.819	4236
471.898	4281
471.976	4530
472.055	3995
472.133	5299
472.212	7683
472.290	8767
472.369	3250
472.447	5090
472.526	3671
472.604	4522
472.683	3764
472.761	5059
472.839	4248
472.918	4107
472.996	3551
473.075	5513
473.153	5161
473.231	3322
473.310	5997
473.388	4759
473.466	5177
473.545	6055
473.623	7617
473.701	5328
473.780	4606
473.858	2753
473.936	4654
474.014	4503
474.093	5310
474.171	8018
474.249	12319
474.327	7513
474.405	3519
474.484	4251
474.562	3419
474.640	4064
474.718	4717
474.796	4040
474.874	3931
474.952	2184
475.030	3463
475.108	3543
475.187	3532
475.265	3281
475.343	4903
475.421	4924
475.499	3554
475.577	3977
475.655	6637
475.733	16138
475.811	26114
475.889	24511
475.966	14253
476.044	4278
476.122	3052
476.200	4811
476.278	3337
476.356	4032
476.434	4161
476.512	4354
476.590	5246
476.667	5118
476.745	3846
476.823	4483
476.901	4087
476.979	4369
477.056	4465
477.134	4025
477.212	4138
477.290	3947
477.367	3300
477.445	4519
477.523	2328
477.601	3215
477.678	4332
477.756	5669
477.834	6014
477.911	3527
477.989	3218
478.066	3069
478.144	4493
478.222	3540
478.299	3187
478.377	4040
478.454	2451
478.532	3550
478.609	3924
478.687	4018
478.764	3157
478.842	3429
478.919	3734
478.997	4219
479.074	3392
479.152	4756
479.229	7400
479.307	3118
479.384	3004
479.461	3434
479.539	2998
479.616	4410
479.694	4040
479.771	4778
479.848	4265
479.926	7061
480.003	8161
480.080	3578
480.157	2954
480.235	3582
480.312	3941
480.389	4080
480.467	9100
480.544	9992
480.621	4387
480.698	3849
480.775	5446
480.853	5371
480.930	3718
481.007	3951
481.084	3829
481.161	5005
481.238	5685
481.315	3641
481.392	3475
481.470	2475
481.547	3722
481.624	3344
481.701	3822
481.778	3650
481.855	4134
481.932	6956
482.009	13602
482.086	9001
482.163	3449
482.240	3264
482.317	4566
482.393	3744
482.470	3177
482.547	3865
482.624	3294
482.701	3574
482.778	3927
482.855	2542
482.932	2403
483.009	2669
483.085	2967
483.162	3079
483.239	3556
483.316	2176
483.393	3134
483.469	3375
483.546	4641
483.623	4433
483.699	3651
483.776	3326
483.853	4036
483.930	6709
484.006	21694
484.083	37804
484.160	14778
484.236	18036
484.313	13359
484.389	10110
484.466	9791
484.543	7561
484.619	8930
484.696	10683
484.772	9488
484.849	12331
484.925	8508
485.002	8414
485.078	9464
485.155	8618
485.231	6720
485.308	7628
485.384	8197
485.461	11070
485.537	21348
485.614	25557
485.690	9827
485.766	7241
485.843	7742
485.919	11441
485.995	10554
486.072	7143
486.148	7536
486.224	7131
486.301	7315
486.377	9181
486.453	7756
486.530	8048
486.606	11712
486.682	12047
486.758	17798
486.835	21773
486.911	13915
486.987	27405
487.063	23936
487.139	25615
487.215	17817
487.292	10995
487.368	7366
487.444	7924
487.520	9154
487.596	7193
487.672	10290
487.748	17046
487.824	21638
487.900	10004
487.976	7661
488.052	8372
488.128	10750
488.204	8006
488.280	8000
488.356	9772
488.432	24897
488.508	39908
488.584	10371
488.660	6836
488.736	7456
488.812	7123
488.888	9835
488.964	11670
489.039	23462
489.115	37382
489.191	20744
489.267	7762
489.343	7109
489.418	5449
489.494	5108
489.570	4799
489.646	7230
489.722	5649
489.797	7079
489.873	11788
489.949	30203
490.024	24737
490.100	5670
490.176	5651
490.251	6840
490.327	9224
490.403	5219
490.478	5263
490.554	4522
490.629	4661
490.705	4066
490.781	5820
490.856	5699
490.932	4983
491.007	6486
491.083	6530
491.158	6469
491.234	8795
491.309	21302
491.385	20548
491.460	5537
491.536	6777
491.611	5123
491.686	6075
491.762	7861
491.837	16737
491.913	26290
491.988	38973
492.063	43745
492.139	15038
492.214	9309
492.289	4167
492.365	3810
492.440	5703
492.515	5947
492.590	6440
492.666	5057
492.741	8088
492.816	12479
492.891	7084
492.967	7293
493.042	8384
493.117	11277
493.192	15922
493.267	34254
493.342	168821
493.418	237231
493.493	25217
493.568	6584
493.643	5355
493.718	6471
493.793	9403
493.868	8871
493.943	5483
494.018	4415
494.093	4377
494.168	3725
494.243	4383
494.318	3221
494.393	4148
494.468	2810
494.543	3206
494.618	3758
494.693	3848
494.768	3290
494.842	4140
494.917	3753
494.992	3599
495.067	2962
495.142	3532
495.217	4118
495.292	3711
495.366	4903
495.441	5772
495.516	8393
495.591	10009
495.665	33737
495.740	80163
495.815	28023
495.890	6383
495.964	3049
496.039	7162
496.114	4510
496.188	4310
496.263	4799
496.338	3823
496.412	4863
496.487	6297
496.561	6472
496.636	7140
496.710	4531
496.785	5498
496.860	7190
496.934	3670
497.009	5196
497.083	4733
497.158	5073
497.232	7005
497.307	8050
497.381	6047
497.455	8097
497.530	11375
497.604	7357
497.679	8220
497.753	14700
497.827	17814
497.902	15784
497.976	19500
498.050	50246
498.125	232907
498.199	217052
498.273	22318
498.348	13663
498.422	10225
498.496	9865
498.570	9586
498.645	7287
498.719	8272
498.793	12486
498.867	20770
498.941	26298
499.016	85471
499.090	246723
499.164	71816
499.238	7467
499.312	5824
499.386	7668
499.460	7444
499.534	8067
499.609	10129
499.683	15719
499.757	15952
499.831	35069
499.905	160373
499.979	136193
500.053	19188
500.127	16096
500.201	9482
500.275	7685
500.349	7006
500.422	8373
500.496	12362
500.570	25231
500.644	76088
500.718	154010
500.792	29713
500.866	8211
500.940	9246
501.013	8797
501.087	9000
501.161	14022
501.235	17846
501.309	44506
501.382	133050
501.456	106465
501.530	22683
501.603	39966
501.677	12930
501.751	5532
501.825	8564
501.898	16052
501.972	49679
502.046	28274
502.119	8486
502.193	20704
502.266	54784
502.340	22597
502.413	22841
502.487	47484
502.561	23553
502.634	6243
502.708	4640
502.781	4167
502.855	5232
502.928	2921
503.002	4123
503.075	3712
503.149	4028
503.222	4559
503.295	4764
503.369	7398
503.442	9761
503.516	35255
503.589	96910
503.662	56089
503.736	16989
503.809	44110
503.882	30431
503.956	49604
504.029	39100
504.102	12623
504.175	12563
504.249	4367
504.322	5261
504.395	4487
504.468	3572
504.542	4474
504.615	1753
504.688	2673
504.761	1466
504.834	4989
504.907	3741
504.980	6581
505.053	3873
505.127	2072
505.200	7341
505.273	6595
505.346	4029
505.419	2423
505.492	3871
505.565	2242
505.638	2629
505.711	2001
505.784	1742
505.857	2304
505.930	4183
506.003	1339
506.076	4294
506.149	5130
506.221	5829
506.294	6814
506.367	16883
506.440	69225
506.513	31031
506.586	8082
506.659	3549
506.731	2754
506.804	3607
506.877	4697
506.950	2978
507.022	3525
507.095	3227
507.168	5004
507.241	3817
507.313	1537
507.386	2417
507.459	4004
507.531	2155
507.604	1732
507.677	2889
507.749	422
507.822	3479
507.894	5055
507.967	7780
508.040	4027
508.112	3634
508.185	3692
508.257	1309
508.330	6288
508.402	2330
508.475	3587
508.547	3543
508.620	4147
508.692	6869
508.765	3085
508.837	1901
508.909	3161
508.982	1974
509.054	3164
509.127	1683
509.199	1764
509.271	2826
509.344	2676
509.416	2198
509.488	1897
509.560	3401
509.633	2527
509.705	2598
509.777	2799
509.849	5081
509.922	2357
509.994	2521
510.066	3379
510.138	1484
510.210	7602
510.283	4993
510.355	3693
510.427	3467
510.499	3631
510.571	3116
510.643	2128
510.715	6753
510.787	3183
510.859	4471
510.931	4684
511.003	5571
511.076	5296
511.148	3186
511.219	2652
511.291	7696
511.363	9013
511.435	3083
511.507	2306
511.579	3083
511.651	2851
511.723	1996
511.795	1682
511.867	3127
511.939	4082
512.010	11252
512.082	8775
512.154	1962
512.226	2934
512.298	4989
512.369	6338
512.441	5350
512.513	4720
512.585	2083
512.656	4562
512.728	4369
512.800	2596
512.871	4235
512.943	4002
513.015	1930
513.086	3463
513.158	3639
513.230	2905
513.301	5375
513.373	7636
513.444	4227
513.516	2429
513.588	2617
513.659	4143
513.731	4679
513.802	3029
513.874	9769
513.945	14503
514.016	3035
514.088	3932
514.159	2622
514.231	5227
514.302	6114
514.374	4682
514.445	3474
514.516	13980
514.588	7085
514.659	4435
514.730	10750
514.802	7574
514.873	2433
514.944	5776
515.016	4091
515.087	3903
515.158	6544
515.229	10119
515.301	3833
515.372	5761
515.443	2635
515.514	2811
515.585	2305
515.656	3090
515.728	3584
515.799	2395
515.870	3379
515.941	3771
516.012	2390
516.083	5331
516.154	5020
516.225	8674
516.296	7667
516.367	5994
516.438	8211
516.509	11123
516.580	14838
516.651	49519
516.722	185235
516.793	64685
516.864	16459
516.935	16898
517.006	19877
517.077	25529
517.148	53693
517.219	234042
517.289	332422
517.360	88533
517.431	27130
517.502	7604
517.573	7818
517.643	5857
517.714	7668
517.785	7999
517.856	8951
517.926	12667
517.997	15466
518.068	19935
518.138	27909
518.209	37513
518.280	144487
518.350	579268
518.421	165277
518.492	19126
518.562	9373
518.633	8873
518.703	4114
518.774	9792
518.845	14626
518.915	13217
518.986	7719
519.056	8647
519.127	13930
519.197	22998
519.268	69005
519.338	40438
519.408	8243
519.479	8504
519.549	6616
519.620	6425
519.690	3897
519.760	3280
519.831	3867
519.901	3872
519.971	3301
520.042	3372
520.112	3680
520.182	5063
520.253	5351
520.323	2872
520.393	3284
520.463	6036
520.534	1724
520.604	8426
520.674	6366
520.744	5316
520.814	7149
520.885	9047
520.955	19570
521.025	85660
521.095	26719
521.165	6191
521.235	3328
521.305	3187
521.375	3437
521.445	3146
521.515	3582
521.585	5020
521.655	3159
521.725	5047
521.795	4594
521.865	299
521.935	6950
522.005	4818
522.075	2357
522.145	5213
522.215	3137
522.285	7129
522.355	9846
522.424	21290
522.494	15275
522.564	5994
522.634	12625
522.704	33476
522.774	10379
522.843	5049
522.913	3517
522.983	3477
523.053	3104
523.122	3448
523.192	3592
523.262	17078
523.331	14553
523.401	3117
523.471	2442
523.540	2361
523.610	1085
523.680	1858
523.749	2410
523.819	3925
523.888	2064
523.958	2374
524.027	3055
524.097	2303
524.166	1610
524.236	1838
524.305	4090
524.375	1041
524.444	1220
524.514	3871
524.583	1474
524.653	2814
524.722	4366
524.791	1055
524.861	3606
524.930	1202
524.999	2095
525.069	4371
525.138	2949
525.207	3621
525.277	2558
525.346	2093
525.415	2897
525.484	2245
525.554	3109
525.623	3476
525.692	2189
525.761	2212
525.830	2268
525.900	1916
525.969	4043
526.038	4242
526.107	4138
526.176	17733
526.245	11998
526.314	8178
526.383	10989
526.452	9889
526.522	24521
526.591	27478
526.660	16102
526.729	7315
526.797	9222
526.867	17207
526.935	91717
527.004	83854
527.073	31225
527.142	3984
527.211	2911
527.280	4118
527.349	4285
527.418	1158
527.487	2870
527.555	-267
527.624	1655
527.693	439
527.762	1859
527.831	207
527.899	2337
527.968	952
528.037	548
528.106	2548
528.174	5582
528.243	5175
528.312	7747
528.380	7712
528.449	1855
528.518	2701
528.586	293
528.655	2786
528.723	444
528.792	1316
528.861	684
528.929	32
528.998	1919
529.066	1297
529.135	1600
529.203	-94
529.272	-51
529.340	1797
529.409	3003
529.477	48
529.545	2026
529.614	4744
529.682	1751
529.751	3746
529.819	5402
529.887	1533
529.956	337
530.024	2609
530.092	408
530.161	2572
530.229	3776
530.297	978
530.365	2763
530.434	1557
530.502	592
530.570	1124
530.638	63
530.707	1928
530.775	2963
530.843	658
530.911	1300
530.979	1396
531.047	1224
531.115	1786
531.183	1518
531.252	2089
531.320	957
531.388	401
531.456	828
531.524	-206
531.592	1912
531.660	3674
531.728	208
531.796	1023
531.864	1220
531.932	712
532.000	1223
532.067	658
532.135	2565
532.203	2463
532.271	1270
532.339	6530
532.407	14301
532.475	6828
532.542	3741
532.610	4603
532.678	4523
532.746	23830
532.814	60288
532.881	12066
532.949	2864
533.017	2070
533.084	1836
533.152	1001
533.220	1589
533.287	1052
533.355	1871
533.423	1483
533.490	1065
533.558	1295
533.625	1850
533.693	1695
533.761	2231
533.828	2622
533.896	513
533.963	5689
534.031	6470
534.098	7483
534.166	2744
534.233	964
534.300	2598
534.368	2112
534.435	297
534.503	1845
534.570	999
534.637	1138
534.705	1108
534.772	1591
534.840	1169
534.907	8321
534.974	8110
535.041	1687
535.109	3374
535.176	947
535.243	2791
535.310	1087
535.378	175
535.445	1085
535.512	1013
535.579	1829
535.646	62
535.714	1371
535.781	2300
535.848	1429
535.915	2872
535.982	1482
536.049	2148
536.116	2844
536.183	820
536.250	1233
536.317	1058
536.384	2862
536.451	3728
536.518	4483
536.585	1588
536.652	4208
536.719	4701
536.786	2864
536.853	2489
536.920	5807
536.987	9415
537.053	5841
537.120	29946
537.187	21661
537.254	1594
537.321	926
537.388	2246
537.454	521
537.521	-36
537.588	717
537.654	1993
537.721	1802
537.788	2019
537.855	951
537.921	946
537.988	444
538.055	2843
538.121	695
538.188	1739
538.254	3005
538.321	8790
538.388	4063
538.454	1894
538.521	1511
538.587	1088
538.654	1487
538.720	1110
538.787	1953
538.853	1820
538.920	2668
538.986	2585
539.053	1890
539.119	2479
539.185	1895
539.252	3469
539.318	4333
539.385	3323
539.451	1244
539.517	2599
539.583	3436
539.650	7428
539.716	20255
539.782	3986
539.849	1017
539.915	2452
539.981	1152
540.047	2002
540.114	2496
540.180	3218
540.246	1634
540.312	2892
540.378	7727
540.444	8629
540.510	8183
540.576	22878
540.643	5897
540.709	750
540.775	1669
540.841	1529
540.907	3926
540.973	5847
541.039	3538
541.105	4667
541.171	1439
541.237	1097
541.303	3088
541.369	3572
541.435	3021
541.500	7736
541.566	2529
541.632	2035
541.698	1587
541.764	2633
541.830	1232
541.896	580
541.961	1684
542.027	418
542.093	1663
542.159	1862
542.224	1690
542.290	3943
542.356	6673
542.421	9421
542.487	4330
542.553	1906
542.618	2369
542.684	1484
542.750	1360
542.815	3484
542.881	5447
542.947	20785
543.012	13372
543.078	2009
543.143	1512
543.209	2277
543.274	1322
543.340	2510
543.405	6892
543.471	9999
543.536	1214
543.602	1983
543.667	601
543.732	2263
543.798	180
543.863	2156
543.928	1580
543.994	74
544.059	1693
544.124	1879
544.190	1473
544.255	1486
544.320	2078
544.386	802
544.451	3523
544.516	3673
544.581	3094
544.646	11806
544.712	18704
544.777	4061
544.842	2874
544.907	3004
544.972	1559
545.037	2342
545.102	2667
545.168	1530
545.233	3416
545.298	3766
545.363	3640
545.428	3241
545.493	7368
545.558	15968
545.623	4838
545.688	2762
545.753	3286
545.818	3014
545.883	2952
545.947	2142
546.012	2455
546.077	2466
546.142	3684
546.207	2236
546.272	4079
546.337	3371
546.401	3095
546.466	2409
546.531	1538
546.596	3228
546.661	2955
546.725	3200
546.790	1465
546.855	2902
546.919	1803
546.984	2609
547.049	2870
547.113	4163
547.178	2819
547.243	4797
547.307	3825
547.372	5265
547.436	5260
547.501	4045
547.565	3353
547.630	4900
547.695	4412
547.759	6820
547.823	4520
547.888	3587
547.952	2854
548.017	3074
548.081	3997
548.146	6721
548.210	4538
548.274	3712
548.339	3332
548.403	3181
548.468	2855
548.532	3259
548.596	3693
548.660	2262
548.725	4067
548.789	4119
548.853	5694
548.917	4285
548.982	6223
549.046	7037
549.110	3290
549.174	3078
549.238	1893
549.303	3354
549.367	4075
549.431	3567
549.495	3145
549.559	3098
549.623	2945
549.687	4670
549.751	6554
549.815	4668
549.879	4714
549.943	3394
550.007	3705
550.071	4050
550.135	5257
550.199	4103
550.263	3617
550.327	4285
550.391	6969
550.455	3766
550.519	4000
550.582	4962
550.646	5441
550.710	6305
550.774	3970
550.838	5513
550.901	4600
550.965	5028
551.029	4967
551.093	7194
551.156	8733
551.220	18574
551.284	18923
551.347	9457
551.411	22346
551.475	22095
551.538	6104
551.602	4123
551.666	4482
551.729	2459
551.793	4023
551.856	4488
551.920	4980
551.983	4136
552.047	3192
552.110	4070
552.174	3349
552.237	3975
552.301	3936
552.364	3327
552.428	3353
552.491	3889
552.554	5280
552.618	4898
552.681	4386
552.745	5193
552.808	12581
552.871	15551
552.934	7194
552.998	4484
553.061	5306
553.124	6480
553.187	6889
553.251	6845
553.314	9092
553.377	8950
553.440	16901
553.503	63339
553.567	99660
553.630	12364
553.693	6191
553.756	4175
553.819	4035
553.882	4204
553.945	3768
554.008	3130
554.071	2590
554.134	3632
554.197	2400
554.260	3138
554.323	4896
554.386	3842
554.449	2684
554.512	4195
554.575	1944
554.638	2864
554.701	2973
554.764	3364
554.827	2569
554.889	2914
554.952	2357
555.015	2486
555.078	1663
555.141	3476
555.203	2296
555.266	3174
555.329	3098
555.391	3400
555.454	3585
555.517	2857
555.580	2983
555.642	2387
555.705	1535
555.768	3243
555.830	2727
555.893	1888
555.955	2377
556.018	2297
556.080	2351
556.143	2037
556.206	2244
556.268	2756
556.330	3466
556.393	3218
556.455	2628
556.518	5578
556.580	5133
556.643	2392
556.705	2595
556.767	941
556.830	2180
556.892	3316
556.955	5016
557.017	4519
557.079	2015
557.142	2875
557.204	3055
557.266	7356
557.328	6153
557.391	1643
557.453	1548
557.515	2443
557.577	4122
557.639	3398
557.701	1868
557.764	1715
557.826	2167
557.888	3007
557.950	2050
558.012	3037
558.074	3456
558.136	6121
558.198	12103
558.260	4830
558.322	2776
558.384	2898
558.446	4784
558.508	5116
558.570	6305
558.632	10566
558.694	15557
558.756	11697
558.818	30789
558.880	70345
558.942	15008
559.003	12903
559.065	6516
559.127	3616
559.189	3840
559.251	4350
559.312	5874
559.374	12561
559.436	40024
559.498	16688
559.559	3923
559.621	4861
559.683	5582
559.744	8112
559.806	21331
559.868	26117
559.929	5996
559.991	4915
560.052	6182
560.114	13645
560.176	7762
560.237	8889
560.299	12736
560.360	4017
560.422	2492
560.483	3521
560.545	2490
560.606	2059
560.667	2155
560.729	2502
560.790	3259
560.852	2893
560.913	2743
560.974	2574
561.036	2703
561.097	3084
561.158	2811
561.220	3460
561.281	2649
561.342	3785
561.403	4108
561.465	4086
561.526	14042
561.587	19000
561.648	3102
561.709	2666
561.771	3260
561.832	2448
561.893	3532
561.954	2486
562.015	3001
562.076	2187
562.137	2733
562.198	2617
562.259	3248
562.320	2104
562.381	3139
562.442	5046
562.503	3818
562.564	2724
562.625	3344
562.686	2219
562.747	3237
562.808	2842
562.869	2636
562.930	3365
562.991	3215
563.051	3129
563.112	2691
563.173	2419
563.234	1865
563.294	3533
563.355	2400
563.416	3850
563.477	2924
563.537	2051
563.598	3674
563.659	3706
563.720	3157
563.780	3181
563.841	3631
563.901	3538
563.962	2393
564.023	2188
564.083	3780
564.144	3625
564.204	2792
564.265	3805
564.325	4382
564.386	12546
564.446	9861
564.507	3361
564.567	2965
564.628	3203
564.688	2524
564.749	3180
564.809	3870
564.869	6410
564.930	2519
564.990	3717
565.050	2733
565.111	3784
565.171	2746
565.231	3116
565.292	2617
565.352	2614
565.412	2553
565.472	3163
565.532	2595
565.593	2544
565.653	2322
565.713	3279
565.773	4017
565.833	4528
565.893	5942
565.953	3671
566.013	3676
566.074	3634
566.134	6396
566.194	11113
566.254	10974
566.314	6740
566.374	2280
566.434	3880
566.494	3616
566.554	3392
566.614	2662
566.673	2509
566.733	3610
566.793	4221
566.853	4170
566.913	3510
566.973	3792
567.033	4209
567.092	3040
567.152	5131
567.212	4724
567.272	4139
567.331	5437
567.391	4597
567.451	4530
567.511	7966
567.570	8623
567.630	4525
567.690	3920
567.749	3455
567.809	4429
567.868	4079
567.928	5095
567.988	5384
568.047	5191
568.107	5298
568.166	8284
568.226	11957
568.285	15446
568.345	11238
568.404	9617
568.464	9422
568.523	6596
568.582	8408
568.642	9825
568.701	10462
568.761	16468
568.820	26518
568.879	23621
568.939	17738
568.998	10769
569.057	8971
569.116	7459
569.176	5478
569.235	4765
569.294	4706
569.353	3739
569.413	3798
569.472	3955
569.531	4033
569.590	3677
569.649	3515
569.708	3671
569.767	3949
569.827	4939
569.886	3378
569.945	2966
570.004	3399
570.063	3405
570.122	4310
570.181	4360
570.240	4937
570.299	5238
570.358	4863
570.417	2942
570.475	3264
570.534	3683
570.593	3646
570.652	3886
570.711	3592
570.770	4016
570.829	4981
570.887	3860
570.946	4143
571.005	2613
571.064	3035
571.122	4481
571.181	4944
571.240	4066
571.299	2625
571.357	4154
571.416	4443
571.475	5442
571.533	5663
571.592	2903
571.650	3804
571.709	2324
571.768	3145
571.826	2451
571.885	2423
571.943	2771
572.002	2580
572.060	3513
572.119	2402
572.177	2301
572.236	1418
572.294	1935
572.352	2628
572.411	2413
572.469	1984
572.528	2056
572.586	2669
572.644	2625
572.703	4786
572.761	2924
572.819	3026
572.877	1765
572.936	1511
572.994	2580
573.052	1987
573.110	2512
573.169	2988
573.227	1691
573.285	2518
573.343	2411
573.401	2094
573.459	2474
573.517	3102
573.576	1942
573.634	3054
573.692	3084
573.750	2376
573.808	2507
573.866	2647
573.924	4856
573.982	5355
574.040	2460
574.098	3134
574.155	3238
574.213	2072
574.271	2285
574.329	1629
574.387	808
574.445	2629
574.503	1929
574.560	825
574.618	1824
574.676	2304
574.734	2047
574.792	2032
574.849	2429
574.907	2201
574.965	2091
575.022	1423
575.080	1786
575.138	2618
575.195	1831
575.253	2345
575.311	3366
575.368	2665
575.426	1796
575.483	3151
575.541	3206
575.598	1632
575.656	2539
575.713	2781
575.771	2665
575.828	1678
575.886	1998
575.943	3184
576.001	1515
576.058	3167
576.115	3458
576.173	5205
576.230	4906
576.287	6575
576.345	4620
576.402	3346
576.459	2899
576.517	3764
576.574	4931
576.631	4095
576.688	3518
576.746	3516
576.803	2408
576.860	2517
576.917	3603
576.974	2710
577.031	2520
577.089	2824
577.146	3500
577.203	3566
577.260	3980
577.317	4742
577.374	5687
577.431	5053
577.488	3896
577.545	3144
577.602	4276
577.659	4151
577.716	5757
577.773	6855
577.830	4520
577.886	3521
577.943	3535
578.000	3588
578.057	3792
578.114	3716
578.171	5328
578.227	4689
578.284	5136
578.341	3790
578.398	3993
578.454	4217
578.511	5111
578.568	7225
578.625	3772
578.681	4186
578.738	3141
578.794	2416
578.851	2320
578.908	3152
578.964	2756
579.021	2922
579.077	2682
579.134	2777
579.190	2797
579.247	2643
579.303	1954
579.360	2798
579.416	2261
579.473	2306
579.529	1651
579.586	1881
579.642	2559
579.698	2982
579.755	3666
579.811	3553
579.867	3512
579.924	3226
579.980	3437
580.036	3983
580.093	5201
580.149	7822
580.205	9465
580.261	5987
580.317	4729
580.374	5340
580.430	6858
580.486	5654
580.542	4426
580.598	3636
580.619	3653
580.654	3683
580.692	3541
580.710	3477
580.765	3373
580.767	3370
580.823	3706
580.838	3560
580.879	3156
580.911	3040
580.935	2963
580.984	2651
580.991	2612
581.047	2909
581.057	3061
581.103	3734
581.130	3644
581.159	3540
581.203	4108
581.215	4255
581.270	4030
581.276	4013
581.326	3894
581.349	3899
581.382	3875
581.422	3985
581.438	4056
581.494	3750
581.494	3747
581.550	3211
581.567	3322
581.606	3550
581.640	3093
581.661	2783
581.713	3865
581.717	3971
581.773	3720
581.786	3683
581.829	3303
581.859	3264
581.885	3308
581.932	3175
581.940	3146
581.996	3344
582.004	3344
582.052	3417
582.077	3050
582.107	2503
582.150	3075
582.163	3256
582.219	3672
582.223	3650
582.274	3409
582.296	3745
582.330	4335
582.368	4409
582.386	4450
582.441	3647
582.441	3644
582.497	3868
582.514	4036
582.552	4695
582.587	5738
582.608	6184
582.659	5060
582.663	4966
582.719	4391
582.732	4191
582.774	3779
582.805	4002
582.830	4146
582.877	4222
582.885	4227
582.941	3761
582.950	3795
582.996	4017
583.023	4384
583.052	4997
583.095	5425
583.107	5487
583.162	6116
583.168	6238
583.218	7124
583.240	6713
583.273	5956
583.313	5134
583.328	4952
583.384	4491
583.385	4499
583.439	4450
583.458	4553
583.494	4854
583.531	4350
583.549	4124
583.603	4621
583.605	4633
583.660	4569
583.676	4531
583.715	4364
583.748	4391
583.770	4577
583.820	5307
583.825	5329
583.881	4395
583.893	4347
583.936	4459
583.965	4244
583.991	4107
584.038	4542
584.046	4593
584.101	4279
584.110	4378
584.156	4842
584.183	4567
584.211	4162
584.255	4322
584.266	4476
584.321	4924
584.328	4909
584.376	4663
584.400	4664
584.431	4586
584.472	4747
584.486	4857
584.541	4822
584.545	4854
584.596	4854
584.617	4439
584.651	4490
584.689	5369
584.706	5419
584.761	5214
584.762	5206
584.816	5263
584.834	5420
584.871	5681
584.906	5931
584.926	5964
584.978	5381
584.980	5365
585.035	5958
585.051	6042
585.090	6814
585.123	7526
585.145	7814
585.195	7887
585.200	8056
585.254	11861
585.267	13194
585.309	18464
585.340	23107
585.364	24236
585.412	15594
585.419	14296
585.473	8829
585.484	8253
585.528	8725
585.556	9292
585.583	10111
585.628	12029
585.637	12908
585.692	22049
585.700	23617
585.747	28454
585.772	23978
585.801	16852
585.845	9813
585.856	8863
585.910	7440
585.917	7450
585.965	8247
585.989	8161
586.019	7855
586.061	7855
586.074	7935
586.128	7412
586.133	7498
586.183	8650
586.205	8823
586.237	9036
586.277	9065
586.292	9088
586.346	8756
586.349	8768
586.401	8814
586.421	8881
586.455	9470
586.493	10767
586.509	12294
586.564	17459
586.565	17677
586.618	29973
586.637	30946
586.672	24092
586.709	14184
586.727	11126
586.781	8744
586.781	8755
586.835	8691
586.853	8722
586.889	8610
586.925	8251
586.944	8315
586.996	9134
586.998	9158
587.052	9010
587.068	9017
587.106	9391
587.140	9602
587.161	9694
587.212	10456
587.215	10511
587.269	10506
587.284	10635
587.323	10545
587.356	10225
587.377	10409
587.427	11195
587.431	11241
587.485	11408
587.499	11497
587.539	12021
587.571	12110
587.593	12017
587.643	12435
587.648	12598
587.702	13441
587.715	13874
587.755	14357
587.786	14445
587.810	14784
587.858	15279
587.864	15363
587.917	16120
587.930	16368
587.971	18136
588.001	19612
588.025	20588
588.073	21743
588.079	21975
588.133	24148
588.145	24770
588.187	27182
588.217	28975
588.241	31290
588.288	36156
588.295	36821
588.348	42740
588.360	44075
588.402	50975
588.431	56280
588.456	60743
588.503	70058
588.510	71476
588.564	84100
588.575	87017
588.617	101611
588.646	112704
588.671	125984
588.718	154375
588.725	163024
588.778	239950
588.789	259437
588.832	437982
588.861	575206
588.886	779655
588.932	1206607
588.939	1231322
588.993	1315748
589.004	1306183
589.047	873615
589.075	571825
589.100	426373
589.147	215215
589.154	205375
589.207	151900
589.218	142624
589.261	136376
589.290	134907
589.314	141742
589.361	159785
589.368	170088
589.421	265382
589.433	289562
589.475	530213
589.504	718493
589.528	884342
589.576	1190797
589.582	1156291
589.635	697439
589.647	594776
589.689	317054
589.718	151897
589.742	121543
589.790	74151
589.795	72300
589.849	59073
589.861	56640
589.902	53459
589.932	50284
589.955	44452
590.004	31542
590.009	31048
590.062	27483
590.075	26472
590.115	24730
590.146	23703
590.168	23054
590.218	20942
590.222	20937
590.275	20975
590.289	20883
590.328	20499
590.360	20152
590.381	19756
590.431	18844
590.435	18838
590.488	17853
590.503	17613
590.541	17397
590.574	17117
590.594	16921
590.645	16255
590.647	16292
590.700	16340
590.716	16282
590.753	15635
590.787	14949
590.806	14846
590.859	14705
590.859	14729
590.912	13914
590.930	13711
590.965	14288
591.001	14696
591.018	14403
591.071	13585
591.072	13542
591.124	14098
591.143	14325
591.177	14476
591.214	14465
591.230	14606
591.283	15102
591.285	15084
591.336	15690
591.356	15850
591.389	15996
591.427	15884
591.442	15407
591.495	13640
591.498	13479
591.547	13567
591.569	13532
591.600	13436
591.640	13177
591.653	13492
591.706	14797
591.711	14882
591.759	15427
591.782	15715
591.811	16583
591.853	17660
591.864	17167
591.917	14356
591.924	13912
591.969	14145
591.995	14263
592.022	14502
592.066	14796
592.075	15257
592.127	17870
592.137	18319
592.180	20005
592.208	20975
592.233	18965
592.279	14881
592.285	14801
592.338	13953
592.350	13716
592.390	14071
592.421	14271
592.443	14135
592.491	13746
592.495	13805
592.548	14105
592.562	14153
592.600	13473
592.633	12822
592.653	12775
592.704	12502
592.705	12596
592.775	13717
592.846	14577
592.916	13825
592.987	15724
593.058	14452
593.128	13401
593.199	12940
593.270	13170
593.341	13001
593.411	13667
593.482	13448
593.553	13277
593.623	12488
593.694	13357
593.764	14694
593.835	13297
593.906	12804
593.976	13188
594.047	13561
594.117	18030
594.188	16985
594.258	12365
594.329	12340
594.399	12762
594.470	11964
594.540	12715
594.611	12052
594.681	12640
594.751	12773
594.822	15176
594.892	16187
594.963	15499
595.033	14363
595.103	14210
595.174	15844
595.244	24981
595.314	29970
595.384	15255
595.455	13682
595.525	13836
595.595	13675
595.665	13704
595.736	13016
595.806	13888
595.876	13649
595.946	14157
596.016	12404
596.087	13453
596.157	13393
596.227	14344
596.297	14363
596.367	15656
596.437	16940
596.507	24586
596.577	28608
596.647	15931
596.717	13818
596.787	14410
596.857	13565
596.927	14311
596.997	14684
597.067	16640
597.137	20533
597.207	16928
597.277	14049
597.347	15169
597.417	13254
597.487	15699
597.557	14665
597.626	14642
597.696	16799
597.766	21318
597.836	28271
597.906	16529
597.975	14267
598.045	13823
598.115	13387
598.185	14537
598.254	15203
598.324	16198
598.394	15271
598.464	15825
598.533	14653
598.603	14175
598.672	15051
598.742	14534
598.812	14038
598.881	13766
598.951	13193
599.020	14166
599.090	13595
599.159	14434
599.229	14103
599.299	12943
599.368	13026
599.437	13920
599.507	13760
599.576	15862
599.646	18237
599.715	19360
599.785	14761
599.854	16067
599.924	17797
599.993	15922
600.062	13278
600.132	14802
600.201	14285
600.270	17419
600.340	14800
600.409	14635
600.478	14104
600.547	15046
600.617	14358
600.686	14901
600.755	14382
600.824	15294
600.894	13853
600.963	14193
601.032	13296
601.101	13628
601.170	12328
601.239	14114
601.308	13530
601.378	14350
601.447	14150
601.516	13543
601.585	13798
601.654	14137
601.723	14524
601.792	15489
601.861	17421
601.930	23472
601.999	16998
602.068	13748
602.137	13746
602.206	14379
602.275	15125
602.343	18090
602.412	17903
602.481	14583
602.550	13335
602.619	14279
602.688	15686
602.756	15404
602.825	14255
602.894	14012
602.963	14043
603.032	14373
603.100	13601
603.169	15173
603.238	14524
603.307	14255
603.375	14477
603.444	15268
603.513	13542
603.581	14003
603.650	14081
603.719	12887
603.787	13772
603.856	13940
603.924	14269
603.993	14254
604.061	12892
604.130	14364
604.198	14210
604.267	14801
604.335	13539
604.404	13982
604.472	14692
604.541	15154
604.609	14410
604.678	14486
604.746	14696
604.815	16136
604.883	13851
604.951	15268
605.020	14270
605.088	14592
605.156	14310
605.225	14917
605.293	13680
605.361	14529
605.429	14353
605.498	15568
605.566	15395
605.634	15815
605.702	14959
605.771	15667
605.839	15290
605.907	15662
605.975	15676
606.043	15261
606.111	15091
606.180	18652
606.248	24423
606.316	27530
606.384	15704
606.452	20156
606.520	18161
606.588	14655
606.656	12575
606.724	13065
606.792	12963
606.860	11735
606.928	11169
606.996	11880
607.064	10629
607.132	11652
607.200	11858
607.267	12198
607.335	10890
607.403	12393
607.471	11244
607.539	11975
607.607	11704
607.674	11748
607.742	11723
607.810	12069
607.878	11389
607.946	10387
608.013	10740
608.081	11509
608.149	11270
608.216	10694
608.284	12047
608.352	11468
608.419	12719
608.487	20117
608.555	12823
608.622	11375
608.690	12067
608.757	12441
608.825	12311
608.893	13467
608.960	14047
609.028	17123
609.095	20692
609.163	13216
609.230	11429
609.298	12249
609.365	10414
609.432	11580
609.500	11250
609.567	12562
609.635	13388
609.702	12640
609.769	14245
609.837	14386
609.904	12008
609.971	9568
610.039	12322
610.106	15328
610.173	23475
610.241	50196
610.308	38799
610.375	22900
610.442	11561
610.509	10212
610.577	11720
610.644	11781
610.711	10511
610.778	12433
610.845	11965
610.912	14645
610.980	19256
611.047	37320
611.114	19013
611.181	12108
611.248	10106
611.315	13518
611.382	11727
611.449	11935
611.516	12707
611.583	11638
611.650	11908
611.717	12820
611.784	11676
611.851	13529
611.918	14192
611.984	15147
612.051	22611
612.118	42870
612.185	102536
612.252	53165
612.319	15099
612.386	14548
612.452	13450
612.519	16313
612.586	22449
612.653	16070
612.719	13017
612.786	11739
612.853	11332
612.919	11873
612.986	12714
613.053	11329
613.120	10738
613.186	9729
613.253	12493
613.319	11015
613.386	10725
613.453	11719
613.519	13357
613.586	16630
613.652	23008
613.719	18826
613.785	16704
613.852	15152
613.918	15560
613.985	27266
614.051	66136
614.118	185226
614.184	153889
614.250	23108
614.317	13379
614.383	12430
614.449	10272
614.516	12707
614.582	11852
614.648	12559
614.715	11091
614.781	11153
614.847	12385
614.914	12138
614.980	12355
615.046	10893
615.112	10494
615.179	10987
615.245	11467
615.311	12786
615.377	15215
615.443	14646
615.509	11719
615.575	13248
615.642	11920
615.708	14036
615.774	13844
615.840	15945
615.906	17939
615.972	21950
616.038	36655
616.104	65293
616.170	146605
616.236	101139
616.302	25005
616.368	18905
616.434	14409
616.500	15108
616.565	15991
616.631	17488
616.697	14993
616.763	16216
616.829	21287
616.895	32563
616.961	28302
617.026	16973
617.092	12675
617.158	14121
617.224	12199
617.289	13917
617.355	12692
617.421	13190
617.487	13789
617.552	12194
617.618	11590
617.684	11906
617.749	13539
617.815	12364
617.880	11625
617.946	11859
618.012	12137
618.077	11903
618.143	11262
618.208	12571
618.274	12344
618.339	13368
618.405	11565
618.470	13198
618.536	13789
618.601	16007
618.667	13555
618.732	12672
618.798	12262
618.863	12277
618.928	12225
618.994	14450
619.059	14895
619.124	20803
619.190	14532
619.255	12492
619.320	11590
619.386	13194
619.451	10974
619.516	12550
619.581	12860
619.647	12778
619.712	12326
619.777	12442
619.842	12765
619.907	13804
619.972	12766
620.038	13176
620.103	12210
620.168	10767
620.233	12132
620.298	10850
620.363	11926
620.428	12276
620.493	12727
620.558	12178
620.623	10797
620.688	12301
620.753	11104
620.818	11840
620.883	11711
620.948	12362
621.013	11967
621.078	11972
621.143	12101
621.207	15344
621.272	13088
621.337	14460
621.402	16541
621.467	23005
621.532	21579
621.596	16647
621.661	15923
621.726	13982
621.791	13488
621.855	16168
621.920	16218
621.985	17406
622.049	19952
622.114	18386
622.179	16113
622.243	17441
622.308	15037
622.373	18422
622.437	16406
622.502	15271
622.566	15160
622.631	14471
622.695	17119
622.760	17069
622.824	14620
622.889	15733
622.953	17626
623.018	25362
623.082	20827
623.147	16189
623.211	15468
623.276	15553
623.340	14139
623.404	15196
623.469	14369
623.533	15158
623.597	13704
623.662	14893
623.726	13128
623.790	13741
623.854	13188
623.919	14530
623.983	13791
624.047	14511
624.111	13003
624.176	14945
624.240	15526
624.304	17162
624.368	13298
624.432	14898
624.496	14667
624.560	16069
624.625	16863
624.689	15002
624.753	14245
624.817	13706
624.881	12167
624.945	13583
625.009	13067
625.073	13418
625.137	13931
625.201	17587
625.265	16390
625.329	14504
625.393	14659
625.456	13973
625.520	14564
625.584	17034
625.648	21876
625.712	36089
625.776	83682
625.839	91194
625.903	30294
625.967	18107
626.031	33656
626.095	49613
626.158	15887
626.222	11087
626.286	12576
626.349	10918
626.413	10086
626.477	13229
626.540	11007
626.604	10662
626.668	12783
626.731	11577
626.795	11087
626.858	12337
626.922	10853
626.986	12365
627.049	9520
627.113	10735
627.176	10719
627.240	11258
627.303	11122
627.366	11685
627.430	9933
627.493	11173
627.557	9987
627.620	11973
627.684	10718
627.747	11265
627.810	9268
627.874	11263
627.937	9304
628.000	12248
628.064	11035
628.127	8034
628.190	10470
628.253	11126
628.317	9333
628.380	9950
628.443	9096
628.506	9490
628.569	10431
628.632	9362
628.696	9366
628.759	10022
628.822	8436
628.885	8593
628.948	8943
629.011	9824
629.074	9412
629.137	8738
629.200	8784
629.263	11113
629.326	7782
629.389	8396
629.452	10085
629.515	9614
629.578	8309
629.641	10841
629.704	8724
629.767	9124
629.830	8941
629.892	8759
629.955	7986
630.018	11196
630.081	9009
630.144	12241
630.207	7551
630.269	10925
630.332	10374
630.395	9168
630.458	7490
630.520	7475
630.583	9039
630.646	9179
630.708	7043
630.771	7916
630.834	8191
630.896	8110
630.959	7130
631.021	6896
631.084	7517
631.146	9913
631.209	10005
631.272	8037
631.334	7147
631.397	7513
631.459	5907
631.522	7971
631.584	6992
631.646	8864
631.709	8766
631.771	10937
631.834	8728
631.896	7831
631.958	6094
632.021	9011
632.083	6159
632.145	7101
632.208	6123
632.270	8213
632.332	6723
632.395	5777
632.457	7608
632.519	6395
632.581	7746
632.643	6792
632.706	7263
632.768	6050
632.830	7491
632.892	6774
632.954	5884
633.016	7799
633.078	6154
633.141	6387
633.203	6441
633.265	7569
633.327	6830
633.389	5717
633.451	8125
633.513	8991
633.575	9317
633.637	8762
633.698	7097
633.760	7008
633.822	7686
633.884	6736
633.946	7604
634.008	7100
634.070	8197
634.132	12444
634.193	8228
634.255	7049
634.317	6211
634.379	7420
634.441	6027
634.502	6675
634.564	6595
634.626	6165
634.687	7118
634.749	6448
634.811	6011
634.873	4923
634.934	5543
634.996	6385
635.057	5023
635.119	5385
635.181	5749
635.242	6669
635.304	3691
635.365	7952
635.427	5276
635.488	6036
635.550	5049
635.611	6266
635.673	4108
635.734	7318
635.796	5731
635.857	8124
635.918	4626
635.980	6698
636.041	5256
636.102	7069
636.164	5677
636.225	7437
636.286	4826
636.348	7262
636.409	5593
636.470	5000
636.531	5993
636.593	7056
636.654	6461
636.715	5535
636.776	5068
636.838	4775
636.899	5642
636.960	5590
637.021	4893
637.082	5499
637.143	5956
637.204	4628
637.265	5049
637.326	6119
637.387	5131
637.448	4213
637.509	4642
637.570	4745
637.631	6172
637.692	3911
637.753	3207
637.814	3798
637.875	4332
637.936	6387
637.997	3970
638.058	4922
638.119	5827
638.179	4730
638.240	3510
638.301	4610
638.362	4217
638.423	4723
638.483	6255
638.544	3971
638.605	4335
638.666	3729
638.726	4048
638.787	5106
638.848	3466
638.908	4606
638.969	5136
639.030	4841
639.090	2791
639.151	4112
639.211	5718
639.272	6490
639.332	9957
639.393	6208
639.453	2979
639.514	5432
639.574	4331
639.635	3705
639.695	4424
639.756	4135
639.816	4878
639.877	6016
639.937	11067
639.997	13088
640.058	3842
640.118	3631
640.178	4806
640.239	4680
640.299	3787
640.359	3947
640.420	3542
640.480	4700
640.540	2898
640.600	4255
640.661	4758
640.721	3740
640.781	5968
640.841	2247
640.901	4958
640.961	4500
641.021	5663
641.082	4648
641.142	6994
641.202	6536
641.262	3273
641.322	4306
641.382	3227
641.442	4788
641.502	4129
641.562	4960
641.622	2935
641.682	4331
641.742	4239
641.802	4679
641.861	5124
641.921	4223
641.981	6283
642.041	5542
642.101	6738
642.161	3375
642.221	3717
642.280	3340
642.340	3661
642.400	2904
642.460	4783
642.519	4053
642.579	3136
642.639	5146
642.698	1442
642.758	5315
642.818	3876
642.877	3053
642.937	4402
642.997	5558
643.056	6664
643.116	3296
643.175	4980
643.235	3808
643.294	2485
643.354	4284
643.414	4210
643.473	4472
643.532	3992
643.592	4886
643.651	6615
643.711	11259
643.770	20010
643.830	48194
643.889	93577
643.948	17319
644.008	4778
644.067	3863
644.126	2913
644.186	4869
644.245	3508
644.304	2820
644.363	5292
644.423	2682
644.482	3267
644.541	4636
644.600	854
644.659	4238
644.719	3219
644.778	4305
644.837	5761
644.896	10152
644.955	17382
645.014	7763
645.073	7519
645.132	3037
645.191	4349
645.250	3657
645.309	3833
645.368	3352
645.427	3105
645.486	2767
645.545	5506
645.604	3043
645.663	3370
645.722	3116
645.781	3800
645.840	3124
645.898	4173
645.957	5477
646.016	4530
646.075	9495
646.134	15914
646.192	44185
646.251	55896
646.310	7620
646.369	3616
646.427	3445
646.486	1881
646.545	3416
646.603	2135
646.662	3153
646.721	3213
646.779	2318
646.838	2097
646.896	3870
646.955	2742
647.014	4896
647.072	4440
647.131	11924
647.189	4414
647.248	2641
647.306	2675
647.365	3582
647.423	1152
647.481	3495
647.540	1282
647.598	3452
647.657	1572
647.715	3057
647.773	2416
647.832	3836
647.890	1801
647.948	2642
648.007	3584
648.065	2559
648.123	3105
648.181	6597
648.240	8207
648.298	4895
648.356	2745
648.414	3372
648.472	3051
648.531	3851
648.589	3298
648.647	2204
648.705	2890
648.763	2052
648.821	2389
648.879	2676
648.937	2942
648.995	2975
649.053	2873
649.111	4586
649.169	5139
649.227	7946
649.285	12485
649.343	34758
649.401	18042
649.459	19671
649.516	19499
649.574	28060
649.632	80795
649.690	83685
649.748	14637
649.806	18608
649.863	27125
649.921	11967
649.979	5030
650.037	3406
650.094	1274
650.152	3748
650.210	1521
650.268	3364
650.325	2604
650.383	2374
650.440	1119
650.498	2693
650.556	2586
650.613	1971
650.671	2429
650.728	2662
650.786	3570
650.843	2850
650.901	-71
650.958	3148
651.016	2266
651.073	2423
651.131	1413
651.188	2174
651.246	2241
651.303	1921
651.360	2098
651.418	2006
651.475	2350
651.532	1800
651.590	2687
651.647	1283
651.704	1756
651.762	2653
651.819	2021
651.876	1628
651.933	2061
651.990	3418
652.048	1422
652.105	1499
652.162	2574
652.219	2070
652.276	2063
652.333	2036
652.390	876
652.448	2754
652.505	2469
652.562	3162
652.619	4683
652.676	12801
652.733	10526
652.790	2190
652.847	1510
652.904	2339
652.961	1309
653.017	1466
653.074	2825
653.131	2426
653.188	1787
653.245	2581
653.302	1115
653.359	1304
653.415	2583
653.472	1262
653.529	1939
653.586	1700
653.642	1503
653.699	2241
653.756	760
653.813	1060
653.869	2380
653.926	1106
653.983	877
654.039	2671
654.096	2422
654.152	2943
654.209	804
654.266	3190
654.322	1027
654.379	3023
654.435	2760
654.492	3046
654.548	4458
654.605	7031
654.661	2513
654.717	2415
654.774	2348
654.830	2205
654.887	2084
654.943	1616
655.000	2113
655.056	2491
655.112	2524
655.168	1956
655.225	1748
655.281	3033
655.337	4035
655.394	8138
655.450	4536
655.506	4404
655.562	8525
655.618	6279
655.675	1371
655.731	2411
655.787	2480
655.843	3077
655.899	1368
655.955	2303
656.011	2332
656.067	698
656.123	2202
656.179	2284
656.235	3197
656.291	1565
656.347	4191
656.403	2573
656.459	2228
656.515	2687
656.571	2508
656.627	2404
656.683	2174
656.739	2103
656.795	1704
656.850	2565
656.906	2670
656.962	3090
657.018	1038
657.074	2262
657.129	958
657.185	2377
657.241	2616
657.297	946
657.352	1794
657.408	1598
657.464	2142
657.519	1747
657.575	506
657.630	2650
657.686	2372
657.742	1680
657.797	750
657.853	1838
657.908	2850
657.964	907
658.019	1093
658.075	2531
658.130	3166
658.186	1316
658.241	1748
658.297	1630
658.352	1321
658.407	2207
658.463	1083
658.518	1382
658.573	1678
658.629	920
658.684	819
658.739	1981
658.795	523
658.850	3128
658.905	946
658.960	1792
659.016	639
659.071	1664
659.126	1455
659.181	2461
659.236	5418
659.291	5389
659.346	2238
659.401	3903
659.457	5600
659.512	9228
659.567	3160
659.622	1649
659.677	1298
659.732	1709
659.787	1966
659.842	3047
659.897	2550
659.952	2827
660.007	1050
660.061	2195
660.116	1148
660.171	1303
660.226	1504
660.281	1394
660.336	1370
660.391	1524
660.445	1275
660.500	1510
660.555	1446
660.610	1313
660.664	2208
660.719	1400
660.774	1700
660.828	1467
660.883	1529
660.938	1905
660.992	634
661.047	3017
661.101	794
661.156	2203
661.211	1436
661.265	1645
661.320	682
661.374	2215
661.429	712
661.483	2114
661.538	852
661.592	1802
661.647	1496
661.701	934
661.755	1563
661.810	1696
661.864	1437
661.919	1040
661.973	2318
662.027	1767
662.081	970
662.136	1819
662.190	2596
662.244	2816
662.299	722
662.353	2151
662.407	264
662.461	705
662.515	1690
662.569	1797
662.624	2562
662.678	1236
662.732	1076
662.786	2150
662.840	1587
662.894	1712
662.948	1710
663.002	1528
663.056	1248
663.110	1591
663.164	1051
663.218	1256
663.272	1223
663.326	891
663.380	1432
663.434	1858
663.488	864
663.542	1997
663.595	1541
663.649	1079
663.703	1794
663.757	1451
663.811	1740
663.864	1284
663.918	1432
663.972	1394
664.026	1720
664.079	1402
664.133	1781
664.187	1609
664.240	969
664.294	1651
664.348	1910
664.401	1758
664.455	937
664.508	1856
664.562	1595
664.615	975
664.669	1178
664.722	1455
664.776	1342
664.829	2391
664.883	592
664.936	1382
664.990	1606
665.043	2532
665.097	1994
665.150	3146
665.203	725
665.257	2220
665.310	1648
665.363	2625
665.417	1236
665.470	1842
665.523	1078
665.576	2183
665.630	1395
665.683	1386
665.736	2766
665.789	1682
665.842	1265
665.895	2112
665.949	1786
666.002	2203
666.055	1332
666.108	2360
666.161	2810
666.214	3020
666.267	1171
666.320	2304
666.373	1618
666.426	2156
666.479	1215
666.532	2336
666.585	2105
666.638	2664
666.691	1766
666.744	3265
666.796	2390
666.849	2724
666.902	1904
666.955	2737
667.008	1070
667.060	2056
667.113	691
667.166	1140
667.219	1373
667.271	1772
667.324	1220
667.377	2080
667.430	2418
667.482	4970
667.535	3093
667.587	2475
667.640	2218
667.693	2704
667.745	4138
667.798	4201
667.850	1147
667.903	1778
667.955	1735
668.008	1862
668.060	2630
668.113	2781
668.165	2829
668.218	2108
668.270	2085
668.322	2082
668.375	1788
668.427	2181
668.479	1187
668.532	2097
668.584	1973
668.636	2362
668.689	2400
668.741	2149
668.793	1795
668.845	2239
668.898	1898
668.950	1219
669.002	2394
669.054	1526
669.106	1299
669.158	2211
669.211	2227
669.263	2668
669.315	4134
669.367	5300
669.419	1679
669.471	3599
669.523	1869
669.575	4570
669.627	2198
669.679	2263
669.731	1683
669.783	2031
669.835	2394
669.886	2640
669.938	1692
669.990	2385
670.042	1326
670.094	2128
670.146	1630
670.197	2388
670.249	3139
670.301	3113
670.353	3636
670.404	5315
670.456	6874
670.508	11531
670.560	20628
670.611	36863
670.663	65950
670.715	177025
670.766	234092
670.818	41672
670.869	7538
670.921	5377
670.972	4296
671.024	3453
671.075	3324
671.127	2747
671.178	1737
671.230	2186
671.281	2348
671.333	3152
671.384	2066
671.436	2561
671.487	3349
671.538	2766
671.590	2426
671.641	3787
671.692	4476
671.744	7001
671.795	3998
671.846	2825
671.897	2686
671.949	2506
672.000	2278
672.051	2585
672.102	2093
672.153	2133
672.204	1992
672.256	2007
672.307	2281
672.358	2238
672.409	1704
672.460	1901
672.511	1819
672.562	2159
672.613	1084
672.664	1670
672.715	1882
672.766	2204
672.817	1617
672.868	2263
672.919	1512
672.970	2507
673.021	1566
673.071	2138
673.122	1320
673.173	2111
673.224	1850
673.275	1657
673.326	1972
673.376	1772
673.427	1157
673.478	2266
673.528	1926
673.579	1314
673.630	1030
673.680	1863
673.731	1608
673.782	665
673.832	1368
673.883	2434
673.934	1196
673.984	1621
674.035	1543
674.085	1912
674.136	2086
674.186	2460
674.237	2982
674.287	4149
674.338	1891
674.388	2373
674.438	1122
674.489	2178
674.539	1935
674.589	1788
674.640	1491
674.690	1411
674.740	1247
674.791	2641
674.841	2011
674.891	2445
674.942	1958
674.992	1918
675.042	1012
675.092	1787
675.142	808
675.193	1606
675.243	998
675.293	1289
675.343	985
675.393	1303
675.443	1544
675.493	1189
675.543	1134
675.593	1725
675.643	1329
675.693	2190
675.743	1594
675.793	1882
675.843	1012
675.893	1496
675.943	1375
675.993	1328
676.043	1538
676.093	1969
676.142	634
676.192	1873
676.242	1193
676.292	498
676.341	1208
676.391	1647
676.441	946
676.491	1451
676.540	830
676.590	1680
676.640	916
676.689	1297
676.739	845
676.789	518
676.838	866
676.888	1527
676.937	1637
676.987	552
677.037	898
677.086	1390
677.136	689
677.185	900
677.235	675
677.284	939
677.333	541
677.383	1514
677.432	-84
677.482	1174
677.531	995
677.580	1709
677.630	1150
677.679	1654
677.728	206
677.778	1847
677.827	-300
677.876	662
677.925	906
677.975	1510
678.024	860
678.073	810
678.122	670
678.171	361
678.220	472
678.269	2282
678.319	600
678.368	1120
678.417	904
678.466	1349
678.515	1342
678.564	1159
678.613	878
678.662	2065
678.711	1315
678.760	1331
678.809	1018
678.857	863
678.906	299
678.955	1944
679.004	1690
679.053	1208
679.102	297
679.151	1050
679.199	863
679.248	1343
679.297	1219
679.346	988
679.394	758
679.443	1074
679.492	953
679.540	789
679.589	863
679.638	1253
679.686	806
679.735	1439
679.784	887
679.832	923
679.881	-194
679.929	1636
679.978	379
680.026	778
680.075	576
680.123	911
680.172	442
680.220	208
680.268	794
680.317	210
680.365	-72
680.414	1357
680.462	544
680.510	1211
680.559	180
680.607	971
680.655	10
680.703	1168
680.752	704
680.800	562
680.848	699
680.896	487
680.945	250
680.993	1045
681.041	393
681.089	1036
681.137	731
681.185	966
681.233	933
681.258	823
681.281	691
681.329	-341
681.377	1011
681.380	1052
681.425	1266
681.473	1326
681.502	973
681.521	667
681.569	1765
681.617	571
681.624	749
681.665	1686
681.713	1332
681.745	1341
681.761	1297
681.809	1133
681.857	1817
681.867	1700
681.904	1164
681.952	2127
681.989	1458
682.000	1227
682.048	1883
682.096	1621
682.111	1844
682.143	2198
682.191	1939
682.233	2947
682.239	3073
682.286	2230
682.334	2430
682.354	1910
682.382	1142
682.430	2903
682.476	1644
682.477	1590
682.525	2164
682.572	1632
682.598	1806
682.620	1953
682.667	1664
682.715	2470
682.720	2472
682.763	2181
682.810	2080
682.841	2497
682.857	2655
682.905	2294
682.952	2010
682.963	2218
683.000	2898
683.047	2864
683.085	3528
683.095	3663
683.142	2895
683.190	2522
683.206	2543
683.237	2600
683.284	3404
683.328	2567
683.332	2465
683.379	3398
683.426	2482
683.449	2843
683.473	3220
683.521	3020
683.568	3648
683.571	3605
683.615	2703
683.662	3578
683.693	3586
683.709	3587
683.757	3764
683.804	3183
683.814	3269
683.851	3434
683.898	3394
683.936	3989
683.945	4148
683.992	4258
684.039	4725
684.057	4814
684.086	4784
684.133	4327
684.179	4223
684.180	4201
684.227	3902
684.274	3822
684.300	3868
684.321	3900
684.368	4346
684.415	4804
684.422	4693
684.462	3777
684.509	4192
684.543	3907
684.556	3848
684.603	4062
684.649	3562
684.665	3829
684.696	4413
684.743	4436
684.786	5852
684.790	5953
684.837	5498
684.883	6031
684.908	5975
684.930	5796
684.977	6796
685.023	5720
685.029	5829
685.070	6386
685.117	5106
685.150	4644
685.164	4582
685.210	5840
685.257	6491
685.272	6430
685.303	6034
685.350	6456
685.393	6411
685.396	6420
685.443	6930
685.490	6766
685.514	7309
685.536	7489
685.583	6669
685.629	6650
685.636	6552
685.675	6212
685.722	6323
685.757	6611
685.768	6649
685.815	6854
685.861	7097
685.878	6906
685.908	6878
685.954	7159
686.000	8003
686.000	8016
686.047	8893
686.093	10098
686.121	10698
686.139	10286
686.185	9441
686.232	7524
686.242	7488
686.278	7911
686.324	7233
686.363	7132
686.370	7177
686.416	7262
686.463	7626
686.484	7474
686.509	7237
686.555	7482
686.601	6689
686.606	6815
686.647	7871
686.693	6894
686.727	7264
686.739	7391
686.785	7304
686.831	7163
686.848	7246
686.877	7348
686.923	7017
686.969	6981
686.969	6980
687.015	7379
687.061	6753
687.090	7066
687.107	7234
687.153	7252
687.199	7273
687.211	7291
687.245	7631
687.291	7701
687.332	7993
687.336	7981
687.382	8264
687.428	7876
687.453	8051
687.474	8057
687.520	7590
687.565	7312
687.574	7137
687.611	6864
687.657	7360
687.695	7530
687.702	7528
687.748	7779
687.794	7584
687.816	7407
687.839	7326
687.885	7240
687.931	8119
687.937	8050
687.976	7763
688.022	8126
688.058	8566
688.067	8628
688.113	7979
688.158	7900
688.179	7739
688.204	7569
688.249	8189
688.295	8523
688.300	8461
688.340	8398
688.386	8982
688.421	8940
688.431	8813
688.477	8916
688.522	8540
688.542	8465
688.567	8579
688.613	8284
688.658	8868
688.663	8812
688.703	8244
688.749	8674
688.784	8400
688.794	8354
688.839	8643
688.884	8756
688.905	8660
688.930	8525
688.975	8676
689.020	8410
689.026	8327
689.065	8075
689.110	8530
689.146	8607
689.155	8533
689.201	8593
689.246	8326
689.267	8158
689.291	8416
689.336	8690
689.381	9174
689.388	9264
689.426	9112
689.471	9083
689.509	8452
689.516	8419
689.561	8877
689.606	8374
689.630	8635
689.651	8833
689.696	8455
689.741	9395
689.750	9200
689.785	8668
689.830	9056
689.871	9427
689.875	9429
689.920	8816
689.965	8542
689.992	8226
690.010	8360
690.054	8702
690.099	9564
690.112	9661
690.144	9611
690.189	9160
690.233	9110
690.233	9125
690.278	9451
690.323	9429
690.354	9635
690.367	9733
690.412	9772
690.457	10253
690.474	10100
690.501	10002
690.546	10081
690.590	10760
690.595	10726
690.635	10597
690.680	10803
690.716	11152
690.724	11513
690.769	13256
690.813	15020
690.836	15615
690.857	16909
690.902	20513
690.946	24028
690.957	24811
690.991	32722
691.035	43871
691.077	53443
691.080	53401
691.124	49510
691.168	46747
691.198	44426
691.213	41759
691.257	34873
691.301	26854
691.318	24010
691.346	21979
691.390	18139
691.434	14460
691.439	14004
691.478	13611
691.522	13522
691.559	13269
691.567	13278
691.611	13474
691.655	12974
691.680	13052
691.699	12975
691.743	12048
691.787	11874
691.800	11620
691.831	11525
691.875	11391
691.919	11772
691.921	11747
691.964	12033
692.008	12486
692.041	12828
692.052	12792
692.096	12347
692.139	12166
692.162	11966
692.183	11997
692.227	12241
692.271	12107
692.282	12150
692.315	12165
692.359	11824
692.402	11425
692.403	11451
692.447	11685
692.490	12318
692.523	12576
692.534	12622
692.578	12610
692.622	12588
692.643	12693
692.666	12701
692.709	12218
692.753	11997
692.763	11883
692.797	11813
692.840	11914
692.884	11927
692.884	11956
692.928	12114
692.971	12480
693.004	12681
693.015	12649
693.059	12345
693.102	12204
693.124	11892
693.146	12274
693.189	13572
693.233	14551
693.245	14857
693.276	15499
693.320	16266
693.363	16638
693.365	16622
693.407	17699
693.450	19047
693.485	19956
693.493	20527
693.537	23406
693.580	25977
693.605	27676
693.624	31348
693.667	39593
693.710	48168
693.725	51197
693.753	66992
693.797	91812
693.840	116066
693.845	118656
693.883	111134
693.926	102192
693.966	95179
693.970	93459
694.013	72808
694.056	52396
694.086	38054
694.099	36457
694.142	31636
694.185	26201
694.206	23806
694.229	23138
694.272	21537
694.315	19989
694.326	19501
694.358	19130
694.401	18624
694.444	18117
694.446	18049
694.487	16986
694.530	15815
694.566	15032
694.573	14995
694.616	13995
694.659	13440
694.686	12884
694.702	12767
694.745	12528
694.787	12065
694.806	11955
694.830	12153
694.873	12398
694.916	12497
694.926	12502
694.959	12343
695.002	12205
695.044	11757
695.046	11725
695.087	12413
695.130	12884
695.166	13276
695.172	13225
695.215	12573
695.258	11912
695.286	11445
695.301	11582
695.343	11841
695.386	12500
695.406	12574
695.428	12300
695.471	11930
695.514	11485
695.526	11316
695.556	11567
695.599	12145
695.641	12187
695.646	12210
695.684	12109
695.726	11777
695.766	11428
695.769	11479
695.811	11844
695.854	12303
695.886	12527
695.896	12475
695.938	12137
695.981	11551
696.005	11398
696.023	11732
696.065	12216
696.108	12889
696.125	13077
696.150	12942
696.192	12787
696.235	12456
696.245	12343
696.277	12445
696.319	12604
696.361	12891
696.365	12847
696.404	12599
696.446	12757
696.485	12837
696.488	12889
696.530	12772
696.572	12852
696.604	12993
696.614	12956
696.656	12408
696.698	11993
696.724	11636
696.740	11767
696.783	12116
696.825	12524
696.844	12586
696.867	12443
696.909	12296
696.951	12037
696.964	11949
696.992	12136
697.034	12311
697.076	12431
697.083	12429
697.118	12562
697.160	12667
697.202	12723
697.203	12689
697.244	12407
697.286	12215
697.323	11801
697.327	11799
697.369	11604
697.411	11381
697.442	11187
697.453	11412
697.494	12213
697.536	12989
697.562	13473
697.578	13605
697.620	13815
697.661	13981
697.682	14028
697.703	14096
697.744	14204
697.786	14380
697.801	14348
697.828	14455
697.869	14659
697.911	14753
697.921	14762
697.952	14296
697.994	13572
698.035	12856
698.040	12729
698.077	12452
698.118	12113
698.160	11794
698.160	11758
698.201	12086
698.243	12284
698.279	12482
698.284	12515
698.325	12433
698.367	12429
698.399	12351
698.408	12352
698.449	12198
698.491	12053
698.518	11917
698.532	11925
698.573	11820
698.614	11749
698.638	11674
698.656	11899
698.697	12319
698.738	12758
698.757	12937
698.779	13139
698.820	13420
698.862	13717
698.877	13791
698.903	14057
698.944	14406
698.985	14760
698.996	14819
699.026	14590
699.067	14209
699.116	13719
699.235	12708
699.354	11727
699.474	13855
699.593	16604
699.713	15440
699.832	14205
699.951	14457
700.070	14185
700.190	13033
700.309	14791
700.428	17145
700.547	13797
700.667	14423
700.786	16643
700.905	13650
701.024	15505
701.143	13449
701.262	11588
701.381	13233
701.500	12256
701.619	14200
701.738	11379
701.857	11653
701.976	11405
702.095	11742
702.214	13101
702.333	14279
702.452	11817
702.571	11257
702.690	10172
702.809	11072
702.928	10823
703.047	11244
703.165	11105
703.284	11222
703.403	11935
703.522	14357
703.640	14275
703.759	18174
703.878	24985
703.997	13130
704.115	11372
704.234	11334
704.353	9835
704.471	10339
704.590	9246
704.708	10041
704.827	9487
704.946	11622
705.064	13004
705.183	11660
705.301	13466
705.420	19279
705.538	16965
705.656	16484
705.775	23894
705.893	71351
706.012	79376
706.130	16974
706.249	14430
706.367	15417
706.485	15945
706.604	14551
706.722	14833
706.840	20755
706.958	15492
707.077	13367
707.195	12883
707.313	12784
707.431	11739
707.549	13226
707.668	11680
707.786	13347
707.904	12889
708.022	11793
708.140	10918
708.258	11862
708.376	11896
708.494	12190
708.612	13783
708.730	19162
708.848	16882
708.966	17345
709.084	15196
709.202	15569
709.320	14821
709.438	15420
709.556	14576
709.674	14722
709.791	14297
709.909	15168
710.027	14279
710.145	14211
710.263	15451
710.380	14758
710.498	13264
710.616	15461
710.733	14976
710.851	15795
710.969	16100
711.086	15552
711.204	13772
711.322	14916
711.439	15355
711.557	16868
711.674	15925
711.792	16395
711.909	21159
712.027	24664
712.144	13244
712.262	14553
712.379	16418
712.497	22446
712.614	20650
712.732	18578
712.849	16846
712.966	21287
713.084	23166
713.201	18692
713.318	17499
713.436	16569
713.553	16082
713.670	17640
713.787	19568
713.905	19710
714.022	16504
714.139	16132
714.256	17108
714.373	17578
714.490	19422
714.608	28161
714.725	74960
714.842	64190
714.959	16141
715.076	15110
715.193	14322
715.310	14032
715.427	13765
715.544	13219
715.661	13811
715.778	14736
715.895	15751
716.011	16745
716.128	14247
716.245	15597
716.362	17590
716.479	18308
716.596	13943
716.713	14744
716.829	13885
716.946	13504
717.063	12271
717.180	12899
717.296	13073
717.413	12314
717.530	12419
717.646	13068
717.763	12577
717.880	12543
717.996	11998
718.113	13051
718.229	12596
718.346	12003
718.462	12807
718.579	16370
718.695	28662
718.812	21738
718.928	22876
719.045	14183
719.161	10895
719.277	11506
719.394	12058
719.510	14481
719.626	11962
719.743	13838
719.859	11658
719.975	14301
720.092	24045
720.208	39165
720.324	13434
720.440	12328
720.557	14247
720.673	23852
720.789	37260
720.905	89317
721.021	21061
721.137	11722
721.253	12830
721.369	12159
721.486	14427
721.602	23413
721.718	11032
721.834	8688
721.950	10398
722.066	9750
722.181	9507
722.297	10982
722.413	9862
722.529	10289
722.645	10342
722.761	11325
722.877	9900
722.993	9949
723.108	9273
723.224	9566
723.340	10161
723.456	10494
723.571	9600
723.687	9410
723.803	9426
723.918	8904
724.034	9416
724.150	9903
724.265	12128
724.381	31189
724.497	35650
724.612	9564
724.728	8264
724.843	9944
724.959	12899
725.074	31676
725.190	31825
725.305	11895
725.421	9346
725.536	7197
725.651	7873
725.767	7058
725.882	7327
725.997	8571
726.113	8577
726.228	7525
726.343	7409
726.459	7996
726.574	8629
726.689	8087
726.804	7749
726.920	7383
727.035	7636
727.150	8840
727.265	8204
727.380	10140
727.495	7752
727.610	7472
727.725	9030
727.841	14880
727.956	44255
728.071	26874
728.186	8763
728.301	7050
728.416	7477
728.531	6916
728.645	7166
728.760	9444
728.875	10715
728.990	11425
729.105	9653
729.220	8860
729.335	7660
729.449	7174
729.564	5816
729.679	6635
729.794	6164
729.908	7866
730.023	6763
730.138	5500
730.253	5687
730.367	5008
730.482	5956
730.596	6772
730.711	6460
730.826	6445
730.940	4864
731.055	7103
731.169	5473
731.284	5261
731.398	5502
731.513	8613
731.627	6938
731.742	9491
731.856	8358
731.970	5371
732.085	6133
732.199	6457
732.313	5671
732.428	8654
732.542	18747
732.656	11868
732.771	5156
732.885	5891
732.999	5689
733.113	6883
733.227	6005
733.342	5579
733.456	4771
733.570	4927
733.684	4217
733.798	5343
733.912	4432
734.026	4682
734.140	4532
734.254	7079
734.368	15132
734.482	18651
734.596	4933
734.710	4621
734.824	4573
734.938	4889
735.052	5445
735.166	7273
735.280	5523
735.393	4934
735.507	5316
735.621	9333
735.735	19815
735.849	6556
735.962	4833
736.076	6296
736.190	5573
736.303	10778
736.417	12902
736.531	5279
736.644	4860
736.758	4481
736.872	3715
736.985	4259
737.099	3909
737.212	4581
737.326	4037
737.439	4968
737.553	5093
737.666	4692
737.780	3489
737.893	4067
738.007	3672
738.120	4060
738.233	4396
738.347	4608
738.460	3291
738.573	5275
738.687	4824
738.800	5529
738.913	6671
739.026	6060
739.140	6923
739.253	7291
739.366	3561
739.479	4075
739.592	3103
739.705	4124
739.818	3659
739.932	4539
740.045	3935
740.158	4549
740.271	4542
740.384	5370
740.497	5653
740.610	7109
740.723	5894
740.836	6600
740.949	5982
741.062	8337
741.174	6079
741.287	5690
741.400	5609
741.513	6564
741.626	7933
741.739	6612
741.851	5046
741.964	5032
742.077	5149
742.189	5437
742.302	7389
742.415	7574
742.527	4728
742.640	4768
742.753	4546
742.865	4289
742.978	3531
743.090	4089
743.203	3599
743.316	3085
743.428	3512
743.541	3843
743.653	2842
743.766	3014
743.878	3593
743.990	7093
744.103	4910
744.215	4747
744.327	3227
744.440	5745
744.552	8314
744.664	4945
744.777	2784
744.889	3519
745.001	2982
745.113	2207
745.226	2525
745.338	3371
745.450	1990
745.562	3877
745.674	2277
745.786	3308
745.898	3398
746.010	3902
746.122	2612
746.234	3312
746.347	2635
746.459	3649
746.570	2639
746.682	3130
746.794	3955
746.906	3841
747.018	3002
747.130	2390
747.242	3024
747.354	3043
747.466	3522
747.577	3763
747.689	3475
747.801	3523
747.913	2006
748.024	2492
748.136	2289
748.248	2466
748.359	2526
748.471	2397
748.583	2967
748.694	5796
748.806	7620
748.918	6915
749.029	3732
749.141	3845
749.252	3073
749.364	5512
749.475	11609
749.587	7073
749.698	3278
749.809	3575
749.921	2407
750.032	1819
750.144	2629
750.255	2525
750.366	1980
750.478	3001
750.589	2471
750.700	3430
750.811	4297
750.923	4654
751.034	12336
751.145	11906
751.256	3278
751.367	3206
751.479	2629
751.590	1851
751.701	2677
751.812	2432
751.923	2959
752.034	2940
752.145	2023
752.256	2316
752.367	2181
752.478	3345
752.589	1901
752.700	2644
752.811	1998
752.922	3136
753.032	2599
753.143	4072
753.254	1845
753.365	2867
753.476	2281
753.586	2653
753.697	2505
753.808	2780
753.919	2186
754.029	2653
754.140	2028
754.251	2691
754.361	1961
754.472	2483
754.582	2804
754.693	2661
754.804	3154
754.914	2506
755.025	2590
755.135	2603
755.246	1616
755.356	2261
755.466	2394
755.577	1936
755.687	2084
755.798	2728
755.908	2242
756.018	2304
756.129	2909
756.239	2675
756.349	2560
756.460	2684
756.570	2561
756.680	2343
756.790	2601
756.900	3415
757.011	2178
757.121	2446
757.231	2304
757.341	3002
757.451	2286
757.561	2555
757.671	2619
757.781	2117
757.891	3730
758.001	3088
758.111	2888
758.221	2922
758.331	3287
758.441	4254
758.551	5682
758.661	4935
758.771	3539
758.880	4075
758.990	2429
759.100	3035
759.210	3670
759.320	3966
759.429	2560
759.539	4003
759.649	2736
759.758	3532
759.868	3679
759.978	3619
760.087	3070
760.197	4151
760.307	3596
760.416	3673
760.526	3052
760.635	4150
760.745	3592
760.854	4094
760.964	3955
761.073	3982
761.182	4020
761.292	5125
761.401	4833
761.511	4558
761.620	4602
761.729	5147
761.839	4662
761.948	5371
762.057	4807
762.166	5668
762.276	4289
762.385	5707
762.494	4657
762.603	5514
762.712	5076
762.822	5827
762.931	6044
763.040	5976
763.149	5644
763.258	6424
763.367	7078
763.476	6934
763.585	7199
763.694	8362
763.803	8568
763.912	9178
764.021	9198
764.130	10090
764.238	10691
764.347	10795
764.456	9581
764.565	11580
764.674	12393
764.783	13882
764.891	14000
765.000	16729
765.109	18074
765.217	21268
765.326	26289
765.435	33068
765.543	37962
765.652	46758
765.761	61127
765.869	87170
765.978	132484
766.086	217570
766.195	394543
766.303	767887
766.412	1013115
766.520	920714
766.629	628114
766.737	300121
766.846	171616
766.954	112515
767.062	81659
767.171	68783
767.279	48581
767.387	36852
767.496	30301
767.604	26834
767.712	22725
767.820	21098
767.928	19351
768.037	17765
768.145	17128
768.253	16790
768.361	15531
768.469	16463
768.577	15972
768.685	17173
768.793	17846
768.901	20345
769.009	23610
769.117	27888
769.225	36445
769.333	52491
769.441	84053
769.549	147377
769.657	313841
769.765	711023
769.873	844895
769.981	591839
770.088	229038
770.196	113251
770.304	70826
770.412	48526
770.519	36239
770.627	28825
770.735	23281
770.842	19261
770.950	17507
771.058	15880
771.165	13778
771.273	12065
771.380	11036
771.488	11276
771.595	9423
771.703	9299
771.810	9674
771.918	7588
772.025	7359
772.133	6974
772.240	5575
772.348	7160
772.455	5912
772.562	5862
772.670	5372
772.777	7302
772.884	5303
772.991	6157
773.099	5298
773.206	4586
773.313	5563
773.420	4189
773.528	3868
773.635	4722
773.742	4575
773.849	4462
773.956	3673
774.063	4267
774.170	3223
774.277	5081
774.384	3611
774.491	4110
774.598	3744
774.705	4465
774.812	5283
774.919	4863
775.026	3737
775.133	3556
775.239	4062
775.346	3331
775.453	3643
775.560	2695
775.667	3291
775.773	3007
775.880	3661
775.987	3407
776.093	3443
776.200	3294
776.307	2472
776.413	3138
776.520	2388
776.627	3910
776.733	2791
776.840	3065
776.946	3960
777.053	4548
777.159	5118
777.266	2725
777.372	5619
777.478	5331
777.585	3022
777.691	3386
777.798	2602
777.904	4659
778.010	9713
778.117	5716
778.223	3149
778.329	3330
778.435	2231
778.542	3157
778.648	2010
778.754	2167
778.860	2189
778.966	3086
779.072	1624
779.178	3025
779.284	2479
779.391	2745
779.497	1862
779.603	4855
779.708	3636
779.815	11717
779.920	39974
780.026	76565
780.132	8616
780.238	3025
780.344	2148
780.450	3442
780.556	2533
780.661	2611
780.767	2660
780.873	1424
780.979	2839
781.085	2388
781.190	2957
781.296	2226
781.402	1282
781.507	1322
781.613	1660
781.719	1771
781.824	1598
781.930	2392
782.035	1642
782.141	2257
782.246	706
782.352	2507
782.457	2488
782.563	1563
782.668	2266
782.773	2138
782.879	837
782.984	3387
783.090	2743
783.195	5251
783.300	2691
783.405	3422
783.511	1094
783.616	3429
783.721	1781
783.826	2411
783.932	2179
784.037	2239
784.142	2081
784.247	2106
784.352	1972
784.457	1837
784.562	1299
784.667	1915
784.772	1628
784.877	1865
784.982	2182
785.087	1280
785.192	2557
785.297	1301
785.402	2206
785.507	1992
785.611	2285
785.716	2079
785.821	1164
785.926	1036
786.031	1330
786.135	2067
786.240	1159
786.345	832
786.450	1625
786.554	1309
786.659	1460
786.763	604
786.868	618
786.973	3305
787.077	1848
787.182	1534
787.286	2008
787.391	1850
787.495	1187
787.600	1411
787.704	1127
787.809	1491
787.913	531
788.017	2287
788.122	1617
788.226	1513
788.330	892
788.435	1529
788.539	600
788.643	1028
788.747	965
788.852	1048
788.956	1137
789.060	1949
789.164	1430
789.268	405
789.372	569
789.476	1566
789.580	868
789.684	1206
789.788	992
789.892	1095
789.996	1510
790.100	2086
790.204	805
790.308	2628
790.412	1753
790.516	3850
790.620	1852
790.724	1752
790.828	2244
790.931	1138
791.035	2571
791.139	2416
791.242	-598
791.346	1448
791.450	1333
791.554	1418
791.657	-137
791.761	2866
791.864	2396
791.968	2025
792.072	1535
792.175	1649
792.279	1295
792.382	2026
792.486	1197
792.589	1592
792.693	1208
792.796	391
792.899	2203
793.003	2001
793.106	-1073
793.209	1546
793.313	2038
793.416	64
793.519	2605
793.623	3407
793.726	5112
793.829	2012
793.932	786
794.035	939
794.138	2311
794.242	3584
794.345	2774
794.448	4395
794.551	8291
794.654	21783
794.757	38339
794.860	7531
794.963	2033
795.066	1084
795.169	2146
795.272	649
795.375	1259
795.477	1293
795.580	1232
795.683	-325
795.786	348
795.889	-549
795.991	2091
796.094	2443
796.197	524
796.300	1929
796.402	786
796.505	402
796.608	406
796.710	974
796.813	-194
796.915	61
797.018	747
797.120	1722
797.223	-457
797.326	2611
797.428	-550
797.530	1736
797.633	448
797.735	2895
797.838	5318
797.940	4216
798.042	-324
798.145	739
798.247	1123
798.349	-257
798.452	1292
798.554	500
798.656	-366
798.758	1836
798.860	22
798.962	62
799.065	449
799.167	437
799.269	1542
799.371	1490
799.473	1627
799.575	1552
799.677	1923
799.779	3935
799.881	1892
799.983	2503
800.085	275
800.187	1102
800.289	402
800.390	1597
800.492	106
800.594	1329
800.696	364
800.798	419
800.899	536
801.001	478
801.103	541
801.205	614
801.306	560
801.408	-11
801.509	-191
801.611	565
801.713	191
801.814	550
801.916	94
802.017	302
802.119	-649
802.220	748
802.322	-455
802.423	3460
802.525	-12
802.626	1468
802.727	853
802.829	1823
802.930	-970
803.031	1969
803.133	456
803.234	-134
803.335	-27
803.436	-80
803.538	697
803.639	-582
803.740	722
803.841	253
803.942	855
804.043	1507
804.144	-366
804.245	955
804.346	-558
804.447	234
804.548	1802
804.649	2599
804.750	-69
804.851	-197
804.952	-22
805.053	487
805.154	-1103
805.255	1418
805.355	-68
805.456	406
805.557	-387
805.658	-354
805.758	1220
805.859	437
805.960	193
806.061	-238
806.161	-396
806.262	877
806.362	-920
806.463	356
806.564	720
806.664	1144
806.765	2034
806.865	2033
806.966	442
807.066	73
807.166	1210
807.267	1878
807.367	819
807.468	1034
807.568	-932
807.668	675
807.769	732
807.869	440
807.969	831
808.069	594
808.170	526
808.270	-756
808.370	542
808.470	2706
808.570	-345
808.670	598
808.770	-86
808.870	-850
808.970	353
809.070	-77
809.170	-21
809.271	579
809.370	2
809.470	280
809.570	-307
809.670	18
809.770	-129
809.870	1116
809.970	259
810.070	-410
810.169	525
810.269	-896
810.369	61
810.469	-753
810.568	-261
810.668	-410
810.768	-804
810.867	540
810.967	-1171
811.066	511
811.166	-720
811.265	1273
811.365	-1242
811.464	-218
811.564	-202
811.663	127
811.763	-1477
811.862	546
811.962	800
812.061	349
812.160	-1336
812.260	1315
812.359	50
812.458	407
812.557	1716
812.657	1552
812.756	598
812.855	-739
812.954	-724
813.053	1167
813.153	-348
813.252	-815
813.351	-261
813.450	-90
813.549	-242
813.648	356
813.747	-1136
813.846	581
813.945	-718
814.044	-980
814.143	-258
814.242	-372
814.341	-869
814.439	1015
814.538	114
814.637	57
814.736	-916
814.835	748
814.933	-554
815.032	-185
815.131	-553
815.229	243
815.328	24
815.427	-273
815.525	-109
815.624	156
815.722	-516
815.821	961
815.919	133
816.018	-609
816.116	601
816.215	326
816.313	142
816.412	152
816.510	-330
816.609	1657
816.707	59
816.805	-160
816.904	-770
817.002	168
817.100	420
817.198	959
817.296	-688
817.395	1027
817.493	1402
817.591	1070
817.689	1699
817.787	2202
817.885	5536
817.983	10602
818.081	22432
818.179	60405
818.277	165695
818.375	132323
818.473	30796
818.571	12011
818.669	7809
818.767	6807
818.865	6218
818.963	7760
819.061	11768
819.158	22975
819.256	52815
819.354	133255
819.452	318493
819.549	184505
819.647	42930
819.745	16294
819.842	9953
819.940	5980
820.038	4691
820.135	3543
820.233	3125
820.330	2509
820.428	842
820.525	2959
820.623	1686
820.720	1510
820.818	1705
820.915	1381
821.012	1252
821.110	235
821.207	372
821.304	45
821.402	600
821.499	1863
821.596	1413
821.693	1190
821.791	858
821.888	1867
821.985	5741
822.082	3312
822.179	1134
822.276	-80
822.373	-310
822.470	116
822.567	-6
822.664	-562
822.761	858
822.858	-6
822.955	773
823.052	-91
823.149	-223
823.246	628
823.343	-564
823.440	841
823.536	-160
823.633	-545
823.730	-93
823.827	656
823.923	-172
824.020	682
824.117	-242
824.213	-464
824.310	268
824.407	395
824.503	-477
824.600	554
824.696	-219
824.793	52
824.889	-1211
824.986	234
825.082	-606
825.179	603
825.275	-956
825.371	-539
825.468	-344
825.564	-254
825.660	61
825.757	-33
825.853	503
825.949	-384
826.045	-506
826.142	63
826.238	-219
826.334	-72
826.430	-683
826.526	1019
826.622	-1368
826.718	352
826.814	-1651
826.910	199
827.006	-972
827.102	-147
827.198	249
827.294	-592
827.390	-585
827.486	1085
827.582	-1612
827.678	-574
827.774	553
827.869	-933
827.965	434
828.061	-799
828.157	60
828.252	-1172
828.348	-778
828.444	1088
828.539	-1165
828.635	2
828.731	613
828.826	-629
828.922	-39
829.017	-259
829.113	-619
829.208	-456
829.304	-913
829.399	854
829.495	-1539
829.590	700
829.685	-1073
829.781	-317
829.876	-905
829.971	-435
830.066	-899
830.162	208
830.257	-958
830.352	-218
830.447	-80
830.543	842
830.638	-1236
830.733	474
830.828	280
830.923	294
831.018	344
831.113	-148
831.208	-1113
831.303	-65
831.398	-385
831.493	-91
831.588	-438
831.683	-1169
831.778	-1078
831.873	238
831.967	480
832.062	-548
832.157	-1517
832.252	1279
832.346	284
832.441	931
832.536	1617
832.631	4672
832.725	2125
832.820	-600
832.914	-767
833.009	302
833.104	299
833.198	722
833.293	52
833.387	169
833.482	294
833.576	-290
833.670	284
833.765	-710
833.859	-46
833.954	676
834.048	-520
834.142	-194
834.237	-272
834.331	-435
834.425	-987
834.519	-1138
834.613	-363
834.708	-812
834.802	-375
834.896	-643
834.990	-742
835.084	927
835.178	-872
835.272	75
835.366	-1749
835.460	-106
835.554	-795
835.648	216
835.742	-188
835.836	-728
835.930	-2003
836.024	40
836.117	419
836.211	482
836.305	1585
836.399	3451
836.493	-1338
836.586	298
836.680	-1063
836.774	1
836.867	668
836.961	-842
837.055	-857
837.148	-466
837.242	-1040
837.335	-149
837.429	-627
837.522	-208
837.616	533
837.709	3247
837.803	1429
837.896	477
837.989	-276
838.083	1768
838.176	4964
838.269	3567
838.363	108
838.456	376
838.549	545
838.642	1747
838.735	6223
838.829	2415
838.922	-497
839.015	61
839.108	-1537
839.201	192
839.294	-485
839.387	-128
839.480	-1222
839.573	1288
839.666	1659
839.759	196
839.852	-696
839.945	-96
840.038	-950
840.131	427
840.223	-910
840.316	591
840.409	-1679
840.502	-564
840.594	387
840.687	-667
840.780	-226
840.873	118
840.965	-497
841.058	1476
841.150	3355
841.243	1391
841.336	-845
841.428	-849
841.521	-1069
841.613	187
841.706	1166
841.798	-620
841.890	-1153
841.983	-837
842.075	-327
842.167	-147
842.260	-285
842.352	1379
842.444	943
842.537	5086
842.629	7835
842.721	1440
842.813	-817
842.905	-407
842.997	757
843.090	-274
843.182	1944
843.274	5202
843.366	13256
843.458	27420
843.550	14245
843.642	1352
843.734	-74
843.826	1665
843.918	329
844.009	725
844.101	-1238
844.193	6
844.285	-629
844.377	312
844.469	769
844.560	479
844.652	5
844.744	515
844.835	-546
844.927	-410
845.019	-32
845.110	349
845.202	248
845.293	71
845.385	-993
845.476	-240
845.568	290
845.659	-544
845.751	251
845.842	-470
845.934	-840
846.025	-83
846.116	-1452
846.208	767
846.299	-967
846.390	388
846.482	490
846.573	516
846.664	992
846.755	2846
846.846	1674
846.937	-1619
847.029	-1114
847.120	-383
847.211	-799
847.302	153
847.393	-1515
847.484	-626
847.575	-1176
847.666	-511
847.757	-458
847.847	-386
847.938	-551
848.029	54
848.120	-939
848.211	-881
848.302	-1127
848.392	-44
848.483	-390
848.574	-837
848.664	-935
848.755	-22
848.846	-697
848.936	-35
849.027	-35
849.118	-89
849.208	-515
849.299	-1049
849.389	-253
849.480	1501
849.570	912
849.661	2940
849.751	4437
849.841	1108
849.932	-659
850.022	-644
850.112	272
850.203	-1024
850.293	-532
850.383	221
850.474	-1330
850.564	-278
850.654	-584
850.744	-402
850.834	-655
850.924	-84
851.014	-896
851.104	-728
851.194	-819
851.284	552
851.374	243
851.464	82
851.554	-344
851.644	-91
851.734	1111
851.824	-466
851.914	-1486
852.004	413
852.094	-1089
852.183	-347
852.273	-591
852.363	-227
852.452	-835
852.542	-222
852.632	-694
852.721	256
852.811	-484
852.901	24
852.990	-1375
853.080	-621
853.169	-522
853.259	-828
853.348	-1804
853.438	-1091
853.527	343
853.617	156
853.706	1446
853.795	1946
853.885	7080
853.974	12882
854.063	25348
854.152	41023
854.242	11335
854.331	630
854.420	-239
854.509	-99
854.598	-160
854.687	487
854.777	-311
854.866	-102
854.955	270
855.044	-317
855.133	-807
855.222	-649
855.311	-386
855.400	177
855.488	-234
855.577	272
855.666	-368
855.755	979
855.844	1753
855.933	3196
856.021	661
856.110	411
856.199	-2086
856.288	-418
856.376	-975
856.465	-832
856.554	-727
856.642	78
856.731	-359
856.819	254
856.908	-994
856.996	1052
857.085	-1716
857.173	147
857.262	-1270
857.350	206
857.438	-914
857.527	-490
857.615	-872
857.703	667
857.792	-1058
857.880	-452
857.968	-1255
858.056	-472
858.145	-589
858.233	-363
858.321	-1517
858.409	-566
858.497	-1274
858.585	-1185
858.673	-846
858.761	-1191
858.849	-529
858.937	-879
859.025	-855
859.113	-687
859.201	-1147
859.289	436
859.377	-754
859.465	-222
859.552	-987
859.640	-881
859.728	-723
859.816	484
859.903	-1443
859.991	82
860.079	-1148
860.166	-44
860.254	-1040
860.342	-527
860.429	-1612
860.517	-1218
860.604	-1399
860.692	-1415
860.779	-1791
860.867	-689
860.954	-531
861.042	68
861.129	-365
861.216	-731
861.304	-902
861.391	-389
861.478	-1086
861.565	-635
861.653	-146
861.740	-661
861.827	-1349
861.914	463
862.001	-1763
862.089	-881
862.176	-895
862.263	-1299
862.350	-1117
862.437	-842
862.524	-1691
862.611	-1099
862.698	-406
862.785	-762
862.871	-585
862.958	-1103
863.045	-1353
863.132	-306
863.219	-1219
863.306	-1398
863.392	-694
863.479	-413
863.566	-984
863.652	-1159
863.739	-1527
863.826	-645
863.912	-1061
863.999	-1458
864.086	-423
864.172	-370
864.259	-1105
864.345	-755
864.432	-1129
864.518	-560
864.604	-865
864.691	-653
864.777	-531
864.863	-335
864.950	-214
865.036	-1275
865.122	-435
865.209	363
865.295	23
865.381	-258
865.467	-429
865.553	-523
865.639	-475
865.726	411
865.812	1807
865.898	6009
865.984	8043
866.070	19237
866.156	19032
866.242	3088
866.328	-204
866.414	-989
866.499	-909
866.585	-124
866.671	-1060
866.757	-530
866.843	-864
866.928	-1050
867.014	-1693
867.100	223
867.186	-1113
867.271	-321
867.357	1065
867.442	1860
867.528	470
867.614	-940
867.699	-1285
867.785	174
867.870	-587
867.956	92
868.041	-334
868.127	183
868.212	-50
868.297	585
868.383	-574
868.468	1002
868.553	1194
868.639	2055
868.724	5715
868.809	4478
868.894	294
868.979	-709
869.065	-1086
869.150	-980
869.235	-1319
869.320	-485
869.405	-1140
869.490	-1461
869.575	-1286
869.660	-484
869.745	-602
869.830	-839
869.915	-979
870.000	-806
870.085	-995
870.169	-349
870.254	-460
870.339	-990
870.424	-1862
870.509	-733
870.593	-1736
870.678	-992
870.763	-1696
870.847	-404
870.932	-1005
871.016	-658
871.101	-1335
871.186	-27
871.270	-1167
871.355	-272
871.439	-496
871.523	-966
871.608	-1840
871.692	-1041
871.777	-920
871.861	-318
871.945	-1491
872.030	-808
872.114	-699
872.198	-1875
872.282	-1344
872.367	-1061
872.451	-2181
872.535	-532
872.619	-754
872.703	-372
872.787	-1324
872.871	-1038
872.955	-1404
873.039	-158
873.123	-1432
873.207	147
873.291	-1666
873.375	-1223
873.459	-1171
873.543	321
873.627	-1345
873.711	-532
873.794	-1353
873.878	-972
873.962	-938
874.045	-700
874.129	-1223
874.137	-1153
874.213	-446
874.245	-641
874.296	-959
874.352	-1097
874.380	-1166
874.460	-1180
874.464	-1180
874.547	-725
874.568	-843
874.631	-1217
874.676	-925
874.714	-680
874.784	-563
874.798	-540
874.881	506
874.892	309
874.965	-1035
874.999	-665
875.048	-159
875.107	-880
875.131	-1179
875.215	36
875.215	35
875.298	-387
875.323	-543
875.381	-893
875.430	-719
875.465	-587
875.538	-979
875.548	-1037
875.631	-1147
875.646	-1079
875.714	-801
875.753	-1354
875.798	-1876
875.861	-1182
875.881	-1008
875.964	-248
875.968	-248
876.047	-202
876.076	-450
876.130	-909
876.183	-800
876.213	-749
876.291	-1007
876.296	-1020
876.379	-1193
876.398	-1185
876.462	-1172
876.506	-685
876.545	-310
876.613	-1297
876.628	-1480
876.711	-240
876.721	-296
876.794	-798
876.828	-540
876.877	-172
876.935	-878
876.960	-1110
877.043	-415
877.043	-414
877.125	-681
877.150	-550
877.208	78
877.258	-158
877.291	-358
877.365	-39
877.374	8
877.456	-579
877.472	-353
877.539	274
877.579	-75
877.622	-275
877.687	58
877.704	107
877.787	-911
877.794	-894
877.869	-628
877.901	-673
877.952	-677
878.008	-244
878.034	1
878.115	-398
878.117	-408
878.199	-91
878.222	-242
878.282	-806
878.329	-642
878.364	-456
878.437	-708
878.447	-709
878.529	-814
878.544	-709
878.611	-580
878.651	-650
878.694	-577
878.758	-642
878.776	-678
878.858	-168
878.865	-211
878.941	-869
878.972	-816
879.023	-549
879.078	-759
879.105	-712
879.185	918
879.187	934
879.269	-397
879.292	-640
879.351	-995
879.399	-1167
879.433	-1308
879.506	-238
879.516	-60
879.598	-892
879.613	-816
879.680	-796
879.720	-523
879.762	-161
879.827	-367
879.844	-457
879.926	-727
879.933	-715
880.007	-275
880.040	-243
880.089	-344
880.147	508
880.171	960
880.253	2306
880.254	2319
880.335	3808
880.360	4265
880.417	5608
880.467	9469
880.499	11800
880.574	11510
880.580	11397
880.662	2597
880.680	1898
880.744	-221
880.787	-98
880.825	95
880.893	-273
880.907	-392
880.989	-696
881.000	-774
881.070	-847
881.106	-682
881.152	-608
881.213	-685
881.233	-726
881.315	-964
881.319	-957
881.396	-753
881.426	-750
881.478	-737
881.532	-804
881.559	-747
881.639	-696
881.641	-700
881.722	-743
881.745	-630
881.803	-329
881.852	-731
881.885	-880
881.958	-390
881.966	-337
882.047	194
882.064	207
882.129	98
882.171	63
882.210	7
882.277	340
882.291	405
882.372	-926
882.383	-896
882.454	-489
882.489	-678
882.535	-852
882.596	-484
882.616	-494
882.697	-742
882.702	-748
882.778	-203
882.808	-229
882.859	-683
882.914	-923
882.940	-943
883.020	-1175
883.021	-1173
883.102	-526
883.127	-605
883.183	-560
883.233	20
883.264	213
883.339	-420
883.345	-487
883.426	-763
883.445	-757
883.507	-233
883.551	-56
883.587	-234
883.657	-660
883.668	-638
883.749	-31
883.763	-122
883.830	-774
883.869	-629
883.910	-427
883.975	-513
883.991	-576
884.072	-551
884.081	-577
884.152	-288
884.187	-127
884.233	-454
884.292	-1042
884.314	-980
884.394	-672
884.398	-652
884.475	-792
884.504	-738
884.555	-466
884.610	-626
884.636	-702
884.716	-450
884.716	-448
884.797	-950
884.821	-962
884.877	-520
884.927	-463
884.958	-697
885.033	-610
885.038	-562
885.118	-446
885.139	-348
885.199	-496
885.244	-579
885.279	-334
885.350	218
885.359	179
885.439	-460
885.456	-586
885.520	-392
885.561	-303
885.600	-536
885.667	-696
885.680	-639
885.760	-407
885.773	-368
885.840	-784
885.878	-1192
885.920	-1086
885.984	-543
886.000	-423
886.080	-279
886.089	-218
886.160	-230
886.195	-478
886.240	-573
886.300	-284
886.320	-255
886.400	-446
886.406	-450
886.480	-399
886.511	-345
886.560	-47
886.616	-1
886.640	-38
886.720	-83
886.722	-90
886.800	-879
886.827	-1050
886.879	-804
886.932	-719
886.959	-664
887.038	-421
887.039	-415
887.119	-217
887.143	-210
887.198	-243
887.248	-207
887.278	-266
887.354	-639
887.358	-660
887.437	-889
887.459	-1004
887.517	-525
887.564	-15
887.596	-37
887.669	-409
887.676	-445
887.755	-662
887.774	-766
887.835	-499
887.880	-86
887.914	-117
887.985	-565
887.994	-547
888.073	-160
888.090	-114
888.153	-599
888.195	-851
888.232	-767
888.300	-761
888.311	-721
888.391	-267
888.405	-206
888.470	-394
888.510	-544
888.549	-603
888.615	-645
888.628	-581
888.708	-232
888.720	-172
888.787	-289
888.825	-386
888.866	-438
888.930	-496
888.945	-485
889.024	-426
889.035	-424
889.103	-434
889.140	-407
889.182	-251
889.245	-73
889.261	-146
889.340	-455
889.349	-488
889.419	-411
889.454	-375
889.498	-120
889.559	222
889.577	152
889.656	-131
889.664	-157
889.735	458
889.768	752
889.814	482
889.873	121
889.978	565
890.083	72
890.187	646
890.292	-194
890.397	371
890.501	-385
890.606	204
890.710	179
890.815	-428
890.919	-363
891.024	555
891.128	408
891.233	383
891.337	-593
891.442	-290
891.546	-242
891.650	-121
891.755	-481
891.859	768
891.963	-525
892.068	334
892.172	-423
892.276	237
892.380	329
892.484	506
892.589	-313
892.693	-266
892.797	-749
892.901	-439
893.005	-272
893.109	338
893.213	259
893.317	-185
893.421	72
893.525	435
893.629	-248
893.733	-31
893.837	-605
893.941	511
894.045	-257
894.148	-621
894.252	-542
894.356	-186
894.460	-555
894.564	51
894.667	237
894.771	-70
894.875	-516
894.978	-98
895.082	-1503
895.186	967
895.289	496
895.393	262
895.496	208
895.600	-606
895.703	-886
895.807	-191
895.910	-395
896.014	122
896.117	34
896.221	662
896.324	-1122
896.427	-513
896.531	-347
896.634	12
896.737	-316
896.840	-216
896.944	-877
897.047	172
897.150	-39
897.253	-694
897.356	37
897.460	-444
897.563	-542
897.666	-424
897.769	-885
897.872	-141
897.975	-414
898.078	-418
898.181	-65
898.284	-725
898.387	-491
898.490	284
898.593	166
898.695	-224
898.798	75
898.901	-53
899.004	-473
899.107	112
899.209	-583
899.312	-1327
899.415	-579
899.518	-1040
899.620	-549
899.723	402
899.826	658
899.928	252
900.031	-355
900.133	-202
900.236	-50
900.338	-178
900.441	-212
900.543	270
900.646	85
900.748	-608
900.851	-443
900.953	842
901.055	-1271
901.158	134
901.260	-75
901.362	-252
901.465	-318
901.567	-21
901.669	-115
901.771	-130
901.873	-380
901.976	-322
902.078	-102
902.180	-306
902.282	-741
902.384	15
902.486	-550
902.588	-328
902.690	-702
902.792	-961
902.894	337
902.996	29
903.098	285
903.200	-424
903.302	-1
903.404	8
903.505	-409
903.607	-258
903.709	244
903.811	71
903.913	-815
904.014	-279
904.116	-615
904.218	414
904.319	-80
904.421	-805
904.523	-531
904.624	-550
904.726	204
904.827	-372
904.929	-401
905.030	94
905.132	241
905.233	-402
905.335	-418
905.436	-686
905.537	-416
905.639	-154
905.740	-409
905.841	-54
905.943	-386
906.044	-695
906.145	-179
906.247	-656
906.348	764
906.449	-140
906.550	-295
906.651	-315
906.752	-653
906.854	-611
906.955	-1043
907.056	12
907.157	-183
907.258	-159
907.359	-561
907.460	280
907.561	-1364
907.662	-422
907.762	-250
907.863	-563
907.964	-291
908.065	-325
908.166	172
908.267	-205
908.367	-1457
908.468	-285
908.569	-199
908.670	-60
908.770	-125
908.871	-570
908.971	-519
909.072	189
909.173	-898
909.273	-794
909.374	-1176
909.474	-743
909.575	99
909.675	-482
909.776	-189
909.876	-104
909.977	-850
910.077	406
910.177	-1163
910.278	-460
910.378	-79
910.478	-769
910.579	-324
910.679	18
910.779	-1082
910.879	-384
910.980	-1140
911.080	-246
911.180	-145
911.280	21
911.380	-140
911.480	-50
911.580	-447
911.680	-498
911.780	-463
911.880	421
911.980	-920
912.080	-526
912.180	-1014
912.280	232
912.380	-579
912.480	-293
912.580	-381
912.679	-631
912.779	-352
912.879	142
912.979	-159
913.078	-791
913.178	194
913.278	-567
913.377	-239
913.477	-518
913.577	-578
913.676	46
913.776	-840
913.875	-769
913.975	-95
914.074	-407
914.174	-552
914.273	-736
914.373	-355
914.472	-305
914.572	-1013
914.671	-488
914.770	-1317
914.870	-561
914.969	-767
915.068	-424
915.167	-268
915.267	-1536
915.366	-760
915.465	-145
915.564	-118
915.663	285
915.763	-527
915.862	-138
915.961	-292
916.060	-866
916.159	193
916.258	-742
916.357	-137
916.456	190
916.555	-798
916.654	-896
916.752	-469
916.851	-682
916.950	-1276
917.049	69
917.148	-721
917.247	-14
917.345	-489
917.444	134
917.543	102
917.642	-188
917.740	-744
917.839	-560
917.937	-578
918.036	17
918.135	-775
918.233	-166
918.332	-809
918.430	159
918.529	-265
918.627	224
918.726	-966
918.824	110
918.923	-535
919.021	-795
919.119	-622
919.218	-575
919.316	-705
919.414	-319
919.512	-830
919.611	286
919.709	-1304
919.807	376
919.905	-388
920.003	-1005
920.102	-252
920.200	-82
920.298	-1387
920.396	-647
920.494	-654
920.592	177
920.690	-437
920.788	-550
920.886	-791
920.984	-430
921.082	-647
921.180	198
921.277	-76
921.375	-221
921.473	-506
921.571	-850
921.669	91
921.766	-230
921.864	-1053
921.962	-391
922.060	-776
922.157	-860
922.255	-864
922.352	139
922.450	348
922.548	-360
922.645	-490
922.743	-629
922.840	-172
922.938	115
923.035	-756
923.133	-886
923.230	-1197
923.327	-530
923.425	-64
923.522	-605
923.619	-354
923.717	-727
923.814	364
923.911	-735
924.008	-357
924.106	-437
924.203	-978
924.300	-470
924.397	-233
924.494	-154
924.591	-412
924.688	-481
924.786	-891
924.883	-148
924.979	-196
925.077	-816
925.173	-877
925.270	-701
925.367	-398
925.464	-453
925.561	100
925.658	-227
925.755	-628
925.852	-60
925.948	-675
926.045	-1064
926.142	-518
926.239	-238
926.335	-389
926.432	-448
926.529	-228
926.625	49
926.722	-1038
926.818	-623
926.915	-1385
927.011	-411
927.108	-727
927.204	-590
927.301	-961
927.397	-518
927.494	-1438
927.590	261
927.687	-299
927.783	-706
927.879	-1177
927.976	-971
928.072	-586
928.168	93
928.264	-778
928.361	-388
928.457	-845
928.553	-659
928.649	-844
928.745	-897
928.841	46
928.937	-472
929.033	-1188
929.129	-634
929.225	-1038
929.321	-622
929.417	-1178
929.513	-354
929.609	292
929.705	-603
929.801	81
929.897	-979
929.993	-32
930.089	-859
930.184	-842
930.280	-787
930.376	-465
930.471	-795
930.567	-502
930.663	-454
930.758	-1366
930.854	-255
930.950	-221
931.045	-401
931.141	-397
931.236	65
931.332	-1356
931.427	-1255
931.523	-378
931.618	-745
931.714	-1036
931.809	-506
931.905	-381
932.000	-450
932.095	-439
932.191	-137
932.286	-653
932.381	-320
932.476	-1330
932.572	-496
932.667	-1017
932.762	-928
932.857	-1037
932.952	-952
933.047	-859
933.142	-1000
933.237	-996
933.332	-755
933.427	-477
933.522	-1625
933.617	-463
933.712	-218
933.807	-1289
933.902	-775
933.997	450
934.092	-1015
934.187	-1061
934.282	-983
934.376	-751
934.471	-222
934.566	-1055
934.661	-1124
934.755	237
934.850	-793
934.945	-129
935.039	-872
935.134	-755
935.228	-736
935.323	-656
935.417	57
935.512	-351
935.606	-570
935.701	-1156
935.795	-416
935.890	-714
935.984	-609
936.079	-1088
936.173	-283
936.267	-160
936.362	-1178
936.456	-1350
936.550	424
936.644	-984
936.738	-1012
936.833	-321
936.927	-465
937.021	-269
937.115	-342
937.209	-1764
937.303	-478
937.397	-1156
937.491	-911
937.585	-751
937.679	-459
937.773	-773
937.867	-840
937.961	-300
938.055	-1002
938.149	-896
938.243	-656
938.337	-455
938.430	-971
938.524	-517
938.618	-587
938.712	-588
938.805	-193
938.899	-987
938.993	-88
939.086	-707
939.180	160
939.274	489
939.367	-620
939.461	-976
939.554	-1214
939.648	-773
939.741	-506
939.835	-1164
939.928	-732
940.022	-851
940.115	-632
940.208	-542
940.302	-491
940.395	-779
940.488	-1074
940.582	71
940.675	-1161
940.768	-479
940.861	-985
940.954	-766
941.048	-443
941.141	-784
941.234	-280
941.327	167
941.420	-228
941.513	-658
941.606	-1796
941.699	185
941.792	-1063
941.885	-762
941.978	-730
942.071	-1179
942.164	-283
942.257	-686
942.349	-635
942.442	-1457
942.535	-131
942.628	-374
942.721	-181
942.813	-1537
942.906	-351
942.999	-711
943.091	-589
943.184	-829
943.277	-1237
943.369	-376
943.462	-1323
943.554	-812
943.647	-946
943.739	-259
943.832	-2148
943.924	-1664
944.017	-236
944.109	-1974
944.201	-1064
944.294	-660
944.386	-21
944.478	-996
944.571	-1500
944.663	-295
944.755	-1541
944.847	-186
944.940	-678
945.032	-1626
945.124	-909
945.216	12
945.308	-833
945.400	-649
945.492	-689
945.584	-1065
945.676	-1023
945.768	-1278
945.860	-523
945.952	-1004
946.044	-676
946.136	-690
946.228	-773
946.320	-1372
946.412	-882
946.503	-752
946.595	189
946.687	-1286
946.779	-1166
946.870	-784
946.962	-666
947.054	-945
947.145	-866
947.237	-726
947.329	-634
947.420	-1100
947.512	-596
947.603	-1260
947.695	-179
947.786	-1479
947.878	-1859
947.969	-513
948.061	-1283
948.152	-1161
948.243	-442
948.335	-1418
948.426	-667
948.517	-1867
948.609	-936
948.700	-926
948.791	-919
948.882	-1651
948.973	-1183
949.065	-763
949.156	-373
949.247	-1684
949.338	-990
949.429	-1168
949.520	-1221
949.611	-1930
949.702	-624
949.793	-509
949.884	-356
949.975	-936
950.066	-1299
950.157	-1016
950.247	-730
950.338	-773
950.429	-585
950.520	-703
950.611	-667
950.701	-1549
950.792	-1287
950.883	-651
950.973	-720
951.064	-984
951.155	-831
951.245	-473
951.336	-630
951.427	-661
951.517	-48
951.608	-844
951.698	-653
951.788	-732
951.879	-1113
951.969	-2206
952.060	-1341
952.150	-1394
952.240	-761
952.331	-2564
952.421	790
952.511	-1559
952.602	-109
952.692	-1044
952.782	-1085
952.872	-1108
952.962	-952
953.052	-559
953.143	-1245
953.233	-517
953.323	-583
953.413	-1020
953.503	-328
953.593	-1084
953.683	-1083
953.773	-970
953.863	-958
953.953	-973
954.042	-402
954.132	-1149
954.222	-1000
954.312	-1329
954.402	-667
954.492	-1296
954.581	-836
954.671	-800
954.761	-1251
954.850	165
954.940	-893
955.030	-858
955.119	-222
955.209	-1203
955.298	-1795
955.388	-1179
955.477	38
955.567	-1853
955.656	-738
955.746	-830
955.835	-871
955.925	-374
956.014	-887
956.103	-1133
956.193	-708
956.282	-777
956.371	-873
956.461	-968
956.550	-1922
956.639	-1255
956.728	-1562
956.817	-1015
956.906	-1812
956.995	-743
957.085	-1148
957.174	-1094
957.263	-1172
957.352	-981
957.441	-250
957.530	-1152
957.619	-652
957.708	-1278
957.796	-1025
957.885	-1438
957.974	-1006
958.063	-676
958.152	-1653
958.241	-362
958.329	-1625
958.418	-1528
958.507	-1138
958.596	-90
958.684	-1617
958.773	-707
958.861	-1582
958.950	-619
959.039	-600
959.127	-1628
959.216	-342
959.304	-1387
959.393	-841
959.481	-528
959.570	-976
959.658	-1470
959.746	-1210
959.835	-1026
959.923	-499
960.011	-1357
960.100	-156
960.188	-496
960.276	-1676
960.365	-1355
960.453	-601
960.541	-2359
960.629	-542
960.717	-1511
960.805	-2197
960.893	-424
960.981	-1378
961.069	-58
961.158	-778
961.245	-837
961.333	-1988
961.421	-1426
961.509	-1224
961.597	-1415
961.685	-819
961.773	-512
961.861	-1652
961.949	-825
962.036	-1063
962.124	-369
962.212	-1578
962.299	215
962.387	-1196
962.475	-989
962.562	-1944
962.650	-1270
962.738	-1043
962.825	-1314
962.913	-1116
963.000	-1631
963.088	-719
963.175	-1743
963.263	-673
963.350	-2228
963.438	-1176
963.525	-1645
963.612	-370
963.700	-452
963.787	1702
963.874	-724
963.962	-1506
964.049	-541
964.136	-1496
964.223	-896
964.310	-690
964.398	-895
964.485	-1774
964.572	-490
964.659	-623
964.746	-1178
964.833	-925
964.920	-1704
965.007	-384
965.094	-723
965.181	-1327
965.268	-813
965.355	-1428
965.441	-1140
965.528	-1635
965.615	-1084
965.702	-1030
965.789	-1174
965.875	-1773
965.962	-691
966.049	-1699
966.136	-1430
966.222	-1790
966.309	-781
966.395	-1639
966.482	-788
966.569	-1695
966.655	-1592
966.742	-1258
966.828	-507
966.915	-1271
967.001	-1656
967.087	-1256
967.174	-1737
967.260	-98
967.347	-727
967.433	-1253
967.519	534
967.605	-1053
967.692	-995
967.778	-1410
967.864	-831
967.950	-872
968.036	-1471
968.123	-384
968.209	-718
968.295	-1806
968.381	468
968.467	-407
968.553	-2379
968.639	-1091
968.725	-2124
968.811	-346
968.897	-462
968.983	-1062
969.069	-1726
969.154	-693
969.240	-1059
969.326	-2071
969.412	-1242
969.497	-1509
969.583	-1218
969.669	69
969.755	-1590
969.840	-1616
969.926	-1149
970.012	-1854
970.097	-1274
970.183	-1016
970.268	-1242
970.354	-810
970.439	-1293
970.525	-16
970.610	-2081
970.696	18
970.781	-1589
970.866	-1729
970.952	-730
971.037	-1738
971.122	-1283
971.208	-1154
971.293	-1279
971.378	-1707
971.463	-1105
971.549	-1138
971.634	-1605
971.719	-1217
971.804	-1904
971.889	-683
971.974	-1930
972.059	-1276
972.144	-1368
972.229	-1317
972.314	-2015
972.399	-1001
972.484	-1301
972.569	-618
972.654	-2589
972.739	-359
972.824	-516
972.908	-1002
972.993	-1688
973.078	-1211
973.163	-495
973.247	-575
973.332	-2993
973.417	-182
973.501	-2444
973.586	-339
973.671	-1680
973.755	-1267
973.840	-933
973.924	-837
974.009	-1815
974.093	-1770
974.178	-103
974.262	-726
974.346	-954
974.431	-462
974.515	-758
974.600	-1335
974.684	-1182
974.768	-1160
974.852	-841
974.937	-1926
975.021	-1099
975.105	-1460
975.189	-1654
975.273	-1034
975.358	-1783
975.442	-1691
975.526	-800
975.610	-1706
975.694	-1498
975.778	-1074
975.862	-1612
975.946	-2442
976.030	-48
976.114	-1126
976.198	-1386
976.281	-1302
976.365	-704
976.449	-2282
976.533	-1316
976.617	-1321
976.700	-1340
976.784	-1131
976.868	-1705
976.951	-556
977.035	-1112
977.119	-710
977.202	-999
977.286	-1492
977.369	-684
977.453	-1130
977.536	-1367
977.620	-1361
977.703	-848
977.787	-2483
977.870	-1248
977.953	-567
978.037	-1962
978.120	117
978.203	-2058
978.287	-1415
978.370	-746
978.453	-1226
978.536	-1948
978.620	130
978.703	-950
978.786	-1289
978.869	-1863
978.952	-2578
979.035	411
979.118	-1125
979.201	-1682
979.284	-762
979.367	-1655
979.450	-402
979.533	-1604
979.616	-1373
979.699	-1475
979.782	-348
979.865	-1273
979.948	-1884
980.030	-1777
980.113	-832
980.196	-2421
980.279	-539
980.361	-1523
980.444	-1037
980.526	-900
980.609	-1296
980.692	-1393
980.774	-827
980.857	-2370
980.939	-655
981.022	-1682
981.104	-1220
981.187	-1184
981.269	-1035
981.352	-1682
981.434	-2813
981.516	-1071
981.599	353
981.681	-1116
981.763	-1522
981.846	-999
981.928	-1170
982.010	-1059
982.092	-1385
982.174	-995
982.256	-1619
982.339	-1509
982.421	-1810
982.503	-674
982.585	-1928
982.667	-1418
982.749	-2323
982.831	-1391
982.913	-1379
982.995	-613
983.077	-1328
983.158	-538
983.240	-1966
983.322	-1304
983.404	-920
983.486	-2059
983.568	-498
983.649	-1246
983.731	-1547
983.813	-2117
983.894	-1247
983.976	-1865
984.058	-2205
984.139	-766
984.221	-2278
984.302	-865
984.384	-1708
984.465	-1794
984.547	-714
984.628	-2325
984.710	-372
984.791	-1156
984.872	-1198
984.954	-1647
985.035	-998
985.116	-2162
985.198	-1829
985.279	15
985.360	-1817
985.441	-2354
985.522	-1069
985.604	-1337
985.685	-2812
985.766	-350
985.847	-677
985.928	-2247
986.009	-1142
986.090	-662
986.171	-351
986.252	-1542
986.333	-1044
986.414	-1653
986.495	-309
986.576	-1288
986.656	-836
986.737	-1001
986.818	-1301
986.899	-2154
986.980	-1561
987.060	-727
987.141	-2452
987.222	-875
987.302	-1081
987.383	-1262
987.464	-1815
987.544	-1649
987.625	-835
987.705	-699
987.786	-1645
987.866	-2369
987.947	-867
988.027	-1946
988.108	-1961
988.188	-1244
988.268	-1006
988.349	-1370
988.429	-1060
988.509	-1402
988.589	-1542
988.670	-3580
988.750	-233
988.830	-884
988.910	-1075
988.990	-1554
989.070	-1823
989.151	-1028
989.231	-1623
989.311	-1960
989.391	-1366
989.471	-1264
989.551	-909
989.631	-2386
989.711	-985
989.791	-2451
989.870	-1919
989.950	-411
990.030	-1299
990.110	-2125
990.190	-945
990.269	-1588
990.349	-1551
990.429	-740
990.509	-780
990.588	-2222
990.668	-952
990.747	-1891
990.827	-1094
990.907	-1045
990.986	-1768
991.066	-837
991.145	-945
991.225	-563
991.304	-1738
991.383	-1086
991.463	-960
991.542	-1878
991.622	-1568
991.701	-2190
991.780	-1453
991.859	-1620
991.939	-1505
992.018	-1297
992.097	-1269
992.176	-1017
992.256	-1783
992.335	-1123
992.414	-1543
992.493	-2197
992.572	-1569
992.651	-693
992.730	-1648
992.809	-1743
992.888	-2171
992.967	-1215
993.046	-840
993.125	-2251
993.203	-1436
993.282	-1620
993.361	-1229
993.440	-1076
993.519	-1928
993.597	-1532
993.676	-2010
993.755	-1192
993.834	-1414
993.912	-1286
993.991	-183
994.069	-2064
994.148	-2167
994.226	-1314
994.305	-677
994.384	-1294
994.462	-666
994.540	-1920
994.619	-2257
994.697	-1241
994.776	-1986
994.854	-1000
994.932	-1720
995.011	-1268
995.089	-1921
995.167	-2302
995.245	-875
995.324	-1495
995.402	-947
995.480	-874
995.558	-533
995.636	-1902
995.714	-864
995.792	-242
995.870	-2400
995.948	-2019
996.026	-882
996.104	-2237
996.182	-823
996.260	-2053
996.338	-768
996.416	-2719
996.494	-1565
996.572	-1049
996.649	-1542
996.727	-2396
996.805	-1106
996.883	-1834
996.960	-1234
997.038	-1692
997.116	-990
997.193	-1629
997.271	-889
997.348	-1621
997.426	-1127
997.504	-1465
997.581	-301
997.658	-773
997.736	-1999
997.813	-2091
997.891	-1041
997.968	-2005
998.046	-788
998.123	-1106
998.200	-961
998.277	-2173
998.355	-1422
998.432	-1393
998.509	-1894
998.586	-1032
998.663	-935
998.741	-1174
998.818	-1523
998.895	-1279
998.972	-1248
999.049	-1265
999.126	-1709
999.203	-1426
999.280	-1335
999.357	-1684
999.434	-1781
999.511	-1812
999.587	-1161
999.664	-1850
999.741	-1124
999.818	-899
999.895	-2093
999.971	-1975
1000.048	-1419
1000.125	-1244
1000.202	-1448
1000.278	-1736
1000.355	-171
1000.431	-2438
1000.508	-1244
1000.584	-1710
1000.661	-1151
1000.738	-1586
1000.814	-1797
1000.890	-1092
1000.967	-1657
1001.043	-1395
1001.120	-2496
1001.196	-1763
1001.272	-2178
1001.349	-1219
1001.425	-1249
1001.501	-1732
1001.577	-2048
1001.654	-1489
1001.730	-1519
1001.806	-961
1001.882	-2430
1001.958	-713
1002.034	-1106
1002.110	-802
1002.186	-1631
1002.262	-2369
1002.338	-2208
1002.414	-1104
1002.490	-1458
1002.566	-2385
1002.642	-958
1002.718	-1110
1002.794	-1383
1002.870	-2022
1002.945	-1898
1003.021	-2707
1003.097	-1013
1003.173	-1092
1003.248	-2268
1003.324	-1702
1003.400	-1004
1003.475	-1479
1003.551	-1422
1003.626	-1666
1003.702	-1650
1003.777	-1356
1003.853	-1841
1003.928	-1695
1004.004	-1899
1004.079	-627
1004.155	-1254
1004.230	-3029
1004.305	-899
1004.381	-2072
1004.456	-1665
1004.531	-778
1004.607	-1343
1004.682	-822
1004.757	-1424
1004.832	-1592
1004.907	-1902
1004.982	-1233
1005.057	-1287
1005.133	-1439
1005.208	-1275
1005.283	-1884
1005.358	-1370
1005.433	-1542
1005.508	-704
1005.583	-2345
1005.657	-1696
1005.732	-774
1005.807	-1882
1005.882	-1216
1005.957	-1277
1006.032	-1292
1006.106	-1425
1006.181	-1589
1006.256	-1702
1006.331	-2211
1006.405	-1425
1006.480	-1505
1006.554	-1309
1006.629	-1901
1006.704	-1180
1006.778	-1347
1006.853	-729
1006.927	-1383
1007.002	-2278
1007.076	-941
1007.150	-1881
1007.225	-1453
1007.299	-565
1007.373	-2102
1007.448	-1100
1007.522	-1760
1007.596	-1922
1007.671	-1960
1007.745	-776
1007.819	-2302
1007.893	-1641
1007.967	-474
1008.041	-1623
1008.115	-1535
1008.190	-1519
1008.264	-2110
1008.338	-2580
1008.412	-2126
1008.486	-1897
1008.560	-1827
1008.633	-2024
1008.707	-1552
1008.781	-1179
1008.855	-2175
1008.929	-1749
1009.003	-1617
1009.076	-1266
1009.150	-1871
1009.224	-1749
1009.298	-1566
1009.371	-1439
1009.445	-788
1009.519	-864
1009.592	-2378
1009.666	-1948
1009.739	-1898
1009.813	-2122
1009.886	-1349
1009.960	-1860
1010.033	-449
1010.107	-1292
1010.180	-2209
1010.253	-2037
1010.327	-2611
1010.400	-1985
1010.473	-1765
1010.547	-330
1010.620	-1986
1010.693	-1136
1010.766	-2340
1010.840	-863
1010.913	-1624
1010.986	-2113
1011.059	-2065
1011.132	-2279
1011.205	-1087
1011.278	-2107
1011.351	-1714
1011.424	-1489
1011.497	-2189
1011.570	-1947
1011.643	-2041
1011.716	-1990
1011.789	-1875
1011.862	-1583
1011.934	-1089
1012.007	-2717
1012.080	-1660
1012.153	-1694
1012.225	-1301
1012.298	-1732
1012.371	-2354
1012.443	-1320
1012.516	-2154
1012.588	-2178
1012.661	-1674
1012.733	-2004
1012.806	-1344
1012.879	-2395
1012.951	-1261
1013.023	-1531
1013.096	-1394
1013.168	-2528
1013.241	-1610
1013.313	-1930
1013.385	-2490
1013.458	-1741
1013.530	-1757
1013.602	-2095
1013.674	-949
1013.746	-1822
1013.819	-1766
1013.891	-1005
1013.963	-1936
1014.035	-1016
1014.107	-2232
1014.179	-661
1014.251	-2168
1014.323	-1665
1014.395	-1400
1014.467	-1478
1014.539	-2151
1014.611	-2384
1014.683	-2005
1014.754	-2156
1014.826	-1779
1014.898	-1293
1014.970	-2544
1015.042	-1406
1015.113	-2033
1015.185	-1698
1015.257	-2398
1015.328	-1014
1015.400	-2443
1015.471	-1935
1015.543	-2774
1015.615	-2179
1015.686	-1533
1015.757	-1748
1015.829	-1938
1015.901	-2110
1015.972	-1841
1016.043	-1319
1016.115	-1586
1016.186	-1509
1016.257	-3225
1016.328	-1060
1016.400	-1387
1016.471	-2051
1016.542	-1392
1016.613	-2216
1016.685	-1858
1016.756	-1945
1016.827	-1932
1016.898	-2006
1016.969	-1657
1017.040	-2290
1017.111	-1694
1017.182	-1959
1017.253	-2480
1017.324	-1757
1017.395	-1677
1017.466	-982
1017.537	-3051
1017.608	-1988
1017.678	-1628
1017.749	-2175
1017.820	-1858
1017.891	-1911
1017.961	-2798
1018.032	-2209
1018.103	-1648
1018.173	-1858
1018.244	-2397
1018.315	-1744
1018.385	-1462
1018.456	-1419
1018.526	-2394
1018.597	-2153
1018.667	-1974
1018.738	-1889
1018.808	-1944
1018.878	-1816
1018.949	-2044
1019.019	-2793
1019.089	-1866
1019.160	-1752
1019.230	-2156
1019.300	-1899
1019.371	-2890
1019.441	-2178
1019.511	-1769
1019.581	-2350
1019.651	-1789
1019.721	-1555
1019.791	-1952
1019.861	-1691
1019.931	-2232
1020.001	-1245
1020.071	-2288
1020.141	-2772
1020.211	-1423
1020.281	-2252
1020.351	-2335
1020.421	-2439
1020.491	-1139
1020.560	-2218
1020.630	-2034
1020.700	-2027
1020.770	-2273
1020.839	-1676
1020.909	-2262
1020.979	-2399
1021.048	-1412
1021.118	-1853
1021.187	-2287
1021.257	-2309
1021.326	-2098
1021.396	-2519
1021.465	-1777
1021.535	-2064
1021.604	-2191
1021.674	-2183
1021.743	-2508
1021.812	-2347
1021.882	-1677
1021.951	-1919
1022.020	-1861
1022.089	-1186
1022.159	-1651
1022.228	-1243
1022.297	-2285
1022.366	-2527
1022.435	-3035
1022.504	-2591
1022.573	-2952
1022.642	-2496
1022.711	-2064
1022.781	-1616
1022.849	-2175
1022.918	-1845
1022.987	-2320
1023.056	-1959
1023.125	-1926
1023.194	-1719
1023.263	-1584
1023.331	-1615
1023.400	-2788
1023.469	-2966
1023.538	-2132
1023.606	-2256
1023.675	-1700
1023.744	-1917
1023.812	-2745
1023.881	-2397
1023.949	-2314
1024.018	-2079
1024.086	-3131
1024.155	-2132
1024.223	-1861
1024.292	-2043
1024.360	-1613
1024.429	-1520
1024.497	-2370
1024.565	-1793
1024.634	-2167
1024.702	-1872
1024.770	-1695
1024.838	-2174
1024.907	-2203
1024.975	-2385
1025.043	-2069
1025.111	-2247
1025.179	-2628
1025.247	-2390
1025.315	-2355
1025.383	-1710
1025.451	-1569
1025.519	-1967
1025.587	-2656
1025.655	-1483
1025.723	-2006
1025.791	-2215
1025.859	-1239
1025.927	-1738
1025.995	-2231
1026.062	-1629
1026.130	-1645
1026.198	-1867
1026.266	-2580
1026.333	-1800
1026.401	-1653
1026.469	-2469
1026.536	-2223
1026.604	-1727
1026.671	-2313
1026.739	-1924
1026.806	-1644
1026.874	-1627
1026.941	-2281
1027.009	-2255
1027.076	-2482
1027.144	-1171
1027.211	-2015
1027.278	-2746
1027.345	-1870
1027.413	-1589
1027.480	-2642
1027.547	-2121
1027.614	-2509
1027.682	-1351
1027.749	-1655
1027.816	-1900
1027.883	-1974
1027.950	-1724
1028.017	-2779
1028.084	-1367
1028.151	-2546
1028.218	-2428
1028.285	-2041
1028.352	-2881
1028.419	-2325
1028.486	-2158
1028.553	-1981
1028.619	-2581
1028.686	-1824
1028.753	-2223
1028.820	-2765
1028.886	-1731
1028.953	-2276
1029.020	-1762
1029.086	-2228
1029.153	-2442
1029.220	-2828
1029.286	-1890
1029.353	-2165
1029.419	-2850
1029.486	-1781
1029.552	-2770
1029.619	-1882
1029.685	-2204
1029.751	-2638
1029.818	-1770
1029.884	-1493
1029.951	-1334
1030.017	-1728
1030.083	-2581
1030.149	-2044
1030.216	-2763
1030.282	-1994
1030.348	-2056
1030.414	-2227
1030.480	-2066
1030.546	-1557
1030.612	-2015
1030.678	-2206
1030.744	-1051
1030.810	-1553
1030.876	-2439
1030.942	-2549
1031.008	-1946
1031.074	-1340
1031.140	-1968
1031.206	-1618
1031.272	-2131
1031.337	-2069
1031.403	-1495
1031.469	-1948
1031.534	-2031
1031.600	-2330
1031.666	-2200
1031.731	-2403
1031.797	-2115
1031.863	-2018
1031.928	-2095
1031.994	-2037
1032.059	-1713
1032.125	-2176
1032.190	-2845
1032.256	-1772
1032.321	-1144
1032.386	-2240
1032.452	-1488
1032.517	-2071
1032.582	-1928
1032.647	-1676
1032.713	-1934
1032.778	-2057
1032.843	-1854
1032.908	-2749
1032.974	-1491
1033.039	-1645
1033.104	-1453
1033.169	-1818
1033.234	-2620
1033.299	-1468
1033.364	-933
1033.429	-2378
1033.494	-1980
1033.559	-2581
1033.624	-1947
1033.688	-2463
1033.753	-2989
1033.818	-1381
1033.883	-2513
1033.948	-2253
1034.013	-2395
1034.077	-2040
1034.142	-2102
1034.207	-2185
1034.271	-2235
1034.336	-2039
1034.400	-1323
1034.465	-2541
1034.530	-1841
1034.594	-2181
1034.658	-2402
1034.723	-2021
1034.787	-1716
1034.852	-2026
1034.916	-1943
1034.981	-2572
1035.045	-1046
1035.109	-1727
1035.173	-1391
1035.238	-1762
1035.302	-1971
1035.366	-2284
1035.430	-1987
1035.495	-1897
1035.559	-1094
1035.623	-2178
1035.687	-2408
1035.751	-1557
1035.815	-1629
1035.879	-1948
1035.943	-1763
1036.007	-2226
1036.071	-1380
1036.135	-2232
1036.198	-1524
1036.262	-3102
1036.326	-2243
1036.390	-874
1036.454	-1659
1036.517	-1974
1036.581	-2024
1036.645	-2006
1036.709	-1025
1036.772	-2199
1036.836	-2414
1036.900	-1658
1036.963	-1773
1037.026	-2025
1037.090	-2288
1037.154	-1687
1037.217	-2388
1037.280	-1964
1037.344	-2507
1037.407	-2795
1037.471	-1621
1037.534	-2447
1037.597	-1971
1037.661	-2444
1037.724	-1322
1037.787	-2650
1037.850	-2276
1037.913	-1745
1037.977	-761
1038.040	-1909
1038.103	-1592
1038.166	-1945
1038.229	-1217
1038.292	-2591
1038.355	-2217
1038.418	-2147
1038.481	-2289
1038.544	-2028
1038.607	-1710
1038.670	-1034
1038.732	-1669
1038.795	-2093
1038.858	-2198
1038.921	-2604
1038.984	-1245
1039.046	-2269
1039.109	-1574
1039.172	-2355
1039.234	-1653
1039.297	-2219
1039.360	-2324
1039.422	-2143
1039.485	-2000
1039.547	-2106
1039.610	-1831
1039.672	-2465
1039.734	-1913
1039.797	-2368
1039.859	-1915
1039.922	-2233
1039.984	-2354
1040.046	-1541
1040.109	-690
1040.171	-2297
1040.233	-2077
1040.295	-1905
1040.358	-1947
1040.420	-1487
1040.482	-2007
1040.544	-2676
1040.606	-1745
1040.668	-2553
1040.730	-2712
1040.792	-2204
1040.854	-1784
1040.916	-2346
1040.978	-2991
1041.040	-1061
1041.102	-2136
1041.164	-2167
1041.225	-1657
1041.287	-2556
1041.349	-1629
1041.411	-1752
1041.472	-1104
1041.534	-2409
1041.596	-1739
1041.657	-1553
1041.719	-1387
1041.781	-2530
1041.842	-2355
1041.904	-1467
1041.965	-1855
1042.027	-1508
1042.088	-1261
1042.150	-2473
1042.211	-2082
1042.272	-1642
1042.334	-2414
1042.395	-1827
1042.456	-1899
1042.518	-1346
1042.579	-1417
1042.640	-1980
1042.701	-2597
1042.763	-1603
1042.824	-2463
1042.885	-1930
1042.946	-2184
1043.007	-1945
1043.068	-1829
1043.129	-2733
1043.190	-1807
1043.251	-2360
1043.312	-1282
1043.373	-2143
1043.434	-1721
1043.495	-2166
1043.556	-909
1043.616	-1991
1043.677	-2016
1043.738	-1571
1043.799	-1874
1043.859	-2042
1043.920	-2629
1043.981	-2447
1044.041	-1580
1044.102	-1602
1044.162	-2168
1044.223	-1683
1044.284	-2050
1044.344	-2042
1044.405	-1106
1044.465	-2283
1044.525	-1669
1044.586	-2363
1044.646	-2074
1044.707	-1752
1044.767	-1662
1044.827	-2324
1044.887	-1429
1044.948	-1468
1045.008	-633
1045.068	-2194
1045.128	-972
1045.188	-2018
1045.249	-2109
1045.309	-1683
1045.369	-1461
1045.429	-2003
1045.489	-2176
1045.549	-1481
1045.609	-1675
1045.669	-2236
1045.729	-2158
1045.789	-2351
1045.848	-1436
1045.908	-1671
1045.968	-2364
1046.028	-1783
1046.088	-1504
1046.147	-1410
1046.207	-1978
1046.267	-2016
1046.326	-1500
1046.386	-1649
1046.446	-1157
1046.505	-1175
1046.565	-1532
1046.624	-1407
1046.684	-418
1046.743	-238
1046.803	192
1046.862	-354
1046.922	0
