'Start Wavelength	183.907
'End Wavelength	1046.922
'Gate Delay	5.000
'Gate Width (ms)	1.050
'Laser Output Level	0.000
'X Position	0.000
'Y Position	0.000
'Z Position	0.000
'Grid Point Number	1.000
'Shot Number	100.000
183.907	274.000
183.977	-367.000
184.047	-474
184.116	192
184.186	-38
184.256	-835
184.325	-48
184.395	-558
184.465	147
184.534	273
184.604	-472
184.674	-389
184.743	487
184.813	-558
184.883	-424
184.952	-777
185.022	267
185.092	-112
185.161	172
185.231	-835
185.301	-391
185.370	-52
185.440	-138
185.509	-467
185.579	65
185.649	-156
185.718	81
185.788	-223
185.857	-188
185.927	-240
185.996	558
186.066	-635
186.136	-542
186.205	-364
186.275	-6
186.344	-240
186.414	335
186.483	-270
186.553	275
186.622	-334
186.692	-203
186.761	580
186.831	41
186.900	-786
186.970	-561
187.039	-338
187.109	197
187.178	-640
187.248	-728
187.317	-742
187.387	-266
187.456	-55
187.526	-389
187.595	89
187.664	-898
187.734	-568
187.803	-47
187.873	-922
187.942	-159
188.012	-454
188.081	61
188.150	-165
188.220	-285
188.289	-265
188.358	-467
188.428	-421
188.497	89
188.567	161
188.636	-247
188.705	-249
188.775	-200
188.844	-731
188.913	120
188.983	-363
189.052	-647
189.121	-931
189.191	-67
189.260	139
189.329	194
189.399	-362
189.468	-17
189.537	-387
189.606	-561
189.676	-564
189.745	47
189.814	-362
189.883	-30
189.953	-832
190.022	-140
190.091	-684
190.161	-514
190.230	-106
190.299	11
190.368	-760
190.437	-861
190.507	-497
190.576	-354
190.645	-507
190.714	-298
190.783	-408
190.853	201
190.922	249
190.991	-740
191.060	-187
191.129	-771
191.198	-895
191.268	-236
191.337	-649
191.406	-470
191.475	259
191.544	-476
191.613	-68
191.682	-514
191.752	86
191.821	-15
191.890	-572
191.959	-51
192.028	-90
192.097	-450
192.166	-778
192.235	5
192.304	298
192.373	-268
192.442	-679
192.511	-244
192.580	-978
192.650	-462
192.719	-1289
192.788	103
192.857	-216
192.926	-269
192.995	-929
193.064	-299
193.133	-436
193.202	399
193.271	-396
193.340	129
193.409	-364
193.478	165
193.547	-659
193.615	-226
193.684	-281
193.753	-305
193.822	-468
193.891	-606
193.960	-834
194.029	-186
194.098	-30
194.167	-499
194.236	-187
194.305	-445
194.374	-810
194.443	180
194.512	-438
194.580	-365
194.649	-533
194.718	24
194.787	-879
194.856	-835
194.925	-641
194.994	-243
195.062	-406
195.131	-722
195.200	-678
195.269	306
195.338	-142
195.407	125
195.475	-283
195.544	1074
195.613	-364
195.682	97
195.751	-135
195.819	-525
195.888	-703
195.957	441
196.026	-125
196.094	-673
196.163	-157
196.232	230
196.301	-530
196.369	-432
196.438	-483
196.507	-188
196.576	-273
196.644	-351
196.713	-637
196.782	-308
196.850	-562
196.919	-191
196.988	-463
197.056	-308
197.125	-437
197.194	-426
197.262	-563
197.331	-315
197.400	-40
197.468	-1108
197.537	-332
197.606	-1078
197.674	120
197.743	61
197.812	-951
197.880	-65
197.949	-1441
198.017	-718
198.086	-441
198.155	-850
198.223	-261
198.292	759
198.360	-617
198.429	-170
198.497	-215
198.566	-30
198.635	-540
198.703	339
198.772	-375
198.840	-138
198.909	-508
198.977	-25
199.046	-1065
199.114	-306
199.183	-610
199.251	211
199.320	-851
199.388	267
199.457	20
199.525	413
199.594	-1182
199.662	-309
199.731	-649
199.799	-192
199.867	-745
199.936	-775
200.004	-644
200.073	-7
200.141	-336
200.210	-518
200.278	-345
200.346	-168
200.415	-181
200.483	174
200.552	-505
200.620	-682
200.688	-547
200.757	-234
200.825	-715
200.893	-707
200.962	-353
201.030	-768
201.098	-325
201.167	45
201.235	-264
201.303	-148
201.372	-410
201.440	-4
201.508	-248
201.577	-552
201.645	-103
201.713	-416
201.781	-882
201.850	90
201.918	-1019
201.986	-117
202.055	-491
202.123	37
202.191	-9
202.259	-231
202.327	75
202.396	412
202.464	-173
202.532	-787
202.600	142
202.669	84
202.737	-620
202.805	-701
202.873	-709
202.941	-860
203.009	-784
203.078	-10
203.146	-1059
203.214	-502
203.282	-374
203.350	-495
203.418	-729
203.487	-361
203.555	-1065
203.623	-484
203.691	-900
203.759	-552
203.827	-824
203.895	-173
203.963	-1232
204.031	-1160
204.099	-544
204.168	-547
204.236	-383
204.304	-745
204.372	-527
204.440	-948
204.508	-1221
204.576	-885
204.644	-1049
204.712	-634
204.780	-294
204.848	-106
204.916	-407
204.984	-515
205.052	-338
205.120	85
205.188	-389
205.256	-183
205.324	-428
205.392	-315
205.460	-1144
205.528	120
205.596	-381
205.664	-605
205.732	-847
205.799	-101
205.867	-154
205.935	-571
206.003	-460
206.071	-774
206.139	201
206.207	491
206.275	-167
206.343	-421
206.411	-309
206.478	-299
206.546	-806
206.614	-754
206.682	-844
206.750	-771
206.818	-589
206.885	212
206.953	-1425
207.021	80
207.089	-648
207.157	-331
207.225	-763
207.292	-398
207.360	-845
207.428	-340
207.496	-339
207.563	-506
207.631	-654
207.699	-533
207.767	-241
207.834	-428
207.902	-398
207.970	-734
208.038	-925
208.105	-245
208.173	-567
208.241	-503
208.309	259
208.376	64
208.444	-796
208.512	-71
208.579	-668
208.647	-374
208.715	-573
208.782	-362
208.850	-1032
208.918	-397
208.985	-835
209.053	-169
209.120	-420
209.188	254
209.256	-799
209.323	-452
209.391	-415
209.459	699
209.526	-653
209.594	-773
209.661	-717
209.729	-668
209.796	-438
209.864	-375
209.932	-1321
209.999	666
210.067	-914
210.134	-500
210.202	-1060
210.269	-208
210.337	-422
210.404	-336
210.472	-783
210.539	-139
210.607	-659
210.674	-103
210.742	-634
210.809	-820
210.877	-385
210.944	-248
211.012	-1249
211.079	656
211.146	-320
211.214	-153
211.281	-659
211.349	-368
211.416	-699
211.484	-242
211.551	-961
211.618	11
211.686	-564
211.753	-246
211.821	-528
211.888	-264
211.955	-483
212.023	-585
212.090	-173
212.157	-848
212.225	-567
212.292	-799
212.359	-664
212.427	104
212.494	171
212.561	231
212.629	-372
212.696	-364
212.763	-825
212.831	-1026
212.898	-284
212.965	-607
213.032	-531
213.100	-754
213.167	-680
213.234	-305
213.301	-191
213.369	54
213.436	-713
213.503	-673
213.570	85
213.638	-163
213.705	-1080
213.772	-1082
213.839	-66
213.906	-651
213.973	-68
214.041	-237
214.108	-66
214.175	-427
214.242	-706
214.309	-106
214.376	-944
214.444	-696
214.511	-713
214.578	-626
214.645	-155
214.712	-216
214.779	-1293
214.846	-302
214.913	-768
214.980	-406
215.048	-777
215.115	-458
215.182	-255
215.249	57
215.316	-367
215.383	17
215.450	-902
215.517	-391
215.584	-147
215.651	-533
215.718	-457
215.785	594
215.852	-1061
215.919	58
215.986	19
216.053	-636
216.120	-321
216.187	-725
216.254	303
216.321	-351
216.388	-806
216.455	59
216.522	-245
216.589	104
216.656	167
216.722	518
216.789	-1061
216.856	-158
216.923	-129
216.990	-240
217.057	-178
217.124	47
217.191	-788
217.258	-191
217.324	-274
217.391	159
217.458	-377
217.525	-697
217.592	-337
217.659	-380
217.725	113
217.792	360
217.859	-191
217.926	-804
217.993	-1030
218.059	154
218.126	-606
218.193	-469
218.260	-575
218.327	-213
218.393	-699
218.460	-779
218.527	-796
218.594	-166
218.660	-640
218.727	-39
218.794	-919
218.860	-289
218.927	-78
218.994	-645
219.061	-976
219.127	-665
219.194	-1190
219.261	-483
219.327	-861
219.394	-419
219.461	-1092
219.527	119
219.594	-340
219.661	17
219.727	-641
219.794	-345
219.860	-450
219.927	-362
219.994	-89
220.060	361
220.127	-495
220.193	367
220.260	-273
220.326	407
220.393	-41
220.460	680
220.526	-425
220.593	-125
220.659	-189
220.726	-521
220.792	766
220.859	553
220.925	1111
220.992	1182
221.058	647
221.125	429
221.191	192
221.258	-213
221.324	197
221.391	159
221.457	-840
221.524	-375
221.590	-1011
221.657	-402
221.723	-512
221.789	-462
221.856	-90
221.922	-83
221.989	-854
222.055	-664
222.121	-1393
222.188	746
222.254	-619
222.321	-164
222.387	-1220
222.453	-292
222.520	-850
222.586	-116
222.652	-1052
222.719	-504
222.785	-62
222.851	-539
222.918	-667
222.984	-496
223.050	-500
223.116	-850
223.183	-41
223.249	-901
223.315	-1252
223.382	-255
223.448	-662
223.514	-74
223.580	-712
223.647	-788
223.713	-1505
223.779	-427
223.845	-1286
223.911	-655
223.978	-760
224.044	-934
224.110	-1270
224.176	-536
224.242	-1578
224.309	-1137
224.375	-363
224.441	-972
224.507	-373
224.573	-393
224.639	-557
224.705	-1365
224.772	-438
224.838	-380
224.904	-635
224.970	-428
225.036	-899
225.102	-602
225.168	-1075
225.234	-73
225.300	-806
225.366	-862
225.432	-485
225.499	254
225.565	-1231
225.631	-200
225.697	-1276
225.763	57
225.829	-221
225.895	412
225.961	-320
226.027	-742
226.093	-379
226.159	212
226.225	-533
226.291	1503
226.357	1554
226.423	236
226.489	71
226.554	-539
226.620	-477
226.686	328
226.752	-90
226.818	507
226.884	1996
226.950	1926
227.016	135
227.082	457
227.148	-258
227.214	-74
227.279	-891
227.345	-482
227.411	-441
227.477	-487
227.543	-137
227.609	24
227.674	-783
227.740	-398
227.806	-208
227.872	-19
227.938	-524
228.003	-233
228.069	-391
228.135	-589
228.201	-469
228.267	-1072
228.332	-620
228.398	-924
228.464	-762
228.530	99
228.595	-206
228.661	-651
228.727	-394
228.792	34
228.858	-1285
228.924	-1430
228.990	63
229.055	-663
229.121	-412
229.187	-557
229.252	-766
229.318	-412
229.384	-800
229.449	-787
229.515	-1554
229.581	-1647
229.646	22
229.712	-523
229.777	-325
229.843	-757
229.909	-380
229.974	-689
230.040	-646
230.105	-539
230.171	-1209
230.236	-506
230.302	-606
230.368	-1022
230.433	-679
230.499	-22
230.564	-108
230.630	-1830
230.695	-819
230.761	30
230.826	-1549
230.892	197
230.957	-1224
231.023	-615
231.088	-335
231.154	-879
231.219	-1058
231.284	-851
231.350	-947
231.415	-1086
231.481	-225
231.546	-583
231.612	-622
231.677	-1312
231.742	-2083
231.808	231
231.873	-613
231.939	-1874
232.004	352
232.069	-151
232.135	-883
232.200	-934
232.265	-531
232.331	-572
232.396	-968
232.461	-622
232.527	-734
232.592	-307
232.657	-909
232.723	-218
232.788	-1242
232.853	-166
232.918	-920
232.984	-884
233.049	-1044
233.114	-1271
233.179	-350
233.245	343
233.310	-587
233.375	-1509
233.440	-619
233.506	150
233.571	-1391
233.636	-1024
233.701	-720
233.766	-677
233.832	-1018
233.897	-373
233.962	-1732
234.027	11
234.092	-61
234.157	-750
234.222	-837
234.288	-505
234.353	-896
234.418	-694
234.483	-198
234.548	-325
234.613	-792
234.678	-647
234.743	-174
234.808	219
234.873	-1202
234.938	-133
235.004	-696
235.069	-761
235.134	-1118
235.199	-904
235.264	-800
235.329	-1103
235.394	63
235.459	-7
235.524	-692
235.589	-1264
235.654	-752
235.719	-1112
235.784	-528
235.849	-419
235.913	-957
235.978	-457
236.043	-384
236.108	-211
236.173	-793
236.238	-631
236.303	-1377
236.368	-231
236.433	-163
236.498	-857
236.563	-215
236.627	368
236.692	2787
236.757	1971
236.822	-387
236.887	-543
236.952	-329
237.017	-267
237.081	-155
237.146	-94
237.211	1276
237.276	3165
237.341	4499
237.405	1489
237.470	573
237.535	102
237.600	-570
237.664	39
237.729	-394
237.794	-164
237.859	446
237.923	-526
237.988	-1476
238.053	-1039
238.118	-976
238.182	412
238.247	-247
238.312	-834
238.376	-232
238.441	-1776
238.506	346
238.570	-1293
238.635	-13
238.700	-420
238.764	-1367
238.829	-491
238.893	-1028
238.958	-75
239.023	-1487
239.087	-588
239.152	-320
239.216	-656
239.281	-765
239.346	-136
239.410	-550
239.475	-1109
239.539	-20
239.604	-1172
239.668	-936
239.733	184
239.797	-886
239.862	665
239.926	-182
239.991	-263
240.055	-649
240.120	-398
240.184	-742
240.249	-1552
240.313	-802
240.378	100
240.442	-238
240.507	-168
240.571	-415
240.635	-771
240.700	-597
240.764	6
240.829	-1020
240.893	-944
240.957	-266
241.022	228
241.086	295
241.151	-1284
241.215	-1904
241.279	-259
241.344	-1556
241.408	-665
241.472	-1540
241.537	-210
241.601	177
241.665	-1557
241.730	-1578
241.794	-108
241.858	-1422
241.922	-386
241.987	-919
242.051	-843
242.115	-1919
242.179	-845
242.244	-1647
242.308	63
242.372	-504
242.436	-1384
242.501	-789
242.565	-1062
242.629	-1224
242.693	-672
242.757	-914
242.822	-1167
242.886	-427
242.950	-92
243.014	-1118
243.078	-891
243.142	-1282
243.206	-1261
243.271	-911
243.335	-1122
243.399	-227
243.463	249
243.527	2573
243.591	-634
243.655	348
243.719	-1078
243.783	119
243.847	-615
243.911	734
243.975	-596
244.040	-1178
244.104	313
244.168	-1002
244.232	-1209
244.296	-857
244.360	-134
244.424	-1385
244.488	-1056
244.552	-400
244.615	-815
244.679	-930
244.743	-600
244.807	-1342
244.871	-870
244.935	-655
244.999	-781
245.063	-729
245.127	-583
245.191	-283
245.255	-905
245.319	-1040
245.383	-1647
245.446	-383
245.510	-1567
245.574	-636
245.638	-425
245.702	-1434
245.766	280
245.829	-1164
245.893	-1391
245.957	-1470
246.021	-182
246.085	-1308
246.149	-908
246.212	475
246.276	358
246.340	-821
246.404	49
246.467	129
246.531	-1148
246.595	-322
246.659	156
246.722	-1655
246.786	-344
246.850	-274
246.913	-779
246.977	-1537
247.041	-196
247.104	-1167
247.168	-244
247.232	247
247.295	407
247.359	-38
247.423	-562
247.486	-73
247.550	-14
247.614	-1065
247.677	-728
247.741	-1221
247.804	-942
247.868	-315
247.932	-263
247.995	989
248.059	-391
248.122	-1721
248.186	214
248.249	-438
248.313	2162
248.376	1987
248.440	1104
248.503	-1766
248.567	-275
248.630	-1651
248.694	194
248.757	880
248.821	1773
248.884	1006
248.948	348
249.011	1227
249.075	1997
249.138	1445
249.202	393
249.265	-1423
249.328	362
249.392	-661
249.455	-62
249.519	-16
249.582	-337
249.645	-171
249.709	-707
249.772	-1149
249.835	-402
249.899	-350
249.962	-434
250.025	-1135
250.089	202
250.152	767
250.215	64
250.279	-1068
250.342	406
250.405	176
250.468	-835
250.532	-417
250.595	664
250.658	1674
250.721	5053
250.785	180
250.848	1051
250.911	-158
250.974	366
251.038	45
251.101	713
251.164	-464
251.227	115
251.290	-1157
251.354	639
251.417	3529
251.480	3414
251.543	2255
251.606	8451
251.669	4996
251.732	971
251.795	1048
251.859	2243
251.922	4085
251.985	2296
252.048	843
252.111	-22
252.174	-782
252.237	1849
252.300	2383
252.363	2634
252.426	7726
252.489	1301
252.552	520
252.615	-388
252.678	662
252.741	2139
252.804	2826
252.867	7313
252.930	3806
252.993	1030
253.056	714
253.119	-242
253.182	-611
253.245	49
253.308	170
253.371	-644
253.434	-718
253.497	299
253.559	732
253.622	-134
253.685	31
253.748	176
253.811	-851
253.874	104
253.937	-1140
254.000	-126
254.062	413
254.125	261
254.188	1060
254.251	-203
254.314	-503
254.376	-184
254.439	299
254.502	612
254.565	415
254.628	1821
254.690	-270
254.753	-531
254.816	-1087
254.878	-821
254.941	-346
255.004	-36
255.067	-444
255.129	-1252
255.192	-853
255.255	-1627
255.317	-428
255.380	-495
255.443	-1955
255.505	-991
255.568	-1924
255.631	-858
255.693	-560
255.756	-484
255.819	20
255.881	-1671
255.944	-241
256.006	-874
256.069	-1066
256.132	-1468
256.194	-512
256.257	-819
256.319	-1023
256.382	-841
256.444	-205
256.507	-1198
256.569	-887
256.632	-507
256.694	-924
256.757	1736
256.819	5404
256.882	41
256.944	-275
257.007	-551
257.069	-979
257.132	544
257.194	-290
257.257	-27
257.319	-1611
257.381	-1120
257.444	1331
257.506	7347
257.569	6616
257.631	1921
257.693	623
257.756	-311
257.818	-1276
257.880	-901
257.943	-1068
258.005	-1354
258.067	-994
258.130	-931
258.192	-1415
258.254	-1411
258.317	-1363
258.379	-405
258.441	-32
258.503	739
258.566	-523
258.628	134
258.690	-1229
258.753	-564
258.815	-236
258.877	-1266
258.939	-508
259.001	-518
259.064	-1466
259.126	-1333
259.188	-1065
259.250	-144
259.312	-805
259.375	-30
259.437	-1657
259.499	309
259.561	-589
259.623	-343
259.685	-1070
259.747	-468
259.809	187
259.872	-152
259.934	1392
259.996	2170
260.058	-204
260.120	-657
260.182	-1254
260.244	-855
260.306	-1034
260.368	-82
260.430	-1344
260.492	241
260.554	391
260.616	-1444
260.678	58
260.740	-333
260.802	-1405
260.864	-410
260.926	-1471
260.988	172
261.050	-727
261.112	-429
261.174	1334
261.236	-212
261.298	-1084
261.359	-623
261.421	-214
261.483	-1919
261.545	-928
261.607	-1617
261.669	-1183
261.731	-1034
261.793	-413
261.854	-1865
261.916	63
261.978	-1064
262.040	-1393
262.102	-298
262.164	-1907
262.225	-84
262.287	-602
262.349	-961
262.411	-429
262.472	-264
262.534	-1572
262.596	-5
262.658	-1397
262.719	-1219
262.781	-600
262.843	11
262.904	-1089
262.966	-193
263.028	-1002
263.090	914
263.151	2848
263.213	834
263.275	85
263.336	-581
263.398	-268
263.459	-1365
263.521	-933
263.583	279
263.644	-548
263.706	-522
263.767	-1567
263.829	-234
263.891	-1181
263.952	-1026
264.014	-1867
264.075	-431
264.137	1011
264.198	-504
264.260	-1512
264.321	-597
264.383	-897
264.444	1817
264.506	-549
264.567	-920
264.629	-263
264.690	595
264.752	-536
264.813	-394
264.875	-676
264.936	-297
264.998	-655
265.059	-1277
265.120	-968
265.182	-906
265.243	2537
265.305	2267
265.366	-995
265.427	-202
265.489	-295
265.550	-2035
265.611	-991
265.673	-316
265.734	-1135
265.795	-151
265.857	-1564
265.918	-1253
265.979	870
266.040	4664
266.102	2678
266.163	929
266.224	-309
266.286	-953
266.347	-1441
266.408	-441
266.469	-365
266.530	-1369
266.592	-1050
266.653	-377
266.714	-629
266.775	-337
266.836	-1240
266.898	-1588
266.959	-1163
267.020	-1001
267.081	-742
267.142	-1054
267.203	-1744
267.264	-2048
267.326	235
267.387	-1634
267.448	-2027
267.509	-1009
267.570	-1285
267.631	-661
267.692	-1348
267.753	-682
267.814	-1314
267.875	-852
267.936	-363
267.997	-572
268.058	-784
268.119	-875
268.180	-907
268.241	-1613
268.302	-1224
268.363	-1319
268.424	-1436
268.485	-731
268.546	-1405
268.607	-990
268.668	-1131
268.729	-1716
268.790	-1109
268.851	-316
268.912	-869
268.972	-408
269.033	-883
269.094	-1585
269.155	-969
269.216	-1290
269.277	-1269
269.338	-1102
269.398	-704
269.459	-1372
269.520	-551
269.581	-353
269.642	-919
269.702	-536
269.763	-1077
269.824	-823
269.885	-1520
269.945	-448
270.006	-1074
270.067	-1747
270.128	-1391
270.188	-1333
270.249	-1613
270.310	-1279
270.370	-1267
270.431	-874
270.492	-1581
270.553	-1985
270.613	-1160
270.674	-317
270.734	-1748
270.795	-687
270.856	-439
270.916	-1185
270.977	-975
271.038	-985
271.098	-924
271.159	-1028
271.219	-1526
271.280	-287
271.340	-1119
271.401	-923
271.462	-609
271.522	-1103
271.583	-1074
271.643	-1368
271.704	-1348
271.764	-595
271.825	-374
271.885	3154
271.946	2650
272.006	210
272.066	603
272.127	2155
272.187	-658
272.248	-519
272.308	-638
272.369	1496
272.429	329
272.489	-59
272.550	-263
272.610	303
272.671	-153
272.731	-211
272.791	-942
272.852	-1054
272.912	-659
272.972	-937
273.033	-1397
273.093	-659
273.153	-466
273.214	-668
273.274	-657
273.334	1002
273.394	1341
273.455	-591
273.515	-134
273.575	1654
273.635	-99
273.696	982
273.756	1318
273.816	-215
273.876	-881
273.936	-676
273.997	1304
274.057	-952
274.117	-1397
274.177	-297
274.237	2814
274.297	2041
274.358	-435
274.418	1288
274.478	555
274.538	-931
274.598	-1646
274.658	364
274.718	-323
274.778	-540
274.838	-448
274.898	-667
274.958	468
275.018	1102
275.078	170
275.138	-562
275.198	-1381
275.258	-1362
275.318	-827
275.378	-769
275.438	-335
275.498	-1055
275.558	-1176
275.618	1346
275.678	756
275.738	466
275.798	-1008
275.858	-690
275.918	-862
275.978	-861
276.038	-314
276.098	-1170
276.157	-814
276.217	1120
276.277	-852
276.337	-842
276.397	-1757
276.457	-640
276.517	-1121
276.576	-666
276.636	-1549
276.696	-1018
276.756	789
276.815	-598
276.875	-1307
276.935	-615
276.995	-1095
277.055	-1064
277.114	-1222
277.174	-868
277.234	1052
277.293	-853
277.353	-1582
277.413	-946
277.472	-1447
277.532	-556
277.592	-178
277.651	-356
277.711	29
277.771	-794
277.830	1487
277.890	833
277.950	-53
278.009	3197
278.069	553
278.128	921
278.188	423
278.248	52
278.307	269
278.367	707
278.426	-591
278.486	-1067
278.545	-1222
278.605	-1675
278.664	-650
278.724	-1140
278.783	500
278.843	2506
278.902	-884
278.962	-529
279.021	-83
279.081	-776
279.140	-693
279.199	-668
279.259	-199
279.318	-1432
279.378	-378
279.437	-256
279.496	4570
279.556	11191
279.615	5238
279.675	1176
279.734	123
279.793	1496
279.853	3441
279.912	468
279.971	141
280.031	-698
280.090	285
280.149	1290
280.208	674
280.268	7813
280.327	5663
280.386	570
280.445	-40
280.505	239
280.564	-547
280.623	-207
280.682	-188
280.742	597
280.801	-868
280.860	-873
280.919	-1380
280.978	-780
281.037	-2416
281.097	-1478
281.156	-1563
281.215	-1209
281.274	-1781
281.333	1189
281.392	-181
281.451	-659
281.510	-984
281.569	-1084
281.628	-1003
281.688	-692
281.747	-311
281.806	-1242
281.865	-1479
281.924	-1497
281.983	-1275
282.042	-872
282.101	-905
282.160	-1267
282.219	-1253
282.278	-1106
282.337	457
282.396	-660
282.454	-665
282.513	-195
282.572	1041
282.631	-232
282.690	-812
282.749	-1904
282.808	-685
282.867	-1537
282.926	-610
282.985	-762
283.043	-1737
283.102	-943
283.161	-1537
283.220	-364
283.279	1145
283.338	-853
283.396	-1272
283.455	-296
283.514	-1133
283.573	-857
283.631	-1766
283.690	-537
283.749	-757
283.808	-124
283.866	-131
283.925	-831
283.984	-1065
284.043	-957
284.101	-1015
284.160	-1369
284.219	-1590
284.277	-475
284.336	-384
284.395	1573
284.453	723
284.512	-445
284.570	-292
284.629	-428
284.688	-1116
284.746	-1243
284.805	-1278
284.863	557
284.922	-1012
284.981	-88
285.039	1006
285.098	2726
285.156	8694
285.215	18032
285.273	16401
285.332	8948
285.390	4108
285.449	2286
285.507	179
285.566	552
285.624	-223
285.683	-649
285.741	-426
285.799	-599
285.858	-137
285.916	-647
285.975	-1841
286.033	-1125
286.091	-942
286.150	-985
286.208	-1119
286.267	-668
286.325	-887
286.383	-904
286.442	-646
286.500	-902
286.558	-1883
286.616	-1042
286.675	-698
286.733	-1595
286.791	-1117
286.850	-1080
286.908	-1037
286.966	258
287.024	-1578
287.083	-202
287.141	-1336
287.199	-491
287.257	-1008
287.315	-778
287.374	-1381
287.432	-208
287.490	-860
287.548	-782
287.606	-290
287.664	-1169
287.723	-1364
287.781	-421
287.839	-1423
287.897	-358
287.955	-1132
288.013	-472
288.071	1249
288.129	9312
288.187	22782
288.245	9361
288.303	1816
288.361	-63
288.419	-148
288.477	-473
288.535	-1392
288.593	-888
288.651	-1128
288.709	-1548
288.767	-792
288.825	-981
288.883	-1876
288.941	-2307
288.999	-1732
289.057	-2253
289.115	-1248
289.173	-958
289.231	-829
289.289	-1177
289.346	-1297
289.404	-918
289.462	-1376
289.520	-762
289.578	-266
289.636	-1385
289.694	-1509
289.751	-1087
289.809	-1341
289.867	-1498
289.925	-721
289.983	-884
290.040	-1260
290.098	-1583
290.156	-1506
290.214	-637
290.271	-1665
290.329	-1381
290.387	-1469
290.444	-1338
290.502	-2068
290.560	-777
290.617	-1473
290.675	-1251
290.733	-1519
290.790	-1265
290.848	-1090
290.906	-1653
290.963	-1505
291.021	-1741
291.078	-626
291.136	-879
291.194	34
291.251	2147
291.309	-300
291.366	-532
291.424	-1894
291.481	-935
291.539	-1608
291.596	-1037
291.654	-1438
291.711	-1417
291.769	-467
291.826	-1202
291.884	-765
291.941	-1405
291.999	-2190
292.056	-712
292.114	-1395
292.171	-524
292.228	-1266
292.286	-1013
292.343	-1033
292.401	-572
292.458	-1029
292.515	-1535
292.573	-555
292.630	-1086
292.687	-1445
292.745	-1051
292.802	-1036
292.859	763
292.917	1611
292.974	697
293.031	-452
293.089	-1324
293.146	-1168
293.203	-1170
293.260	-1372
293.318	-841
293.375	-974
293.432	-1086
293.489	-704
293.546	-1374
293.604	-1245
293.661	280
293.718	3416
293.775	1504
293.832	-671
293.889	-787
293.947	-196
294.004	-1344
294.061	-1498
294.118	330
294.175	1390
294.232	4031
294.289	187
294.346	-631
294.403	-653
294.460	-466
294.517	-1532
294.574	-685
294.631	-1632
294.688	-1302
294.745	373
294.802	5310
294.859	6279
294.916	1146
294.973	-376
295.030	-547
295.087	-1473
295.144	-977
295.201	-1178
295.258	-553
295.315	-457
295.372	1008
295.429	1848
295.486	1031
295.542	-681
295.599	2739
295.656	5778
295.713	2927
295.770	2515
295.827	740
295.883	-972
295.940	-1066
295.997	-838
296.054	-730
296.111	-1527
296.167	-147
296.224	-1766
296.281	-1224
296.338	-1553
296.394	-719
296.451	-471
296.508	886
296.564	2192
296.621	1874
296.678	3449
296.734	5882
296.791	23
296.848	-565
296.904	-349
296.961	1508
297.018	3128
297.074	1848
297.131	-869
297.187	-363
297.244	662
297.301	2792
297.357	5581
297.414	1459
297.470	-256
297.527	-45
297.583	-934
297.640	-259
297.696	-833
297.753	-829
297.809	-1325
297.866	-1205
297.922	-1141
297.979	-886
298.035	-769
298.092	-252
298.148	897
298.204	823
298.261	-127
298.317	1133
298.374	3987
298.430	1239
298.486	134
298.543	-1033
298.599	-700
298.656	-1123
298.712	784
298.768	2998
298.824	1045
298.881	-873
298.937	-598
298.993	-853
299.050	-740
299.106	-992
299.162	-324
299.218	-1117
299.275	-372
299.331	73
299.387	189
299.443	4408
299.500	4659
299.556	1634
299.612	-254
299.668	-202
299.724	1381
299.780	1464
299.837	-25
299.893	503
299.949	3367
300.005	5084
300.061	4076
300.117	5969
300.173	2312
300.229	956
300.285	191
300.341	474
300.397	81
300.453	-783
300.510	-788
300.566	-673
300.622	-52
300.678	3276
300.734	5538
300.790	4505
300.845	4036
300.901	3029
300.957	4615
301.013	3340
301.069	129
301.125	442
301.181	-523
301.237	-421
301.293	-1117
301.349	-214
301.405	-1066
301.461	-74
301.516	-684
301.572	-584
301.628	491
301.684	310
301.740	340
301.796	2356
301.851	1229
301.907	1998
301.963	2637
302.019	3805
302.074	12244
302.130	12691
302.186	5718
302.242	1870
302.297	518
302.353	887
302.409	1969
302.464	2336
302.520	999
302.576	4093
302.631	4689
302.687	2047
302.743	586
302.798	-56
302.854	-1035
302.910	-164
302.965	-400
303.021	1369
303.076	383
303.132	732
303.187	1575
303.243	136
303.299	-138
303.354	-900
303.410	-239
303.465	-4
303.521	-1339
303.576	-665
303.632	-427
303.687	54
303.743	3554
303.798	3160
303.853	-41
303.909	-38
303.964	-287
304.020	757
304.075	230
304.130	1066
304.186	2358
304.241	3336
304.297	2015
304.352	382
304.358	257
304.407	-762
304.449	-86
304.463	143
304.518	57
304.539	-162
304.573	-523
304.629	-710
304.630	-684
304.684	439
304.720	1362
304.739	1833
304.794	3971
304.811	3436
304.850	2130
304.902	115
304.905	-16
304.960	-374
304.992	-406
305.015	-443
305.071	206
305.083	55
305.126	-455
305.173	-1048
305.181	-1151
305.236	-1041
305.264	-515
305.292	33
305.347	-27
305.354	-105
305.402	-664
305.445	-410
305.457	-323
305.512	336
305.535	81
305.567	-286
305.622	649
305.626	673
305.678	1217
305.716	3096
305.733	3854
305.788	5383
305.807	4610
305.843	3073
305.897	3769
305.898	3777
305.953	3130
305.988	2048
306.008	1477
306.063	344
306.078	437
306.118	611
306.168	-234
306.173	-297
306.228	-42
306.259	-144
306.283	-264
306.338	-500
306.349	-507
306.393	-520
306.440	-371
306.448	-326
306.503	-91
306.530	-27
306.558	187
306.613	1682
306.620	1883
306.668	2878
306.711	3989
306.723	4260
306.778	3488
306.801	2792
306.833	1744
306.888	459
306.892	395
306.943	101
306.982	84
306.997	-4
307.052	69
307.072	23
307.107	-5
307.162	148
307.163	149
307.217	607
307.253	1019
307.272	1233
307.327	1688
307.343	1371
307.381	427
307.434	237
307.436	276
307.491	1532
307.524	3165
307.546	3872
307.600	3843
307.614	3479
307.655	2217
307.704	641
307.710	521
307.765	1296
307.795	1220
307.819	1253
307.874	3075
307.885	2998
307.929	2337
307.975	2204
307.984	2258
308.038	2977
308.065	4099
308.093	6428
308.148	13268
308.156	14980
308.202	25177
308.246	30117
308.257	29641
308.312	18301
308.336	13637
308.366	9868
308.421	6043
308.426	5722
308.475	3528
308.517	2024
308.530	1724
308.585	1877
308.607	1761
308.639	1517
308.694	1429
308.697	1424
308.748	2030
308.787	3312
308.803	3588
308.857	3499
308.877	2992
308.912	2029
308.967	1850
308.967	1849
309.021	2663
309.058	3355
309.076	4089
309.130	7857
309.148	9546
309.185	16967
309.238	29957
309.239	30074
309.293	36033
309.328	34332
309.348	30132
309.402	16023
309.418	12539
309.457	8770
309.508	5126
309.511	4972
309.566	4203
309.598	3898
309.620	3748
309.674	3314
309.688	3449
309.729	3706
309.778	2934
309.783	2867
309.837	2278
309.868	2196
309.892	2556
309.946	3579
309.959	4039
310.001	5946
310.049	7805
310.055	7608
310.109	4478
310.139	2753
310.163	2236
310.218	1689
310.229	1545
310.272	1005
310.319	790
310.326	798
310.381	755
310.409	764
310.435	684
310.489	431
310.499	427
310.543	533
310.589	461
310.598	500
310.652	896
310.679	1029
310.706	808
310.760	338
310.769	258
310.814	262
310.859	254
310.868	219
310.923	131
310.948	-2
310.977	157
311.031	610
311.038	683
311.085	884
311.128	856
311.139	798
311.193	591
311.218	474
311.247	668
311.301	1031
311.308	1063
311.356	748
311.398	511
311.410	521
311.464	576
311.488	543
311.518	506
311.572	475
311.578	472
311.626	803
311.668	1103
311.680	1142
311.734	1193
311.758	1241
311.788	1018
311.842	607
311.847	562
311.896	680
311.937	786
311.950	960
312.004	1724
312.027	2045
312.058	1577
312.112	753
312.117	674
312.165	899
312.207	1101
312.297	1353
312.386	1863
312.476	1087
312.566	1706
312.656	1128
312.745	764
312.835	741
312.925	1121
313.015	942
313.104	12
313.194	688
313.284	1324
313.374	847
313.463	1263
313.553	637
313.643	49
313.732	777
313.822	459
313.912	-59
314.001	1327
314.091	1459
314.180	1806
314.270	683
314.360	1603
314.449	1518
314.539	1090
314.628	473
314.718	1132
314.808	811
314.897	988
314.987	960
315.076	876
315.166	691
315.255	1293
315.345	731
315.434	774
315.524	967
315.613	987
315.703	490
315.792	1921
315.881	1952
315.971	1579
316.060	1286
316.150	2114
316.239	1600
316.328	1859
316.418	410
316.507	946
316.597	1570
316.686	459
316.775	1465
316.865	2048
316.954	1066
317.043	856
317.133	231
317.222	44
317.311	775
317.400	382
317.490	1264
317.579	699
317.668	248
317.757	1179
317.847	1925
317.936	3390
318.025	2705
318.114	1727
318.203	1559
318.293	1436
318.382	2910
318.471	2677
318.560	3083
318.649	7206
318.738	1693
318.828	1451
318.917	1231
319.006	1382
319.095	1933
319.184	8557
319.273	4897
319.362	2496
319.451	816
319.540	1107
319.629	1644
319.718	3132
319.807	1728
319.896	2523
319.985	10584
320.074	4887
320.163	877
320.252	1762
320.341	1055
320.430	857
320.519	1225
320.608	945
320.697	658
320.786	1149
320.875	799
320.964	1074
321.053	1458
321.142	2023
321.230	3111
321.319	2506
321.408	4593
321.497	2573
321.586	1576
321.675	2701
321.764	1719
321.852	1692
321.941	2438
322.030	1224
322.119	2318
322.207	4499
322.296	3518
322.385	1685
322.474	1835
322.562	5117
322.651	3805
322.740	1789
322.829	2278
322.917	2185
323.006	1797
323.095	1483
323.183	1231
323.272	1425
323.361	2738
323.449	6533
323.538	2648
323.626	4445
323.715	3108
323.804	1139
323.892	3303
323.981	2368
324.069	1100
324.158	2418
324.246	2274
324.335	1926
324.424	902
324.512	280
324.601	560
324.689	1871
324.778	3561
324.866	2413
324.954	398
325.043	352
325.131	474
325.220	1763
325.308	2055
325.397	1691
325.485	1021
325.574	882
325.662	-163
325.750	424
325.839	1076
325.927	609
326.015	517
326.104	-8
326.192	1480
326.280	1185
326.369	572
326.457	879
326.545	1704
326.634	1314
326.722	631
326.810	824
326.898	719
326.987	1350
327.075	367
327.163	1482
327.251	547
327.340	1368
327.428	2562
327.516	976
327.604	962
327.692	280
327.781	450
327.869	891
327.957	-259
328.045	-45
328.133	151
328.221	1015
328.309	620
328.397	262
328.485	383
328.574	457
328.662	2108
328.750	2143
328.838	-61
328.926	516
329.014	601
329.102	72
329.190	1557
329.278	730
329.366	504
329.454	246
329.542	554
329.630	657
329.718	958
329.806	1424
329.893	569
329.981	1004
330.069	1380
330.157	5337
330.245	14943
330.333	9042
330.421	1672
330.509	800
330.597	2946
330.684	2345
330.772	820
330.860	1715
330.948	2036
331.036	844
331.123	-11
331.211	778
331.299	204
331.387	1712
331.475	2812
331.562	766
331.650	-104
331.738	331
331.825	102
331.913	1051
332.001	-154
332.089	877
332.176	359
332.264	1939
332.352	1857
332.439	846
332.527	532
332.614	-756
332.702	534
332.790	640
332.877	731
332.965	2211
333.052	40
333.140	249
333.228	826
333.315	198
333.403	176
333.490	1131
333.578	672
333.665	1208
333.753	884
333.840	720
333.928	491
334.015	1272
334.103	2176
334.190	10038
334.278	3340
334.365	1654
334.452	795
334.540	982
334.627	594
334.715	2177
334.802	1871
334.889	6418
334.977	9636
335.064	2429
335.151	453
335.239	759
335.326	1125
335.413	4826
335.501	8300
335.588	831
335.675	1001
335.762	967
335.850	1893
335.937	1521
336.024	2878
336.111	10774
336.199	6280
336.286	1833
336.373	369
336.460	677
336.547	104
336.635	1113
336.722	539
336.809	481
336.896	693
336.983	2549
337.070	8487
337.157	11398
337.245	5112
337.332	4030
337.419	751
337.506	461
337.593	1243
337.680	2748
337.767	9024
337.854	3213
337.941	2103
338.028	1110
338.115	519
338.202	1346
338.289	1905
338.376	4546
338.463	1679
338.550	4137
338.637	5232
338.724	1338
338.811	1656
338.898	593
338.984	328
339.071	344
339.158	347
339.245	1294
339.332	999
339.419	830
339.506	1645
339.593	598
339.679	383
339.766	497
339.853	277
339.940	501
340.027	60
340.113	508
340.200	615
340.287	416
340.374	-83
340.460	1209
340.547	138
340.634	922
340.720	3073
340.807	2208
340.894	134
340.980	335
341.067	96
341.154	-469
341.240	393
341.327	1244
341.414	385
341.500	358
341.587	-1
341.674	-189
341.760	563
341.847	1041
341.933	355
342.020	-110
342.106	550
342.193	123
342.279	163
342.366	381
342.452	954
342.539	468
342.625	232
342.712	2811
342.798	1294
342.885	773
342.971	444
343.058	-434
343.144	24
343.230	-291
343.317	-124
343.403	-286
343.490	-149
343.576	-283
343.662	-465
343.749	-31
343.835	728
343.921	-78
344.008	4323
344.094	14169
344.180	3611
344.267	1276
344.353	3585
344.439	4146
344.525	959
344.612	830
344.698	484
344.784	114
344.870	-93
344.957	-121
345.043	1029
345.129	-172
345.215	-72
345.301	11
345.387	568
345.474	226
345.560	-101
345.646	-753
345.732	491
345.818	258
345.904	-254
345.990	-84
346.076	153
346.162	378
346.249	394
346.335	570
346.421	191
346.507	1092
346.593	5066
346.679	694
346.765	7
346.851	-306
346.937	-569
347.023	904
347.108	-651
347.194	349
347.280	-146
347.366	413
347.452	1002
347.538	5932
347.624	5269
347.710	4090
347.796	69
347.882	334
347.967	-251
348.053	-111
348.139	56
348.225	236
348.311	-115
348.397	-409
348.482	-122
348.568	390
348.654	-611
348.740	609
348.825	-595
348.911	1374
348.997	1807
349.083	5925
349.168	92
349.254	243
349.340	-567
349.425	459
349.511	-514
349.597	29
349.682	471
349.768	4304
349.854	2415
349.939	745
350.025	122
350.110	360
350.196	66
350.282	-448
350.367	514
350.453	-220
350.538	-408
350.624	-274
350.709	103
350.795	-364
350.880	394
350.966	555
351.051	-94
351.137	511
351.222	-840
351.308	218
351.393	3511
351.479	875
351.564	-744
351.649	105
351.735	-380
351.820	-71
351.906	-500
351.991	-276
352.076	1147
352.162	3269
352.247	-16
352.332	-485
352.418	302
352.503	35
352.588	4933
352.673	3955
352.759	794
352.844	243
352.929	322
353.014	546
353.100	-323
353.185	699
353.270	270
353.355	538
353.441	-260
353.526	-225
353.611	87
353.696	262
353.781	499
353.866	179
353.952	234
354.037	-182
354.122	1700
354.207	631
354.292	135
354.377	64
354.462	130
354.547	-484
354.632	-93
354.717	743
354.802	377
354.887	-207
354.972	-632
355.057	-248
355.142	-264
355.227	270
355.312	-207
355.397	172
355.482	3093
355.567	1453
355.652	256
355.737	1055
355.822	2826
355.907	3868
355.991	303
356.076	-396
356.161	-653
356.246	-45
356.331	-443
356.416	578
356.501	6741
356.585	7740
356.670	227
356.755	1521
356.840	-95
356.924	4406
357.009	15191
357.094	7075
357.179	879
357.263	797
357.348	327
357.433	275
357.517	212
357.602	-455
357.687	599
357.771	685
357.856	3032
357.941	1709
358.025	2845
358.110	16053
358.195	8819
358.279	640
358.364	252
358.448	2316
358.533	7907
358.617	5813
358.702	5713
358.787	1776
358.871	130
358.956	95
359.040	-517
359.125	-261
359.209	-290
359.294	873
359.378	2237
359.462	777
359.547	224
359.631	338
359.716	-787
359.800	185
359.885	594
359.969	-188
360.053	558
360.138	-150
360.222	-21
360.306	684
360.391	387
360.475	622
360.559	3101
360.644	2872
360.728	2467
360.812	3883
360.896	10671
360.981	4444
361.065	1641
361.149	649
361.233	-354
361.318	-382
361.402	397
361.486	1120
361.570	0
361.654	30
361.739	592
361.823	5408
361.907	11451
361.991	1637
362.075	569
362.159	949
362.243	2449
362.327	1486
362.411	4241
362.495	1510
362.580	365
362.664	357
362.748	349
362.832	828
362.916	838
363.000	6727
363.084	13220
363.168	15086
363.252	3734
363.336	1267
363.420	1092
363.503	6798
363.587	9118
363.671	1289
363.755	-27
363.839	994
363.923	421
364.007	1019
364.091	1078
364.175	1268
364.258	13964
364.342	11852
364.426	15921
364.510	8139
364.594	3633
364.677	2458
364.761	8873
364.845	8127
364.929	1672
365.013	1249
365.096	563
365.180	1512
365.264	2008
365.347	12863
365.431	6385
365.515	1296
365.598	-591
365.682	1145
365.766	-244
365.849	1271
365.933	-628
366.017	1304
366.100	403
366.184	-299
366.267	285
366.351	312
366.435	-803
366.518	190
366.602	-22
366.685	-293
366.769	-612
366.852	1617
366.936	1854
367.019	-51
367.103	-517
367.186	1373
367.270	-323
367.353	-451
367.436	-568
367.520	-545
367.603	-372
367.687	-171
367.770	397
367.853	875
367.937	1686
368.020	5164
368.104	161
368.187	246
368.270	538
368.353	396
368.437	754
368.520	3085
368.603	1430
368.687	2402
368.770	6153
368.853	968
368.936	974
369.020	1282
369.103	248
369.186	-215
369.269	-545
369.352	585
369.436	745
369.519	612
369.602	-1140
369.685	100
369.768	-429
369.851	674
369.934	-848
370.018	-253
370.101	86
370.184	1738
370.267	640
370.350	238
370.433	1290
370.516	4115
370.599	6122
370.682	205
370.765	3108
370.848	4340
370.931	7740
371.014	4492
371.097	-523
371.180	104
371.263	-884
371.346	-1618
371.429	27
371.511	-994
371.594	409
371.677	1241
371.760	2296
371.843	555
371.926	4924
372.009	13669
372.091	6027
372.174	2585
372.257	6314
372.340	3228
372.423	2154
372.505	3396
372.588	-151
372.671	1941
372.754	5901
372.836	3713
372.919	2503
373.002	7973
373.085	1318
373.167	1376
373.250	2641
373.332	5745
373.415	8443
373.498	18371
373.580	7788
373.663	7697
373.746	12033
373.828	2992
373.911	1012
373.993	922
374.076	6721
374.159	6450
374.241	1791
374.324	5345
374.406	4057
374.489	4046
374.571	15765
374.654	6349
374.736	2248
374.819	8331
374.901	13435
374.983	15226
375.066	3014
375.148	998
375.231	4639
375.313	12377
375.395	3563
375.478	797
375.560	678
375.643	437
375.725	1891
375.807	10812
375.890	9637
375.972	2285
376.054	663
376.136	2317
376.219	575
376.301	2054
376.383	9520
376.465	4267
376.548	1116
376.630	2049
376.712	7818
376.794	3823
376.877	-169
376.959	-16
377.041	237
377.123	1684
377.205	2179
377.287	61
377.369	-135
377.452	-387
377.534	-182
377.616	-431
377.698	-610
377.780	-833
377.862	-207
377.944	37
378.026	-974
378.108	-408
378.190	-437
378.272	-161
378.354	-660
378.436	-252
378.518	-181
378.600	2428
378.682	2182
378.764	3657
378.846	3438
378.928	440
379.010	349
379.091	863
379.173	-397
379.255	-541
379.337	139
379.419	629
379.501	6585
379.583	2296
379.664	-340
379.746	-138
379.828	3807
379.910	4778
379.991	5434
380.073	164
380.155	406
380.237	-72
380.318	-740
380.400	-37
380.482	-218
380.564	1061
380.645	374
380.727	483
380.809	772
380.890	232
380.972	-1035
381.053	-151
381.135	-434
381.217	355
381.298	5182
381.380	1616
381.461	1525
381.543	7152
381.624	10915
381.706	961
381.787	-200
381.869	498
381.951	1790
382.032	13179
382.113	10756
382.195	1324
382.276	1884
382.358	1408
382.439	6073
382.521	7850
382.602	14071
382.684	5267
382.765	9464
382.846	8518
382.928	7742
383.009	3811
383.090	1745
383.172	9099
383.253	16872
383.334	6753
383.416	10819
383.497	6731
383.578	454
383.659	1722
383.741	6963
383.822	25008
383.903	13846
383.984	5471
384.066	14411
384.147	9511
384.228	1251
384.309	1043
384.390	-247
384.471	235
384.553	-668
384.634	734
384.715	323
384.796	-208
384.877	-53
384.958	3736
385.039	4199
385.120	1271
385.201	340
385.282	30
385.363	141
385.444	662
385.525	920
385.606	4793
385.687	5586
385.768	607
385.849	103
385.930	5264
386.011	12812
386.092	2653
386.173	440
386.254	-685
386.335	507
386.416	280
386.496	1640
386.577	4785
386.658	1429
386.739	-260
386.820	467
386.901	341
386.981	76
387.062	164
387.143	-638
387.224	3941
387.304	4368
387.385	1359
387.466	-348
387.547	750
387.627	496
387.708	1079
387.789	7393
387.869	9533
387.950	2608
388.031	-32
388.111	-1644
388.192	1737
388.273	2173
388.353	989
388.434	-25
388.514	1333
388.595	5866
388.676	9935
388.756	5132
388.837	3588
388.917	2395
388.998	-844
389.078	392
389.159	520
389.239	-1351
389.320	1017
389.400	-1265
389.480	1480
389.561	3985
389.641	2732
389.722	371
389.802	154
389.883	1565
389.963	6010
390.043	3571
390.124	354
390.204	1178
390.284	4667
390.365	1725
390.445	3007
390.525	6717
390.605	5377
390.686	820
390.766	1855
390.846	-166
390.927	-770
391.007	-825
391.087	488
391.167	-433
391.247	-324
391.328	314
391.408	1814
391.488	1201
391.568	-604
391.648	-85
391.728	1074
391.808	481
391.888	122
391.969	1228
392.049	3289
392.129	2675
392.209	1358
392.289	5924
392.369	3583
392.449	3299
392.529	967
392.609	1039
392.689	853
392.769	4574
392.849	4531
392.929	3525
393.009	8652
393.089	6034
393.169	4934
393.248	14035
393.328	60041
393.408	74457
393.488	23410
393.568	5765
393.648	2586
393.728	946
393.807	431
393.887	1467
393.967	45
394.047	685
394.127	729
394.206	2005
394.286	8288
394.366	39118
394.446	50255
394.525	14055
394.605	2701
394.685	1952
394.764	4103
394.844	8013
394.924	6400
395.003	537
395.083	676
395.163	307
395.242	520
395.322	594
395.402	-400
395.481	620
395.561	1377
395.640	9991
395.720	7848
395.799	9862
395.879	8859
395.958	3240
396.038	13174
396.117	50979
396.197	65477
396.276	23933
396.356	6526
396.435	4581
396.515	3619
396.594	2352
396.673	4311
396.753	15194
396.832	57886
396.912	49779
396.991	11700
397.070	3000
397.150	384
397.229	898
397.308	1546
397.388	5209
397.467	2289
397.546	413
397.625	-1113
397.705	1172
397.784	117
397.863	-860
397.942	-268
398.022	-127
398.101	1220
398.180	8430
398.259	4539
398.338	826
398.417	-37
398.497	-829
398.576	439
398.655	-514
398.734	313
398.813	-120
398.892	1446
398.971	8396
399.050	4497
399.129	-1341
399.208	260
399.287	623
399.366	-767
399.445	-1255
399.524	-377
399.603	-1727
399.682	271
399.761	644
399.840	9129
399.919	7876
399.998	175
400.077	-714
400.156	-2034
400.235	1146
400.313	46
400.392	-1325
400.471	3021
400.550	2453
400.629	419
400.708	-365
400.786	-420
400.865	983
400.944	1059
401.023	1354
401.102	-559
401.180	-869
401.259	-941
401.338	-1074
401.416	41
401.495	-335
401.574	-463
401.652	-1253
401.731	-112
401.810	-1459
401.888	-1263
401.967	-1839
402.046	-653
402.124	39
402.203	-512
402.281	-291
402.360	-349
402.438	1806
402.517	370
402.596	-186
402.674	-623
402.753	-404
402.831	-3
402.910	14
402.988	316
403.066	5661
403.145	4531
403.223	1094
403.302	4762
403.380	4420
403.459	3976
403.537	866
403.615	123
403.694	-1987
403.772	-97
403.850	-166
403.929	-834
404.007	-1808
404.085	201
404.164	-782
404.242	-746
404.320	625
404.398	4312
404.477	5148
404.555	11702
404.633	11645
404.711	4805
404.789	3058
404.868	-230
404.946	-1000
405.024	-86
405.102	-713
405.180	-1373
405.258	-1914
405.336	-602
405.415	-939
405.493	264
405.571	291
405.649	-1248
405.727	-1307
405.805	-154
405.883	-102
405.961	-43
406.039	-498
406.117	-1333
406.195	-290
406.273	540
406.351	8661
406.429	6026
406.507	-38
406.585	-420
406.663	-737
406.740	-173
406.818	-895
406.896	-1180
406.974	130
407.052	-1072
407.130	4128
407.208	8045
407.285	2179
407.363	-946
407.441	-765
407.519	-638
407.596	-390
407.674	797
407.752	3652
407.830	5316
407.907	1589
407.985	-1079
408.063	-726
408.141	-713
408.218	302
408.296	-1130
408.373	-907
408.451	-602
408.529	-827
408.606	-580
408.684	-1505
408.762	-958
408.839	-660
408.917	-1170
408.994	-1001
409.072	-1447
409.149	-1224
409.227	-284
409.304	-380
409.382	-359
409.459	-228
409.537	475
409.614	84
409.692	-826
409.769	-670
409.846	-215
409.924	927
410.001	-819
410.079	-350
410.156	133
410.233	57
410.311	-58
410.388	-1055
410.465	-268
410.543	-1318
410.620	138
410.697	-763
410.775	-532
410.852	-2022
410.929	-148
411.006	59
411.083	-586
411.161	198
411.238	256
411.315	-309
411.392	-1555
411.469	1
411.547	-242
411.624	-2317
411.701	-1268
411.778	-1095
411.855	-1123
411.932	-1028
412.009	-367
412.086	-810
412.163	-420
412.240	-1590
412.317	-620
412.394	-1239
412.471	-211
412.548	-1776
412.625	-808
412.702	-531
412.779	-415
412.856	-260
412.933	-714
413.010	-1159
413.087	-626
413.164	51
413.241	2548
413.318	-1054
413.395	-82
413.471	-397
413.548	-223
413.625	166
413.702	-1397
413.779	-523
413.855	-1011
413.932	-1345
414.009	-1713
414.086	-695
414.162	-242
414.239	-660
414.316	948
414.393	4362
414.469	762
414.546	-1052
414.623	-542
414.699	-1094
414.776	-451
414.853	-1207
414.929	-1420
415.006	-802
415.082	-314
415.159	-1419
415.236	-874
415.312	-1012
415.389	-1111
415.465	-294
415.542	-600
415.618	-1614
415.695	-445
415.771	-1154
415.848	-1182
415.924	-1493
416.000	-972
416.077	-190
416.153	-1209
416.230	-1394
416.306	-971
416.383	-1436
416.459	-524
416.535	-2331
416.612	-1229
416.688	-1085
416.764	-548
416.841	-2199
416.917	-1637
416.993	-1074
417.069	-429
417.146	-2060
417.222	-979
417.298	-509
417.374	-952
417.451	-206
417.527	-845
417.603	-1346
417.679	-391
417.755	-596
417.831	-1913
417.908	-832
417.984	-526
418.060	-1295
418.136	-1199
418.212	-1244
418.288	-1232
418.364	-549
418.440	-1952
418.516	-898
418.592	-179
418.668	-240
418.744	-329
418.820	481
418.896	-682
418.972	-1368
419.048	-1123
419.124	-189
419.200	-751
419.276	-682
419.352	-1422
419.428	-1079
419.504	-1060
419.579	-1661
419.655	-309
419.731	-894
419.807	-684
419.883	-274
419.959	36
420.034	-286
420.110	-61
420.186	1504
420.262	2349
420.337	-300
420.413	-1064
420.489	-608
420.565	201
420.640	-1525
420.716	-597
420.792	-1289
420.867	-192
420.943	-1717
421.019	-250
421.094	-360
421.170	423
421.245	-799
421.321	-577
421.397	-262
421.472	1022
421.548	1657
421.623	1693
421.699	224
421.774	208
421.850	-968
421.925	280
422.001	1081
422.076	283
422.152	303
422.227	1998
422.302	3703
422.378	5004
422.453	8512
422.529	20290
422.604	43580
422.679	61146
422.755	52606
422.830	28827
422.905	11777
422.981	5986
423.056	3493
423.131	2430
423.207	1054
423.282	1234
423.357	572
423.432	1002
423.508	1011
423.583	971
423.658	1315
423.733	396
423.808	283
423.883	282
423.959	-494
424.034	-642
424.109	-156
424.184	-748
424.259	-1666
424.334	-1071
424.409	-1236
424.484	-970
424.559	-1131
424.634	-1657
424.709	-1260
424.784	-370
424.859	-1134
424.934	-1014
425.009	524
425.084	3765
425.159	1219
425.234	126
425.309	-1605
425.384	-32
425.459	220
425.534	-16
425.609	-1830
425.683	-368
425.758	-1022
425.833	-273
425.908	-306
425.983	-468
426.058	3518
426.132	1693
426.207	-1548
426.282	538
426.357	-186
426.431	-1394
426.506	-757
426.581	-565
426.655	-658
426.730	-1258
426.805	-1483
426.879	-345
426.954	-1144
427.029	-1114
427.103	2604
427.178	8918
427.253	4438
427.327	65
427.402	-578
427.476	1770
427.551	240
427.625	-233
427.700	-389
427.774	-730
427.849	-202
427.923	-1053
427.998	-1299
428.072	-1665
428.147	323
428.221	2538
428.296	14450
428.370	9132
428.444	38
428.519	486
428.593	760
428.667	1480
428.742	1617
428.816	1053
428.890	7292
428.965	16880
429.039	4948
429.113	2177
429.188	15
429.262	-760
429.336	-199
429.410	1153
429.485	571
429.559	1229
429.633	631
429.707	-564
429.781	268
429.855	7628
429.930	16509
430.004	7820
430.078	9292
430.152	10021
430.226	16778
430.300	22607
430.374	3919
430.448	772
430.522	2002
430.596	9088
430.670	7073
430.744	10624
430.818	21485
430.892	3965
430.966	-438
431.040	-639
431.114	-1359
431.188	-1351
431.262	-1726
431.336	-1290
431.410	-111
431.484	636
431.557	1555
431.631	-911
431.705	-1106
431.779	295
431.853	11680
431.927	11288
432.000	1386
432.074	-641
432.148	-503
432.222	-796
432.295	-887
432.369	-1639
432.443	-475
432.516	2913
432.590	9142
432.664	5103
432.737	-392
432.811	-1542
432.885	-955
432.958	-546
433.032	-1616
433.106	-617
433.179	-1315
433.253	-893
433.326	-1514
433.400	-797
433.473	-931
433.547	-1477
433.620	-1561
433.694	-638
433.767	-275
433.841	-1747
433.914	-1348
433.988	-913
434.061	-747
434.134	-1077
434.208	-1191
434.281	-1509
434.355	-1441
434.428	-139
434.501	-1648
434.575	-1049
434.648	-1382
434.721	-1183
434.795	-851
434.868	-1252
434.941	-1309
435.014	-935
435.088	-2096
435.161	-882
435.234	-1270
435.307	-296
435.381	-1064
435.454	-1183
435.527	-804
435.600	153
435.673	-954
435.746	-458
435.819	-1252
435.892	-1023
435.966	-1260
436.039	-995
436.112	-1283
436.185	-883
436.258	-931
436.331	-1738
436.404	-1038
436.477	-965
436.550	-1566
436.623	-1831
436.696	-1200
436.769	-924
436.842	-1621
436.915	-405
436.987	-244
437.060	-1296
437.133	-1184
437.206	-1372
437.279	-659
437.352	-1937
437.425	-1051
437.498	-662
437.570	52
437.643	-108
437.716	-888
437.789	-916
437.861	-208
437.934	156
438.007	-775
438.080	-1193
438.152	-838
438.225	-666
438.298	2671
438.370	15033
438.443	7908
438.516	1072
438.588	-794
438.661	-1632
438.734	-1451
438.806	-961
438.879	-627
438.951	-868
439.024	-405
439.096	-1180
439.169	-891
439.241	-552
439.314	-956
439.386	-1615
439.459	-438
439.531	-663
439.604	-569
439.676	-1392
439.749	-1852
439.821	-1448
439.893	-1772
439.966	-560
440.038	-1060
440.110	-244
440.183	-1037
440.255	-1695
440.327	-1107
440.400	1656
440.472	8843
440.544	7678
440.617	-246
440.689	636
440.761	-177
440.833	440
440.905	-238
440.978	-949
441.050	-1012
441.122	-602
441.194	-1294
441.266	-775
441.338	-1183
441.411	-380
441.483	1252
441.555	4959
441.627	968
441.699	-249
441.771	5
441.843	-842
441.915	-1137
441.987	-16
442.059	-766
442.131	-260
442.203	-32
442.275	-588
442.347	-391
442.419	393
442.491	5940
442.563	22929
442.635	12752
442.706	4181
442.778	3579
442.850	464
442.922	-577
442.994	-547
443.066	-33
443.137	81
443.209	-130
443.281	346
443.353	2292
443.425	8723
443.496	34548
443.568	45074
443.640	20338
443.711	4360
443.783	748
443.855	41
443.926	-1041
443.998	-390
444.070	84
444.141	-263
444.213	-179
444.285	-632
444.356	-428
444.428	-253
444.499	268
444.571	-215
444.642	-643
444.714	-631
444.785	-903
444.857	480
444.928	573
445.000	844
445.071	528
445.143	2845
445.214	627
445.285	1809
445.357	6986
445.428	21552
445.500	57315
445.571	47545
445.642	27213
445.714	10351
445.785	6391
445.856	1273
445.928	679
445.999	99
446.070	-380
446.141	22
446.213	306
446.284	-334
446.355	-320
446.426	-740
446.497	-1072
446.569	-1132
446.640	-352
446.711	89
446.782	-599
446.853	-1200
446.924	-275
446.995	-522
447.066	-580
447.138	-124
447.209	-17
447.280	-1179
447.351	-1084
447.422	-1465
447.493	-674
447.564	-593
447.635	-667
447.706	-124
447.777	-1267
447.847	-1341
447.918	-1616
447.989	-873
448.060	372
448.131	483
448.202	1384
448.273	152
448.344	-1
448.414	-769
448.485	-460
448.556	-418
448.627	-1884
448.698	-602
448.768	-1033
448.839	-290
448.910	-110
448.981	249
449.051	-621
449.122	-614
449.193	-892
449.263	-565
449.334	-1018
449.405	-973
449.475	430
449.546	467
449.616	-7
449.687	62
449.758	207
449.828	-175
449.899	-1700
449.969	-1186
450.040	-966
450.110	-292
450.181	-471
450.251	-155
450.322	-749
450.392	-977
450.463	-1250
450.533	-1289
450.604	-729
450.674	-967
450.744	-409
450.815	-597
450.885	-872
450.955	-1020
451.026	-1261
451.096	-1714
451.166	-590
451.237	677
451.307	2974
451.377	1441
451.447	-430
451.518	-376
451.588	-1117
451.658	-127
451.728	-205
451.799	2530
451.869	4237
451.939	383
452.009	-9
452.079	-557
452.149	-1086
452.219	-104
452.289	3676
452.360	3055
452.430	-335
452.500	42
452.570	-286
452.640	863
452.710	2518
452.780	5979
452.850	3770
452.920	2706
452.990	725
453.060	-223
453.129	608
453.199	362
453.269	2705
453.339	9377
453.409	16096
453.479	14453
453.549	21925
453.619	26237
453.688	11525
453.758	1754
453.828	-179
453.898	-206
453.968	-951
454.037	-911
454.087	-856
454.107	-843
454.168	-391
454.177	-333
454.247	-528
454.249	-522
454.316	-668
454.330	-536
454.386	-28
454.411	482
454.456	1170
454.492	2326
454.525	3330
454.574	1531
454.595	755
454.655	-157
454.665	-294
454.734	154
454.736	183
454.804	727
454.817	1336
454.873	3520
454.898	3786
454.943	4051
454.979	2610
455.013	1372
455.060	390
455.082	47
455.141	1019
455.152	1179
455.221	2625
455.222	2713
455.291	7154
455.303	6794
455.360	4858
455.384	7269
455.430	10546
455.465	8964
455.499	7576
455.546	5499
455.569	4452
455.627	2502
455.638	2207
455.707	92
455.708	98
455.777	-707
455.789	-538
455.846	348
455.869	144
455.916	-523
455.950	-372
455.985	-99
456.031	-139
456.054	-196
456.112	184
456.124	242
456.193	-833
456.193	-845
456.262	252
456.274	174
456.332	-409
456.355	-436
456.401	-448
456.436	-450
456.470	-563
456.516	-213
456.540	12
456.597	-960
456.609	-1164
456.678	262
456.678	257
456.747	66
456.759	22
456.817	-16
456.840	-354
456.886	-1112
456.920	-651
456.955	-73
457.001	96
457.024	96
457.082	112
457.093	83
457.162	32
457.163	41
457.232	441
457.243	446
457.301	259
457.324	50
457.370	-384
457.405	-33
457.439	326
457.485	355
457.508	433
457.566	336
457.577	277
457.646	226
457.647	233
457.715	972
457.727	1294
457.784	3417
457.808	4488
457.853	5784
457.889	7264
457.922	7193
457.969	4663
457.991	4743
458.050	5335
458.060	5497
458.129	9564
458.130	9704
458.198	10818
458.211	10169
458.267	6123
458.292	3962
458.336	2348
458.372	1862
458.405	2103
458.453	3455
458.474	4744
458.533	9102
458.543	9639
458.611	17698
458.614	17902
458.680	12328
458.694	10038
458.749	5159
458.775	3431
458.818	1844
458.855	1561
458.887	1157
458.936	615
458.955	510
459.016	270
459.024	245
459.093	1173
459.097	1162
459.162	703
459.177	627
459.230	533
459.257	853
459.299	1317
459.338	1370
459.368	1328
459.418	1438
459.437	1309
459.499	631
459.505	625
459.574	832
459.579	833
459.643	459
459.659	468
459.711	936
459.740	1085
459.780	1303
459.820	1422
459.849	1222
459.900	974
459.917	891
459.981	687
459.986	682
460.054	957
460.061	962
460.123	1218
460.141	1245
460.191	1332
460.222	1471
460.260	1688
460.302	1821
460.328	1815
460.382	1907
460.397	1879
460.462	1635
460.465	1668
460.534	2781
460.543	2891
460.602	8978
460.623	11463
460.671	19506
460.703	26668
460.739	26092
460.783	25068
460.808	21784
460.864	6089
460.876	4973
460.944	2169
460.945	2136
461.013	1790
461.024	1740
461.081	1391
461.104	1323
461.150	1231
461.184	1354
461.218	1566
461.264	1360
461.286	1255
461.345	1283
461.355	1261
461.423	1279
461.425	1277
461.491	1686
461.505	1794
461.559	2421
461.585	2756
461.628	4848
461.665	6752
461.696	7740
461.745	10322
461.764	9141
461.825	2963
461.832	2872
461.901	1937
461.905	1952
461.969	1518
461.985	1335
462.037	1583
462.065	1863
462.105	1701
462.145	1564
462.173	2456
462.225	3834
462.241	4174
462.305	6515
462.310	6383
462.378	3759
462.385	3371
462.446	1823
462.465	1412
462.514	1877
462.545	2263
462.582	2004
462.625	1704
462.650	1454
462.705	1088
462.718	1203
462.785	1701
462.786	1723
462.854	2943
462.865	3124
462.922	3427
462.945	3713
462.990	3310
463.025	2531
463.058	2017
463.104	1645
463.126	1679
463.184	1519
463.194	1465
463.262	1500
463.264	1493
463.330	1349
463.344	1290
463.398	2324
463.424	2798
463.466	2355
463.504	2289
463.533	2511
463.583	2466
463.601	2575
463.663	2952
463.669	2915
463.737	2492
463.743	2459
463.805	4403
463.823	5013
463.873	7345
463.903	8905
463.940	9569
463.982	10214
464.008	8555
464.062	4553
464.076	4263
464.142	2433
464.144	2417
464.211	2212
464.221	2210
464.279	2344
464.301	2347
464.347	2646
464.381	2851
464.414	2890
464.461	3188
464.482	3465
464.540	3920
464.550	3786
464.617	2877
464.620	2838
464.685	3159
464.699	3214
464.753	3210
464.779	3310
464.820	3999
464.859	4560
464.888	4234
464.938	3726
464.956	3908
465.018	4444
465.023	4391
465.091	3411
465.098	3331
465.158	3564
465.177	3591
465.226	3657
465.257	3808
465.293	3709
465.336	3420
465.361	3434
465.416	3563
465.428	3900
465.495	5783
465.496	5812
465.563	8905
465.575	9460
465.631	12327
465.654	13690
465.698	9128
465.734	4880
465.765	4395
465.813	3710
465.833	3696
465.893	3833
465.900	3835
465.968	3879
465.972	3869
466.035	3193
466.052	3052
466.102	3383
466.131	3465
466.170	3477
466.210	3572
466.237	3927
466.290	4586
466.304	4439
466.369	3651
466.372	3693
466.439	4867
466.449	5014
466.506	4699
466.528	4594
466.573	5615
466.607	6342
466.641	9255
466.687	13330
466.708	15501
466.766	21504
466.775	20032
466.842	8675
466.845	8119
466.909	5948
466.925	5446
466.977	5315
467.004	5279
467.044	4886
467.083	4475
467.111	4984
467.163	5916
467.178	6175
467.242	7224
467.245	7201
467.312	6502
467.321	6401
467.379	6122
467.400	6005
467.446	6329
467.480	6547
467.559	6163
467.638	5027
467.717	4901
467.796	5756
467.875	6429
467.955	4662
468.034	7317
468.113	16573
468.192	25656
468.271	8565
468.350	5926
468.429	6528
468.508	6960
468.588	5259
468.667	4992
468.746	4241
468.825	4529
468.904	4320
468.983	4903
469.062	6081
469.141	9373
469.220	3967
469.299	4829
469.378	4378
469.456	5652
469.535	5194
469.614	4948
469.693	4156
469.772	6161
469.851	7927
469.930	6154
470.009	4343
470.088	3679
470.166	4117
470.245	4779
470.324	4422
470.403	4352
470.482	3728
470.560	4484
470.639	3793
470.718	4374
470.797	4417
470.875	5379
470.954	6067
471.033	7622
471.111	3894
471.190	3529
471.269	4088
471.347	3332
471.426	3593
471.505	4311
471.583	5476
471.662	4604
471.740	4221
471.819	3504
471.898	4046
471.976	4418
472.055	3936
472.133	4781
472.212	6226
472.290	5652
472.369	3418
472.447	4350
472.526	3602
472.604	4114
472.683	3216
472.761	4001
472.839	3858
472.918	3490
472.996	3295
473.075	4492
473.153	5085
473.231	3723
473.310	3779
473.388	4025
473.466	4001
473.545	4212
473.623	5317
473.701	4843
473.780	4371
473.858	3003
473.936	4959
474.014	3228
474.093	4514
474.171	5326
474.249	7399
474.327	5610
474.405	3535
474.484	4187
474.562	2875
474.640	2916
474.718	2955
474.796	3870
474.874	4080
474.952	2850
475.030	3654
475.108	3366
475.187	3931
475.265	2987
475.343	5843
475.421	6400
475.499	3938
475.577	4434
475.655	5007
475.733	7781
475.811	13220
475.889	13249
475.966	9704
476.044	4068
476.122	3650
476.200	5344
476.278	4778
476.356	3639
476.434	3831
476.512	4617
476.590	6087
476.667	5505
476.745	3291
476.823	3400
476.901	3854
476.979	4275
477.056	3814
477.134	3505
477.212	4614
477.290	3219
477.367	3090
477.445	3905
477.523	2947
477.601	2942
477.678	3218
477.756	4486
477.834	4168
477.911	3102
477.989	3041
478.066	3005
478.144	3168
478.222	3869
478.299	5579
478.377	5044
478.454	4137
478.532	2291
478.609	2830
478.687	3558
478.764	3123
478.842	3309
478.919	3432
478.997	3121
479.074	3010
479.152	3553
479.229	4251
479.307	3310
479.384	3124
479.461	3151
479.539	2757
479.616	4018
479.694	3214
479.771	2871
479.848	3699
479.926	3544
480.003	5215
480.080	2974
480.157	2985
480.235	2738
480.312	2541
480.389	3351
480.467	4795
480.544	6989
480.621	4245
480.698	3350
480.775	4372
480.853	3679
480.930	3493
481.007	3988
481.084	4450
481.161	5940
481.238	4642
481.315	3204
481.392	2660
481.470	3846
481.547	3654
481.624	3194
481.701	3153
481.778	3263
481.855	4070
481.932	5297
482.009	7850
482.086	6986
482.163	3622
482.240	3726
482.317	7721
482.393	6137
482.470	2950
482.547	3828
482.624	3414
482.701	2858
482.778	2382
482.855	2493
482.932	2739
483.009	2906
483.085	3207
483.162	4398
483.239	4425
483.316	3118
483.393	3282
483.469	2491
483.546	4061
483.623	3922
483.699	3446
483.776	3144
483.853	3084
483.930	4568
484.006	10660
484.083	20697
484.160	12141
484.236	16305
484.313	13422
484.389	10508
484.466	9489
484.543	8703
484.619	8674
484.696	9582
484.772	9229
484.849	9947
484.925	7720
485.002	8007
485.078	8675
485.155	8022
485.231	8160
485.308	6784
485.384	7778
485.461	8797
485.537	12449
485.614	15704
485.690	8575
485.766	6457
485.843	7208
485.919	8555
485.995	8974
486.072	6757
486.148	6757
486.224	7097
486.301	6429
486.377	7771
486.453	7033
486.530	7387
486.606	10575
486.682	10770
486.758	12359
486.835	13770
486.911	9970
486.987	16015
487.063	16103
487.139	16437
487.215	13442
487.292	9058
487.368	8257
487.444	7536
487.520	10231
487.596	10670
487.672	14234
487.748	34401
487.824	58919
487.900	24217
487.976	9329
488.052	8736
488.128	8845
488.204	9352
488.280	6783
488.356	7933
488.432	12681
488.508	22887
488.584	9687
488.660	6072
488.736	6086
488.812	5689
488.888	7116
488.964	9461
489.039	13385
489.115	22108
489.191	14960
489.267	6355
489.343	6255
489.418	5004
489.494	5050
489.570	4851
489.646	6471
489.722	4629
489.797	5623
489.873	7439
489.949	15392
490.024	15858
490.100	5092
490.176	4722
490.251	6139
490.327	6353
490.403	4648
490.478	5124
490.554	4813
490.629	4485
490.705	4937
490.781	4670
490.856	4578
490.932	5230
491.007	4876
491.083	4100
491.158	3326
491.234	5590
491.309	10746
491.385	13359
491.460	4439
491.536	4960
491.611	4996
491.686	5275
491.762	6106
491.837	8830
491.913	14818
491.988	19181
492.063	26017
492.139	9961
492.214	6365
492.289	3269
492.365	3114
492.440	4863
492.515	3262
492.590	4631
492.666	3401
492.741	5112
492.816	6385
492.891	4658
492.967	3547
493.042	3729
493.117	3428
493.192	4778
493.267	6972
493.342	24892
493.418	42651
493.493	8916
493.568	2566
493.643	3033
493.718	4040
493.793	5223
493.868	5723
493.943	4116
494.018	4134
494.093	3020
494.168	3040
494.243	2621
494.318	3503
494.393	3468
494.468	3041
494.543	2821
494.618	3166
494.693	2218
494.768	2295
494.842	2587
494.917	2318
494.992	2502
495.067	2962
495.142	3052
495.217	2481
495.292	2784
495.366	3729
495.441	4115
495.516	5041
495.591	5990
495.665	14226
495.740	40003
495.815	20171
495.890	4281
495.964	2620
496.039	4698
496.114	3839
496.188	4950
496.263	4541
496.338	3751
496.412	4037
496.487	4975
496.561	3897
496.636	3693
496.710	3942
496.785	4500
496.860	4750
496.934	4146
497.009	3828
497.083	3758
497.158	3472
497.232	5047
497.307	5672
497.381	5804
497.455	5440
497.530	8615
497.604	5818
497.679	6149
497.753	9541
497.827	12254
497.902	11472
497.976	14062
498.050	22502
498.125	91850
498.199	118419
498.273	19518
498.348	11840
498.422	10205
498.496	9248
498.570	8582
498.645	6609
498.719	6540
498.793	7875
498.867	11321
498.941	13407
499.016	32540
499.090	109632
499.164	51893
499.238	6181
499.312	4293
499.386	5425
499.460	5278
499.534	4674
499.609	6273
499.683	8375
499.757	10362
499.831	14216
499.905	63854
499.979	78343
500.053	11722
500.127	8823
500.201	5204
500.275	4829
500.349	5332
500.422	4878
500.496	6638
500.570	12112
500.644	31529
500.718	77948
500.792	21784
500.866	5332
500.940	6361
501.013	5443
501.087	4921
501.161	8108
501.235	10650
501.309	19826
501.382	60922
501.456	68664
501.530	13019
501.603	21364
501.677	11018
501.751	3820
501.825	4897
501.898	7068
501.972	24141
502.046	19725
502.119	4443
502.193	10097
502.266	28101
502.340	17245
502.413	11430
502.487	24968
502.561	14951
502.634	4210
502.708	3477
502.781	2344
502.855	2825
502.928	1462
503.002	2040
503.075	2879
503.149	2379
503.222	2441
503.295	3758
503.369	4582
503.442	5243
503.516	14541
503.589	46001
503.662	34985
503.736	10309
503.809	21449
503.882	18870
503.956	26123
504.029	29789
504.102	19892
504.175	30160
504.249	11339
504.322	4875
504.395	4004
504.468	2257
504.542	3100
504.615	2476
504.688	2353
504.761	859
504.834	2556
504.907	3001
504.980	4968
505.053	3534
505.127	2710
505.200	4945
505.273	3665
505.346	2072
505.419	1479
505.492	2593
505.565	1189
505.638	2352
505.711	1705
505.784	1193
505.857	1607
505.930	2825
506.003	727
506.076	3180
506.149	2554
506.221	2834
506.294	2567
506.367	7511
506.440	33637
506.513	23056
506.586	3842
506.659	2160
506.731	1850
506.804	2341
506.877	2166
506.950	3052
507.022	1877
507.095	1722
507.168	3568
507.241	2105
507.313	1187
507.386	878
507.459	2398
507.531	1266
507.604	1851
507.677	1583
507.749	878
507.822	2505
507.894	3710
507.967	6787
508.040	3886
508.112	3939
508.185	2432
508.257	2409
508.330	4179
508.402	2397
508.475	2349
508.547	3864
508.620	2851
508.692	4816
508.765	3619
508.837	2732
508.909	1840
508.982	1772
509.054	2268
509.127	1947
509.199	2062
509.271	1271
509.344	977
509.416	2474
509.488	1808
509.560	1655
509.633	1560
509.705	1899
509.777	2216
509.849	3353
509.922	1281
509.994	2431
510.066	2875
510.138	1317
510.210	7143
510.283	5441
510.355	4304
510.427	2903
510.499	3235
510.571	3001
510.643	2219
510.715	4689
510.787	3551
510.859	2917
510.931	3009
511.003	4462
511.076	4552
511.148	2508
511.219	2715
511.291	5505
511.363	5870
511.435	3603
511.507	2287
511.579	3097
511.651	2635
511.723	2516
511.795	2011
511.867	2338
511.939	2612
512.010	5422
512.082	6399
512.154	2485
512.226	3387
512.298	3604
512.369	5855
512.441	5038
512.513	4113
512.585	2977
512.656	3740
512.728	3197
512.800	3396
512.871	3157
512.943	2407
513.015	2392
513.086	3127
513.158	2769
513.230	3529
513.301	2557
513.373	4843
513.444	3065
513.516	2347
513.588	2317
513.659	2506
513.731	3015
513.802	2604
513.874	4763
513.945	8105
514.016	3651
514.088	2904
514.159	2232
514.231	4195
514.302	5704
514.374	4254
514.445	3729
514.516	7569
514.588	4912
514.659	3189
514.730	6534
514.802	5738
514.873	2692
514.944	5569
515.016	3448
515.087	2749
515.158	4686
515.229	8298
515.301	4072
515.372	5704
515.443	3115
515.514	2869
515.585	1739
515.656	2714
515.728	2393
515.799	2475
515.870	2914
515.941	1619
516.012	2290
516.083	3476
516.154	2556
516.225	4621
516.296	3737
516.367	2963
516.438	3307
516.509	4076
516.580	6536
516.651	12210
516.722	43517
516.793	29311
516.864	6503
516.935	6671
517.006	7233
517.077	8186
517.148	15073
517.219	36018
517.289	73232
517.360	39533
517.431	18796
517.502	3039
517.573	3381
517.643	3415
517.714	3691
517.785	4328
517.856	3799
517.926	4832
517.997	4662
518.068	4980
518.138	9325
518.209	8894
518.280	21127
518.350	97828
518.421	49899
518.492	7487
518.562	5860
518.633	6706
518.703	5470
518.774	11528
518.845	29024
518.915	34747
518.986	11888
519.056	6772
519.127	9314
519.197	12700
519.268	34596
519.338	31094
519.408	5810
519.479	5370
519.549	4314
519.620	3760
519.690	3077
519.760	2691
519.831	2169
519.901	2042
519.971	2943
520.042	2757
520.112	3540
520.182	4192
520.253	3917
520.323	2433
520.393	3190
520.463	5300
520.534	1510
520.604	9001
520.674	4883
520.744	4059
520.814	8306
520.885	8659
520.955	9334
521.025	42293
521.095	23258
521.165	4251
521.235	3687
521.305	2254
521.375	2569
521.445	3130
521.515	2966
521.585	3755
521.655	3312
521.725	3172
521.795	3110
521.865	610
521.935	5432
522.005	4650
522.075	1935
522.145	2358
522.215	2565
522.285	4006
522.355	4515
522.424	10299
522.494	9283
522.564	4712
522.634	5545
522.704	20022
522.774	8974
522.843	3555
522.913	2432
522.983	2894
523.053	2292
523.122	2257
523.192	2244
523.262	9047
523.331	10117
523.401	3563
523.471	2040
523.540	2529
523.610	1359
523.680	1929
523.749	1925
523.819	2184
523.888	2803
523.958	1461
524.027	2197
524.097	1714
524.166	1874
524.236	1960
524.305	2902
524.375	951
524.444	1064
524.514	2641
524.583	1993
524.653	2158
524.722	3352
524.791	1548
524.861	2180
524.930	1252
524.999	1349
525.069	3831
525.138	2432
525.207	2110
525.277	1772
525.346	1936
525.415	2422
525.484	1473
525.554	2177
525.623	2322
525.692	2921
525.761	3036
525.830	4144
525.900	4114
525.969	6040
526.038	10062
526.107	17788
526.176	62505
526.245	60671
526.314	18658
526.383	29692
526.452	46711
526.522	66031
526.591	87004
526.660	20380
526.729	10310
526.797	11699
526.867	16161
526.935	68128
527.004	154186
527.073	114443
527.142	12137
527.211	5230
527.280	3338
527.349	3842
527.418	1812
527.487	3094
527.555	1407
527.624	626
527.693	1328
527.762	1345
527.831	821
527.899	1317
527.968	2373
528.037	-271
528.106	1579
528.174	3345
528.243	3304
528.312	3359
528.380	4958
528.449	2146
528.518	1778
528.586	316
528.655	734
528.723	1464
528.792	418
528.861	1169
528.929	995
528.998	1966
529.066	1818
529.135	2218
529.203	1699
529.272	1094
529.340	4118
529.409	3615
529.477	2185
529.545	1782
529.614	4905
529.682	2124
529.751	3602
529.819	5822
529.887	3824
529.956	3336
530.024	2934
530.092	2862
530.161	3531
530.229	3412
530.297	2923
530.365	3057
530.434	2960
530.502	3262
530.570	3214
530.638	1875
530.707	2738
530.775	3544
530.843	2025
530.911	3218
530.979	2564
531.047	3278
531.115	2495
531.183	1995
531.252	3203
531.320	2525
531.388	1149
531.456	3108
531.524	2355
531.592	3010
531.660	4404
531.728	3334
531.796	2238
531.864	3846
531.932	2771
532.000	2617
532.067	2904
532.135	4605
532.203	3759
532.271	3954
532.339	5745
532.407	9064
532.475	7351
532.542	5447
532.610	4846
532.678	5125
532.746	13880
532.814	45552
532.881	15403
532.949	5657
533.017	3817
533.084	4011
533.152	3337
533.220	3681
533.287	2801
533.355	3064
533.423	3566
533.490	3121
533.558	3781
533.625	3672
533.693	3187
533.761	3116
533.828	3849
533.896	2757
533.963	5192
534.031	5612
534.098	7973
534.166	4352
534.233	3080
534.300	3664
534.368	4145
534.435	2993
534.503	3078
534.570	3514
534.637	3767
534.705	4228
534.772	5163
534.840	5617
534.907	25520
534.974	43580
535.041	7710
535.109	4836
535.176	2505
535.243	2917
535.310	2880
535.378	2554
535.445	2727
535.512	2539
535.579	3139
535.646	2278
535.714	2351
535.781	2807
535.848	3376
535.915	3557
535.982	2299
536.049	3075
536.116	4085
536.183	2350
536.250	2402
536.317	2374
536.384	2745
536.451	4011
536.518	3200
536.585	2048
536.652	3892
536.719	4775
536.786	3057
536.853	3035
536.920	4535
536.987	6207
537.053	4240
537.120	18255
537.187	22475
537.254	4090
537.321	1613
537.388	3414
537.454	1807
537.521	1401
537.588	1741
537.654	2537
537.721	1824
537.788	3533
537.855	1684
537.921	2163
537.988	2029
538.055	3079
538.121	2044
538.188	2671
538.254	3000
538.321	4561
538.388	4373
538.454	3424
538.521	2296
538.587	2386
538.654	2287
538.720	1572
538.787	1963
538.853	2773
538.920	2646
538.986	1782
539.053	2644
539.119	2378
539.185	2210
539.252	2914
539.318	3010
539.385	3695
539.451	2061
539.517	3063
539.583	3786
539.650	4740
539.716	16594
539.782	5799
539.849	2157
539.915	3252
539.981	1892
540.047	3035
540.114	1664
540.180	2786
540.246	1396
540.312	2874
540.378	4777
540.444	6897
540.510	5116
540.576	16866
540.643	6797
540.709	1418
540.775	2283
540.841	2643
540.907	2432
540.973	4227
541.039	3520
541.105	3223
541.171	2894
541.237	2221
541.303	3022
541.369	4278
541.435	2892
541.500	3780
541.566	2149
541.632	1332
541.698	1908
541.764	1994
541.830	2622
541.896	1785
541.961	2563
542.027	2313
542.093	1717
542.159	1574
542.224	1788
542.290	3378
542.356	3111
542.421	5540
542.487	4008
542.553	2331
542.618	3122
542.684	2341
542.750	2350
542.815	3188
542.881	3910
542.947	13604
543.012	14208
543.078	2980
543.143	1773
543.209	1997
543.274	1989
543.340	3059
543.405	4410
543.471	10291
543.536	2161
543.602	2457
543.667	1052
543.732	3053
543.798	1216
543.863	2664
543.928	1207
543.994	1020
544.059	2457
544.124	2885
544.190	1460
544.255	3164
544.320	2286
544.386	1626
544.451	3253
544.516	4148
544.581	2768
544.646	7529
544.712	16838
544.777	5442
544.842	3154
544.907	3076
544.972	2863
545.037	3365
545.102	4236
545.168	2308
545.233	3784
545.298	3928
545.363	3751
545.428	3986
545.493	5874
545.558	11740
545.623	7059
545.688	2339
545.753	3690
545.818	3104
545.883	3434
545.947	3460
546.012	3627
546.077	2426
546.142	4383
546.207	2586
546.272	4408
546.337	4018
546.401	4702
546.466	4803
546.531	2825
546.596	4401
546.661	4422
546.725	5128
546.790	3964
546.855	5762
546.919	4135
546.984	4821
547.049	5498
547.113	6307
547.178	6017
547.243	7825
547.307	8810
547.372	8996
547.436	9874
547.501	9286
547.565	10414
547.630	9235
547.695	8949
547.759	9259
547.823	8979
547.888	9849
547.952	8916
548.017	9775
548.081	11124
548.146	11663
548.210	11776
548.274	10746
548.339	10428
548.403	11149
548.468	9249
548.532	8836
548.596	9363
548.660	9259
548.725	10484
548.789	10383
548.853	12582
548.917	9114
548.982	9795
549.046	11415
549.110	8678
549.174	8795
549.238	9053
549.303	9960
549.367	12278
549.431	10302
549.495	9812
549.559	10061
549.623	11056
549.687	13482
549.751	13208
549.815	14671
549.879	16146
549.943	12520
550.007	15083
550.071	15550
550.135	14649
550.199	12990
550.263	13172
550.327	12604
550.391	12761
550.455	13981
550.519	13641
550.582	15464
550.646	17411
550.710	17886
550.774	17186
550.838	17959
550.901	17667
550.965	19149
551.029	19045
551.093	20780
551.156	23066
551.220	29833
551.284	34985
551.347	25746
551.411	25679
551.475	29682
551.538	19850
551.602	17391
551.666	17095
551.729	14397
551.793	15446
551.856	14407
551.920	14790
551.983	15487
552.047	15179
552.110	15067
552.174	14791
552.237	14310
552.301	15070
552.364	14203
552.428	12299
552.491	12741
552.554	14864
552.618	14138
552.681	14796
552.745	13944
552.808	14525
552.871	15803
552.934	15707
552.998	14046
553.061	14830
553.124	14071
553.187	14646
553.251	15762
553.314	16252
553.377	14867
553.440	18679
553.503	32867
553.567	60409
553.630	23495
553.693	16226
553.756	16112
553.819	15958
553.882	15489
553.945	14992
554.008	15207
554.071	14544
554.134	16016
554.197	13920
554.260	15009
554.323	15048
554.386	15025
554.449	15706
554.512	15732
554.575	13723
554.638	13978
554.701	14598
554.764	15251
554.827	14668
554.889	12967
554.952	13225
555.015	11582
555.078	12136
555.141	13189
555.203	11530
555.266	12885
555.329	13197
555.391	11747
555.454	11536
555.517	11900
555.580	11458
555.642	10989
555.705	10459
555.768	10517
555.830	11026
555.893	9504
555.955	9433
556.018	9456
556.080	9629
556.143	9944
556.206	9695
556.268	10819
556.330	10101
556.393	10016
556.455	9076
556.518	10842
556.580	10321
556.643	8157
556.705	8081
556.767	8009
556.830	8990
556.892	8433
556.955	8462
557.017	7759
557.079	8444
557.142	7519
557.204	7980
557.266	9957
557.328	9305
557.391	7144
557.453	6460
557.515	6869
557.577	7630
557.639	7502
557.701	6148
557.764	7415
557.826	6686
557.888	8511
557.950	8032
558.012	8505
558.074	9886
558.136	16934
558.198	49840
558.260	25448
558.322	8696
558.384	8887
558.446	10420
558.508	11055
558.570	14342
558.632	17761
558.694	24443
558.756	29296
558.818	68204
558.880	209520
558.942	88091
559.003	51872
559.065	35366
559.127	13509
559.189	12919
559.251	13563
559.312	18560
559.374	34157
559.436	128248
559.498	89510
559.559	16040
559.621	13824
559.683	14325
559.744	20487
559.806	53861
559.868	109999
559.929	28004
559.991	13345
560.052	16867
560.114	44480
560.176	37324
560.237	23739
560.299	48358
560.360	15668
560.422	6309
560.483	6282
560.545	5150
560.606	5175
560.667	4502
560.729	4912
560.790	4282
560.852	4998
560.913	4728
560.974	4758
561.036	4338
561.097	4011
561.158	4828
561.220	5162
561.281	4506
561.342	4254
561.403	5613
561.465	4474
561.526	7118
561.587	11850
561.648	5163
561.709	4654
561.771	4747
561.832	4132
561.893	4359
561.954	4804
562.015	4179
562.076	4176
562.137	4102
562.198	4264
562.259	5503
562.320	3760
562.381	3607
562.442	5695
562.503	5143
562.564	3898
562.625	4262
562.686	4018
562.747	3604
562.808	4550
562.869	3953
562.930	5171
562.991	5292
563.051	4686
563.112	4174
563.173	4125
563.234	4102
563.294	4493
563.355	4630
563.416	4755
563.477	3793
563.537	4175
563.598	3562
563.659	4618
563.720	4620
563.780	4832
563.841	4834
563.901	4161
563.962	4508
564.023	5113
564.083	4761
564.144	4292
564.204	4666
564.265	4651
564.325	4609
564.386	7625
564.446	8520
564.507	5127
564.567	3817
564.628	4749
564.688	4516
564.749	4883
564.809	4417
564.869	5427
564.930	4892
564.990	5453
565.050	3962
565.111	4446
565.171	4393
565.231	4693
565.292	5363
565.352	2957
565.412	4697
565.472	4060
565.532	4824
565.593	4934
565.653	3522
565.713	4149
565.773	4876
565.833	4106
565.893	6567
565.953	4949
566.013	4640
566.074	5584
566.134	6099
566.194	7417
566.254	8280
566.314	6702
566.374	5832
566.434	5346
566.494	5925
566.554	5621
566.614	5334
566.673	5720
566.733	6737
566.793	6151
566.853	6020
566.913	6543
566.973	6579
567.033	6515
567.092	6083
567.152	6798
567.212	6915
567.272	6835
567.331	7367
567.391	7511
567.451	7893
567.511	9181
567.570	9129
567.630	7105
567.690	7418
567.749	7270
567.809	7564
567.868	9187
567.928	9167
567.988	9485
568.047	11339
568.107	12071
568.166	17131
568.226	24020
568.285	33307
568.345	31817
568.404	26367
568.464	22893
568.523	21061
568.582	20400
568.642	21780
568.701	26592
568.761	35507
568.820	52294
568.879	57901
568.939	44406
568.998	33698
569.057	25425
569.116	20312
569.176	16887
569.235	13784
569.294	12003
569.353	11039
569.413	10744
569.472	9365
569.531	8731
569.590	7185
569.649	7886
569.708	7004
569.767	7232
569.827	7837
569.886	7053
569.945	6496
570.004	6747
570.063	6446
570.122	6462
570.181	6416
570.240	7019
570.299	6745
570.358	7042
570.417	6209
570.475	4905
570.534	5380
570.593	6621
570.652	6287
570.711	5110
570.770	6025
570.829	5748
570.887	5086
570.946	5937
571.005	5680
571.064	5419
571.122	5476
571.181	4849
571.240	5503
571.299	5944
571.357	5410
571.416	5872
571.475	6616
571.533	6365
571.592	5204
571.650	5370
571.709	5145
571.768	6136
571.826	5145
571.885	5556
571.943	5287
572.002	4608
572.060	5345
572.119	5139
572.177	5155
572.236	4630
572.294	5169
572.352	5935
572.411	4980
572.469	4903
572.528	5567
572.586	5242
572.644	5260
572.703	5697
572.761	5123
572.819	4965
572.877	5303
572.936	4772
572.994	4913
573.052	5044
573.110	5734
573.169	4561
573.227	4592
573.285	4929
573.343	5082
573.401	5240
573.459	5582
573.517	5389
573.576	5085
573.634	5724
573.692	5487
573.750	5442
573.808	4557
573.866	6228
573.924	5716
573.982	6288
574.040	5084
574.098	5451
574.155	5261
574.213	5295
574.271	4629
574.329	4383
574.387	5523
574.445	4488
574.503	3925
574.560	4167
574.618	4904
574.676	5276
574.734	4094
574.792	5025
574.849	4428
574.907	4124
574.965	5485
575.022	4345
575.080	4412
575.138	4989
575.195	4619
575.253	4615
575.311	4411
575.368	4383
575.426	4988
575.483	5553
575.541	3921
575.598	4990
575.656	3819
575.713	4979
575.771	5255
575.828	5158
575.886	4807
575.943	6057
576.001	5662
576.058	5655
576.115	4783
576.173	5720
576.230	5569
576.287	7059
576.345	6469
576.402	5328
576.459	4967
576.517	5435
576.574	5547
576.631	5482
576.688	6180
576.746	5124
576.803	5493
576.860	4878
576.917	5371
576.974	5450
577.031	4306
577.089	5939
577.146	4873
577.203	5122
577.260	5543
577.317	5550
577.374	5443
577.431	6244
577.488	6525
577.545	4866
577.602	6268
577.659	5455
577.716	5755
577.773	5832
577.830	6554
577.886	4999
577.943	4868
578.000	5857
578.057	5620
578.114	6868
578.171	6420
578.227	7189
578.284	7161
578.341	6714
578.398	5870
578.454	6284
578.511	6649
578.568	6739
578.625	6390
578.681	6121
578.738	5516
578.794	6275
578.851	6099
578.908	6080
578.964	5742
579.021	6236
579.077	6042
579.134	5778
579.190	5473
579.247	6411
579.303	5452
579.360	6100
579.416	6062
579.473	5891
579.529	5856
579.586	6132
579.642	6126
579.698	6305
579.755	6686
579.811	6189
579.867	6937
579.924	6574
579.980	5788
580.036	7407
580.093	8269
580.149	10006
580.205	10748
580.261	9641
580.317	7339
580.374	7480
580.430	7938
580.486	7085
580.542	6497
580.598	6799
580.619	7071
580.654	7550
580.692	6897
580.710	6570
580.765	6977
580.767	6995
580.823	7846
580.838	7550
580.879	6760
580.911	7117
580.935	7390
580.984	7026
580.991	6977
581.047	7564
581.057	7611
581.103	7848
581.130	7966
581.159	8095
581.203	8239
581.215	8273
581.270	8077
581.276	8031
581.326	7616
581.349	7937
581.382	8402
581.422	8099
581.438	7983
581.494	8162
581.494	8157
581.550	7458
581.567	7457
581.606	7526
581.640	8041
581.661	8336
581.713	8220
581.717	8208
581.773	7842
581.786	7965
581.829	8442
581.859	8684
581.885	8847
581.932	8330
581.940	8239
581.996	9448
582.004	9372
582.052	8980
582.077	8986
582.107	8953
582.150	9605
582.163	9814
582.219	9889
582.223	9860
582.274	9463
582.296	9397
582.330	9351
582.368	10222
582.386	10569
582.441	10023
582.441	10021
582.497	10350
582.514	10043
582.552	9413
582.587	10577
582.608	11246
582.659	10930
582.663	10890
582.719	10901
582.732	10802
582.774	10776
582.805	10759
582.830	10657
582.877	11194
582.885	11294
582.941	12370
582.950	12331
582.996	12338
583.023	12902
583.052	13454
583.095	14065
583.107	14182
583.162	14716
583.168	14790
583.218	15530
583.240	15092
583.273	14191
583.313	13807
583.328	13750
583.384	12493
583.385	12476
583.439	11825
583.458	11953
583.494	12277
583.531	12054
583.549	12041
583.603	12456
583.605	12456
583.660	12454
583.676	12376
583.715	12526
583.748	12913
583.770	13127
583.820	13484
583.825	13521
583.881	13285
583.893	13267
583.936	13049
583.965	13100
583.991	13080
584.038	12799
584.046	12861
584.101	12359
584.110	12635
584.156	13570
584.183	13544
584.211	13675
584.255	14037
584.266	14108
584.321	14719
584.328	14629
584.376	14018
584.400	14367
584.431	14825
584.472	14633
584.486	14591
584.541	15377
584.545	15384
584.596	15549
584.617	15645
584.651	15830
584.689	15903
584.706	15963
584.761	16850
584.762	16848
584.816	17602
584.834	17352
584.871	16871
584.906	17385
584.926	17744
584.978	18007
584.980	18020
585.035	18290
585.051	18470
585.090	19136
585.123	19265
585.145	19217
585.195	19396
585.200	19495
585.254	20819
585.267	21294
585.309	22765
585.340	23889
585.364	24697
585.412	25099
585.419	25160
585.473	26421
585.484	26596
585.528	28233
585.556	30474
585.583	33974
585.628	43288
585.637	46708
585.692	75404
585.700	82249
585.747	118401
585.772	113341
585.801	89096
585.845	48376
585.856	41378
585.910	30047
585.917	29017
585.965	27193
585.989	26528
586.019	26163
586.061	26176
586.074	26333
586.128	26898
586.133	26918
586.183	27011
586.205	26997
586.237	27074
586.277	26972
586.292	27140
586.346	27798
586.349	27807
586.401	28091
586.421	28289
586.455	28854
586.493	29568
586.509	30331
586.564	31701
586.565	31763
586.618	36502
586.637	37314
586.672	37426
586.709	35415
586.727	34449
586.781	33543
586.781	33591
586.835	34970
586.853	35139
586.889	35272
586.925	34826
586.944	34939
586.996	36628
586.998	36735
587.052	38155
587.068	38535
587.106	39700
587.140	40521
587.161	40868
587.212	41621
587.215	41776
587.269	43961
587.284	44456
587.323	45584
587.356	46250
587.377	47272
587.427	50251
587.431	50511
587.485	52929
587.499	53396
587.539	55227
587.571	56627
587.593	58064
587.643	60827
587.648	61225
587.702	65158
587.715	66040
587.755	69614
587.786	72128
587.810	74141
587.858	77674
587.864	78415
587.917	85461
587.930	86928
587.971	92425
588.001	96130
588.025	99971
588.073	107860
588.079	109212
588.133	120224
588.145	122597
588.187	133347
588.217	140507
588.241	148295
588.288	163507
588.295	166111
588.348	186987
588.360	191271
588.402	214150
588.431	229637
588.456	245726
588.503	276825
588.510	283156
588.564	332232
588.575	342150
588.617	395251
588.646	431201
588.671	473444
588.718	553103
588.725	567472
588.778	672240
588.789	692092
588.832	736648
588.861	760848
588.886	712950
588.932	603641
588.939	591523
588.993	475552
589.004	459680
589.047	616544
589.075	716512
589.100	758680
589.147	816367
589.154	808488
589.207	726117
589.218	708285
589.261	657379
589.290	622231
589.314	623135
589.361	626393
589.368	635290
589.421	700882
589.433	713712
589.475	735444
589.504	744516
589.528	689745
589.576	559964
589.582	567817
589.635	646223
589.647	661469
589.689	721652
589.718	752731
589.742	693338
589.790	567991
589.795	557493
589.849	445923
589.861	419591
589.902	365459
589.932	324490
589.955	303213
590.004	256696
590.009	254103
590.062	220304
590.075	211669
590.115	195442
590.146	181876
590.168	174273
590.218	156945
590.222	156391
590.275	144009
590.289	140458
590.328	132766
590.360	126133
590.381	123016
590.431	114447
590.435	114334
590.488	107602
590.503	105440
590.541	101505
590.574	97739
590.594	95971
590.645	90592
590.647	90657
590.700	85826
590.716	84264
590.753	82629
590.787	80617
590.806	79756
590.859	76710
590.859	76882
590.912	74483
590.930	73562
590.965	72359
591.001	70890
591.018	70512
591.071	68482
591.072	68266
591.124	65978
591.143	64965
591.177	64327
591.214	63265
591.230	63295
591.283	62646
591.285	62446
591.336	60324
591.356	59181
591.389	58577
591.427	57515
591.442	57174
591.495	55279
591.498	54987
591.547	54888
591.569	54613
591.600	54486
591.640	53896
591.653	53889
591.706	53341
591.711	53108
591.759	52266
591.782	51643
591.811	52512
591.853	53506
591.864	53397
591.917	51884
591.924	51508
591.969	50512
591.995	49743
592.022	50178
592.066	50489
592.075	50451
592.127	49222
592.137	48872
592.180	49133
592.208	49017
592.233	49050
592.279	48669
592.285	48715
592.338	47883
592.350	47556
592.390	46926
592.421	46210
592.443	46505
592.491	46686
592.495	46820
592.548	46742
592.562	46584
592.600	46024
592.633	45290
592.653	45240
592.704	44532
592.705	44779
592.775	44275
592.846	43284
592.916	44911
592.987	43722
593.058	43926
593.128	42776
593.199	42983
593.270	43427
593.341	41353
593.411	41140
593.482	42062
593.553	42904
593.623	40724
593.694	41240
593.764	41402
593.835	40944
593.906	40809
593.976	41299
594.047	40724
594.117	42638
594.188	42966
594.258	41597
594.329	40728
594.399	41195
594.470	41944
594.540	41884
594.611	42086
594.681	42566
594.751	41221
594.822	42996
594.892	43725
594.963	42926
595.033	43411
595.103	44826
595.174	44904
595.244	46881
595.314	49708
595.384	46911
595.455	46803
595.525	45990
595.595	47772
595.665	48488
595.736	46837
595.806	47892
595.876	47482
595.946	48082
596.016	47645
596.087	49849
596.157	49459
596.227	50263
596.297	50887
596.367	53491
596.437	55855
596.507	57730
596.577	58929
596.647	56872
596.717	56842
596.787	57391
596.857	58464
596.927	58310
596.997	59166
597.067	59859
597.137	62841
597.207	62644
597.277	61053
597.347	60685
597.417	59308
597.487	60516
597.557	61559
597.626	62092
597.696	61843
597.766	63307
597.836	62254
597.906	60313
597.975	56854
598.045	57672
598.115	59676
598.185	62932
598.254	66452
598.324	71727
598.394	71744
598.464	71291
598.533	69763
598.603	67394
598.672	66431
598.742	67173
598.812	68672
598.881	68675
598.951	68638
599.020	68948
599.090	72434
599.159	72933
599.229	72185
599.299	70771
599.368	71536
599.437	73601
599.507	70271
599.576	69255
599.646	70807
599.715	71007
599.785	69200
599.854	69228
599.924	69722
599.993	70398
600.062	71220
600.132	73015
600.201	75660
600.270	81477
600.340	86078
600.409	85963
600.478	86003
600.547	87635
600.617	88163
600.686	78538
600.755	76283
600.824	74672
600.894	75297
600.963	75283
601.032	76328
601.101	77582
601.170	77448
601.239	77935
601.308	78965
601.378	80042
601.447	82035
601.516	83649
601.585	85680
601.654	87662
601.723	88056
601.792	92290
601.861	94079
601.930	99156
601.999	101842
602.068	99872
602.137	100684
602.206	101930
602.275	102980
602.343	104480
602.412	104559
602.481	105599
602.550	105194
602.619	108036
602.688	108795
602.756	110576
602.825	108301
602.894	111147
602.963	110238
603.032	111697
603.100	115588
603.169	109550
603.238	115635
603.307	113007
603.375	109003
603.444	116315
603.513	109148
603.581	109568
603.650	117338
603.719	101861
603.787	93198
603.856	94123
603.924	96463
603.993	98944
604.061	100642
604.130	102636
604.198	107548
604.267	107343
604.335	109985
604.404	111575
604.472	114606
604.541	113125
604.609	116747
604.678	120303
604.746	120714
604.815	127582
604.883	125643
604.951	120003
605.020	124193
605.088	117368
605.156	110139
605.225	109588
605.293	109516
605.361	110942
605.429	109112
605.498	112021
605.566	111143
605.634	114000
605.702	115638
605.771	117038
605.839	122827
605.907	112956
605.975	116115
606.043	115295
606.111	108270
606.180	118996
606.248	113647
606.316	107660
606.384	116360
606.452	102258
606.520	79453
606.588	81320
606.656	81258
606.724	81820
606.792	76432
606.860	71596
606.928	64964
606.996	63062
607.064	62799
607.132	63481
607.200	66579
607.267	69278
607.335	69407
607.403	70887
607.471	69125
607.539	68237
607.607	68202
607.674	63254
607.742	61410
607.810	59823
607.878	60112
607.946	60160
608.013	62793
608.081	64331
608.149	64056
608.216	66164
608.284	69736
608.352	67963
608.419	66044
608.487	66383
608.555	63289
608.622	64874
608.690	66711
608.757	72172
608.825	73944
608.893	72119
608.960	70395
609.028	68561
609.095	69187
609.163	68582
609.230	62581
609.298	56644
609.365	58822
609.432	63085
609.500	68206
609.567	74626
609.635	83872
609.702	90396
609.769	89959
609.837	74944
609.904	60278
609.971	61114
610.039	65322
610.106	72799
610.173	103188
610.241	198158
610.308	188850
610.375	97675
610.442	70015
610.509	63750
610.577	64038
610.644	63770
610.711	65050
610.778	67590
610.845	69764
610.912	73539
610.980	76280
611.047	80845
611.114	78375
611.181	73267
611.248	71519
611.315	75811
611.382	76690
611.449	79088
611.516	79954
611.583	80326
611.650	79118
611.717	80021
611.784	81461
611.851	83936
611.918	85483
611.984	91529
612.051	110145
612.118	167626
612.185	340312
612.252	336403
612.319	125456
612.386	101418
612.452	94888
612.519	91054
612.586	90554
612.653	91004
612.719	92514
612.786	91165
612.853	86067
612.919	82612
612.986	84825
613.053	81419
613.120	78106
613.186	74790
613.253	76417
613.319	75187
613.386	76178
613.453	75295
613.519	76727
613.586	77044
613.652	80041
613.719	77985
613.785	77830
613.852	77853
613.918	77625
613.985	77487
614.051	82250
614.118	86961
614.184	87726
614.250	77536
614.317	78757
614.383	76767
614.449	79904
614.516	79173
614.582	79814
614.648	79412
614.715	76974
614.781	75958
614.847	76882
614.914	77067
614.980	75808
615.046	75471
615.112	76280
615.179	78031
615.245	79522
615.311	81915
615.377	89302
615.443	98682
615.509	86955
615.575	84087
615.642	81983
615.708	83105
615.774	86424
615.840	90398
615.906	94652
615.972	107231
616.038	147969
616.104	227869
616.170	394099
616.236	468031
616.302	172830
616.368	118300
616.434	101816
616.500	93574
616.565	93199
616.631	103966
616.697	97837
616.763	96460
616.829	109483
616.895	152113
616.961	170436
617.026	111584
617.092	87333
617.158	83315
617.224	83483
617.289	79922
617.355	77317
617.421	76456
617.487	76771
617.552	75458
617.618	71740
617.684	72187
617.749	75153
617.815	72316
617.880	69377
617.946	70337
618.012	71289
618.077	74145
618.143	72135
618.208	72090
618.274	75411
618.339	78475
618.405	69926
618.470	67544
618.536	68834
618.601	68934
618.667	66485
618.732	63368
618.798	61638
618.863	61884
618.928	61509
618.994	62968
619.059	61608
619.124	65171
619.190	62159
619.255	61907
619.320	62516
619.386	62129
619.451	61949
619.516	60535
619.581	61634
619.647	63180
619.712	64154
619.777	62853
619.842	61378
619.907	63296
619.972	62985
620.038	64905
620.103	61395
620.168	62769
620.233	62530
620.298	63518
620.363	63501
620.428	63993
620.493	64520
620.558	68271
620.623	66889
620.688	68040
620.753	66179
620.818	67635
620.883	69132
620.948	67482
621.013	66515
621.078	68596
621.143	66297
621.207	70058
621.272	67784
621.337	67327
621.402	67440
621.467	68518
621.532	68887
621.596	69289
621.661	67685
621.726	66292
621.791	67712
621.855	69138
621.920	68226
621.985	68085
622.049	69536
622.114	69573
622.179	69740
622.243	71197
622.308	71588
622.373	73236
622.437	73428
622.502	71297
622.566	70201
622.631	68556
622.695	71302
622.760	71961
622.824	69458
622.889	70465
622.953	70722
623.018	75580
623.082	76185
623.147	74174
623.211	72775
623.276	72006
623.340	69094
623.404	68004
623.469	69100
623.533	69266
623.597	69017
623.662	67798
623.726	65315
623.790	62015
623.854	61827
623.919	63876
623.983	62841
624.047	64031
624.111	62637
624.176	63141
624.240	64216
624.304	65780
624.368	62121
624.432	63895
624.496	63780
624.560	65643
624.625	65829
624.689	64876
624.753	67070
624.817	65754
624.881	63442
624.945	60839
625.009	58323
625.073	59123
625.137	60681
625.201	62563
625.265	62771
625.329	60036
625.393	60160
625.456	59833
625.520	59053
625.584	61299
625.648	64299
625.712	65690
625.776	74244
625.839	79052
625.903	63442
625.967	50951
626.031	55524
626.095	66125
626.158	58767
626.222	48126
626.286	44712
626.349	45530
626.413	43157
626.477	42696
626.540	41420
626.604	42243
626.668	42030
626.731	42084
626.795	41099
626.858	40707
626.922	39197
626.986	39034
627.049	38618
627.113	40160
627.176	40365
627.240	38394
627.303	38312
627.366	36080
627.430	37012
627.493	37236
627.557	36798
627.620	37405
627.684	36741
627.747	37342
627.810	34425
627.874	33803
627.937	31906
628.000	33885
628.064	32524
628.127	29947
628.190	29848
628.253	29610
628.317	28589
628.380	27948
628.443	27803
628.506	28042
628.569	27957
628.632	25281
628.696	25138
628.759	24984
628.822	23348
628.885	23593
628.948	23972
629.011	24632
629.074	23117
629.137	21997
629.200	22246
629.263	23481
629.326	21496
629.389	22099
629.452	21651
629.515	21446
629.578	21177
629.641	21695
629.704	21904
629.767	21725
629.830	21375
629.892	20428
629.955	19761
630.018	21783
630.081	19708
630.144	21290
630.207	19677
630.269	20372
630.332	20424
630.395	19655
630.458	18644
630.520	18078
630.583	18534
630.646	18237
630.708	17929
630.771	18770
630.834	19428
630.896	18373
630.959	17944
631.021	18281
631.084	18390
631.146	18733
631.209	18844
631.272	17553
631.334	16884
631.397	17609
631.459	17752
631.522	18198
631.584	17326
631.646	17951
631.709	18228
631.771	18399
631.834	18704
631.896	17277
631.958	17253
632.021	17780
632.083	17299
632.145	18315
632.208	16473
632.270	16913
632.332	16074
632.395	15486
632.457	17371
632.519	16612
632.581	17307
632.643	16500
632.706	17233
632.768	16036
632.830	16483
632.892	16783
632.954	15645
633.016	17578
633.078	15648
633.141	17344
633.203	15859
633.265	17544
633.327	15180
633.389	15435
633.451	16770
633.513	16087
633.575	16229
633.637	16009
633.698	16687
633.760	16334
633.822	16350
633.884	16633
633.946	15945
634.008	16496
634.070	16801
634.132	17806
634.193	17109
634.255	16933
634.317	16963
634.379	17652
634.441	16699
634.502	16432
634.564	15875
634.626	15611
634.687	15818
634.749	16031
634.811	15292
634.873	14452
634.934	15090
634.996	15544
635.057	15596
635.119	14834
635.181	15773
635.242	16727
635.304	14111
635.365	17233
635.427	13756
635.488	14432
635.550	14543
635.611	15525
635.673	13409
635.734	16852
635.796	15086
635.857	16216
635.918	15003
635.980	16271
636.041	16492
636.102	15943
636.164	15729
636.225	16827
636.286	14981
636.348	14909
636.409	14846
636.470	15071
636.531	15163
636.593	14482
636.654	15417
636.715	14853
636.776	13791
636.838	13682
636.899	14968
636.960	13516
637.021	13653
637.082	13528
637.143	13731
637.204	13128
637.265	12863
637.326	13520
637.387	13240
637.448	13065
637.509	13978
637.570	14764
637.631	14138
637.692	13235
637.753	12731
637.814	14109
637.875	12652
637.936	13031
637.997	12834
638.058	12687
638.119	13373
638.179	13490
638.240	12685
638.301	13542
638.362	12015
638.423	13071
638.483	12769
638.544	12462
638.605	13649
638.666	12088
638.726	13414
638.787	12799
638.848	12180
638.908	13159
638.969	12823
639.030	13242
639.090	12087
639.151	12178
639.211	13045
639.272	12853
639.332	13237
639.393	13596
639.453	12388
639.514	13717
639.574	11918
639.635	11560
639.695	12635
639.756	11045
639.816	12167
639.877	11734
639.937	13336
639.997	13828
640.058	11416
640.118	11889
640.178	11430
640.239	11616
640.299	11016
640.359	11657
640.420	11622
640.480	11864
640.540	11665
640.600	11801
640.661	12821
640.721	10920
640.781	13679
640.841	12037
640.901	12516
640.961	11905
641.021	11080
641.082	11354
641.142	11813
641.202	12210
641.262	9779
641.322	12538
641.382	10458
641.442	11944
641.502	10484
641.562	12109
641.622	11163
641.682	10674
641.742	10890
641.802	10971
641.861	11540
641.921	10242
641.981	10777
642.041	10302
642.101	11280
642.161	10123
642.221	10916
642.280	10565
642.340	9707
642.400	9811
642.460	10330
642.519	10417
642.579	10725
642.639	11222
642.698	8282
642.758	11954
642.818	10322
642.877	10700
642.937	11171
642.997	10195
643.056	11985
643.116	9409
643.175	10300
643.235	11207
643.294	10452
643.354	10825
643.414	10354
643.473	12155
643.532	12436
643.592	13880
643.651	17864
643.711	26162
643.770	42587
643.830	84793
643.889	215558
643.948	98883
644.008	20173
644.067	13506
644.126	11652
644.186	10655
644.245	10375
644.304	9128
644.363	10267
644.423	9383
644.482	9275
644.541	10177
644.600	8837
644.659	10820
644.719	10517
644.778	13048
644.837	16493
644.896	28235
644.955	65149
645.014	39881
645.073	14005
645.132	10526
645.191	10676
645.250	9519
645.309	11058
645.368	10089
645.427	11319
645.486	11361
645.545	21395
645.604	12647
645.663	9320
645.722	9271
645.781	9359
645.840	10187
645.898	9854
645.957	13358
646.016	14514
646.075	24110
646.134	39289
646.192	86187
646.251	175903
646.310	51443
646.369	14574
646.427	12268
646.486	10245
646.545	9835
646.603	9072
646.662	9306
646.721	8280
646.779	7896
646.838	7416
646.896	9965
646.955	9343
647.014	12679
647.072	17614
647.131	40270
647.189	34101
647.248	9306
647.306	8905
647.365	8723
647.423	6705
647.481	9162
647.540	6041
647.598	7671
647.657	7411
647.715	8062
647.773	6610
647.832	7570
647.890	6104
647.948	7224
648.007	8397
648.065	6495
648.123	6546
648.181	8226
648.240	6691
648.298	7864
648.356	5801
648.414	6880
648.472	6820
648.531	7263
648.589	5917
648.647	6425
648.705	5607
648.763	6568
648.821	6670
648.879	6201
648.937	6485
648.995	7050
649.053	7441
649.111	9552
649.169	12522
649.227	19379
649.285	31357
649.343	89942
649.401	76172
649.459	15836
649.516	10752
649.574	7525
649.632	10327
649.690	12634
649.748	10542
649.806	11111
649.863	19421
649.921	28616
649.979	30626
650.037	8886
650.094	5005
650.152	6337
650.210	4985
650.268	6267
650.325	5696
650.383	5074
650.440	4148
650.498	5531
650.556	5151
650.613	4661
650.671	4799
650.728	4870
650.786	5080
650.843	5126
650.901	4169
650.958	5357
651.016	4827
651.073	4375
651.131	4499
651.188	4379
651.246	5057
651.303	4078
651.360	5011
651.418	4786
651.475	5319
651.532	3173
651.590	4773
651.647	3754
651.704	4163
651.762	3812
651.819	4137
651.876	3714
651.933	4616
651.990	3474
652.048	3363
652.105	3734
652.162	4955
652.219	3606
652.276	4687
652.333	4261
652.390	2152
652.448	4655
652.505	3600
652.562	4674
652.619	4608
652.676	6136
652.733	7491
652.790	4637
652.847	2757
652.904	3846
652.961	3492
653.017	3190
653.074	3881
653.131	4244
653.188	2908
653.245	2908
653.302	3999
653.359	3551
653.415	4305
653.472	3198
653.529	4189
653.586	2915
653.642	3162
653.699	4905
653.756	2561
653.813	3539
653.869	4047
653.926	3305
653.983	2331
654.039	3608
654.096	3389
654.152	2746
654.209	3255
654.266	3748
654.322	2635
654.379	3769
654.435	4050
654.492	3708
654.548	3401
654.605	5242
654.661	4911
654.717	4088
654.774	3046
654.830	3494
654.887	3974
654.943	4429
655.000	4050
655.056	4034
655.112	3958
655.168	3843
655.225	3464
655.281	4046
655.337	3196
655.394	4900
655.450	3195
655.506	3610
655.562	4231
655.618	4723
655.675	2242
655.731	3642
655.787	2436
655.843	4147
655.899	2501
655.955	2988
656.011	2890
656.067	2939
656.123	3686
656.179	3296
656.235	3925
656.291	2153
656.347	3161
656.403	2408
656.459	3226
656.515	3897
656.571	3499
656.627	3673
656.683	2653
656.739	4095
656.795	3005
656.850	2907
656.906	4294
656.962	3684
657.018	2567
657.074	3208
657.129	3805
657.185	4675
657.241	6375
657.297	5913
657.352	4152
657.408	2369
657.464	3552
657.519	3594
657.575	2147
657.630	3010
657.686	3103
657.742	2743
657.797	3865
657.853	2558
657.908	4426
657.964	2877
658.019	2892
658.075	3621
658.130	2959
658.186	1886
658.241	3526
658.297	2079
658.352	2965
658.407	3683
658.463	2495
658.518	3675
658.573	2881
658.629	1463
658.684	3251
658.739	3271
658.795	1520
658.850	2673
658.905	2795
658.960	4229
659.016	1975
659.071	2454
659.126	2871
659.181	2897
659.236	4054
659.291	3872
659.346	3396
659.401	2781
659.457	3613
659.512	4535
659.567	4883
659.622	3536
659.677	2804
659.732	1655
659.787	2544
659.842	3309
659.897	2902
659.952	3759
660.007	2587
660.061	2549
660.116	1822
660.171	2556
660.226	2152
660.281	3918
660.336	1068
660.391	3683
660.445	2234
660.500	3148
660.555	2393
660.610	2462
660.664	3459
660.719	2666
660.774	3074
660.828	3358
660.883	2619
660.938	3429
660.992	1708
661.047	3506
661.101	2031
661.156	2506
661.211	1398
661.265	1574
661.320	3245
661.374	2732
661.429	2453
661.483	3147
661.538	2370
661.592	2002
661.647	3336
661.701	2989
661.755	3056
661.810	3043
661.864	2003
661.919	1986
661.973	2566
662.027	2866
662.081	1769
662.136	3264
662.190	2610
662.244	3422
662.299	2352
662.353	2643
662.407	2256
662.461	2226
662.515	2991
662.569	2361
662.624	3171
662.678	2593
662.732	2214
662.786	2258
662.840	3133
662.894	2650
662.948	2050
663.002	2296
663.056	2984
663.110	2291
663.164	1507
663.218	1988
663.272	2591
663.326	3273
663.380	2368
663.434	2560
663.488	1812
663.542	3272
663.595	2118
663.649	2707
663.703	3214
663.757	2778
663.811	1511
663.864	2121
663.918	2993
663.972	2172
664.026	1932
664.079	1711
664.133	2618
664.187	2244
664.240	2358
664.294	2372
664.348	2193
664.401	1905
664.455	2438
664.508	2309
664.562	2744
664.615	2894
664.669	2077
664.722	3007
664.776	2440
664.829	2530
664.883	2516
664.936	2043
664.990	2564
665.043	3234
665.097	1285
665.150	3146
665.203	2301
665.257	2713
665.310	2158
665.363	2681
665.417	2317
665.470	2721
665.523	2637
665.576	2622
665.630	1634
665.683	2127
665.736	1103
665.789	2541
665.842	1456
665.895	2056
665.949	2010
666.002	2746
666.055	2761
666.108	2794
666.161	2834
666.214	2897
666.267	1876
666.320	3179
666.373	2855
666.426	2181
666.479	1740
666.532	3105
666.585	1706
666.638	2826
666.691	2074
666.744	3364
666.796	2141
666.849	1927
666.902	2119
666.955	2392
667.008	2523
667.060	1720
667.113	1837
667.166	2557
667.219	1719
667.271	2727
667.324	2028
667.377	2215
667.430	2936
667.482	2390
667.535	3168
667.587	2622
667.640	3187
667.693	2815
667.745	2799
667.798	3427
667.850	2131
667.903	2637
667.955	1991
668.008	1920
668.060	2915
668.113	2528
668.165	2352
668.218	2554
668.270	2553
668.322	2495
668.375	2369
668.427	3125
668.479	2477
668.532	2873
668.584	3149
668.636	2571
668.689	2713
668.741	2647
668.793	2767
668.845	1678
668.898	2311
668.950	1991
669.002	3116
669.054	2289
669.106	2672
669.158	3146
669.211	3482
669.263	2356
669.315	3164
669.367	3922
669.419	1953
669.471	2670
669.523	3383
669.575	3345
669.627	2560
669.679	2155
669.731	2584
669.783	2819
669.835	2614
669.886	2045
669.938	2068
669.990	2360
670.042	2550
670.094	2865
670.146	2440
670.197	3645
670.249	4017
670.301	3195
670.353	4095
670.404	5695
670.456	8174
670.508	11543
670.560	20175
670.611	35521
670.663	61593
670.715	127733
670.766	248644
670.818	125219
670.869	23375
670.921	10274
670.972	7471
671.024	5634
671.075	4555
671.127	4207
671.178	2717
671.230	2638
671.281	2718
671.333	3016
671.384	3356
671.436	3602
671.487	3036
671.538	4275
671.590	4051
671.641	6897
671.692	9234
671.744	17054
671.795	17180
671.846	7779
671.897	4377
671.949	3001
672.000	3058
672.051	3213
672.102	2928
672.153	2286
672.204	3161
672.256	3037
672.307	2213
672.358	2420
672.409	2445
672.460	2354
672.511	1858
672.562	1897
672.613	1422
672.664	2334
672.715	1551
672.766	1670
672.817	1803
672.868	2066
672.919	1991
672.970	1848
673.021	1869
673.071	1572
673.122	2105
673.173	1437
673.224	1325
673.275	1649
673.326	2146
673.376	1618
673.427	1157
673.478	1852
673.528	2164
673.579	914
673.630	1810
673.680	2443
673.731	1574
673.782	1345
673.832	1776
673.883	2225
673.934	1567
673.984	1866
674.035	1723
674.085	1626
674.136	2153
674.186	1636
674.237	2069
674.287	2227
674.338	2281
674.388	1525
674.438	1399
674.489	2238
674.539	1060
674.589	1837
674.640	1790
674.690	2000
674.740	1148
674.791	1878
674.841	1168
674.891	1900
674.942	1299
674.992	1732
675.042	1132
675.092	1105
675.142	556
675.193	984
675.243	477
675.293	1370
675.343	1577
675.393	1227
675.443	1513
675.493	1339
675.543	1094
675.593	2110
675.643	1637
675.693	1443
675.743	1152
675.793	2011
675.843	321
675.893	611
675.943	914
675.993	1013
676.043	1159
676.093	1433
676.142	1166
676.192	1817
676.242	1524
676.292	1735
676.341	848
676.391	1091
676.441	1129
676.491	1025
676.540	1199
676.590	687
676.640	1369
676.689	1246
676.739	1138
676.789	1122
676.838	1104
676.888	485
676.937	1016
676.987	1082
677.037	1037
677.086	1127
677.136	738
677.185	1230
677.235	1105
677.284	1071
677.333	717
677.383	1388
677.432	-119
677.482	900
677.531	446
677.580	1048
677.630	604
677.679	231
677.728	602
677.778	916
677.827	159
677.876	296
677.925	1092
677.975	680
678.024	1528
678.073	1525
678.122	312
678.171	1118
678.220	610
678.269	1138
678.319	384
678.368	444
678.417	471
678.466	620
678.515	888
678.564	1258
678.613	688
678.662	792
678.711	794
678.760	1698
678.809	528
678.857	1143
678.906	758
678.955	479
679.004	604
679.053	584
679.102	1168
679.151	1194
679.199	354
679.248	1031
679.297	289
679.346	1059
679.394	828
679.443	621
679.492	1007
679.540	1269
679.589	566
679.638	608
679.686	756
679.735	1223
679.784	304
679.832	1037
679.881	450
679.929	280
679.978	840
680.026	898
680.075	505
680.123	739
680.172	351
680.220	957
680.268	540
680.317	816
680.365	685
680.414	328
680.462	1285
680.510	1519
680.559	680
680.607	1074
680.655	361
680.703	534
680.752	741
680.800	1270
680.848	556
680.896	1110
680.945	493
680.993	-5
681.041	769
681.089	1001
681.137	331
681.185	66
681.233	751
681.258	578
681.281	364
681.329	499
681.377	1874
681.380	1867
681.425	830
681.473	1631
681.502	1552
681.521	1413
681.569	1381
681.617	591
681.624	756
681.665	1420
681.713	695
681.745	1268
681.761	1465
681.809	1060
681.857	2314
681.867	2111
681.904	1228
681.952	2168
681.989	2454
682.000	2472
682.048	1907
682.096	1914
682.111	2198
682.143	2676
682.191	2095
682.233	3023
682.239	3111
682.286	2775
682.334	2613
682.354	2661
682.382	2615
682.430	2523
682.476	3176
682.477	3145
682.525	3209
682.572	3573
682.598	3356
682.620	3125
682.667	3557
682.715	4021
682.720	4041
682.763	3715
682.810	3271
682.841	3672
682.857	3820
682.905	3921
682.952	4744
682.963	4663
683.000	4219
683.047	4682
683.085	4862
683.095	4868
683.142	4565
683.190	4859
683.206	4695
683.237	4222
683.284	4961
683.328	4537
683.332	4471
683.379	4986
683.426	4372
683.449	4832
683.473	5222
683.521	4398
683.568	5168
683.571	5250
683.615	5894
683.662	5494
683.693	5726
683.709	5753
683.757	5315
683.804	6335
683.814	6222
683.851	5718
683.898	6231
683.936	6444
683.945	6474
683.992	5604
684.039	6900
684.057	6508
684.086	5811
684.133	6479
684.179	6560
684.180	6532
684.227	6489
684.274	6803
684.300	6868
684.321	6877
684.368	6904
684.415	7720
684.422	7642
684.462	6925
684.509	7366
684.543	7128
684.556	7034
684.603	8147
684.649	7567
684.665	7734
684.696	7977
684.743	7678
684.786	7985
684.790	7987
684.837	7449
684.883	8099
684.908	8230
684.930	8368
684.977	8598
685.023	8576
685.029	8645
685.070	8755
685.117	9173
685.150	9444
685.164	9565
685.210	9455
685.257	9333
685.272	9576
685.303	9925
685.350	9511
685.393	9226
685.396	9194
685.443	8949
685.490	9490
685.514	9722
685.536	9929
685.583	10128
685.629	10513
685.636	10562
685.675	10543
685.722	10348
685.757	10256
685.768	10250
685.815	10261
685.861	10194
685.878	10425
685.908	10781
685.954	10907
686.000	10360
686.000	10339
686.047	11017
686.093	11314
686.121	11422
686.139	11417
686.185	11023
686.232	11374
686.242	11463
686.278	11877
686.324	11440
686.363	11766
686.370	11790
686.416	11918
686.463	11268
686.484	11222
686.509	11238
686.555	11717
686.601	11552
686.606	11567
686.647	11571
686.693	11596
686.727	12215
686.739	12411
686.785	12114
686.831	12221
686.848	12199
686.877	12280
686.923	11844
686.969	12056
686.969	12054
687.015	12061
687.061	12108
687.090	12677
687.107	13041
687.153	13001
687.199	13077
687.211	12981
687.245	12483
687.291	12931
687.332	12643
687.336	12656
687.382	13253
687.428	12828
687.453	13248
687.474	13439
687.520	13034
687.565	13250
687.574	13312
687.611	13751
687.657	13795
687.695	13782
687.702	13845
687.748	14654
687.794	15386
687.816	15402
687.839	14893
687.885	14373
687.931	13971
687.937	13858
687.976	13651
688.022	14331
688.058	14225
688.067	14256
688.113	14440
688.158	14413
688.179	14450
688.204	14350
688.249	14275
688.295	14660
688.300	14618
688.340	14531
688.386	14726
688.421	14458
688.431	14424
688.477	14907
688.522	14890
688.542	15089
688.567	15263
688.613	15322
688.658	15507
688.663	15489
688.703	15418
688.749	15341
688.784	15224
688.794	15242
688.839	15518
688.884	15433
688.905	15344
688.930	15250
688.975	15518
689.020	15699
689.026	15722
689.065	15988
689.110	16189
689.146	16105
689.155	16105
689.201	16045
689.246	15748
689.267	15875
689.291	15922
689.336	16544
689.381	16357
689.388	16200
689.426	15774
689.471	16401
689.509	16395
689.516	16373
689.561	16349
689.606	16052
689.630	16020
689.651	16090
689.696	15747
689.741	16311
689.750	16281
689.785	16551
689.830	16886
689.871	17214
689.875	17222
689.920	17134
689.965	17010
689.992	16911
690.010	16961
690.054	16767
690.099	17060
690.112	16997
690.144	17017
690.189	16886
690.233	16762
690.233	16786
690.278	17189
690.323	16881
690.354	17100
690.367	17347
690.412	17421
690.457	17642
690.474	17784
690.501	17962
690.546	18127
690.590	18168
690.595	18143
690.635	18410
690.680	19088
690.716	19282
690.724	19476
690.769	20160
690.813	21756
690.836	22079
690.857	23397
690.902	26578
690.946	29682
690.957	30444
690.991	38265
691.035	48634
691.077	59203
691.080	59487
691.124	61233
691.168	62017
691.198	63406
691.213	59536
691.257	47450
691.301	35597
691.318	30916
691.346	29134
691.390	26166
691.434	22940
691.439	22548
691.478	21808
691.522	21246
691.559	20506
691.567	20536
691.611	20520
691.655	20286
691.680	20424
691.699	20596
691.743	20563
691.787	20498
691.800	20497
691.831	20641
691.875	20924
691.919	20666
691.921	20624
691.964	20738
692.008	21049
692.041	21199
692.052	21235
692.096	21209
692.139	21282
692.162	21047
692.183	20805
692.227	20634
692.271	20506
692.282	20392
692.315	20547
692.359	20823
692.402	21341
692.403	21386
692.447	21090
692.490	21196
692.523	21084
692.534	21119
692.578	21410
692.622	21183
692.643	21443
692.666	21630
692.709	21125
692.753	20832
692.763	20722
692.797	20868
692.840	21132
692.884	21314
692.884	21361
692.928	21590
692.971	21795
693.004	22065
693.015	22139
693.059	22158
693.102	21781
693.124	21747
693.146	21947
693.189	22159
693.233	22045
693.245	22178
693.276	23044
693.320	23415
693.363	24093
693.365	24068
693.407	25161
693.450	26148
693.485	26950
693.493	27476
693.537	29949
693.580	32322
693.605	33725
693.624	36611
693.667	42845
693.710	49815
693.725	52114
693.753	67539
693.797	91638
693.840	116231
693.845	118890
693.883	123207
693.926	126748
693.966	130664
693.970	128089
694.013	98702
694.056	68849
694.086	48360
694.099	46537
694.142	40530
694.185	34215
694.206	31089
694.229	30143
694.272	28710
694.315	27031
694.326	26519
694.358	26250
694.401	25921
694.444	25458
694.446	25379
694.487	25059
694.530	24616
694.566	24155
694.573	24150
694.616	23868
694.659	23368
694.686	23019
694.702	22947
694.745	23007
694.787	22493
694.806	22341
694.830	22519
694.873	22667
694.916	22960
694.926	22914
694.959	22838
695.002	22847
695.044	22850
695.046	22791
695.087	22901
695.130	22924
695.166	23165
695.172	23333
695.215	23611
695.258	24428
695.286	24579
695.301	24465
695.343	24180
695.386	23864
695.406	23597
695.428	23610
695.471	23708
695.514	23810
695.526	23695
695.556	24028
695.599	24767
695.641	25418
695.646	25404
695.684	25059
695.726	24799
695.766	24364
695.769	24433
695.811	24576
695.854	24813
695.886	24973
695.896	25019
695.938	24715
695.981	24611
696.005	24387
696.023	24471
696.065	24665
696.108	24932
696.125	24828
696.150	25047
696.192	25791
696.235	26110
696.245	26180
696.277	26080
696.319	25719
696.361	25471
696.365	25375
696.404	25958
696.446	26660
696.485	27203
696.488	27242
696.530	26782
696.572	26313
696.604	25922
696.614	26023
696.656	26151
696.698	26342
696.724	26291
696.740	26166
696.783	25760
696.825	25437
696.844	25112
696.867	25233
696.909	25564
696.951	25749
696.964	25815
696.992	25874
697.034	25552
697.076	25348
697.083	25254
697.118	25834
697.160	26286
697.202	26913
697.203	26855
697.244	26476
697.286	26184
697.323	25699
697.327	25767
697.369	25800
697.411	25832
697.442	25788
697.453	25895
697.494	26011
697.536	26174
697.562	26191
697.578	26294
697.620	26427
697.661	26463
697.682	26476
697.703	26599
697.744	26583
697.786	26618
697.801	26548
697.828	26924
697.869	27422
697.911	27879
697.921	27938
697.952	27902
697.994	27658
698.035	27442
698.040	27340
698.077	27100
698.118	26782
698.160	26408
698.160	26334
698.201	26791
698.243	27214
698.279	27496
698.284	27608
698.325	27950
698.367	28321
698.399	28498
698.408	28521
698.449	28292
698.491	28058
698.518	27795
698.532	27939
698.573	28192
698.614	28433
698.638	28481
698.656	28517
698.697	28425
698.738	28331
698.757	28219
698.779	28392
698.820	28551
698.862	28708
698.877	28690
698.903	28896
698.944	29093
698.985	29291
698.996	29266
699.026	29379
699.067	29424
699.116	29398
699.235	28227
699.354	27728
699.474	27768
699.593	27840
699.713	28321
699.832	27658
699.951	28639
700.070	28761
700.190	27741
700.309	27789
700.428	26888
700.547	27116
700.667	26714
700.786	27032
700.905	26462
701.024	26350
701.143	27245
701.262	25526
701.381	26207
701.500	25927
701.619	26466
701.738	26417
701.857	25246
701.976	25806
702.095	24709
702.214	26381
702.333	25518
702.452	25420
702.571	24170
702.690	25044
702.809	24966
702.928	25172
703.047	24470
703.165	24251
703.284	23948
703.403	23732
703.522	25577
703.640	25034
703.759	24172
703.878	25848
703.997	23508
704.115	23414
704.234	23217
704.353	23656
704.471	22832
704.590	23358
704.708	21635
704.827	22485
704.946	22667
705.064	22703
705.183	23350
705.301	23994
705.420	29011
705.538	29246
705.656	27207
705.775	25969
705.893	33741
706.012	47562
706.130	28567
706.249	26120
706.367	25195
706.485	25859
706.604	25383
706.722	25732
706.840	26240
706.958	29418
707.077	29231
707.195	24931
707.313	24464
707.431	23847
707.549	24452
707.668	23634
707.786	24560
707.904	23003
708.022	22607
708.140	24000
708.258	22866
708.376	23644
708.494	23810
708.612	25185
708.730	28001
708.848	29049
708.966	27426
709.084	26748
709.202	25522
709.320	25995
709.438	25814
709.556	26381
709.674	24832
709.791	26765
709.909	24479
710.027	25144
710.145	25154
710.263	25760
710.380	24796
710.498	25341
710.616	24516
710.733	23932
710.851	23466
710.969	25201
711.086	23395
711.204	23717
711.322	22568
711.439	23443
711.557	23688
711.674	23977
711.792	22948
711.909	23837
712.027	25189
712.144	23613
712.262	23186
712.379	22721
712.497	28841
712.614	32916
712.732	27480
712.849	25755
712.966	24385
713.084	26779
713.201	26427
713.318	26584
713.436	26282
713.553	26519
713.670	25140
713.787	27503
713.905	26128
714.022	25880
714.139	26016
714.256	26705
714.373	27812
714.490	32501
714.608	46959
714.725	138667
714.842	248946
714.959	43744
715.076	26775
715.193	24992
715.310	24182
715.427	23156
715.544	23490
715.661	23673
715.778	22333
715.895	25367
716.011	23302
716.128	23378
716.245	22067
716.362	22947
716.479	22850
716.596	21986
716.713	21196
716.829	22261
716.946	21965
717.063	21527
717.180	20643
717.296	20753
717.413	21434
717.530	20503
717.646	19677
717.763	20718
717.880	20563
717.996	19331
718.113	19241
718.229	20547
718.346	19852
718.462	18601
718.579	20588
718.695	21201
718.812	21431
718.928	20797
719.045	20325
719.161	19943
719.277	18720
719.394	19839
719.510	20320
719.626	19755
719.743	21081
719.859	21890
719.975	26408
720.092	50784
720.208	136517
720.324	45326
720.440	20407
720.557	19360
720.673	19670
720.789	23374
720.905	30234
721.021	24398
721.137	18846
721.253	19351
721.369	18091
721.486	18685
721.602	20427
721.718	18606
721.834	16444
721.950	18012
722.066	17794
722.181	17287
722.297	16981
722.413	17216
722.529	16258
722.645	16595
722.761	16696
722.877	16706
722.993	16044
723.108	16795
723.224	16669
723.340	17397
723.456	15299
723.571	16726
723.687	15301
723.803	15441
723.918	15208
724.034	15259
724.150	15861
724.265	15593
724.381	18054
724.497	21821
724.612	15265
724.728	14761
724.843	14090
724.959	15614
725.074	17036
725.190	20484
725.305	15667
725.421	15450
725.536	14612
725.651	14929
725.767	13726
725.882	15073
725.997	13603
726.113	14331
726.228	14215
726.343	14606
726.459	13403
726.574	14796
726.689	13657
726.804	14039
726.920	13864
727.035	14568
727.150	13847
727.265	14185
727.380	14388
727.495	13895
727.610	13596
727.725	14750
727.841	14570
727.956	19054
728.071	21549
728.186	13330
728.301	13353
728.416	13351
728.531	13941
728.645	13065
728.760	13197
728.875	13479
728.990	12529
729.105	12647
729.220	12706
729.335	12900
729.449	12687
729.564	12997
729.679	12505
729.794	13115
729.908	12715
730.023	12914
730.138	13376
730.253	12292
730.367	11780
730.482	12100
730.596	11810
730.711	12820
730.826	13364
730.940	13430
731.055	11894
731.169	12716
731.284	12153
731.398	13186
731.513	12437
731.627	12726
731.742	13744
731.856	13631
731.970	12799
732.085	14841
732.199	14644
732.313	17748
732.428	28071
732.542	65245
732.656	65208
732.771	20205
732.885	14761
732.999	14256
733.113	14509
733.227	14616
733.342	14017
733.456	14460
733.570	13087
733.684	12840
733.798	13580
733.912	12776
734.026	13070
734.140	12827
734.254	12783
734.368	14554
734.482	16594
734.596	12715
734.710	12386
734.824	13251
734.938	11881
735.052	12855
735.166	12591
735.280	13230
735.393	12017
735.507	12286
735.621	12317
735.735	14721
735.849	13446
735.962	12353
736.076	12848
736.190	12497
736.303	12081
736.417	14915
736.531	11623
736.644	12027
736.758	11556
736.872	12444
736.985	11470
737.099	11884
737.212	11139
737.326	12011
737.439	11703
737.553	11715
737.666	11337
737.780	12093
737.893	11391
738.007	11013
738.120	11134
738.233	11134
738.347	12099
738.460	11408
738.573	11348
738.687	10385
738.800	11079
738.913	11537
739.026	11981
739.140	12068
739.253	11684
739.366	12123
739.479	11170
739.592	10722
739.705	10776
739.818	11361
739.932	10806
740.045	10806
740.158	10597
740.271	11922
740.384	11385
740.497	10610
740.610	10812
740.723	10851
740.836	10547
740.949	11150
741.062	11187
741.174	11096
741.287	10098
741.400	10819
741.513	9737
741.626	11817
741.739	10430
741.851	10166
741.964	10879
742.077	9596
742.189	9938
742.302	10827
742.415	10463
742.527	9840
742.640	10101
742.753	10914
742.865	9544
742.978	9585
743.090	10191
743.203	10408
743.316	10134
743.428	9516
743.541	10257
743.653	9651
743.766	9895
743.878	10250
743.990	9534
744.103	10121
744.215	10026
744.327	9935
744.440	10641
744.552	11070
744.664	9643
744.777	9990
744.889	8902
745.001	9164
745.113	9809
745.226	9821
745.338	9955
745.450	9920
745.562	10036
745.674	9410
745.786	9212
745.898	9495
746.010	9826
746.122	9681
746.234	9824
746.347	9507
746.459	10340
746.570	10228
746.682	9533
746.794	10017
746.906	9475
747.018	8828
747.130	10111
747.242	9045
747.354	8795
747.466	9973
747.577	9430
747.689	9699
747.801	9576
747.913	9189
748.024	9284
748.136	8935
748.248	9057
748.359	8825
748.471	9721
748.583	9585
748.694	9366
748.806	10913
748.918	8748
749.029	10308
749.141	8909
749.252	10311
749.364	9404
749.475	10503
749.587	8795
749.698	8904
749.809	9502
749.921	9316
750.032	8938
750.144	9122
750.255	8754
750.366	8883
750.478	8636
750.589	9697
750.700	8471
750.811	9045
750.923	8881
751.034	10046
751.145	10172
751.256	9206
751.367	8866
751.479	9176
751.590	7755
751.701	9181
751.812	8911
751.923	8894
752.034	8539
752.145	9620
752.256	8414
752.367	8323
752.478	8423
752.589	8944
752.700	9171
752.811	8705
752.922	8749
753.032	9247
753.143	8977
753.254	9435
753.365	8561
753.476	8825
753.586	9118
753.697	8819
753.808	8783
753.919	8536
754.029	8266
754.140	9317
754.251	8612
754.361	8617
754.472	9181
754.582	9481
754.693	8581
754.804	8848
754.914	9170
755.025	8424
755.135	8737
755.246	9248
755.356	9524
755.466	9206
755.577	9327
755.687	9066
755.798	8441
755.908	9454
756.018	9126
756.129	8582
756.239	9075
756.349	9344
756.460	9222
756.570	10470
756.680	8343
756.790	9131
756.900	10421
757.011	9281
757.121	9539
757.231	9051
757.341	9592
757.451	9027
757.561	8988
757.671	9740
757.781	9719
757.891	10385
758.001	9940
758.111	10350
758.221	9878
758.331	10661
758.441	10533
758.551	10459
758.661	9614
758.771	9754
758.880	10361
758.990	11455
759.100	10638
759.210	11579
759.320	10500
759.429	10724
759.539	10881
759.649	10920
759.758	11210
759.868	11840
759.978	10980
760.087	11854
760.197	11747
760.307	11203
760.416	11587
760.526	12613
760.635	12706
760.745	13211
760.854	12522
760.964	13307
761.073	13244
761.182	14065
761.292	13601
761.401	14391
761.511	13451
761.620	14348
761.729	14812
761.839	14910
761.948	14783
762.057	14972
762.166	15155
762.276	15171
762.385	16231
762.494	17038
762.603	16662
762.712	18363
762.822	17696
762.931	19320
763.040	18964
763.149	19832
763.258	19342
763.367	21221
763.476	21816
763.585	23067
763.694	23597
763.803	24853
763.912	25731
764.021	28147
764.130	28934
764.238	31423
764.347	32340
764.456	35702
764.565	36864
764.674	39506
764.783	43206
764.891	46923
765.000	52638
765.109	57802
765.217	65279
765.326	75074
765.435	87666
765.543	104194
765.652	128167
765.761	158807
765.869	202865
765.978	264539
766.086	351155
766.195	453769
766.303	520669
766.412	425816
766.520	317776
766.629	493218
766.737	497072
766.846	401748
766.954	302872
767.062	230248
767.171	180089
767.279	143235
767.387	117029
767.496	97612
767.604	82515
767.712	73700
767.820	65337
767.928	61751
768.037	57084
768.145	53051
768.253	50454
768.361	49688
768.469	49523
768.577	48976
768.685	50737
768.793	53109
768.901	56938
769.009	64727
769.117	76127
769.225	92814
769.333	119581
769.441	165352
769.549	242046
769.657	362723
769.765	466856
769.873	372001
769.981	415577
770.088	437475
770.196	315184
770.304	218208
770.412	159577
770.519	121838
770.627	97654
770.735	80674
770.842	68247
770.950	58406
771.058	51676
771.165	47542
771.273	42015
771.380	38950
771.488	35833
771.595	33530
771.703	32053
771.810	29593
771.918	27325
772.025	27214
772.133	24327
772.240	24511
772.348	23187
772.455	21655
772.562	21784
772.670	21301
772.777	20297
772.884	19912
772.991	19189
773.099	18349
773.206	17410
773.313	18312
773.420	16885
773.528	16397
773.635	16398
773.742	16708
773.849	14790
773.956	15893
774.063	14052
774.170	14648
774.277	14634
774.384	13619
774.491	13719
774.598	13468
774.705	12656
774.812	13240
774.919	13446
775.026	13664
775.133	12885
775.239	11832
775.346	12359
775.453	12154
775.560	11407
775.667	11753
775.773	12155
775.880	12475
775.987	11785
776.093	11545
776.200	11442
776.307	10017
776.413	10519
776.520	10450
776.627	10764
776.733	10451
776.840	9148
776.946	11692
777.053	10576
777.159	10257
777.266	8747
777.372	10020
777.478	9860
777.585	9894
777.691	9250
777.798	9011
777.904	9948
778.010	10682
778.117	10524
778.223	10130
778.329	9873
778.435	9046
778.542	9012
778.648	8950
778.754	7941
778.860	8954
778.966	8888
779.072	8642
779.178	8475
779.284	9108
779.391	8876
779.497	9863
779.603	12048
779.708	13470
779.815	21580
779.920	57959
780.026	166455
780.132	63947
780.238	14567
780.344	10634
780.450	9726
780.556	8938
780.661	8754
780.767	8542
780.873	7337
780.979	7927
781.085	7430
781.190	8904
781.296	6813
781.402	7099
781.507	7558
781.613	7176
781.719	6895
781.824	7892
781.930	7813
782.035	6978
782.141	7036
782.246	7087
782.352	6758
782.457	6591
782.563	8039
782.668	6979
782.773	6316
782.879	6409
782.984	6737
783.090	7702
783.195	6964
783.300	6785
783.405	6571
783.511	6323
783.616	6935
783.721	7637
783.826	6303
783.932	6271
784.037	6463
784.142	7008
784.247	6094
784.352	6683
784.457	6637
784.562	6492
784.667	6637
784.772	6637
784.877	5413
784.982	7007
785.087	6718
785.192	6798
785.297	5849
785.402	5772
785.507	5228
785.611	5120
785.716	5058
785.821	6405
785.926	5249
786.031	6372
786.135	5805
786.240	6496
786.345	5481
786.450	5591
786.554	5656
786.659	5322
786.763	3590
786.868	6486
786.973	5545
787.077	5530
787.182	5418
787.286	6332
787.391	5832
787.495	4941
787.600	5221
787.704	5000
787.809	5001
787.913	4565
788.017	5121
788.122	5299
788.226	5280
788.330	4998
788.435	5407
788.539	5869
788.643	4958
788.747	5144
788.852	4957
788.956	5369
789.060	4254
789.164	5098
789.268	4876
789.372	6042
789.476	4977
789.580	4505
789.684	4841
789.788	5583
789.892	5172
789.996	5420
790.100	5273
790.204	4660
790.308	4450
790.412	5512
790.516	4960
790.620	5795
790.724	5197
790.828	5287
790.931	4153
791.035	5631
791.139	5251
791.242	5003
791.346	5409
791.450	5011
791.554	4072
791.657	4230
791.761	4442
791.864	5099
791.968	4704
792.072	5440
792.175	3982
792.279	3869
792.382	4061
792.486	4720
792.589	5011
792.693	4397
792.796	3901
792.899	5435
793.003	5128
793.106	4047
793.209	4343
793.313	5200
793.416	3131
793.519	5018
793.623	4737
793.726	5442
793.829	4928
793.932	4435
794.035	3978
794.138	5779
794.242	5745
794.345	5598
794.448	7298
794.551	12209
794.654	33274
794.757	103634
794.860	43169
794.963	8946
795.066	4872
795.169	5524
795.272	4046
795.375	5394
795.477	4867
795.580	4108
795.683	3609
795.786	4457
795.889	3216
795.991	4705
796.094	4287
796.197	4948
796.300	3789
796.402	4139
796.505	3973
796.608	4068
796.710	3878
796.813	3852
796.915	4003
797.018	4726
797.120	3929
797.223	3440
797.326	3875
797.428	4451
797.530	4209
797.633	3912
797.735	3286
797.838	4152
797.940	4804
798.042	4056
798.145	3123
798.247	4600
798.349	3455
798.452	4172
798.554	3651
798.656	3178
798.758	4202
798.860	4055
798.962	3936
799.065	3803
799.167	3622
799.269	4796
799.371	3178
799.473	3587
799.575	3032
799.677	3252
799.779	4294
799.881	3155
799.983	3982
800.085	4065
800.187	3887
800.289	4042
800.390	3400
800.492	4100
800.594	4092
800.696	3341
800.798	2978
800.899	3473
801.001	4361
801.103	3588
801.205	3017
801.306	3647
801.408	2674
801.509	2970
801.611	3170
801.713	3375
801.814	2489
801.916	4148
802.017	3032
802.119	3103
802.220	3463
802.322	2531
802.423	4107
802.525	2494
802.626	3266
802.727	3309
802.829	3327
802.930	1543
803.031	4609
803.133	2959
803.234	2935
803.335	2986
803.436	2865
803.538	3432
803.639	1959
803.740	2707
803.841	2734
803.942	3617
804.043	2608
804.144	3182
804.245	3044
804.346	3526
804.447	2894
804.548	3239
804.649	3787
804.750	3335
804.851	2190
804.952	3034
805.053	3162
805.154	2557
805.255	3889
805.355	2814
805.456	1825
805.557	2939
805.658	2605
805.758	3389
805.859	3084
805.960	3494
806.061	2097
806.161	2550
806.262	3216
806.362	2384
806.463	1696
806.564	3662
806.664	2993
806.765	3067
806.865	3874
806.966	3671
807.066	2760
807.166	3311
807.267	3920
807.367	2855
807.468	3180
807.568	2580
807.668	3171
807.769	3114
807.869	2954
807.969	3628
808.069	3022
808.170	2659
808.270	2299
808.370	3492
808.470	2633
808.570	2869
808.670	2821
808.770	2854
808.870	1926
808.970	3113
809.070	2599
809.170	2576
809.271	2882
809.370	2861
809.470	2936
809.570	3037
809.670	2860
809.770	3102
809.870	2417
809.970	3096
810.070	2037
810.169	3167
810.269	1635
810.369	3473
810.469	2222
810.568	2918
810.668	2481
810.768	2612
810.867	2456
810.967	2685
811.066	3152
811.166	3602
811.265	3306
811.365	2784
811.464	2910
811.564	2596
811.663	2321
811.763	2547
811.862	2342
811.962	3554
812.061	2839
812.160	2380
812.260	2590
812.359	3122
812.458	3068
812.557	4708
812.657	5530
812.756	4077
812.855	3093
812.954	2746
813.053	2129
813.153	2354
813.252	1855
813.351	3614
813.450	2414
813.549	2636
813.648	2663
813.747	2390
813.846	2544
813.945	2961
814.044	2673
814.143	2789
814.242	2781
814.341	3610
814.439	2959
814.538	3401
814.637	3207
814.736	3254
814.835	3167
814.933	3537
815.032	3640
815.131	3814
815.229	3739
815.328	4807
815.427	4858
815.525	5257
815.624	3933
815.722	4261
815.821	4432
815.919	4496
816.018	4089
816.116	4968
816.215	4342
816.313	3377
816.412	4375
816.510	5731
816.609	6083
816.707	5764
816.805	4574
816.904	5439
817.002	5629
817.100	6332
817.198	6073
817.296	6841
817.395	7143
817.493	8419
817.591	8207
817.689	9798
817.787	11565
817.885	17915
817.983	24530
818.081	45837
818.179	90339
818.277	187702
818.375	220347
818.473	111462
818.571	48798
818.669	30113
818.767	24519
818.865	23535
818.963	24140
819.061	32474
819.158	46750
819.256	80378
819.354	145927
819.452	247880
819.549	235014
819.647	133480
819.745	67971
819.842	40281
819.940	26563
820.038	19886
820.135	15897
820.233	13774
820.330	10799
820.428	9298
820.525	8635
820.623	7969
820.720	6933
820.818	7386
820.915	6000
821.012	6405
821.110	5142
821.207	5849
821.304	4630
821.402	5076
821.499	4936
821.596	5254
821.693	3729
821.791	4293
821.888	3826
821.985	4765
822.082	3908
822.179	4075
822.276	4101
822.373	3821
822.470	3810
822.567	4309
822.664	3628
822.761	4162
822.858	3224
822.955	3585
823.052	3256
823.149	3154
823.246	3619
823.343	3537
823.440	3608
823.536	3292
823.633	3478
823.730	3392
823.827	3214
823.923	3659
824.020	4561
824.117	3050
824.213	2568
824.310	3867
824.407	2727
824.503	3323
824.600	3158
824.696	2978
824.793	3004
824.889	3010
824.986	3230
825.082	3033
825.179	3359
825.275	2870
825.371	2777
825.468	2727
825.564	2009
825.660	3345
825.757	3338
825.853	3308
825.949	2235
826.045	3455
826.142	2414
826.238	3652
826.334	2934
826.430	3138
826.526	3184
826.622	1831
826.718	2478
826.814	3089
826.910	3610
827.006	3344
827.102	1737
827.198	3683
827.294	2246
827.390	3316
827.486	3117
827.582	1760
827.678	1510
827.774	3138
827.869	1142
827.965	3241
828.061	1637
828.157	3465
828.252	2487
828.348	1759
828.444	3072
828.539	2116
828.635	1783
828.731	3197
828.826	1993
828.922	2797
829.017	2556
829.113	2710
829.208	2047
829.304	2241
829.399	3347
829.495	2667
829.590	2371
829.685	2188
829.781	2679
829.876	2519
829.971	1661
830.066	2045
830.162	1580
830.257	2129
830.352	1821
830.447	2690
830.543	2390
830.638	1185
830.733	2991
830.828	2629
830.923	2082
831.018	2518
831.113	2238
831.208	1909
831.303	1845
831.398	1343
831.493	1634
831.588	3346
831.683	1481
831.778	2853
831.873	1387
831.967	2816
832.062	1558
832.157	1792
832.252	2584
832.346	1820
832.441	1995
832.536	2418
832.631	3804
832.725	3196
832.820	1624
832.914	1475
833.009	2036
833.104	2595
833.198	2618
833.293	1693
833.387	1944
833.482	2073
833.576	1836
833.670	2811
833.765	2265
833.859	1849
833.954	2270
834.048	2835
834.142	1820
834.237	1913
834.331	2749
834.425	1648
834.519	1308
834.613	2840
834.708	1875
834.802	1775
834.896	1913
834.990	1903
835.084	2765
835.178	2017
835.272	2014
835.366	2023
835.460	2580
835.554	2885
835.648	1524
835.742	805
835.836	1331
835.930	1389
836.024	2424
836.117	2648
836.211	2364
836.305	2187
836.399	2405
836.493	1162
836.586	2920
836.680	1491
836.774	2180
836.867	1675
836.961	750
837.055	1636
837.148	1823
837.242	2084
837.335	2296
837.429	1912
837.522	1710
837.616	735
837.709	3028
837.803	2773
837.896	1547
837.989	2141
838.083	2246
838.176	1953
838.269	3284
838.363	2423
838.456	1526
838.549	2510
838.642	2324
838.735	3796
838.829	2947
838.922	2257
839.015	1592
839.108	1854
839.201	1961
839.294	1726
839.387	1767
839.480	923
839.573	1421
839.666	2045
839.759	1511
839.852	1675
839.945	1983
840.038	2149
840.131	2018
840.223	1396
840.316	1982
840.409	2431
840.502	1300
840.594	2352
840.687	736
840.780	1260
840.873	1770
840.965	925
841.058	1379
841.150	3279
841.243	1623
841.336	1836
841.428	1538
841.521	864
841.613	1614
841.706	2152
841.798	1393
841.890	1688
841.983	1079
842.075	2462
842.167	1482
842.260	2383
842.352	2218
842.444	2121
842.537	2957
842.629	3410
842.721	1894
842.813	808
842.905	757
842.997	1241
843.090	1474
843.182	2485
843.274	1965
843.366	3855
843.458	6552
843.550	6693
843.642	2165
843.734	1918
843.826	634
843.918	2758
844.009	2302
844.101	1297
844.193	1529
844.285	1482
844.377	2065
844.469	1911
844.560	989
844.652	1744
844.744	1890
844.835	1667
844.927	1602
845.019	1823
845.110	989
845.202	1660
845.293	1921
845.385	1569
845.476	776
845.568	1508
845.659	1723
845.751	2010
845.842	1178
845.934	955
846.025	1187
846.116	2493
846.208	1086
846.299	1724
846.390	2371
846.482	2258
846.573	1804
846.664	2079
846.755	1638
846.846	2282
846.937	1431
847.029	2335
847.120	1337
847.211	1508
847.302	2205
847.393	898
847.484	1215
847.575	977
847.666	773
847.757	1750
847.847	1323
847.938	2544
848.029	752
848.120	1309
848.211	978
848.302	1893
848.392	837
848.483	1498
848.574	1095
848.664	1422
848.755	1545
848.846	1952
848.936	1651
849.027	1471
849.118	1440
849.208	1243
849.299	977
849.389	1755
849.480	2762
849.570	2870
849.661	3442
849.751	6427
849.841	4627
849.932	1407
850.022	783
850.112	2346
850.203	1255
850.293	1655
850.383	1473
850.474	480
850.564	1573
850.654	709
850.744	1270
850.834	1631
850.924	1554
851.014	2134
851.104	1117
851.194	1586
851.284	1063
851.374	1943
851.464	902
851.554	1379
851.644	1886
851.734	2939
851.824	2872
851.914	4949
852.004	7317
852.094	12767
852.183	4555
852.273	1352
852.363	814
852.452	1323
852.542	1053
852.632	1354
852.721	1675
852.811	1320
852.901	918
852.990	1580
853.080	1005
853.169	1646
853.259	1028
853.348	1462
853.438	1001
853.527	1820
853.617	2172
853.706	2129
853.795	2502
853.885	5745
853.974	9981
854.063	15001
854.152	28697
854.242	18349
854.331	4310
854.420	1718
854.509	1484
854.598	1696
854.687	1883
854.777	2151
854.866	1007
854.955	1815
855.044	1608
855.133	1730
855.222	1777
855.311	397
855.400	1206
855.488	1566
855.577	309
855.666	2088
855.755	1805
855.844	2639
855.933	2379
856.021	2145
856.110	931
856.199	704
856.288	1734
856.376	489
856.465	-162
856.554	1580
856.642	728
856.731	1021
856.819	1166
856.908	1782
856.996	1366
857.085	1307
857.173	917
857.262	1149
857.350	1937
857.438	1059
857.527	1539
857.615	1720
857.703	1754
857.792	646
857.880	980
857.968	1100
858.056	1885
858.145	955
858.233	1094
858.321	1088
858.409	995
858.497	1744
858.585	1176
858.673	1369
858.761	723
858.849	2112
858.937	944
859.025	1729
859.113	1394
859.201	625
859.289	1427
859.377	1572
859.465	903
859.552	1355
859.640	914
859.728	825
859.816	1673
859.903	1610
859.991	-266
860.079	1323
860.166	891
860.254	1745
860.342	1313
860.429	1270
860.517	773
860.604	1820
860.692	1276
860.779	1254
860.867	1714
860.954	1248
861.042	1297
861.129	1729
861.216	2011
861.304	1000
861.391	1631
861.478	1748
861.565	1507
861.653	1802
861.740	455
861.827	832
861.914	1588
862.001	1216
862.089	584
862.176	1489
862.263	-203
862.350	733
862.437	147
862.524	1799
862.611	1641
862.698	1067
862.785	589
862.871	1260
862.958	1194
863.045	1367
863.132	378
863.219	1013
863.306	749
863.392	1631
863.479	1720
863.566	1107
863.652	1324
863.739	1335
863.826	851
863.912	1225
863.999	771
864.086	1143
864.172	1628
864.259	1089
864.345	1169
864.432	2358
864.518	919
864.604	1582
864.691	833
864.777	2017
864.863	726
864.950	1542
865.036	1551
865.122	2967
865.209	3521
865.295	2851
865.381	1940
865.467	2036
865.553	3256
865.639	2065
865.726	3035
865.812	4619
865.898	6491
865.984	8696
866.070	12738
866.156	19600
866.242	9031
866.328	3500
866.414	2009
866.499	2883
866.585	2318
866.671	2154
866.757	2843
866.843	3145
866.928	1653
867.014	1993
867.100	2534
867.186	2722
867.271	1772
867.357	2989
867.442	2158
867.528	2315
867.614	2028
867.699	2513
867.785	1721
867.870	1679
867.956	1158
868.041	2809
868.127	1560
868.212	2502
868.297	1772
868.383	2368
868.468	1623
868.553	2747
868.639	2819
868.724	3087
868.809	3904
868.894	1994
868.979	1894
869.065	2025
869.150	1388
869.235	889
869.320	1315
869.405	2067
869.490	1194
869.575	1295
869.660	1851
869.745	2463
869.830	1394
869.915	1600
870.000	1556
870.085	1664
870.169	2184
870.254	2988
870.339	840
870.424	2345
870.509	1616
870.593	2194
870.678	1742
870.763	2051
870.847	1882
870.932	2447
871.016	2131
871.101	2069
871.186	1347
871.270	2561
871.355	1924
871.439	1306
871.523	1155
871.608	1617
871.692	1344
871.777	1991
871.861	2104
871.945	1332
872.030	2347
872.114	1732
872.198	1473
872.282	1529
872.367	833
872.451	1428
872.535	1310
872.619	1619
872.703	1291
872.787	1583
872.871	659
872.955	1423
873.039	1231
873.123	1302
873.207	1562
873.291	1181
873.375	829
873.459	1565
873.543	783
873.627	1862
873.711	1298
873.794	1454
873.878	667
873.962	1108
874.045	1656
874.129	1134
874.137	1087
874.213	617
874.245	1007
874.296	1648
874.352	1396
874.380	1265
874.460	1356
874.464	1361
874.547	1705
874.568	1693
874.631	1615
874.676	1522
874.714	1465
874.784	1422
874.798	1408
874.881	1016
874.892	1066
874.965	1465
874.999	1275
875.048	1003
875.107	1282
875.131	1380
875.215	817
875.215	817
875.298	1035
875.323	1074
875.381	1128
875.430	1336
875.465	1500
875.538	722
875.548	618
875.631	840
875.646	793
875.714	489
875.753	528
875.798	658
875.861	967
875.881	1037
875.964	595
875.968	601
876.047	749
876.076	844
876.130	1017
876.183	1062
876.213	1090
876.291	1021
876.296	1015
876.379	610
876.398	653
876.462	744
876.506	756
876.545	842
876.613	1556
876.628	1681
876.711	318
876.721	338
876.794	696
876.828	829
876.877	890
876.935	713
876.960	681
877.043	383
877.043	386
877.125	891
877.150	738
877.208	450
877.258	945
877.291	1335
877.365	1027
877.374	956
877.456	444
877.472	231
877.539	-371
877.579	521
877.622	1220
877.687	1032
877.704	1066
877.787	872
877.794	870
877.869	713
877.901	997
877.952	1481
878.008	1099
878.034	837
878.115	553
878.117	550
878.199	629
878.222	579
878.282	561
878.329	745
878.364	796
878.437	509
878.447	480
878.529	34
878.544	209
878.611	987
878.651	868
878.694	798
878.758	823
878.776	805
878.858	809
878.865	772
878.941	279
878.972	416
879.023	588
879.078	620
879.105	703
879.185	836
879.187	837
879.269	716
879.292	688
879.351	652
879.399	694
879.433	641
879.506	722
879.516	768
879.598	1160
879.613	1024
879.680	369
879.720	1119
879.762	1708
879.827	561
879.844	301
879.926	880
879.933	821
880.007	110
880.040	51
880.089	226
880.147	390
880.171	409
880.253	1087
880.254	1089
880.335	1164
880.360	1028
880.417	720
880.467	1044
880.499	1279
880.574	1344
880.580	1343
880.662	1234
880.680	1131
880.744	691
880.787	604
880.825	435
880.893	322
880.907	393
880.989	477
881.000	568
881.070	673
881.106	536
881.152	463
881.213	273
881.233	280
881.315	563
881.319	592
881.396	641
881.426	410
881.478	246
881.532	478
881.559	506
881.639	579
881.641	585
881.722	90
881.745	224
881.803	477
881.852	392
881.885	286
881.958	459
881.966	492
882.047	444
882.064	395
882.129	107
882.171	124
882.210	301
882.277	570
882.291	542
882.372	364
882.383	309
882.454	352
882.489	355
882.535	322
882.596	452
882.616	413
882.697	175
882.702	156
882.778	182
882.808	405
882.859	791
882.914	1208
882.940	1217
883.020	617
883.021	613
883.102	442
883.127	445
883.183	261
883.233	112
883.264	132
883.339	46
883.345	36
883.426	-29
883.445	-12
883.507	294
883.551	318
883.587	263
883.657	792
883.668	832
883.749	506
883.763	491
883.830	251
883.869	18
883.910	89
883.975	453
883.991	396
884.072	-30
884.081	-119
884.152	-26
884.187	309
884.233	449
884.292	556
884.314	583
884.394	87
884.398	81
884.475	119
884.504	158
884.555	190
884.610	174
884.636	118
884.716	15
884.716	17
884.797	691
884.821	795
884.877	212
884.927	-429
884.958	-389
885.033	106
885.038	124
885.118	277
885.139	275
885.199	93
885.244	157
885.279	219
885.350	231
885.359	283
885.439	777
885.456	843
885.520	147
885.561	-257
885.600	98
885.667	712
885.680	580
885.760	-270
885.773	-361
885.840	385
885.878	739
885.920	682
885.984	342
886.000	261
886.080	233
886.089	216
886.160	182
886.195	189
886.240	144
886.300	169
886.320	199
886.400	234
886.406	233
886.480	167
886.511	157
886.560	153
886.616	152
886.640	166
886.720	196
886.722	195
886.800	-436
886.827	-540
886.879	97
886.932	447
886.959	317
887.038	415
887.039	409
887.119	-127
887.143	-304
887.198	-407
887.248	-330
887.278	-83
887.354	355
887.358	340
887.437	98
887.459	40
887.517	67
887.564	105
887.596	216
887.669	470
887.676	431
887.755	-58
887.774	-176
887.835	259
887.880	607
887.914	502
887.985	314
887.994	295
888.073	111
888.090	56
888.153	7
888.195	12
888.232	-131
888.300	-343
888.311	-272
888.391	201
888.405	291
888.470	157
888.510	62
888.549	26
888.615	47
888.628	89
888.708	327
888.720	365
888.787	98
888.825	-59
888.866	-161
888.930	-346
888.945	-417
889.024	-650
889.035	-682
889.103	93
889.140	482
889.182	290
889.245	76
889.261	35
889.340	-151
889.349	-168
889.419	32
889.454	124
889.498	-300
889.559	-850
889.577	-657
889.656	224
889.664	317
889.735	453
889.768	523
889.814	246
889.873	-114
889.978	-72
890.083	518
890.187	920
890.292	476
890.397	-465
890.501	714
890.606	171
890.710	946
890.815	256
890.919	-36
891.024	392
891.128	183
891.233	76
891.337	498
891.442	-458
891.546	-38
891.650	-306
891.755	442
891.859	1325
891.963	618
892.068	466
892.172	473
892.276	-53
892.380	31
892.484	-658
892.589	98
892.693	59
892.797	380
892.901	-87
893.005	1
893.109	-200
893.213	345
893.317	164
893.421	-165
893.525	392
893.629	10
893.733	57
893.837	154
893.941	-18
894.045	342
894.148	629
894.252	540
894.356	652
894.460	346
894.564	401
894.667	-253
894.771	275
894.875	29
894.978	-160
895.082	476
895.186	657
895.289	600
895.393	476
895.496	930
895.600	433
895.703	529
895.807	-207
895.910	302
896.014	-354
896.117	-528
896.221	520
896.324	341
896.427	-265
896.531	272
896.634	-474
896.737	287
896.840	-147
896.944	-401
897.047	225
897.150	370
897.253	-367
897.356	-125
897.460	-526
897.563	548
897.666	532
897.769	269
897.872	-61
897.975	109
898.078	101
898.181	-71
898.284	-49
898.387	-615
898.490	370
898.593	11
898.695	137
898.798	362
898.901	809
899.004	-650
899.107	89
899.209	231
899.312	228
899.415	665
899.518	940
899.620	134
899.723	582
899.826	679
899.928	301
900.031	-273
900.133	123
900.236	121
900.338	660
900.441	508
900.543	-754
900.646	754
900.748	101
900.851	-306
900.953	84
901.055	-36
901.158	-280
901.260	115
901.362	265
901.465	36
901.567	102
901.669	234
901.771	-245
901.873	48
901.976	381
902.078	-247
902.180	777
902.282	797
902.384	-158
902.486	392
902.588	477
902.690	-31
902.792	-351
902.894	-20
902.996	-629
903.098	578
903.200	-48
903.302	489
903.404	-492
903.505	-293
903.607	-37
903.709	322
903.811	51
903.913	517
904.014	131
904.116	-212
904.218	-121
904.319	746
904.421	247
904.523	-518
904.624	-383
904.726	293
904.827	16
904.929	-677
905.030	349
905.132	529
905.233	-426
905.335	173
905.436	-402
905.537	2
905.639	402
905.740	273
905.841	-816
905.943	230
906.044	-64
906.145	378
906.247	625
906.348	187
906.449	432
906.550	37
906.651	289
906.752	435
906.854	-561
906.955	412
907.056	-190
907.157	166
907.258	52
907.359	559
907.460	61
907.561	-84
907.662	-61
907.762	462
907.863	-29
907.964	851
908.065	-766
908.166	-84
908.267	65
908.367	246
908.468	-487
908.569	281
908.670	-26
908.770	456
908.871	318
908.971	-117
909.072	-594
909.173	361
909.273	-381
909.374	569
909.474	590
909.575	-377
909.675	527
909.776	-20
909.876	58
909.977	303
910.077	-455
910.177	-18
910.278	576
910.378	329
910.478	262
910.579	44
910.679	-115
910.779	486
910.879	-292
910.980	205
911.080	-771
911.180	-229
911.280	-16
911.380	-13
911.480	276
911.580	-23
911.680	-17
911.780	76
911.880	-482
911.980	152
912.080	-191
912.180	20
912.280	-271
912.380	850
912.480	-543
912.580	-322
912.679	196
912.779	1216
912.879	-216
912.979	576
913.078	-326
913.178	-326
913.278	-143
913.377	79
913.477	703
913.577	-6
913.676	467
913.776	673
913.875	78
913.975	240
914.074	-17
914.174	-617
914.273	-173
914.373	286
914.472	121
914.572	309
914.671	-893
914.770	-185
914.870	22
914.969	-193
915.068	-658
915.167	-218
915.267	276
915.366	0
915.465	-1061
915.564	377
915.663	-19
915.763	-893
915.862	-160
915.961	-226
916.060	312
916.159	123
916.258	-10
916.357	-349
916.456	-1021
916.555	-689
916.654	-282
916.752	-176
916.851	-395
916.950	100
917.049	-431
917.148	-540
917.247	-29
917.345	-102
917.444	-365
917.543	-100
917.642	-453
917.740	-489
917.839	241
917.937	-184
918.036	-7
918.135	-649
918.233	-173
918.332	703
918.430	-600
918.529	-481
918.627	-152
918.726	451
918.824	-57
918.923	-331
919.021	-144
919.119	-360
919.218	-353
919.316	-723
919.414	-419
919.512	195
919.611	-87
919.709	-89
919.807	-665
919.905	-322
920.003	-53
920.102	31
920.200	150
920.298	-316
920.396	-173
920.494	-584
920.592	-825
920.690	-6
920.788	-125
920.886	87
920.984	-188
921.082	-91
921.180	-43
921.277	431
921.375	20
921.473	53
921.571	53
921.669	138
921.766	492
921.864	-28
921.962	-698
922.060	-327
922.157	24
922.255	488
922.352	-922
922.450	289
922.548	-384
922.645	348
922.743	-5
922.840	-95
922.938	-57
923.035	694
923.133	-44
923.230	-316
923.327	124
923.425	331
923.522	593
923.619	194
923.717	-400
923.814	-138
923.911	281
924.008	727
924.106	294
924.203	-75
924.300	-410
924.397	460
924.494	-295
924.591	-305
924.688	-488
924.786	276
924.883	-644
924.979	421
925.077	-365
925.173	843
925.270	175
925.367	473
925.464	54
925.561	-109
925.658	125
925.755	298
925.852	103
925.948	785
926.045	-61
926.142	-311
926.239	-310
926.335	-186
926.432	327
926.529	66
926.625	240
926.722	103
926.818	414
926.915	71
927.011	-1131
927.108	279
927.204	145
927.301	-83
927.397	-266
927.494	-624
927.590	257
927.687	314
927.783	-342
927.879	-170
927.976	242
928.072	162
928.168	-21
928.264	-162
928.361	-457
928.457	-81
928.553	-682
928.649	934
928.745	-186
928.841	208
928.937	-800
929.033	-1175
929.129	-248
929.225	-217
929.321	-374
929.417	524
929.513	-97
929.609	-165
929.705	-466
929.801	618
929.897	-462
929.993	-309
930.089	-446
930.184	-240
930.280	-11
930.376	238
930.471	-121
930.567	-52
930.663	412
930.758	-7
930.854	-507
930.950	-526
931.045	-360
931.141	129
931.236	126
931.332	-495
931.427	-111
931.523	250
931.618	-284
931.714	-565
931.809	-482
931.905	-209
932.000	-1245
932.095	-299
932.191	-524
932.286	396
932.381	-790
932.476	122
932.572	-443
932.667	367
932.762	-94
932.857	-174
932.952	-565
933.047	36
933.142	-331
933.237	62
933.332	-998
933.427	-239
933.522	-276
933.617	80
933.712	-339
933.807	-514
933.902	-532
933.997	-409
934.092	-156
934.187	-469
934.282	-405
934.376	113
934.471	-575
934.566	-584
934.661	-175
934.755	33
934.850	-452
934.945	-759
935.039	-368
935.134	-816
935.228	-1307
935.323	-11
935.417	-1390
935.512	-88
935.606	-272
935.701	-20
935.795	-1320
935.890	-416
935.984	-886
936.079	-202
936.173	-564
936.267	-391
936.362	-670
936.456	-437
936.550	22
936.644	15
936.738	-506
936.833	-272
936.927	-598
937.021	-1014
937.115	-637
937.209	-830
937.303	-134
937.397	-993
937.491	-556
937.585	-421
937.679	-319
937.773	-848
937.867	-1170
937.961	-58
938.055	-360
938.149	-390
938.243	-468
938.337	-439
938.430	-318
938.524	-73
938.618	-657
938.712	-73
938.805	-385
938.899	-68
938.993	-467
939.086	-106
939.180	-991
939.274	44
939.367	-588
939.461	-436
939.554	-820
939.648	-227
939.741	-938
939.835	-730
939.928	-61
940.022	-247
940.115	-870
940.208	-1350
940.302	-174
940.395	-903
940.488	-1018
940.582	89
940.675	-1284
940.768	-927
940.861	-648
940.954	-309
941.048	-212
941.141	-761
941.234	-125
941.327	-1127
941.420	84
941.513	-837
941.606	-608
941.699	-749
941.792	-648
941.885	-374
941.978	-1392
942.071	-275
942.164	-1396
942.257	-1047
942.349	-263
942.442	333
942.535	-844
942.628	-181
942.721	-349
942.813	-819
942.906	-809
942.999	-365
943.091	-1589
943.184	-423
943.277	-1212
943.369	-891
943.462	-803
943.554	-224
943.647	-1317
943.739	-719
943.832	-783
943.924	-824
944.017	-945
944.109	-307
944.201	-1014
944.294	-681
944.386	90
944.478	-97
944.571	-633
944.663	-742
944.755	-856
944.847	-395
944.940	-596
945.032	-558
945.124	-550
945.216	414
945.308	-799
945.400	-716
945.492	-450
945.584	-1002
945.676	-776
945.768	-812
945.860	-473
945.952	-303
946.044	-306
946.136	-306
946.228	-368
946.320	-696
946.412	-617
946.503	-111
946.595	-1124
946.687	-998
946.779	-709
946.870	-1362
946.962	-1200
947.054	-258
947.145	-469
947.237	-310
947.329	-1017
947.420	-1108
947.512	-210
947.603	-1169
947.695	-420
947.786	-1078
947.878	-1041
947.969	-587
948.061	-1008
948.152	-767
948.243	-1027
948.335	-1172
948.426	-1019
948.517	-1229
948.609	-1296
948.700	-1211
948.791	-336
948.882	-746
948.973	-1896
949.065	-823
949.156	-1705
949.247	-850
949.338	-757
949.429	-1493
949.520	-752
949.611	-1554
949.702	-1182
949.793	-944
949.884	-1096
949.975	-991
950.066	-1394
950.157	-858
950.247	-142
950.338	-642
950.429	-972
950.520	-774
950.611	-1058
950.701	-558
950.792	-1397
950.883	-584
950.973	-463
951.064	-1501
951.155	-1431
951.245	-122
951.336	-404
951.427	-730
951.517	-734
951.608	-657
951.698	-1045
951.788	-1288
951.879	-1826
951.969	-987
952.060	-1378
952.150	-666
952.240	-2029
952.331	-1818
952.421	-732
952.511	-1108
952.602	-1880
952.692	-644
952.782	-1005
952.872	-982
952.962	-957
953.052	-1006
953.143	-1429
953.233	-927
953.323	-835
953.413	-847
953.503	-1122
953.593	-613
953.683	-999
953.773	-310
953.863	-597
953.953	-1094
954.042	-628
954.132	-1764
954.222	-734
954.312	-958
954.402	-1314
954.492	-721
954.581	-1370
954.671	-1828
954.761	-1099
954.850	-230
954.940	-1501
955.030	-669
955.119	-747
955.209	-648
955.298	-1451
955.388	-1716
955.477	-1037
955.567	-976
955.656	-1252
955.746	-982
955.835	-910
955.925	-539
956.014	-1094
956.103	-891
956.193	-822
956.282	-1788
956.371	-916
956.461	-483
956.550	-1842
956.639	-964
956.728	-854
956.817	-1418
956.906	-1541
956.995	-682
957.085	-1281
957.174	-597
957.263	-1806
957.352	-615
957.441	-1769
957.530	-1207
957.619	-1074
957.708	-859
957.796	-1524
957.885	-1145
957.974	-1510
958.063	-975
958.152	-1099
958.241	-748
958.329	-859
958.418	-807
958.507	-840
958.596	-476
958.684	-1789
958.773	-822
958.861	-1391
958.950	-1112
959.039	-617
959.127	-1086
959.216	-392
959.304	-830
959.393	-1258
959.481	-1319
959.570	-1295
959.658	-832
959.746	-805
959.835	-983
959.923	-613
960.011	-1029
960.100	-1640
960.188	-144
960.276	-1112
960.365	-812
960.453	-880
960.541	-1269
960.629	-1304
960.717	-942
960.805	-1519
960.893	-531
960.981	-1603
961.069	-747
961.158	-1300
961.245	-877
961.333	-1042
961.421	-1065
961.509	-1129
961.597	-718
961.685	-702
961.773	-1224
961.861	-1875
961.949	-288
962.036	-1431
962.124	-417
962.212	-1255
962.299	-820
962.387	-1718
962.475	-1001
962.562	-1818
962.650	-492
962.738	-174
962.825	-1243
962.913	-1097
963.000	-1578
963.088	-1553
963.175	-1632
963.263	-1339
963.350	-729
963.438	-754
963.525	-428
963.612	-1493
963.700	-1143
963.787	763
963.874	338
963.962	-1439
964.049	-854
964.136	-1057
964.223	-1981
964.310	-1639
964.398	-574
964.485	-1140
964.572	-1130
964.659	-523
964.746	-1141
964.833	-1185
964.920	-566
965.007	-1840
965.094	-1211
965.181	-1987
965.268	-600
965.355	-1532
965.441	-815
965.528	-1670
965.615	-583
965.702	-1381
965.789	-555
965.875	-1376
965.962	-615
966.049	-1699
966.136	-482
966.222	-1175
966.309	-1271
966.395	-749
966.482	-485
966.569	-1829
966.655	-737
966.742	-1211
966.828	-1061
966.915	-2077
967.001	-832
967.087	-1121
967.174	-1470
967.260	-931
967.347	-1374
967.433	-1254
967.519	-417
967.605	-820
967.692	-1723
967.778	-1407
967.864	-1362
967.950	-822
968.036	-842
968.123	-1336
968.209	-1400
968.295	-1619
968.381	-44
968.467	-938
968.553	-1006
968.639	-522
968.725	-1192
968.811	-690
968.897	-527
968.983	-1328
969.069	-1719
969.154	-965
969.240	-425
969.326	-716
969.412	-1252
969.497	-1232
969.583	-1127
969.669	-22
969.755	-978
969.840	-1357
969.926	-661
970.012	-894
970.097	-828
970.183	-1269
970.268	-1168
970.354	-1206
970.439	-1381
970.525	-248
970.610	-1362
970.696	-684
970.781	-1227
970.866	-1398
970.952	-1007
971.037	-1360
971.122	-1459
971.208	-1883
971.293	-897
971.378	-1163
971.463	-723
971.549	-270
971.634	-932
971.719	-2024
971.804	-875
971.889	-1528
971.974	-639
972.059	-1724
972.144	-1248
972.229	-1028
972.314	-672
972.399	-1622
972.484	-1620
972.569	-1105
972.654	-1225
972.739	-634
972.824	-665
972.908	-1201
972.993	-775
973.078	-1346
973.163	-1241
973.247	-290
973.332	-1528
973.417	-315
973.501	-1307
973.586	-969
973.671	-1367
973.755	-1230
973.840	-715
973.924	-1089
974.009	-1492
974.093	-1905
974.178	-120
974.262	-1866
974.346	-1514
974.431	-1049
974.515	-533
974.600	-1874
974.684	-538
974.768	-1630
974.852	-135
974.937	-1177
975.021	-1002
975.105	-1273
975.189	-1866
975.273	-908
975.358	-1209
975.442	-2225
975.526	-1268
975.610	-1327
975.694	-994
975.778	-640
975.862	-1374
975.946	-2222
976.030	41
976.114	-914
976.198	-1487
976.281	-1637
976.365	-601
976.449	-1640
976.533	-929
976.617	-1781
976.700	-977
976.784	-1959
976.868	-890
976.951	-1414
977.035	-717
977.119	-1336
977.202	-1448
977.286	-2127
977.369	-600
977.453	-424
977.536	-1389
977.620	-1934
977.703	11
977.787	-2404
977.870	-549
977.953	-1106
978.037	-1337
978.120	-318
978.203	-1713
978.287	-911
978.370	-1254
978.453	-1778
978.536	-911
978.620	-830
978.703	-1147
978.786	-1329
978.869	-1804
978.952	-2074
979.035	10
979.118	-718
979.201	-1522
979.284	-2208
979.367	-1282
979.450	-996
979.533	-1791
979.616	-1379
979.699	-1499
979.782	-1441
979.865	-641
979.948	-1637
980.030	-1309
980.113	-1528
980.196	-1316
980.279	-1317
980.361	-1994
980.444	-1634
980.526	-1849
980.609	-1298
980.692	-1578
980.774	-1519
980.857	-1463
980.939	-1270
981.022	-1388
981.104	-2038
981.187	256
981.269	-1306
981.352	-1353
981.434	-1517
981.516	-1311
981.599	-912
981.681	-536
981.763	-1152
981.846	-1092
981.928	-1075
982.010	-1295
982.092	-1526
982.174	-1586
982.256	-1882
982.339	-1016
982.421	-1736
982.503	90
982.585	-2082
982.667	-1639
982.749	-1056
982.831	-659
982.913	-2169
982.995	-228
983.077	-2008
983.158	-1089
983.240	-1897
983.322	-671
983.404	-1563
983.486	-505
983.568	-1195
983.649	-1312
983.731	-1455
983.813	-1993
983.894	-980
983.976	-1781
984.058	-2389
984.139	-838
984.221	-1402
984.302	-686
984.384	-1190
984.465	-2477
984.547	-1644
984.628	-1911
984.710	-1782
984.791	-1818
984.872	-2433
984.954	-1296
985.035	-1719
985.116	-1465
985.198	-1210
985.279	-344
985.360	-2156
985.441	-1591
985.522	-936
985.604	-1860
985.685	-1920
985.766	-82
985.847	-1170
985.928	-1942
986.009	-1273
986.090	-1545
986.171	-1416
986.252	-1799
986.333	-1478
986.414	-1065
986.495	-1207
986.576	-1694
986.656	-798
986.737	-1240
986.818	-1463
986.899	-1802
986.980	-2006
987.060	-1089
987.141	-2345
987.222	-949
987.302	-2292
987.383	-1688
987.464	-1519
987.544	-1124
987.625	-1864
987.705	-1094
987.786	-1365
987.866	-1011
987.947	-1526
988.027	-1368
988.108	-1391
988.188	-1685
988.268	-1404
988.349	-1370
988.429	-1077
988.509	-1133
988.589	-679
988.670	-2794
988.750	-444
988.830	-1400
988.910	-2027
988.990	-1677
989.070	-1227
989.151	-1449
989.231	-2082
989.311	-1582
989.391	-2438
989.471	-831
989.551	-2059
989.631	-1549
989.711	-1090
989.791	-1905
989.870	-1362
989.950	-559
990.030	-2006
990.110	-1505
990.190	-1782
990.269	-1519
990.349	-1707
990.429	-1621
990.509	-1417
990.588	-2005
990.668	-1099
990.747	-705
990.827	-1231
990.907	-752
990.986	-1775
991.066	-855
991.145	-643
991.225	-1237
991.304	-1811
991.383	-1383
991.463	-1425
991.542	-678
991.622	-2021
991.701	-2137
991.780	-1959
991.859	-2013
991.939	-1873
992.018	-2749
992.097	-962
992.176	-909
992.256	-1908
992.335	-1964
992.414	-986
992.493	-1700
992.572	-1734
992.651	-545
992.730	-1422
992.809	-1980
992.888	-2067
992.967	-1862
993.046	-1370
993.125	-1310
993.203	-1988
993.282	-553
993.361	-1840
993.440	-1338
993.519	-2767
993.597	-1844
993.676	-2226
993.755	-876
993.834	-2309
993.912	-2064
993.991	-963
994.069	-1666
994.148	-1083
994.226	-2658
994.305	-1776
994.384	-1559
994.462	-1774
994.540	-1854
994.619	-1826
994.697	-1410
994.776	-1414
994.854	-791
994.932	-2332
995.011	-1535
995.089	-1872
995.167	-1606
995.245	-1676
995.324	-1102
995.402	-1658
995.480	-1371
995.558	-1113
995.636	-1676
995.714	-1591
995.792	-1251
995.870	-2143
995.948	-1205
996.026	-1210
996.104	-1970
996.182	-1196
996.260	-916
996.338	-1643
996.416	-2442
996.494	-1424
996.572	-601
996.649	-1654
996.727	-2243
996.805	-2509
996.883	-1712
996.960	-2087
997.038	-1238
997.116	-1066
997.193	-1543
997.271	-1655
997.348	-1840
997.426	-1876
997.504	-1394
997.581	-1831
997.658	-1226
997.736	-2773
997.813	-2061
997.891	-1861
997.968	-1328
998.046	-2375
998.123	-2136
998.200	-2118
998.277	-1978
998.355	-1638
998.432	-2775
998.509	-1326
998.586	-1312
998.663	-1116
998.741	-1449
998.818	-1932
998.895	-2082
998.972	-2113
999.049	-1224
999.126	-2489
999.203	-1391
999.280	-1977
999.357	-1902
999.434	-1749
999.511	-860
999.587	-1175
999.664	-2109
999.741	-1716
999.818	-2093
999.895	-1566
999.971	-2039
1000.048	-2054
1000.125	-1021
1000.202	-2178
1000.278	-1362
1000.355	-1855
1000.431	-1211
1000.508	-1382
1000.584	-1756
1000.661	-1702
1000.738	-1824
1000.814	-1397
1000.890	-1890
1000.967	-1347
1001.043	-1029
1001.120	-2130
1001.196	-1993
1001.272	-2191
1001.349	-1604
1001.425	-1522
1001.501	-1828
1001.577	-1725
1001.654	-1223
1001.730	-2401
1001.806	-1427
1001.882	-2203
1001.958	-1892
1002.034	-754
1002.110	-1651
1002.186	-2922
1002.262	-2447
1002.338	-1815
1002.414	-1462
1002.490	-1807
1002.566	-1658
1002.642	-2607
1002.718	-1220
1002.794	-952
1002.870	-1882
1002.945	-2056
1003.021	-1462
1003.097	-1269
1003.173	-637
1003.248	-2571
1003.324	-427
1003.400	-1907
1003.475	-1700
1003.551	-2258
1003.626	-1359
1003.702	-1083
1003.777	-1794
1003.853	-1866
1003.928	-1843
1004.004	-1834
1004.079	-1524
1004.155	-2126
1004.230	-2489
1004.305	-2281
1004.381	-1609
1004.456	-2380
1004.531	-1069
1004.607	-1730
1004.682	-2098
1004.757	-2037
1004.832	-1387
1004.907	-2669
1004.982	-858
1005.057	-1098
1005.133	-1821
1005.208	-1691
1005.283	-1696
1005.358	-1813
1005.433	-1920
1005.508	-1389
1005.583	-1926
1005.657	-1940
1005.732	-1504
1005.807	-2127
1005.882	-1259
1005.957	-2295
1006.032	-975
1006.106	-1459
1006.181	-1388
1006.256	-2055
1006.331	-2080
1006.405	-2726
1006.480	-1267
1006.554	-1999
1006.629	-1413
1006.704	-1617
1006.778	-1396
1006.853	-2005
1006.927	-2070
1007.002	-2164
1007.076	-825
1007.150	-2339
1007.225	-2235
1007.299	-1768
1007.373	-1643
1007.448	-1211
1007.522	-855
1007.596	-2073
1007.671	-2582
1007.745	-1636
1007.819	-2331
1007.893	-1630
1007.967	-1839
1008.041	-2782
1008.115	-1374
1008.190	-2009
1008.264	-1437
1008.338	-2902
1008.412	-1945
1008.486	-1554
1008.560	-1713
1008.633	-2220
1008.707	-2234
1008.781	-1327
1008.855	-1745
1008.929	-2115
1009.003	-1646
1009.076	-2028
1009.150	-1095
1009.224	-1624
1009.298	-1229
1009.371	-2509
1009.445	-1720
1009.519	-1778
1009.592	-1985
1009.666	-2343
1009.739	-2072
1009.813	-2092
1009.886	-963
1009.960	-2696
1010.033	-1248
1010.107	-1345
1010.180	-1907
1010.253	-1637
1010.327	-2364
1010.400	-1654
1010.473	-2561
1010.547	-667
1010.620	-997
1010.693	-2169
1010.766	-1750
1010.840	-1654
1010.913	-1499
1010.986	-2194
1011.059	-1828
1011.132	-1917
1011.205	-964
1011.278	-2627
1011.351	-1464
1011.424	-2173
1011.497	-1866
1011.570	-1906
1011.643	-1980
1011.716	-2222
1011.789	-2023
1011.862	-1623
1011.934	-1655
1012.007	-2837
1012.080	-1442
1012.153	-1191
1012.225	-1543
1012.298	-2524
1012.371	-2343
1012.443	-1671
1012.516	-2296
1012.588	-2022
1012.661	-1980
1012.733	-2496
1012.806	-1624
1012.879	-1625
1012.951	-1895
1013.023	-2517
1013.096	-2025
1013.168	-2000
1013.241	-1065
1013.313	-1842
1013.385	-2847
1013.458	-1517
1013.530	-1395
1013.602	-2152
1013.674	-1043
1013.746	-1902
1013.819	-1262
1013.891	-1496
1013.963	-2582
1014.035	-2272
1014.107	-1562
1014.179	-2071
1014.251	-2219
1014.323	-1662
1014.395	-2000
1014.467	-1949
1014.539	-1585
1014.611	-2391
1014.683	-1740
1014.754	-1629
1014.826	-2508
1014.898	-1983
1014.970	-2215
1015.042	-1106
1015.113	-1759
1015.185	-1547
1015.257	-1834
1015.328	-1705
1015.400	-1970
1015.471	-2239
1015.543	-2770
1015.615	-1760
1015.686	-1248
1015.757	-2929
1015.829	-1437
1015.901	-2324
1015.972	-1883
1016.043	-2064
1016.115	-1759
1016.186	-1875
1016.257	-2375
1016.328	-1418
1016.400	-1697
1016.471	-2489
1016.542	-1394
1016.613	-1172
1016.685	-1380
1016.756	-1610
1016.827	-1954
1016.898	-1898
1016.969	-1489
1017.040	-1989
1017.111	-1193
1017.182	-1648
1017.253	-1985
1017.324	-2085
1017.395	-2059
1017.466	-1226
1017.537	-1386
1017.608	-2081
1017.678	-1881
1017.749	-2368
1017.820	-1921
1017.891	-2561
1017.961	-2356
1018.032	-1720
1018.103	-2186
1018.173	-1855
1018.244	-2481
1018.315	-2088
1018.385	-1922
1018.456	-2428
1018.526	-2631
1018.597	-2365
1018.667	-1133
1018.738	-1915
1018.808	-1210
1018.878	-2548
1018.949	-2045
1019.019	-1367
1019.089	-2337
1019.160	-1840
1019.230	-2339
1019.300	-1532
1019.371	-1952
1019.441	-1734
1019.511	-1822
1019.581	-1149
1019.651	-2213
1019.721	-2239
1019.791	-1715
1019.861	-2130
1019.931	-2187
1020.001	-2067
1020.071	-1947
1020.141	-1525
1020.211	-1271
1020.281	-2058
1020.351	-1717
1020.421	-2275
1020.491	-1610
1020.560	-2623
1020.630	-2477
1020.700	-2079
1020.770	-1530
1020.839	-1825
1020.909	-1904
1020.979	-1667
1021.048	-2098
1021.118	-2121
1021.187	-1605
1021.257	-1787
1021.326	-2022
1021.396	-2161
1021.465	-1154
1021.535	-1876
1021.604	-2519
1021.674	-2744
1021.743	-1628
1021.812	-2655
1021.882	-2388
1021.951	-2304
1022.020	-1528
1022.089	-1992
1022.159	-1790
1022.228	-2601
1022.297	-2103
1022.366	-2022
1022.435	-2359
1022.504	-2131
1022.573	-2397
1022.642	-2037
1022.711	-2014
1022.781	-1963
1022.849	-1937
1022.918	-2604
1022.987	-2147
1023.056	-2136
1023.125	-1572
1023.194	-2060
1023.263	-2266
1023.331	-1982
1023.400	-2178
1023.469	-2096
1023.538	-1495
1023.606	-1942
1023.675	-1644
1023.744	-2755
1023.812	-1793
1023.881	-2372
1023.949	-1708
1024.018	-2232
1024.086	-2283
1024.155	-2290
1024.223	-1857
1024.292	-1554
1024.360	-1356
1024.429	-3006
1024.497	-2300
1024.565	-2261
1024.634	-1476
1024.702	-1855
1024.770	-2568
1024.838	-2234
1024.907	-1702
1024.975	-2526
1025.043	-227
1025.111	-2422
1025.179	-1874
1025.247	-2128
1025.315	-1721
1025.383	-2270
1025.451	-1951
1025.519	-2159
1025.587	-2069
1025.655	-1460
1025.723	-1155
1025.791	-1563
1025.859	-2096
1025.927	-1963
1025.995	-2360
1026.062	-1871
1026.130	-1916
1026.198	-2093
1026.266	-1205
1026.333	-1138
1026.401	-579
1026.469	-2410
1026.536	-1529
1026.604	-2548
1026.671	-2116
1026.739	-2681
1026.806	-1521
1026.874	-1924
1026.941	-2333
1027.009	-2312
1027.076	-2255
1027.144	-1077
1027.211	-2032
1027.278	-1708
1027.345	-2404
1027.413	-2174
1027.480	-1865
1027.547	-2651
1027.614	-1735
1027.682	-1643
1027.749	-1894
1027.816	-1380
1027.883	-1718
1027.950	-1863
1028.017	-1619
1028.084	-1907
1028.151	-1334
1028.218	-2230
1028.285	-1975
1028.352	-2520
1028.419	-2098
1028.486	-1907
1028.553	-2315
1028.619	-2474
1028.686	-2138
1028.753	-1945
1028.820	-2241
1028.886	-1878
1028.953	-1975
1029.020	-2099
1029.086	-1615
1029.153	-2616
1029.220	-2125
1029.286	-2475
1029.353	-1835
1029.419	-1813
1029.486	-1833
1029.552	-2601
1029.619	-2357
1029.685	-1795
1029.751	-1868
1029.818	-1866
1029.884	-2458
1029.951	-1012
1030.017	-1891
1030.083	-1946
1030.149	-1945
1030.216	-2344
1030.282	-2103
1030.348	-2226
1030.414	-2180
1030.480	-1992
1030.546	-1375
1030.612	-2335
1030.678	-2094
1030.744	-1914
1030.810	-1657
1030.876	-1682
1030.942	-2374
1031.008	-2482
1031.074	-1806
1031.140	-2052
1031.206	-1295
1031.272	-1597
1031.337	-1783
1031.403	-2320
1031.469	-1749
1031.534	-1916
1031.600	-2505
1031.666	-2579
1031.731	-1961
1031.797	-2347
1031.863	-1138
1031.928	-2441
1031.994	-2017
1032.059	-2241
1032.125	-2206
1032.190	-2439
1032.256	-2402
1032.321	-2334
1032.386	-2048
1032.452	-2479
1032.517	-2006
1032.582	-1876
1032.647	-1269
1032.713	-2531
1032.778	-1591
1032.843	-2507
1032.908	-2572
1032.974	-2169
1033.039	-2465
1033.104	-3160
1033.169	-2633
1033.234	-1606
1033.299	-1367
1033.364	-1886
1033.429	-2386
1033.494	-1885
1033.559	-1889
1033.624	-2378
1033.688	-1475
1033.753	-1964
1033.818	-1809
1033.883	-3047
1033.948	-788
1034.013	-2462
1034.077	-1710
1034.142	-2047
1034.207	-2117
1034.271	-2400
1034.336	-1573
1034.400	-1930
1034.465	-2146
1034.530	-2268
1034.594	-2622
1034.658	-2049
1034.723	-2549
1034.787	-2245
1034.852	-1892
1034.916	-2604
1034.981	-2359
1035.045	-1610
1035.109	-2084
1035.173	-1619
1035.238	-2729
1035.302	-1790
1035.366	-1130
1035.430	-2055
1035.495	-2653
1035.559	-2005
1035.623	-2041
1035.687	-2654
1035.751	-1858
1035.815	-2925
1035.879	-1578
1035.943	-1981
1036.007	-2410
1036.071	-2159
1036.135	-1771
1036.198	-1273
1036.262	-2923
1036.326	-2625
1036.390	-1784
1036.454	-1968
1036.517	-2216
1036.581	-1986
1036.645	-1979
1036.709	-1706
1036.772	-2193
1036.836	-2310
1036.900	-2211
1036.963	-2535
1037.026	-2150
1037.090	-2113
1037.154	-1723
1037.217	-2472
1037.280	-2104
1037.344	-2021
1037.407	-3081
1037.471	-2743
1037.534	-2566
1037.597	-2953
1037.661	-2266
1037.724	-1996
1037.787	-2561
1037.850	-2145
1037.913	-1903
1037.977	-2042
1038.040	-2305
1038.103	-2450
1038.166	-2143
1038.229	-2391
1038.292	-2339
1038.355	-2648
1038.418	-2378
1038.481	-2444
1038.544	-2334
1038.607	-2236
1038.670	-2481
1038.732	-2888
1038.795	-1837
1038.858	-2337
1038.921	-2513
1038.984	-1654
1039.046	-1857
1039.109	-1754
1039.172	-2362
1039.234	-2739
1039.297	-1943
1039.360	-1795
1039.422	-2608
1039.485	-2479
1039.547	-2667
1039.610	-2976
1039.672	-2039
1039.734	-2635
1039.797	-2205
1039.859	-2205
1039.922	-1786
1039.984	-2786
1040.046	-1551
1040.109	-2432
1040.171	-2729
1040.233	-2478
1040.295	-2229
1040.358	-2477
1040.420	-1416
1040.482	-1999
1040.544	-2334
1040.606	-2706
1040.668	-2873
1040.730	-2665
1040.792	-2257
1040.854	-1770
1040.916	-1516
1040.978	-2814
1041.040	-1986
1041.102	-1856
1041.164	-2365
1041.225	-1930
1041.287	-2251
1041.349	-2303
1041.411	-2226
1041.472	-2840
1041.534	-2631
1041.596	-3125
1041.657	-2427
1041.719	-2680
1041.781	-1674
1041.842	-2930
1041.904	-2617
1041.965	-3296
1042.027	-2310
1042.088	-2173
1042.150	-2469
1042.211	-2523
1042.272	-2099
1042.334	-2069
1042.395	-2134
1042.456	-2462
1042.518	-2497
1042.579	-2696
1042.640	-2413
1042.701	-2452
1042.763	-1820
1042.824	-1909
1042.885	-2500
1042.946	-2645
1043.007	-1633
1043.068	-2737
1043.129	-2441
1043.190	-2515
1043.251	-1607
1043.312	-3046
1043.373	-2690
1043.434	-2510
1043.495	-2583
1043.556	-2653
1043.616	-2392
1043.677	-2152
1043.738	-2413
1043.799	-2377
1043.859	-2042
1043.920	-1998
1043.981	-1567
1044.041	-1611
1044.102	-2250
1044.162	-2400
1044.223	-2430
1044.284	-2695
1044.344	-2154
1044.405	-2249
1044.465	-2238
1044.525	-3200
1044.586	-2294
1044.646	-2725
1044.707	-1429
1044.767	-2447
1044.827	-1395
1044.887	-2491
1044.948	-2502
1045.008	-2079
1045.068	-2084
1045.128	-2327
1045.188	-2676
1045.249	-1669
1045.309	-1912
1045.369	-2165
1045.429	-1592
1045.489	-2191
1045.549	-1803
1045.609	-2169
1045.669	-2164
1045.729	-2173
1045.789	-2445
1045.848	-2696
1045.908	-1941
1045.968	-2037
1046.028	-1929
1046.088	-2297
1046.147	-1380
1046.207	-2536
1046.267	-2421
1046.326	-2246
1046.386	-1309
1046.446	-1401
1046.505	-1703
1046.565	-1997
1046.624	-2089
1046.684	-1059
1046.743	-1421
1046.803	-1179
1046.862	-148
1046.922	0
