'Start Wavelength	183.907
'End Wavelength	1046.922
'Gate Delay	5.000
'Gate Width (ms)	1.050
'Laser Output Level	0.000
'X Position	0.000
'Y Position	0.000
'Z Position	0.000
'Grid Point Number	1.000
'Shot Number	100.000
183.907	172.000
183.977	-510.000
184.047	-210
184.116	575
184.186	385
184.256	24
184.325	436
184.395	-969
184.465	1359
184.534	-182
184.604	-661
184.674	-904
184.743	-176
184.813	674
184.883	-109
184.952	71
185.022	470
185.092	725
185.161	154
185.231	99
185.301	-147
185.370	954
185.440	-793
185.509	311
185.579	71
185.649	134
185.718	226
185.788	-305
185.857	574
185.927	-417
185.996	64
186.066	-21
186.136	-155
186.205	-124
186.275	381
186.344	200
186.414	156
186.483	-1106
186.553	495
186.622	1101
186.692	-912
186.761	-402
186.831	-33
186.900	-459
186.970	103
187.039	-207
187.109	696
187.178	-232
187.248	-16
187.317	491
187.387	-93
187.456	-462
187.526	-64
187.595	294
187.664	-479
187.734	-223
187.803	5
187.873	870
187.942	407
188.012	124
188.081	128
188.150	134
188.220	661
188.289	226
188.358	-39
188.428	-40
188.497	-530
188.567	579
188.636	-206
188.705	-396
188.775	286
188.844	-358
188.913	728
188.983	-11
189.052	278
189.121	390
189.191	366
189.260	470
189.329	150
189.399	346
189.468	-179
189.537	210
189.606	143
189.676	978
189.745	202
189.814	-49
189.883	-834
189.953	566
190.022	411
190.091	737
190.161	1673
190.230	599
190.299	-62
190.368	-523
190.437	-59
190.507	-190
190.576	-383
190.645	367
190.714	-144
190.783	-653
190.853	781
190.922	-289
190.991	456
191.060	-653
191.129	-260
191.198	670
191.268	401
191.337	-185
191.406	515
191.475	-479
191.544	407
191.613	744
191.682	-786
191.752	279
191.821	346
191.890	-365
191.959	-103
192.028	617
192.097	885
192.166	135
192.235	-295
192.304	-127
192.373	89
192.442	166
192.511	-60
192.580	-271
192.650	500
192.719	365
192.788	531
192.857	4
192.926	-176
192.995	163
193.064	1479
193.133	310
193.202	1368
193.271	517
193.340	1179
193.409	930
193.478	1197
193.547	958
193.615	1481
193.684	1715
193.753	1453
193.822	1471
193.891	-41
193.960	282
194.029	986
194.098	-171
194.167	105
194.236	1212
194.305	27
194.374	-395
194.443	124
194.512	1173
194.580	480
194.649	483
194.718	444
194.787	-227
194.856	338
194.925	779
194.994	361
195.062	1110
195.131	272
195.200	525
195.269	900
195.338	251
195.407	597
195.475	118
195.544	1044
195.613	163
195.682	898
195.751	661
195.819	-65
195.888	457
195.957	1031
196.026	501
196.094	880
196.163	54
196.232	250
196.301	176
196.369	1072
196.438	682
196.507	115
196.576	271
196.644	618
196.713	229
196.782	-643
196.850	598
196.919	719
196.988	641
197.056	650
197.125	519
197.194	911
197.262	-120
197.331	459
197.400	-130
197.468	243
197.537	733
197.606	70
197.674	870
197.743	2108
197.812	475
197.880	1163
197.949	1307
198.017	1442
198.086	1018
198.155	879
198.223	1125
198.292	1883
198.360	1573
198.429	103
198.497	415
198.566	1297
198.635	2283
198.703	1183
198.772	267
198.840	2493
198.909	2548
198.977	942
199.046	813
199.114	159
199.183	820
199.251	312
199.320	278
199.388	-116
199.457	958
199.525	660
199.594	644
199.662	393
199.731	656
199.799	850
199.867	445
199.936	575
200.004	733
200.073	179
200.141	5
200.210	-59
200.278	-137
200.346	1111
200.415	688
200.483	576
200.552	267
200.620	106
200.688	713
200.757	116
200.825	170
200.893	371
200.962	789
201.030	307
201.098	523
201.167	908
201.235	771
201.303	245
201.372	1029
201.440	68
201.508	882
201.577	807
201.645	615
201.713	537
201.781	271
201.850	997
201.918	-86
201.986	464
202.055	2053
202.123	577
202.191	984
202.259	318
202.327	455
202.396	643
202.464	910
202.532	686
202.600	1857
202.669	1038
202.737	727
202.805	673
202.873	1288
202.941	448
203.009	72
203.078	559
203.146	824
203.214	1172
203.282	-209
203.350	427
203.418	1072
203.487	1248
203.555	297
203.623	892
203.691	607
203.759	-306
203.827	217
203.895	898
203.963	-179
204.031	-178
204.099	387
204.168	431
204.236	552
204.304	1211
204.372	889
204.440	486
204.508	978
204.576	128
204.644	103
204.712	239
204.780	915
204.848	610
204.916	727
204.984	378
205.052	789
205.120	837
205.188	92
205.256	814
205.324	158
205.392	1234
205.460	746
205.528	458
205.596	1204
205.664	653
205.732	991
205.799	2567
205.867	3445
205.935	267
206.003	1084
206.071	940
206.139	462
206.207	1490
206.275	1136
206.343	754
206.411	1467
206.478	496
206.546	340
206.614	235
206.682	603
206.750	638
206.818	898
206.885	1375
206.953	-571
207.021	1959
207.089	955
207.157	208
207.225	680
207.292	844
207.360	885
207.428	587
207.496	356
207.563	44
207.631	1240
207.699	-229
207.767	1011
207.834	845
207.902	828
207.970	933
208.038	561
208.105	717
208.173	402
208.241	1527
208.309	1430
208.376	849
208.444	1858
208.512	1152
208.579	-3
208.647	1958
208.715	1002
208.782	658
208.850	1104
208.918	812
208.985	355
209.053	316
209.120	1250
209.188	1104
209.256	458
209.323	1236
209.391	1078
209.459	2245
209.526	1507
209.594	304
209.661	1356
209.729	859
209.796	1174
209.864	1442
209.932	-710
209.999	1267
210.067	717
210.134	1381
210.202	189
210.269	2392
210.337	1471
210.404	1477
210.472	1368
210.539	1357
210.607	1087
210.674	1516
210.742	1625
210.809	785
210.877	1171
210.944	1954
211.012	394
211.079	2647
211.146	864
211.214	1585
211.281	1449
211.349	1513
211.416	1786
211.484	1634
211.551	1394
211.618	954
211.686	1039
211.753	734
211.821	1525
211.888	1385
211.955	673
212.023	1857
212.090	1319
212.157	1503
212.225	1633
212.292	3053
212.359	5038
212.427	12532
212.494	6476
212.561	2793
212.629	1401
212.696	1990
212.763	2185
212.831	1410
212.898	2812
212.965	1118
213.032	1442
213.100	1493
213.167	1304
213.234	2303
213.301	1502
213.369	1555
213.436	1726
213.503	971
213.570	1501
213.638	1529
213.705	907
213.772	749
213.839	1932
213.906	2372
213.973	2144
214.041	1014
214.108	1414
214.175	1743
214.242	1577
214.309	2322
214.376	1345
214.444	1368
214.511	2331
214.578	778
214.645	2373
214.712	1810
214.779	1638
214.846	1874
214.913	2422
214.980	1418
215.048	2143
215.115	2346
215.182	1761
215.249	1129
215.316	1136
215.383	2192
215.450	1404
215.517	1531
215.584	1461
215.651	1490
215.718	1658
215.785	1657
215.852	1691
215.919	2972
215.986	1800
216.053	1528
216.120	1476
216.187	1460
216.254	1213
216.321	1286
216.388	1913
216.455	2403
216.522	1802
216.589	1549
216.656	3288
216.722	3165
216.789	2519
216.856	2954
216.923	2526
216.990	1658
217.057	2424
217.124	2143
217.191	2060
217.258	3309
217.324	2562
217.391	3707
217.458	2244
217.525	2880
217.592	2407
217.659	1085
217.725	2078
217.792	2137
217.859	2282
217.926	1679
217.993	1317
218.059	1413
218.126	1362
218.193	1776
218.260	1439
218.327	909
218.393	1272
218.460	1832
218.527	803
218.594	1952
218.660	2517
218.727	2982
218.794	528
218.860	1860
218.927	1762
218.994	759
219.061	1735
219.127	1848
219.194	1587
219.261	1961
219.327	716
219.394	1296
219.461	219
219.527	1350
219.594	1206
219.661	1816
219.727	251
219.794	1672
219.860	1101
219.927	1856
219.994	2319
220.060	3075
220.127	2748
220.193	1662
220.260	2055
220.326	3888
220.393	4485
220.460	5376
220.526	4214
220.593	2811
220.659	4661
220.726	2903
220.792	6303
220.859	6496
220.925	7283
220.992	9327
221.058	9555
221.125	9262
221.191	6850
221.258	3213
221.324	2620
221.391	1960
221.457	1234
221.524	2439
221.590	3207
221.657	8286
221.723	5325
221.789	5169
221.856	5348
221.922	2464
221.989	2727
222.055	1241
222.121	834
222.188	3788
222.254	2265
222.321	1680
222.387	583
222.453	1599
222.520	1082
222.586	1486
222.652	1680
222.719	545
222.785	1211
222.851	1371
222.918	950
222.984	872
223.050	1922
223.116	429
223.183	1013
223.249	279
223.315	685
223.382	770
223.448	1299
223.514	216
223.580	1029
223.647	1112
223.713	781
223.779	445
223.845	262
223.911	1553
223.978	677
224.044	1818
224.110	398
224.176	1394
224.242	830
224.309	74
224.375	1474
224.441	846
224.507	564
224.573	220
224.639	1760
224.705	200
224.772	879
224.838	510
224.904	1277
224.970	694
225.036	1458
225.102	422
225.168	1586
225.234	1649
225.300	553
225.366	1317
225.432	941
225.499	833
225.565	1218
225.631	1086
225.697	1933
225.763	2497
225.829	1913
225.895	2853
225.961	3743
226.027	3371
226.093	2149
226.159	4091
226.225	5094
226.291	9529
226.357	14792
226.423	9134
226.489	5025
226.554	4126
226.620	3309
226.686	4814
226.752	6260
226.818	9948
226.884	17735
226.950	16215
227.016	7186
227.082	4754
227.148	3127
227.214	3734
227.279	2774
227.345	2583
227.411	1807
227.477	2107
227.543	2859
227.609	2733
227.674	3080
227.740	1641
227.806	1816
227.872	1869
227.938	2367
228.003	2955
228.069	1662
228.135	1096
228.201	1355
228.267	1382
228.332	1582
228.398	1426
228.464	1873
228.530	344
228.595	1303
228.661	329
228.727	2233
228.792	2811
228.858	456
228.924	-18
228.990	3161
229.055	767
229.121	2858
229.187	1073
229.252	1526
229.318	342
229.384	1207
229.449	1614
229.515	-512
229.581	34
229.646	2355
229.712	1287
229.777	2729
229.843	3138
229.909	2538
229.974	3067
230.040	2268
230.105	2283
230.171	2208
230.236	3849
230.302	3680
230.368	3486
230.433	1501
230.499	2566
230.564	2593
230.630	1303
230.695	1122
230.761	1847
230.826	493
230.892	3387
230.957	1043
231.023	1216
231.088	2030
231.154	1288
231.219	2466
231.284	1434
231.350	2746
231.415	981
231.481	2301
231.546	1020
231.612	1448
231.677	1774
231.742	168
231.808	2793
231.873	549
231.939	135
232.004	2806
232.069	2989
232.135	975
232.200	1325
232.265	1587
232.331	1426
232.396	1057
232.461	1174
232.527	996
232.592	348
232.657	1647
232.723	2577
232.788	2091
232.853	2076
232.918	822
232.984	729
233.049	562
233.114	958
233.179	1097
233.245	2646
233.310	3146
233.375	558
233.440	822
233.506	1441
233.571	495
233.636	874
233.701	1281
233.766	1700
233.832	2825
233.897	1448
233.962	-293
234.027	2138
234.092	1032
234.157	1224
234.222	1160
234.288	2324
234.353	6970
234.418	6625
234.483	3989
234.548	3203
234.613	1917
234.678	3239
234.743	1911
234.808	7328
234.873	3571
234.938	3294
235.004	1728
235.069	1321
235.134	957
235.199	2048
235.264	1726
235.329	504
235.394	2170
235.459	2562
235.524	855
235.589	2758
235.654	1601
235.719	1081
235.784	2147
235.849	2026
235.913	3606
235.978	3582
236.043	4135
236.108	2843
236.173	1411
236.238	2920
236.303	1527
236.368	1046
236.433	4057
236.498	5029
236.563	5130
236.627	7765
236.692	23554
236.757	22174
236.822	9785
236.887	5277
236.952	5802
237.017	4029
237.081	6002
237.146	5775
237.211	12696
237.276	23596
237.341	36208
237.405	20058
237.470	9038
237.535	5792
237.600	4398
237.664	4046
237.729	2501
237.794	3004
237.859	8376
237.923	5351
237.988	3325
238.053	4095
238.118	3938
238.182	8945
238.247	9937
238.312	3504
238.376	3277
238.441	1397
238.506	3140
238.570	544
238.635	3112
238.700	1155
238.764	1766
238.829	3613
238.893	4589
238.958	3415
239.023	2805
239.087	1529
239.152	2346
239.216	935
239.281	1805
239.346	2085
239.410	1304
239.475	1930
239.539	8490
239.604	7043
239.668	3495
239.733	1989
239.797	2837
239.862	4387
239.926	7015
239.991	4128
240.055	2452
240.120	1356
240.184	2053
240.249	1602
240.313	1619
240.378	1620
240.442	4747
240.507	8431
240.571	2934
240.635	3091
240.700	4685
240.764	2122
240.829	1978
240.893	488
240.957	1782
241.022	4290
241.086	7736
241.151	3770
241.215	537
241.279	3251
241.344	3991
241.408	3466
241.472	1672
241.537	4274
241.601	2872
241.665	1117
241.730	1622
241.794	3452
241.858	1840
241.922	2121
241.987	2151
242.051	1803
242.115	749
242.179	1797
242.244	1548
242.308	3342
242.372	2185
242.436	2325
242.501	2193
242.565	1261
242.629	1186
242.693	2472
242.757	466
242.822	1546
242.886	2670
242.950	2832
243.014	1553
243.078	2340
243.142	2495
243.206	1827
243.271	3018
243.335	1946
243.399	4398
243.463	14302
243.527	37581
243.591	13627
243.655	4976
243.719	3190
243.783	4021
243.847	5432
243.911	7194
243.975	5993
244.040	4030
244.104	4778
244.168	2254
244.232	2663
244.296	4595
244.360	6377
244.424	2338
244.488	2027
244.552	1960
244.615	941
244.679	2121
244.743	2160
244.807	2056
244.871	2699
244.935	2524
244.999	134
245.063	1273
245.127	2932
245.191	4029
245.255	3815
245.319	2289
245.383	1637
245.446	2963
245.510	461
245.574	1030
245.638	1952
245.702	842
245.766	6174
245.829	3382
245.893	1501
245.957	1534
246.021	3362
246.085	1901
246.149	2917
246.212	7128
246.276	11143
246.340	4783
246.404	3831
246.467	3557
246.531	3417
246.595	3870
246.659	3369
246.722	1834
246.786	3319
246.850	3135
246.913	4591
246.977	1970
247.041	2092
247.104	3032
247.168	1699
247.232	6695
247.295	14196
247.359	7371
247.423	3211
247.486	5585
247.550	3864
247.614	2511
247.677	3387
247.741	2647
247.804	2608
247.868	3715
247.932	4723
247.995	14104
248.059	4845
248.122	2132
248.186	4456
248.249	6227
248.313	21680
248.376	24194
248.440	14656
248.503	5352
248.567	5684
248.630	6456
248.694	8743
248.757	12501
248.821	24299
248.884	16760
248.948	12704
249.011	19105
249.075	28317
249.138	25048
249.202	9888
249.265	5505
249.328	7911
249.392	5555
249.455	5615
249.519	4204
249.582	5219
249.645	7745
249.709	6991
249.772	5115
249.835	4714
249.899	5107
249.962	4807
250.025	3267
250.089	8960
250.152	12334
250.215	6878
250.279	4438
250.342	5420
250.405	5853
250.468	5436
250.532	6211
250.595	11434
250.658	34941
250.721	63342
250.785	22684
250.848	12393
250.911	6818
250.974	6773
251.038	7923
251.101	16362
251.164	9031
251.227	9392
251.290	9443
251.354	13741
251.417	51818
251.480	54610
251.543	38168
251.606	93708
251.669	73761
251.732	30049
251.795	25500
251.859	26655
251.922	58736
251.985	37424
252.048	15494
252.111	10602
252.174	9245
252.237	14755
252.300	31211
252.363	34840
252.426	72531
252.489	32897
252.552	16021
252.615	10740
252.678	11554
252.741	24275
252.804	34443
252.867	77230
252.930	45104
252.993	22437
253.056	12498
253.119	9504
253.182	7153
253.245	13227
253.308	11256
253.371	7503
253.434	7474
253.497	7475
253.559	13782
253.622	9744
253.685	9614
253.748	9862
253.811	4691
253.874	6725
253.937	6030
254.000	5364
254.062	7820
254.125	13773
254.188	13092
254.251	11047
254.314	5074
254.376	7661
254.439	9707
254.502	7909
254.565	7799
254.628	16302
254.690	8781
254.753	4663
254.816	3932
254.878	5076
254.941	8772
255.004	10375
255.067	5060
255.129	3801
255.192	2504
255.255	1116
255.317	2495
255.380	2344
255.443	1884
255.505	1122
255.568	1587
255.631	1040
255.693	2666
255.756	1248
255.819	2491
255.881	1152
255.944	1655
256.006	2040
256.069	1545
256.132	2419
256.194	2227
256.257	7102
256.319	5066
256.382	4334
256.444	3587
256.507	2992
256.569	2372
256.632	3061
256.694	4495
256.757	13657
256.819	41019
256.882	19140
256.944	7278
257.007	5061
257.069	4721
257.132	4114
257.194	3960
257.257	3589
257.319	4192
257.381	4922
257.444	11362
257.506	43077
257.569	54260
257.631	26680
257.693	13670
257.756	7326
257.818	5196
257.880	3923
257.943	4117
258.005	2897
258.067	2466
258.130	3652
258.192	3047
258.254	5606
258.317	4434
258.379	3957
258.441	7602
258.503	7739
258.566	7832
258.628	12777
258.690	2979
258.753	3463
258.815	6656
258.877	3674
258.939	2901
259.001	3673
259.064	2664
259.126	3217
259.188	4253
259.250	3440
259.312	4252
259.375	11650
259.437	7546
259.499	3024
259.561	2897
259.623	4093
259.685	3805
259.747	2611
259.809	7549
259.872	15770
259.934	24100
259.996	24702
260.058	7879
260.120	2576
260.182	3068
260.244	2492
260.306	1649
260.368	3482
260.430	1865
260.492	5835
260.554	13031
260.616	9255
260.678	11746
260.740	16548
260.802	4619
260.864	2909
260.926	3054
260.988	3938
261.050	2878
261.112	7511
261.174	21211
261.236	13686
261.298	4190
261.359	6152
261.421	9826
261.483	2869
261.545	2815
261.607	840
261.669	2268
261.731	4381
261.793	10004
261.854	4265
261.916	3550
261.978	2985
262.040	4332
262.102	3488
262.164	2967
262.225	3578
262.287	2471
262.349	5570
262.411	5362
262.472	3540
262.534	3520
262.596	8841
262.658	3590
262.719	1718
262.781	3719
262.843	7500
262.904	4788
262.966	3415
263.028	4668
263.090	19657
263.151	55713
263.213	20278
263.275	10160
263.336	3216
263.398	3362
263.459	1681
263.521	1775
263.583	5745
263.644	4732
263.706	2152
263.767	843
263.829	1920
263.891	1311
263.952	1428
264.014	1479
264.075	3739
264.137	11745
264.198	4507
264.260	1651
264.321	2297
264.383	4341
264.444	17080
264.506	5805
264.567	3193
264.629	6826
264.690	15114
264.752	5473
264.813	2350
264.875	1584
264.936	2832
264.998	1926
265.059	1732
265.120	2801
265.182	4101
265.243	19738
265.305	23432
265.366	6676
265.427	2609
265.489	2712
265.550	1133
265.611	1301
265.673	2363
265.734	2081
265.795	1750
265.857	1741
265.918	1873
265.979	6189
266.040	34442
266.102	33673
266.163	9185
266.224	5989
266.286	3394
266.347	1651
266.408	2393
266.469	1980
266.530	2356
266.592	1529
266.653	3452
266.714	6276
266.775	2042
266.836	907
266.898	1910
266.959	3479
267.020	2724
267.081	2141
267.142	1422
267.203	1265
267.264	263
267.326	2290
267.387	718
267.448	877
267.509	1483
267.570	1824
267.631	392
267.692	843
267.753	2107
267.814	1049
267.875	3944
267.936	9811
267.997	6521
268.058	5563
268.119	2218
268.180	1884
268.241	2149
268.302	1190
268.363	1276
268.424	1236
268.485	1894
268.546	588
268.607	1597
268.668	907
268.729	932
268.790	1379
268.851	1752
268.912	4137
268.972	5978
269.033	2645
269.094	1674
269.155	1354
269.216	982
269.277	935
269.338	1129
269.398	1896
269.459	2014
269.520	2386
269.581	3281
269.642	3761
269.702	3117
269.763	2106
269.824	1787
269.885	2349
269.945	4624
270.006	2076
270.067	981
270.128	1373
270.188	498
270.249	1356
270.310	848
270.370	1214
270.431	1750
270.492	847
270.553	1058
270.613	3090
270.674	8634
270.734	3467
270.795	1572
270.856	4032
270.916	2216
270.977	2024
271.038	2088
271.098	2890
271.159	2789
271.219	3285
271.280	1451
271.340	1358
271.401	1359
271.462	4398
271.522	2469
271.583	1722
271.643	2298
271.704	2037
271.764	2015
271.825	5426
271.885	20283
271.946	30347
272.006	9112
272.066	12376
272.127	23059
272.187	6955
272.248	4132
272.308	3425
272.369	14615
272.429	8215
272.489	5348
272.550	6044
272.610	6296
272.671	5016
272.731	3371
272.791	6456
272.852	3736
272.912	3672
272.972	1267
273.033	1151
273.093	2976
273.153	3891
273.214	2447
273.274	3035
273.334	11373
273.394	22508
273.455	9003
273.515	7146
273.575	18191
273.635	7513
273.696	8481
273.756	20036
273.816	8062
273.876	4742
273.936	7368
273.997	16455
274.057	4788
274.117	3385
274.177	4965
274.237	25084
274.297	22992
274.358	12454
274.418	14989
274.478	12659
274.538	4207
274.598	3640
274.658	11581
274.718	15940
274.778	6745
274.838	3590
274.898	6166
274.958	20601
275.018	19920
275.078	14352
275.138	5518
275.198	2378
275.258	2395
275.318	2646
275.378	5193
275.438	6264
275.498	5089
275.558	9253
275.618	20106
275.678	14670
275.738	7910
275.798	6810
275.858	4506
275.918	1362
275.978	2713
276.038	2966
276.098	1918
276.157	3446
276.217	14471
276.277	6311
276.337	4705
276.397	3081
276.457	2322
276.517	2071
276.576	1798
276.636	1471
276.696	2908
276.756	7476
276.815	6308
276.875	1469
276.935	1795
276.995	2624
277.055	1634
277.114	2179
277.174	2373
277.234	11537
277.293	4664
277.353	2465
277.413	1605
277.472	1674
277.532	1814
277.592	2434
277.651	7510
277.711	13591
277.771	4686
277.830	17493
277.890	15310
277.950	9048
278.009	31088
278.069	12463
278.128	9322
278.188	14342
278.248	6786
278.307	14831
278.367	10054
278.426	3063
278.486	2230
278.545	1970
278.605	1466
278.664	2125
278.724	3243
278.783	6847
278.843	21420
278.902	6186
278.962	3345
279.021	3846
279.081	4293
279.140	4030
279.199	5256
279.259	4827
279.318	3876
279.378	6458
279.437	11327
279.496	38077
279.556	95966
279.615	75266
279.675	18757
279.734	11580
279.793	17650
279.853	33743
279.912	13832
279.971	7306
280.031	6638
280.090	13042
280.149	25388
280.208	13956
280.268	60883
280.327	67035
280.386	14060
280.445	10244
280.505	10117
280.564	4677
280.623	3611
280.682	6015
280.742	10271
280.801	3762
280.860	3037
280.919	2242
280.978	2163
281.037	1851
281.097	1171
281.156	1159
281.215	1781
281.274	2095
281.333	12302
281.392	10499
281.451	2287
281.510	1881
281.569	1544
281.628	1654
281.688	2229
281.747	2130
281.806	1633
281.865	882
281.924	886
281.983	1351
282.042	95
282.101	524
282.160	675
282.219	1516
282.278	1654
282.337	5853
282.396	4412
282.454	1939
282.513	2453
282.572	10097
282.631	6054
282.690	2167
282.749	593
282.808	2216
282.867	2108
282.926	2340
282.985	1781
283.043	1493
283.102	1134
283.161	1438
283.220	4869
283.279	13305
283.338	4872
283.396	925
283.455	1255
283.514	2402
283.573	4101
283.631	3325
283.690	2207
283.749	932
283.808	4353
283.866	5964
283.925	1336
283.984	1829
284.043	2921
284.101	2551
284.160	864
284.219	2910
284.277	2766
284.336	2882
284.395	13891
284.453	13234
284.512	4063
284.570	4994
284.629	4075
284.688	3317
284.746	3741
284.805	4591
284.863	6557
284.922	7729
284.981	9250
285.039	13856
285.098	22705
285.156	51752
285.215	117839
285.273	119013
285.332	66620
285.390	32830
285.449	19158
285.507	11874
285.566	9028
285.624	7517
285.683	6000
285.741	4805
285.799	4688
285.858	3704
285.916	4272
285.975	2771
286.033	2074
286.091	1679
286.150	2025
286.208	1437
286.267	2326
286.325	2780
286.383	3691
286.442	3695
286.500	2226
286.558	757
286.616	1615
286.675	2598
286.733	2220
286.791	1921
286.850	1805
286.908	3324
286.966	5555
287.024	1280
287.083	1746
287.141	1497
287.199	1686
287.257	3656
287.315	2685
287.374	2332
287.432	7073
287.490	5406
287.548	2036
287.606	2024
287.664	2953
287.723	3366
287.781	5067
287.839	3927
287.897	3893
287.955	6933
288.013	10924
288.071	20121
288.129	70596
288.187	187527
288.245	96793
288.303	32096
288.361	17021
288.419	11769
288.477	8213
288.535	5497
288.593	5315
288.651	4017
288.709	3006
288.767	3670
288.825	2095
288.883	1718
288.941	2504
288.999	771
289.057	1670
289.115	775
289.173	1698
289.231	1683
289.289	1564
289.346	2115
289.404	2360
289.462	3064
289.520	4273
289.578	1407
289.636	1291
289.694	925
289.751	1642
289.809	1309
289.867	1065
289.925	2207
289.983	2620
290.040	1138
290.098	871
290.156	1751
290.214	2163
290.271	1159
290.329	687
290.387	1472
290.444	814
290.502	382
290.560	1172
290.617	548
290.675	602
290.733	641
290.790	1075
290.848	1148
290.906	1948
290.963	1947
291.021	1264
291.078	1259
291.136	1407
291.194	6140
291.251	17386
291.309	4880
291.366	1443
291.424	964
291.481	1448
291.539	981
291.596	2165
291.654	880
291.711	82
291.769	1392
291.826	3581
291.884	2549
291.941	859
291.999	964
292.056	686
292.114	717
292.171	1414
292.228	1111
292.286	1809
292.343	2946
292.401	3997
292.458	2371
292.515	1718
292.573	2524
292.630	2470
292.687	2175
292.745	2229
292.802	3095
292.859	9408
292.917	14093
292.974	9466
293.031	2868
293.089	1184
293.146	1792
293.203	1272
293.260	1204
293.318	2776
293.375	4507
293.432	2251
293.489	1974
293.546	1811
293.604	2505
293.661	7573
293.718	23911
293.775	13211
293.832	5514
293.889	3690
293.947	4284
294.004	4062
294.061	3200
294.118	6278
294.175	15095
294.232	23686
294.289	9335
294.346	3748
294.403	4313
294.460	3331
294.517	1901
294.574	1905
294.631	2038
294.688	3138
294.745	6223
294.802	27549
294.859	36645
294.916	14332
294.973	8117
295.030	4077
295.087	3250
295.144	2738
295.201	2824
295.258	2519
295.315	2693
295.372	8873
295.429	19678
295.486	8911
295.542	5630
295.599	14866
295.656	28878
295.713	17195
295.770	19552
295.827	8149
295.883	3974
295.940	3788
295.997	5143
296.054	5308
296.111	2654
296.167	2618
296.224	1601
296.281	1189
296.338	2175
296.394	1502
296.451	2276
296.508	7872
296.564	16542
296.621	10926
296.678	21066
296.734	32139
296.791	13082
296.848	6573
296.904	5512
296.961	12062
297.018	20355
297.074	17528
297.131	7320
297.187	4499
297.244	5871
297.301	17625
297.357	36657
297.414	12694
297.470	5764
297.527	3472
297.583	2702
297.640	2838
297.696	1530
297.753	2180
297.809	1521
297.866	927
297.922	1509
297.979	1742
298.035	1455
298.092	2954
298.148	11284
298.204	11609
298.261	4793
298.317	8777
298.374	26213
298.430	14969
298.486	6014
298.543	4566
298.599	5679
298.656	5850
298.712	8674
298.768	23304
298.824	19501
298.881	6409
298.937	3799
298.993	3629
299.050	3082
299.106	3226
299.162	3082
299.218	2710
299.275	3253
299.331	3626
299.387	5579
299.443	19805
299.500	23720
299.556	9242
299.612	4805
299.668	3733
299.724	3464
299.780	4220
299.837	2669
299.893	5115
299.949	16213
300.005	21738
300.061	15864
300.117	30966
300.173	15784
300.229	5891
300.285	6500
300.341	8456
300.397	4582
300.453	2401
300.510	1610
300.566	3105
300.622	2672
300.678	7353
300.734	16051
300.790	16246
300.845	22237
300.901	11694
300.957	16833
301.013	14328
301.069	4685
301.125	3968
301.181	3226
301.237	3090
301.293	1486
301.349	2152
301.405	2215
301.461	2560
301.516	3197
301.572	3607
301.628	5330
301.684	5336
301.740	6867
301.796	12946
301.851	10122
301.907	14434
301.963	13603
302.019	20353
302.074	60281
302.130	62252
302.186	29712
302.242	11680
302.297	7952
302.353	7292
302.409	12827
302.464	11870
302.520	7813
302.576	20929
302.631	24304
302.687	14783
302.743	6108
302.798	3759
302.854	2715
302.910	3210
302.965	4235
303.021	7379
303.076	7375
303.132	6864
303.187	9348
303.243	4548
303.299	3342
303.354	1980
303.410	2674
303.465	2296
303.521	2407
303.576	3175
303.632	3330
303.687	4563
303.743	18978
303.798	17581
303.853	6597
303.909	4581
303.964	3180
304.020	5096
304.075	7767
304.130	6879
304.186	11583
304.241	13273
304.297	9468
304.352	5300
304.358	5071
304.407	3217
304.449	3780
304.463	3974
304.518	4319
304.539	4279
304.573	4200
304.629	3729
304.630	3771
304.684	5957
304.720	11545
304.739	14277
304.794	22794
304.811	19580
304.850	11979
304.902	5551
304.905	5140
304.960	3720
304.992	4159
305.015	4447
305.071	3764
305.083	3464
305.126	2421
305.173	1490
305.181	1337
305.236	1506
305.264	1949
305.292	2424
305.347	3070
305.354	3056
305.402	2980
305.445	4194
305.457	4526
305.512	5312
305.535	4989
305.567	4580
305.622	4147
305.626	4334
305.678	8568
305.716	17810
305.733	21061
305.788	24606
305.807	20721
305.843	14395
305.897	19726
305.898	19772
305.953	20224
305.988	13394
306.008	9792
306.063	6031
306.078	5468
306.118	4202
306.168	2835
306.173	2719
306.228	2598
306.259	2450
306.283	2382
306.338	2089
306.349	2191
306.393	2480
306.440	3214
306.448	3375
306.503	3945
306.530	3797
306.558	4392
306.613	10114
306.620	10853
306.668	15008
306.711	19223
306.723	19652
306.778	15782
306.801	11880
306.833	7598
306.888	4117
306.892	4010
306.943	3376
306.982	3015
306.997	2885
307.052	3112
307.072	3186
307.107	3594
307.162	4616
307.163	4643
307.217	7379
307.253	8558
307.272	8749
307.327	9461
307.343	8445
307.381	6471
307.434	5296
307.436	5403
307.491	11157
307.524	17381
307.546	19149
307.600	17905
307.614	15804
307.655	10198
307.704	6024
307.710	5854
307.765	6937
307.795	8631
307.819	10082
307.874	17355
307.885	17414
307.929	14864
307.975	11700
307.984	11953
308.038	16751
308.065	20446
308.093	34237
308.148	70863
308.156	79272
308.202	113831
308.246	133490
308.257	131123
308.312	76772
308.336	54317
308.366	39390
308.421	24081
308.426	22820
308.475	14703
308.517	10763
308.530	10017
308.585	8683
308.607	8266
308.639	8070
308.694	8900
308.697	8984
308.748	14489
308.787	21538
308.803	21731
308.857	17029
308.877	14221
308.912	11815
308.967	12178
308.967	12197
309.021	15986
309.058	19668
309.076	25008
309.130	43717
309.148	51764
309.185	91465
309.238	160637
309.239	160898
309.293	164538
309.328	145934
309.348	128180
309.402	65782
309.418	50289
309.457	34121
309.508	20804
309.511	20347
309.566	16421
309.598	15147
309.620	15250
309.674	16768
309.688	17378
309.729	16368
309.778	13726
309.783	13500
309.837	10940
309.868	9845
309.892	11988
309.946	18489
309.959	20561
310.001	25509
310.049	29453
310.055	28572
310.109	17507
310.139	10833
310.163	8400
310.218	5606
310.229	5134
310.272	4440
310.319	3834
310.326	3704
310.381	3002
310.409	2829
310.435	3108
310.489	3408
310.499	3503
310.543	3709
310.589	3902
310.598	3889
310.652	4029
310.679	3935
310.706	3543
310.760	2659
310.769	2526
310.814	2295
310.859	2205
310.868	2176
310.923	2106
310.948	1973
310.977	2174
311.031	2692
311.038	2794
311.085	2636
311.128	2169
311.139	2189
311.193	2458
311.218	2518
311.247	2373
311.301	2393
311.308	2367
311.356	2578
311.398	2753
311.410	2721
311.464	2607
311.488	2560
311.518	2636
311.572	2771
311.578	2783
311.626	3159
311.668	3485
311.680	3683
311.734	4577
311.758	4953
311.788	4485
311.842	3572
311.847	3484
311.896	5168
311.937	6621
311.950	6540
312.004	6168
312.027	5972
312.058	4885
312.112	2973
312.117	2786
312.165	3423
312.207	3976
312.297	5203
312.386	3713
312.476	2991
312.566	6137
312.656	3440
312.745	2247
312.835	3287
312.925	3256
313.015	3050
313.104	2713
313.194	2863
313.284	2252
313.374	3159
313.463	2978
313.553	2260
313.643	1777
313.732	1972
313.822	2515
313.912	3045
314.001	2973
314.091	3464
314.180	5421
314.270	3915
314.360	4637
314.449	3537
314.539	1974
314.628	2073
314.718	3010
314.808	3450
314.897	2588
314.987	2957
315.076	2024
315.166	3935
315.255	3516
315.345	3458
315.434	3409
315.524	4350
315.613	3154
315.703	4332
315.792	5211
315.881	8688
315.971	3885
316.060	6911
316.150	10132
316.239	11458
316.328	3437
316.418	3144
316.507	2461
316.597	3488
316.686	3505
316.775	6404
316.865	10873
316.954	2409
317.043	1822
317.133	1617
317.222	1773
317.311	2840
317.400	1648
317.490	3700
317.579	3166
317.668	2823
317.757	3351
317.847	7308
317.936	14021
318.025	8650
318.114	4658
318.203	4139
318.293	6656
318.382	12762
318.471	8877
318.560	18365
318.649	38143
318.738	6203
318.828	4309
318.917	5080
319.006	6352
319.095	16288
319.184	48654
319.273	19354
319.362	8061
319.451	3631
319.540	3430
319.629	6513
319.718	10163
319.807	5898
319.896	15426
319.985	57581
320.074	13818
320.163	4960
320.252	8042
320.341	7916
320.430	6580
320.519	5989
320.608	2847
320.697	4088
320.786	2582
320.875	4137
320.964	4357
321.053	6995
321.142	10808
321.230	10084
321.319	9681
321.408	19485
321.497	7122
321.586	7174
321.675	10978
321.764	9604
321.852	7181
321.941	11676
322.030	6290
322.119	9438
322.207	19597
322.296	15406
322.385	8088
322.474	8797
322.562	23337
322.651	10814
322.740	8837
322.829	14294
322.917	14645
323.006	7415
323.095	7331
323.183	5083
323.272	8390
323.361	17955
323.449	48078
323.538	15325
323.626	35771
323.715	17470
323.804	8771
323.892	30978
323.981	12590
324.069	5453
324.158	17507
324.246	12652
324.335	4916
324.424	7932
324.512	3443
324.601	4828
324.689	8876
324.778	14147
324.866	11527
324.954	3354
325.043	3295
325.131	7068
325.220	12987
325.308	13524
325.397	10073
325.485	5293
325.574	3016
325.662	2876
325.750	2654
325.839	2847
325.927	2332
326.015	3308
326.104	5337
326.192	6586
326.280	2917
326.369	2727
326.457	4141
326.545	5560
326.634	1672
326.722	1810
326.810	2015
326.898	1604
326.987	3446
327.075	5413
327.163	5131
327.251	3677
327.340	6373
327.428	7424
327.516	1764
327.604	2681
327.692	2873
327.781	2581
327.869	5728
327.957	3744
328.045	2688
328.133	3116
328.221	2701
328.309	1828
328.397	2251
328.485	2545
328.574	3617
328.662	11569
328.750	7329
328.838	3660
328.926	2842
329.014	1710
329.102	5061
329.190	11649
329.278	5272
329.366	2195
329.454	2103
329.542	2668
329.630	1961
329.718	4055
329.806	3521
329.893	5253
329.981	6661
330.069	14010
330.157	56695
330.245	127320
330.333	61425
330.421	12366
330.509	7429
330.597	16056
330.684	9434
330.772	5761
330.860	7359
330.948	10655
331.036	3541
331.123	1987
331.211	3100
331.299	3050
331.387	9926
331.475	14656
331.562	3298
331.650	2266
331.738	2431
331.825	3972
331.913	1256
332.001	2009
332.089	3212
332.176	7353
332.264	16861
332.352	9487
332.439	3415
332.527	2659
332.614	2574
332.702	3490
332.790	2431
332.877	7665
332.965	12920
333.052	3370
333.140	2889
333.228	6277
333.315	1309
333.403	3244
333.490	10034
333.578	5420
333.665	6051
333.753	3444
333.840	1500
333.928	3748
334.015	10490
334.103	19945
334.190	57216
334.278	11237
334.365	4750
334.452	3218
334.540	1535
334.627	3539
334.715	5038
334.802	10899
334.889	62418
334.977	45659
335.064	5874
335.151	1829
335.239	3595
335.326	6643
335.413	33661
335.501	35273
335.588	4723
335.675	3378
335.762	5082
335.850	9015
335.937	5604
336.024	16707
336.111	63070
336.199	18963
336.286	4441
336.373	2712
336.460	1602
336.547	2009
336.635	3064
336.722	2960
336.809	2285
336.896	4073
336.983	18551
337.070	45141
337.157	58896
337.245	40929
337.332	22228
337.419	3800
337.506	2286
337.593	4033
337.680	16797
337.767	43434
337.854	10874
337.941	12131
338.028	11891
338.115	3649
338.202	6106
338.289	12242
338.376	35225
338.463	11076
338.550	28600
338.637	23598
338.724	8226
338.811	9889
338.898	2245
338.984	1912
339.071	2559
339.158	3524
339.245	7337
339.332	4848
339.419	8007
339.506	6321
339.593	113
339.679	1878
339.766	1161
339.853	3186
339.940	4491
340.027	2151
340.113	1965
340.200	2977
340.287	1952
340.374	2660
340.460	3996
340.547	1473
340.634	4348
340.720	14225
340.807	6449
340.894	1636
340.980	1212
341.067	1419
341.154	2467
341.240	3059
341.327	5977
341.414	2624
341.500	2557
341.587	2105
341.674	1876
341.760	4639
341.847	4491
341.933	2124
342.020	675
342.106	1590
342.193	1531
342.279	3003
342.366	3177
342.452	4107
342.539	2628
342.625	6143
342.712	13816
342.798	5424
342.885	1961
342.971	1172
343.058	901
343.144	1343
343.230	1390
343.317	1573
343.403	914
343.490	2266
343.576	1018
343.662	1600
343.749	1688
343.835	3096
343.921	6604
344.008	41405
344.094	74169
344.180	14058
344.267	5991
344.353	22444
344.439	18707
344.525	6706
344.612	4747
344.698	4524
344.784	2198
344.870	1520
344.957	967
345.043	3162
345.129	1438
345.215	4306
345.301	1863
345.387	1618
345.474	1207
345.560	884
345.646	1890
345.732	2482
345.818	1932
345.904	2045
345.990	1793
346.076	2980
346.162	4232
346.249	2611
346.335	1035
346.421	2097
346.507	9405
346.593	27819
346.679	4630
346.765	2381
346.851	1161
346.937	1578
347.023	2702
347.108	2225
347.194	1585
347.280	1504
347.366	1847
347.452	9777
347.538	35106
347.624	25755
347.710	18262
347.796	2933
347.882	635
347.967	1720
348.053	2879
348.139	2074
348.225	1021
348.311	953
348.397	664
348.482	2314
348.568	1765
348.654	1192
348.740	1108
348.825	286
348.911	3607
348.997	20064
349.083	29529
349.168	3888
349.254	2064
349.340	1598
349.425	494
349.511	2396
349.597	1755
349.682	5507
349.768	18598
349.854	7848
349.939	2384
350.025	1403
350.110	1453
350.196	1884
350.282	60
350.367	1631
350.453	2948
350.538	2810
350.624	2682
350.709	2133
350.795	771
350.880	950
350.966	1815
351.051	3161
351.137	1990
351.222	1753
351.308	5760
351.393	15882
351.479	3549
351.564	683
351.649	940
351.735	1411
351.820	1471
351.906	827
351.991	2119
352.076	11424
352.162	12943
352.247	2344
352.332	2210
352.418	3320
352.503	5991
352.588	23433
352.673	14403
352.759	3726
352.844	848
352.929	2262
353.014	1816
353.100	3186
353.185	5807
353.270	5376
353.355	4606
353.441	2081
353.526	1990
353.611	4630
353.696	4164
353.781	3171
353.866	654
353.952	2383
354.037	3742
354.122	9899
354.207	8154
354.292	3841
354.377	1181
354.462	1681
354.547	1919
354.632	2863
354.717	5107
354.802	6469
354.887	1982
354.972	1742
355.057	1121
355.142	568
355.227	1624
355.312	2430
355.397	6414
355.482	14858
355.567	5975
355.652	7563
355.737	7016
355.822	23195
355.907	14385
355.991	3279
356.076	579
356.161	1793
356.246	770
356.331	1907
356.416	6208
356.501	43696
356.585	34790
356.670	4394
356.755	4699
356.840	6675
356.924	35120
357.009	92280
357.094	28204
357.179	5191
357.263	3914
357.348	4164
357.433	3739
357.517	4695
357.602	2200
357.687	2164
357.771	7064
357.856	19213
357.941	10628
358.025	27508
358.110	93067
358.195	35446
358.279	5429
358.364	4256
358.448	15955
358.533	38052
358.617	26545
358.702	27039
358.787	8484
358.871	4887
358.956	3975
359.040	1157
359.125	486
359.209	2196
359.294	9990
359.378	13473
359.462	4408
359.547	2815
359.631	1765
359.716	691
359.800	1614
359.885	4506
359.969	920
360.053	2618
360.138	1657
360.222	2909
360.306	4685
360.391	4041
360.475	10089
360.559	17906
360.644	14632
360.728	9234
360.812	25604
360.896	57529
360.981	21773
361.065	10781
361.149	3229
361.233	2433
361.318	1340
361.402	2205
361.486	2242
361.570	1539
361.654	2219
361.739	7673
361.823	40535
361.907	54276
361.991	8021
362.075	5041
362.159	7945
362.243	7148
362.327	4766
362.411	6629
362.495	3419
362.580	1893
362.664	1756
362.748	519
362.832	2197
362.916	3051
363.000	13274
363.084	43474
363.168	61929
363.252	12414
363.336	5607
363.420	9737
363.503	43944
363.587	43291
363.671	5930
363.755	2889
363.839	5604
363.923	1768
364.007	5513
364.091	6931
364.175	16903
364.258	67082
364.342	30863
364.426	19891
364.510	8671
364.594	9096
364.677	14848
364.761	52451
364.845	31477
364.929	9407
365.013	6556
365.096	6026
365.180	6369
365.264	21830
365.347	66850
365.431	24832
365.515	5281
365.598	1273
365.682	2759
365.766	6706
365.849	7530
365.933	2949
366.017	5029
366.100	3501
366.184	1156
366.267	2348
366.351	1299
366.435	699
366.518	337
366.602	1394
366.685	1337
366.769	1925
366.852	5135
366.936	7111
367.019	2810
367.103	4122
367.186	9778
367.270	1261
367.353	245
367.436	1889
367.520	389
367.603	1859
367.687	1871
367.770	4964
367.853	4603
367.937	16029
368.020	21391
368.104	3721
368.187	4806
368.270	6383
368.353	5271
368.437	9939
368.520	22614
368.603	11984
368.687	17249
368.770	28236
368.853	5933
368.936	7663
369.020	8539
369.103	2243
369.186	879
369.269	1485
369.352	4236
369.436	5248
369.519	3202
369.602	-117
369.685	2720
369.768	1216
369.851	1849
369.934	122
370.018	1283
370.101	4000
370.184	5196
370.267	4595
370.350	6017
370.433	9919
370.516	27340
370.599	27164
370.682	5443
370.765	15568
370.848	20829
370.931	38034
371.014	13992
371.097	2352
371.180	3089
371.263	1207
371.346	-83
371.429	2351
371.511	1054
371.594	3690
371.677	7452
371.760	9340
371.843	6935
371.926	39125
372.009	73070
372.091	21090
372.174	16099
372.257	38009
372.340	12021
372.423	11505
372.505	15310
372.588	5938
372.671	12983
372.754	35711
372.836	16986
372.919	22593
373.002	36469
373.085	8335
373.167	6307
373.250	16760
373.332	36127
373.415	57255
373.498	99291
373.580	34184
373.663	50537
373.746	56933
373.828	11366
373.911	5833
373.993	9460
374.076	39455
374.159	31979
374.241	12458
374.324	30993
374.406	20391
374.489	35576
374.571	81185
374.654	29130
374.736	18246
374.819	52728
374.901	78129
374.983	70012
375.066	11549
375.148	6384
375.231	33680
375.313	56455
375.395	17701
375.478	3186
375.560	3538
375.643	4674
375.725	19028
375.807	67273
375.890	49313
375.972	18198
376.054	12162
376.136	18140
376.219	7420
376.301	22876
376.383	51836
376.465	17617
376.548	9370
376.630	16457
376.712	44479
376.794	17842
376.877	2515
376.959	429
377.041	2958
377.123	7984
377.205	8419
377.287	474
377.369	1699
377.452	611
377.534	1738
377.616	1383
377.698	827
377.780	-34
377.862	829
377.944	2671
378.026	-308
378.108	1044
378.190	1266
378.272	1141
378.354	754
378.436	541
378.518	3624
378.600	13406
378.682	11554
378.764	20816
378.846	15510
378.928	4801
379.010	5262
379.091	3640
379.173	1291
379.255	236
379.337	1752
379.419	11554
379.501	29216
379.583	10808
379.664	2594
379.746	6266
379.828	21460
379.910	27701
379.991	22095
380.073	3439
380.155	1988
380.237	821
380.318	1275
380.400	468
380.482	4547
380.564	6334
380.645	6750
380.727	6059
380.809	3622
380.890	2026
380.972	1130
381.053	1102
381.135	1910
381.217	7189
381.298	21246
381.380	9010
381.461	10138
381.543	47338
381.624	50768
381.706	8765
381.787	4699
381.869	5635
381.951	25571
382.032	76866
382.113	43552
382.195	7450
382.276	8126
382.358	17473
382.439	40662
382.521	49710
382.602	69194
382.684	31324
382.765	53079
382.846	45062
382.928	43316
383.009	21625
383.090	20124
383.172	70848
383.253	92703
383.334	41904
383.416	59760
383.497	28277
383.578	9873
383.659	19835
383.741	70486
383.822	151181
383.903	70741
383.984	39139
384.066	71246
384.147	39183
384.228	7030
384.309	4998
384.390	3583
384.471	2258
384.553	3275
384.634	4360
384.715	5568
384.796	2386
384.877	4512
384.958	19630
385.039	19992
385.120	6262
385.201	4308
385.282	4544
385.363	5515
385.444	3831
385.525	10465
385.606	32376
385.687	25596
385.768	6657
385.849	9023
385.930	41134
386.011	61497
386.092	14090
386.173	3372
386.254	3006
386.335	4371
386.416	2917
386.496	13278
386.577	20433
386.658	7896
386.739	4114
386.820	5886
386.901	3734
386.981	3910
387.062	2388
387.143	4801
387.224	20319
387.304	18635
387.385	6447
387.466	3451
387.547	5090
387.627	3551
387.708	9756
387.789	40224
387.869	43357
387.950	11102
388.031	2051
388.111	2237
388.192	11301
388.273	15156
388.353	7068
388.434	3297
388.514	9372
388.595	40629
388.676	44268
388.756	19244
388.837	17080
388.917	10213
388.998	817
389.078	2473
389.159	1630
389.239	194
389.320	3879
389.400	1548
389.480	9645
389.561	22154
389.641	9966
389.722	4042
389.802	4869
389.883	11622
389.963	28981
390.043	16957
390.124	5403
390.204	8140
390.284	21982
390.365	13933
390.445	30161
390.525	67174
390.605	49187
390.686	12227
390.766	4739
390.846	3071
390.927	655
391.007	1277
391.087	3324
391.167	2414
391.247	533
391.328	4767
391.408	6994
391.488	5427
391.568	577
391.648	2236
391.728	3889
391.808	3842
391.888	3419
391.969	12935
392.049	18335
392.129	9878
392.209	11229
392.289	25842
392.369	14798
392.449	15730
392.529	7447
392.609	5144
392.689	8332
392.769	24996
392.849	18959
392.929	19137
393.009	38790
393.089	23101
393.169	16868
393.248	66948
393.328	257162
393.408	240664
393.488	47508
393.568	11831
393.648	6491
393.728	4432
393.807	2299
393.887	3663
393.967	4422
394.047	5595
394.127	6536
394.206	15527
394.286	68157
394.366	234518
394.446	220314
394.525	52723
394.605	14267
394.685	11905
394.764	25216
394.844	40452
394.924	25327
395.003	6734
395.083	4123
395.163	3632
395.242	3390
395.322	4131
395.402	2077
395.481	6540
395.561	17674
395.640	42366
395.720	30890
395.799	51640
395.879	39297
395.958	25137
396.038	99704
396.117	304526
396.197	294839
396.276	94738
396.356	30465
396.435	20999
396.515	12357
396.594	10697
396.673	17218
396.753	80974
396.832	230705
396.912	148603
396.991	29406
397.070	8372
397.150	3041
397.229	3806
397.308	4053
397.388	6501
397.467	3382
397.546	2656
397.625	61
397.705	3353
397.784	2694
397.863	1561
397.942	1076
398.022	2396
398.101	16605
398.180	43044
398.259	20347
398.338	4840
398.417	2299
398.497	1313
398.576	1724
398.655	539
398.734	2050
398.813	1943
398.892	16244
398.971	47146
399.050	20053
399.129	1578
399.208	1304
399.287	1597
399.366	68
399.445	2095
399.524	1288
399.603	-154
399.682	3207
399.761	14446
399.840	50790
399.919	36028
399.998	4385
400.077	137
400.156	-541
400.235	2780
400.313	960
400.392	1576
400.471	10955
400.550	16023
400.629	2393
400.708	2824
400.786	2360
400.865	10588
400.944	8940
401.023	4494
401.102	-732
401.180	527
401.259	975
401.338	850
401.416	2218
401.495	1824
401.574	1762
401.652	1221
401.731	3263
401.810	1735
401.888	429
401.967	-235
402.046	525
402.124	2605
402.203	1739
402.281	1697
402.360	2987
402.438	12865
402.517	6967
402.596	2749
402.674	1768
402.753	854
402.831	1088
402.910	2327
402.988	14409
403.066	42372
403.145	22305
403.223	16137
403.302	35728
403.380	28303
403.459	25911
403.537	9235
403.615	2706
403.694	468
403.772	1204
403.850	744
403.929	-378
404.007	568
404.085	4312
404.164	4730
404.242	2004
404.320	9510
404.398	26571
404.477	30629
404.555	62485
404.633	49369
404.711	19311
404.789	10660
404.868	2922
404.946	780
405.024	360
405.102	442
405.180	-652
405.258	-1211
405.336	651
405.415	79
405.493	4019
405.571	3492
405.649	88
405.727	-374
405.805	2652
405.883	1666
405.961	1966
406.039	1822
406.117	309
406.195	2883
406.273	14615
406.351	46234
406.429	25814
406.507	4613
406.585	1237
406.663	1819
406.740	746
406.818	-316
406.896	726
406.974	1845
407.052	3651
407.130	28847
407.208	34732
407.285	6715
407.363	-287
407.441	721
407.519	62
407.596	1656
407.674	4616
407.752	15750
407.830	16403
407.907	7509
407.985	1193
408.063	579
408.141	137
408.218	3264
408.296	2185
408.373	1435
408.451	1141
408.529	353
408.606	-553
408.684	-185
408.762	251
408.839	-687
408.917	-513
408.994	-180
409.072	-960
409.149	-857
409.227	997
409.304	771
409.382	335
409.459	-224
409.537	1079
409.614	1545
409.692	435
409.769	-72
409.846	646
409.924	2535
410.001	-278
410.079	1380
410.156	963
410.233	1148
410.311	612
410.388	596
410.465	568
410.543	740
410.620	568
410.697	901
410.775	1129
410.852	-1528
410.929	947
411.006	1421
411.083	334
411.161	1767
411.238	3778
411.315	1984
411.392	201
411.469	1533
411.547	989
411.624	-656
411.701	-520
411.778	498
411.855	1438
411.932	1022
412.009	-218
412.086	827
412.163	1560
412.240	1178
412.317	2452
412.394	817
412.471	443
412.548	-16
412.625	-60
412.702	868
412.779	1878
412.856	1786
412.933	563
413.010	416
413.087	1374
413.164	8935
413.241	12321
413.318	1835
413.395	1903
413.471	2419
413.548	406
413.625	968
413.702	-224
413.779	629
413.855	-132
413.932	-868
414.009	-1115
414.086	-441
414.162	-369
414.239	1888
414.316	10641
414.393	20011
414.469	5116
414.546	212
414.623	-825
414.699	738
414.776	-238
414.853	-468
414.929	831
415.006	-237
415.082	1194
415.159	1406
415.236	-61
415.312	343
415.389	1803
415.465	917
415.542	-52
415.618	-964
415.695	1688
415.771	263
415.848	491
415.924	569
416.000	-238
416.077	-260
416.153	-1880
416.230	-851
416.306	-490
416.383	-960
416.459	-76
416.535	159
416.612	-973
416.688	-105
416.764	-986
416.841	-741
416.917	-810
416.993	251
417.069	27
417.146	1246
417.222	1603
417.298	405
417.374	-389
417.451	711
417.527	-283
417.603	205
417.679	-313
417.755	-47
417.831	-527
417.908	-187
417.984	-898
418.060	-798
418.136	1137
418.212	1779
418.288	527
418.364	583
418.440	-769
418.516	1762
418.592	3031
418.668	3771
418.744	4086
418.820	3614
418.896	40
418.972	-792
419.048	-179
419.124	2102
419.200	-280
419.276	-510
419.352	-1188
419.428	-278
419.504	-80
419.579	-412
419.655	-507
419.731	91
419.807	3740
419.883	5455
419.959	3195
420.034	522
420.110	2728
420.186	11797
420.262	8582
420.337	704
420.413	244
420.489	-463
420.565	-229
420.640	-986
420.716	245
420.792	-910
420.867	748
420.943	-307
421.019	342
421.094	194
421.170	-322
421.245	182
421.321	245
421.397	-25
421.472	2940
421.548	6600
421.623	3586
421.699	720
421.774	449
421.850	74
421.925	1406
422.001	726
422.076	825
422.152	1469
422.227	2373
422.302	3334
422.378	4434
422.453	11377
422.529	33474
422.604	118366
422.679	204040
422.755	107166
422.830	27363
422.905	9882
422.981	4403
423.056	3317
423.131	2036
423.207	1869
423.282	1115
423.357	2972
423.432	1479
423.508	3002
423.583	4694
423.658	3145
423.733	941
423.808	1175
423.883	1337
423.959	1169
424.034	-1031
424.109	702
424.184	-1180
424.259	-972
424.334	-143
424.409	-1088
424.484	-367
424.559	30
424.634	-155
424.709	72
424.784	838
424.859	982
424.934	622
425.009	8374
425.084	13066
425.159	3623
425.234	248
425.309	346
425.384	3769
425.459	5993
425.534	1548
425.609	-142
425.683	-464
425.758	-423
425.833	-91
425.908	1435
425.983	4019
426.058	13704
426.132	5125
426.207	959
426.282	3021
426.357	1821
426.431	-636
426.506	487
426.581	-288
426.655	-236
426.730	-222
426.805	-495
426.879	224
426.954	870
427.029	2576
427.103	16955
427.178	36970
427.253	15099
427.327	1473
427.402	3123
427.476	9569
427.551	3193
427.625	560
427.700	975
427.774	-510
427.849	808
427.923	-821
427.998	-866
428.072	-123
428.147	2620
428.221	11579
428.296	27168
428.370	12383
428.444	1593
428.519	3694
428.593	9326
428.667	7207
428.742	8617
428.816	8280
428.890	22783
428.965	29758
429.039	12493
429.113	9200
429.188	2664
429.262	-241
429.336	2306
429.410	5617
429.485	4928
429.559	7616
429.633	5066
429.707	1147
429.781	5821
429.855	27685
429.930	34491
430.004	25693
430.078	44718
430.152	35642
430.226	44841
430.300	39912
430.374	5133
430.448	2884
430.522	16432
430.596	41605
430.670	23387
430.744	37859
430.818	49746
430.892	8888
430.966	598
431.040	951
431.114	-1183
431.188	-700
431.262	-621
431.336	-505
431.410	4371
431.484	9579
431.557	4800
431.631	140
431.705	715
431.779	4369
431.853	22290
431.927	13830
432.000	953
432.074	-315
432.148	554
432.222	626
432.295	123
432.369	75
432.443	1541
432.516	18349
432.590	38509
432.664	12315
432.737	469
432.811	-1378
432.885	-758
432.958	-982
433.032	-897
433.106	-1052
433.179	-1155
433.253	-1149
433.326	-410
433.400	-1581
433.473	-38
433.547	-849
433.620	-592
433.694	35
433.767	130
433.841	-759
433.914	-634
433.988	65
434.061	-9
434.134	-716
434.208	-856
434.281	-1462
434.355	-782
434.428	-113
434.501	-1031
434.575	-1297
434.648	-517
434.721	-978
434.795	-901
434.868	-1920
434.941	-1540
435.014	-804
435.088	-1007
435.161	-723
435.234	-409
435.307	35
435.381	243
435.454	-981
435.527	-187
435.600	-609
435.673	308
435.746	-1236
435.819	-487
435.892	-119
435.966	-650
436.039	-267
436.112	-121
436.185	-1127
436.258	-700
436.331	-1777
436.404	-1406
436.477	-1087
436.550	-794
436.623	-561
436.696	-1081
436.769	-547
436.842	-585
436.915	-440
436.987	386
437.060	-1026
437.133	-440
437.206	-2244
437.279	-221
437.352	-1309
437.425	-912
437.498	-307
437.570	1288
437.643	86
437.716	-516
437.789	-791
437.861	659
437.934	3116
438.007	1337
438.080	-885
438.152	-121
438.225	3067
438.298	25558
438.370	56897
438.443	20994
438.516	3339
438.588	-315
438.661	-807
438.734	-18
438.806	-40
438.879	-59
438.951	151
439.024	1316
439.096	-1030
439.169	-449
439.241	-1684
439.314	-865
439.386	13
439.459	1147
439.531	2726
439.604	-622
439.676	-530
439.749	-979
439.821	-1046
439.893	-235
439.966	38
440.038	117
440.110	705
440.183	-782
440.255	-597
440.327	1345
440.400	10461
440.472	34900
440.544	18897
440.617	1696
440.689	1511
440.761	2590
440.833	2358
440.905	2121
440.978	-238
441.050	-267
441.122	-101
441.194	-1929
441.266	-909
441.338	-477
441.411	590
441.483	10479
441.555	12107
441.627	2353
441.699	1714
441.771	1180
441.843	-718
441.915	-516
441.987	-855
442.059	-1817
442.131	-222
442.203	959
442.275	1629
442.347	823
442.419	1064
442.491	8962
442.563	19610
442.635	9961
442.706	10004
442.778	5675
442.850	-344
442.922	-440
442.994	471
443.066	1032
443.137	-254
443.209	-153
443.281	-255
443.353	2981
443.425	14655
443.496	43358
443.568	35369
443.640	11453
443.711	1720
443.783	132
443.855	-312
443.926	-421
443.998	-9
444.070	1273
444.141	191
444.213	543
444.285	960
444.356	1171
444.428	831
444.499	-936
444.571	-692
444.642	-1010
444.714	-674
444.785	408
444.857	2361
444.928	7773
445.000	3660
445.071	4251
445.143	5070
445.214	2440
445.285	4840
445.357	15749
445.428	38297
445.500	74865
445.571	43325
445.642	19325
445.714	10462
445.785	12420
445.856	3219
445.928	1638
445.999	1340
446.070	14
446.141	1177
446.213	1241
446.284	422
446.355	736
446.426	289
446.497	-43
446.569	2108
446.640	2414
446.711	-33
446.782	-330
446.853	655
446.924	1173
446.995	-127
447.066	419
447.138	2206
447.209	354
447.280	-389
447.351	-707
447.422	-602
447.493	314
447.564	548
447.635	301
447.706	-565
447.777	-159
447.847	-362
447.918	-479
447.989	438
448.060	917
448.131	4772
448.202	3669
448.273	1066
448.344	400
448.414	-147
448.485	-290
448.556	-297
448.627	-824
448.698	455
448.768	-665
448.839	426
448.910	1697
448.981	2544
449.051	331
449.122	-347
449.193	-493
449.263	-1469
449.334	-259
449.405	783
449.475	1688
449.546	835
449.616	2143
449.687	1433
449.758	643
449.828	-113
449.899	300
449.969	-80
450.040	-60
450.110	-145
450.181	621
450.251	-415
450.322	346
450.392	918
450.463	-34
450.533	-491
450.604	-363
450.674	-832
450.744	-11
450.815	-360
450.885	-122
450.955	-548
451.026	-857
451.096	-350
451.166	82
451.237	3129
451.307	7896
451.377	2652
451.447	-445
451.518	-311
451.588	-541
451.658	-175
451.728	1975
451.799	9733
451.869	9577
451.939	753
452.009	99
452.079	-1141
452.149	1283
452.219	1802
452.289	11352
452.360	6733
452.430	966
452.500	-47
452.570	-377
452.640	1120
452.710	6212
452.780	9060
452.850	4812
452.920	2540
452.990	1416
453.060	115
453.129	747
453.199	1874
453.269	15390
453.339	27657
453.409	39976
453.479	43098
453.549	61996
453.619	62382
453.688	22298
453.758	2861
453.828	-287
453.898	448
453.968	-494
454.037	75
454.087	-226
454.107	-362
454.168	-988
454.177	-1099
454.247	-421
454.249	-386
454.316	-42
454.330	237
454.386	1058
454.411	2528
454.456	4741
454.492	6586
454.525	8258
454.574	3393
454.595	1292
454.655	743
454.665	678
454.734	649
454.736	778
454.804	3518
454.817	4918
454.873	9800
454.898	10127
454.943	10704
454.979	6481
455.013	2837
455.060	2064
455.082	1908
455.141	2341
455.152	2359
455.221	9381
455.222	9573
455.291	15916
455.303	16002
455.360	15636
455.384	19435
455.430	23832
455.465	17530
455.499	12238
455.546	10961
455.569	10226
455.627	6117
455.638	5488
455.707	714
455.708	728
455.777	433
455.789	417
455.846	186
455.869	147
455.916	144
455.950	506
455.985	732
456.031	673
456.054	635
456.112	599
456.124	608
456.193	472
456.193	456
456.262	1018
456.274	1208
456.332	1813
456.355	1547
456.401	873
456.436	800
456.470	606
456.516	-317
456.540	-621
456.597	-55
456.609	29
456.678	329
456.678	317
456.747	-31
456.759	-27
456.817	62
456.840	4
456.886	-277
456.920	-208
456.955	35
457.001	659
457.024	977
457.082	711
457.093	636
457.162	1524
457.163	1547
457.232	1935
457.243	1886
457.301	1618
457.324	997
457.370	-43
457.405	109
457.439	251
457.485	66
457.508	0
457.566	669
457.577	756
457.646	868
457.647	883
457.715	2421
457.727	2468
457.784	2267
457.808	2883
457.853	3797
457.889	4226
457.922	4236
457.969	3538
457.991	3661
458.050	3955
458.060	3934
458.129	5914
458.130	5978
458.198	5736
458.211	5139
458.267	2734
458.292	2024
458.336	1705
458.372	2022
458.405	2798
458.453	3577
458.474	4218
458.533	6638
458.543	6722
458.611	9841
458.614	9888
458.680	6174
458.694	4905
458.749	2405
458.775	2118
458.818	1875
458.855	1502
458.887	1237
458.936	648
458.955	481
459.016	780
459.024	807
459.093	1480
459.097	1491
459.162	1740
459.177	1807
459.230	1975
459.257	2182
459.299	2487
459.338	2770
459.368	2751
459.418	2266
459.437	2007
459.499	2050
459.505	2104
459.574	1950
459.579	1932
459.643	1449
459.659	1277
459.711	1169
459.740	1624
459.780	2075
459.820	2066
459.849	2068
459.900	2545
459.917	2728
459.981	2969
459.986	2901
460.054	2008
460.061	1944
460.123	2522
460.141	2799
460.191	3043
460.222	2805
460.260	2989
460.302	3887
460.328	3659
460.382	2392
460.397	2405
460.462	2987
460.465	3157
460.534	7162
460.543	7698
460.602	17438
460.623	21231
460.671	32283
460.703	42662
460.739	35536
460.783	21754
460.808	18263
460.864	4862
460.876	3652
460.944	2751
460.945	2731
461.013	2560
461.024	2554
461.081	2901
461.104	3023
461.150	2711
461.184	2306
461.218	2367
461.264	2552
461.286	2421
461.345	2066
461.355	2094
461.423	3029
461.425	3019
461.491	2971
461.505	3292
461.559	7946
461.585	9596
461.628	13373
461.665	18094
461.696	18981
461.745	20954
461.764	18342
461.825	5409
461.832	5201
461.901	3780
461.905	3805
461.969	2805
461.985	2538
462.037	3404
462.065	3863
462.105	3925
462.145	4247
462.173	6102
462.225	9538
462.241	10490
462.305	14920
462.310	14452
462.378	7058
462.385	5930
462.446	3749
462.465	3549
462.514	3254
462.545	3064
462.582	3127
462.625	3440
462.650	3473
462.705	3152
462.718	3263
462.785	4230
462.786	4269
462.854	6279
462.865	6622
462.922	6976
462.945	7222
462.990	5645
463.025	3979
463.058	3469
463.104	2652
463.126	2535
463.184	2968
463.194	3077
463.262	3319
463.264	3331
463.330	3949
463.344	4087
463.398	4146
463.424	4125
463.466	4097
463.504	4095
463.533	3910
463.583	3562
463.601	3844
463.663	4695
463.669	4851
463.737	6782
463.743	6982
463.805	12105
463.823	13493
463.873	18907
463.903	22454
463.940	21949
463.982	21673
464.008	17551
464.062	7307
464.076	6831
464.142	4128
464.144	4091
464.211	3403
464.221	3366
464.279	3986
464.301	4164
464.347	4686
464.381	5044
464.414	5853
464.461	7051
464.482	7119
464.540	7406
464.550	7208
464.617	5312
464.620	5239
464.685	6029
464.699	6252
464.753	7881
464.779	8749
464.820	9428
464.859	9862
464.888	9475
464.938	8820
464.956	9151
465.018	10242
465.023	10116
465.091	8344
465.098	8136
465.158	7363
465.177	7147
465.226	7762
465.257	8028
465.293	7716
465.336	7500
465.361	8140
465.416	9472
465.428	10519
465.495	16173
465.496	16252
465.563	24441
465.575	25873
465.631	28436
465.654	29662
465.698	19326
465.734	10019
465.765	9208
465.813	8043
465.833	8298
465.893	9544
465.900	9415
465.968	7993
465.972	7882
466.035	8443
466.052	8599
466.102	9248
466.131	9594
466.170	9825
466.210	9952
466.237	10511
466.290	11703
466.304	11874
466.369	12397
466.372	12403
466.439	12018
466.449	11933
466.506	13737
466.528	14408
466.573	19962
466.607	24064
466.641	30564
466.687	39560
466.708	41683
466.766	47500
466.775	44187
466.842	18464
466.845	17209
466.909	14917
466.925	14393
466.977	14475
467.004	14527
467.044	15132
467.083	15701
467.111	16192
467.163	17009
467.178	17151
467.242	17608
467.245	17564
467.312	16007
467.321	15774
467.379	15281
467.400	15058
467.446	16218
467.480	17006
467.559	14753
467.638	13555
467.717	12564
467.796	13012
467.875	13276
467.955	12860
468.034	23051
468.113	43386
468.192	54863
468.271	13770
468.350	11091
468.429	12223
468.508	10827
468.588	10444
468.667	10199
468.746	11299
468.825	10742
468.904	9132
468.983	11338
469.062	17000
469.141	19380
469.220	9727
469.299	9336
469.378	10951
469.456	12877
469.535	10715
469.614	10030
469.693	12492
469.772	14270
469.851	19236
469.930	11298
470.009	10091
470.088	9210
470.166	10176
470.245	11334
470.324	12439
470.403	10321
470.482	9046
470.560	9365
470.639	10207
470.718	11084
470.797	10120
470.875	12295
470.954	15259
471.033	14683
471.111	7739
471.190	6953
471.269	7433
471.347	7576
471.426	8291
471.505	10322
471.583	10214
471.662	9903
471.740	9075
471.819	8893
471.898	8072
471.976	7960
472.055	8873
472.133	9470
472.212	12946
472.290	11811
472.369	9034
472.447	7661
472.526	7611
472.604	7869
472.683	9715
472.761	8434
472.839	8438
472.918	7383
472.996	8794
473.075	9602
473.153	9016
473.231	6922
473.310	9142
473.388	8295
473.466	8809
473.545	8924
473.623	11745
473.701	9542
473.780	8074
473.858	7931
473.936	10068
474.014	7813
474.093	9878
474.171	13336
474.249	18122
474.327	9942
474.405	7722
474.484	8250
474.562	6873
474.640	7367
474.718	9418
474.796	9075
474.874	9093
474.952	7243
475.030	8926
475.108	9294
475.187	12483
475.265	13413
475.343	16494
475.421	18190
475.499	8894
475.577	8667
475.655	13044
475.733	22618
475.811	36629
475.889	31461
475.966	17725
476.044	9803
476.122	12276
476.200	14555
476.278	9781
476.356	7464
476.434	9608
476.512	11481
476.590	14708
476.667	10328
476.745	6315
476.823	7752
476.901	8412
476.979	7596
477.056	8484
477.134	7372
477.212	8399
477.290	6854
477.367	7308
477.445	6301
477.523	6612
477.601	6208
477.678	7455
477.756	9355
477.834	9283
477.911	6137
477.989	7324
478.066	6941
478.144	8809
478.222	10889
478.299	19394
478.377	13917
478.454	7566
478.532	6939
478.609	6200
478.687	7530
478.764	6152
478.842	6617
478.919	7407
478.997	6075
479.074	6646
479.152	7943
479.229	10186
479.307	4769
479.384	5862
479.461	4956
479.539	6999
479.616	6983
479.694	6263
479.771	7451
479.848	8436
479.926	9866
480.003	10089
480.080	6715
480.157	5575
480.235	5210
480.312	5531
480.389	7341
480.467	12451
480.544	13426
480.621	7433
480.698	6154
480.775	8175
480.853	8069
480.930	5765
481.007	6654
481.084	8307
481.161	8689
481.238	7222
481.315	5126
481.392	5973
481.470	6713
481.547	7533
481.624	6170
481.701	5500
481.778	5782
481.855	7377
481.932	13050
482.009	20876
482.086	10071
482.163	7005
482.240	13426
482.317	23944
482.393	12974
482.470	6431
482.547	5307
482.624	6237
482.701	6466
482.778	5586
482.855	5863
482.932	6122
483.009	5030
483.085	6884
483.162	6606
483.239	6541
483.316	4270
483.393	6035
483.469	4820
483.546	8167
483.623	7189
483.699	5316
483.776	5767
483.853	7963
483.930	13759
484.006	34317
484.083	52438
484.160	27229
484.236	40542
484.313	28945
484.389	21434
484.466	21079
484.543	18159
484.619	19556
484.696	21003
484.772	21047
484.849	21047
484.925	18427
485.002	17731
485.078	19037
485.155	17726
485.231	17179
485.308	16409
485.384	19128
485.461	24317
485.537	34814
485.614	34922
485.690	17460
485.766	15450
485.843	17048
485.919	20376
485.995	19353
486.072	15092
486.148	15195
486.224	14987
486.301	16426
486.377	17251
486.453	17594
486.530	17346
486.606	25370
486.682	26723
486.758	30338
486.835	33402
486.911	28714
486.987	41723
487.063	35848
487.139	38635
487.215	28077
487.292	18157
487.368	16845
487.444	18273
487.520	21078
487.596	18309
487.672	24173
487.748	39217
487.824	47323
487.900	22693
487.976	17368
488.052	16657
488.128	20749
488.204	16197
488.280	15373
488.356	21820
488.432	41648
488.508	54077
488.584	17235
488.660	13738
488.736	13724
488.812	15174
488.888	19276
488.964	23782
489.039	40028
489.115	51123
489.191	28251
489.267	15775
489.343	14464
489.418	12718
489.494	13126
489.570	10157
489.646	14233
489.722	12555
489.797	13678
489.873	24012
489.949	45182
490.024	29542
490.100	12395
490.176	11813
490.251	13423
490.327	16529
490.403	10273
490.478	11358
490.554	10388
490.629	10823
490.705	9846
490.781	11596
490.856	11007
490.932	12706
491.007	11513
491.083	11744
491.158	10827
491.234	17488
491.309	34507
491.385	27812
491.460	10597
491.536	12816
491.611	10611
491.686	11299
491.762	15583
491.837	25538
491.913	40451
491.988	55775
492.063	56128
492.139	22380
492.214	14147
492.289	8333
492.365	8638
492.440	10985
492.515	11854
492.590	11041
492.666	8395
492.741	13898
492.816	17859
492.891	9210
492.967	8265
493.042	8022
493.117	9375
493.192	11002
493.267	26037
493.342	72443
493.418	78541
493.493	11424
493.568	8218
493.643	8329
493.718	10966
493.793	14836
493.868	14188
493.943	8324
494.018	8040
494.093	7919
494.168	8079
494.243	6562
494.318	7144
494.393	6439
494.468	6508
494.543	6844
494.618	8125
494.693	5836
494.768	7639
494.842	7574
494.917	6967
494.992	7297
495.067	7457
495.142	6690
495.217	7577
495.292	6451
495.366	9660
495.441	9613
495.516	14097
495.591	18669
495.665	55046
495.740	102490
495.815	32609
495.890	11053
495.964	7863
496.039	12607
496.114	10390
496.188	11051
496.263	11296
496.338	9939
496.412	12245
496.487	14120
496.561	13015
496.636	13437
496.710	12259
496.785	13674
496.860	16380
496.934	12393
497.009	13464
497.083	13239
497.158	15664
497.232	17476
497.307	20785
497.381	19396
497.455	25034
497.530	29588
497.604	24415
497.679	27967
497.753	39803
497.827	45923
497.902	46523
497.976	54992
498.050	127814
498.125	350077
498.199	260422
498.273	59359
498.348	54107
498.422	46726
498.496	42127
498.570	37039
498.645	32646
498.719	28404
498.793	30887
498.867	37711
498.941	53744
499.016	160383
499.090	324524
499.164	74742
499.238	18179
499.312	15464
499.386	17687
499.460	15365
499.534	14882
499.609	18862
499.683	25819
499.757	25045
499.831	74914
499.905	236358
499.979	155838
500.053	26937
500.127	25166
500.201	15121
500.275	12644
500.349	12310
500.422	14422
500.496	20998
500.570	44916
500.644	133299
500.718	200863
500.792	30109
500.866	13668
500.940	16919
501.013	14059
501.087	13785
501.161	21174
501.235	28616
501.309	83952
501.382	205084
501.456	126458
501.530	36224
501.603	57469
501.677	17864
501.751	8598
501.825	13184
501.898	32499
501.972	76109
502.046	33979
502.119	13325
502.193	39370
502.266	78518
502.340	30593
502.413	39922
502.487	64849
502.561	31209
502.634	10794
502.708	8988
502.781	6879
502.855	6942
502.928	5639
503.002	6813
503.075	6816
503.149	6659
503.222	7355
503.295	7731
503.369	9898
503.442	17664
503.516	67153
503.589	136484
503.662	70633
503.736	27737
503.809	63687
503.882	46558
503.956	79572
504.029	52661
504.102	24459
504.175	23853
504.249	10244
504.322	10576
504.395	8824
504.468	6311
504.542	6193
504.615	4389
504.688	6172
504.761	3667
504.834	7474
504.907	8260
504.980	11739
505.053	6540
505.127	7182
505.200	10893
505.273	11045
505.346	6915
505.419	3813
505.492	5556
505.565	4019
505.638	4955
505.711	4413
505.784	3500
505.857	4433
505.930	5864
506.003	4317
506.076	6866
506.149	8141
506.221	8580
506.294	12197
506.367	38219
506.440	103195
506.513	36145
506.586	10674
506.659	5245
506.731	4848
506.804	5749
506.877	8207
506.950	5596
507.022	5420
507.095	7026
507.168	7786
507.241	5633
507.313	4631
507.386	3866
507.459	6814
507.531	4300
507.604	4219
507.677	4542
507.749	2345
507.822	7670
507.894	13667
507.967	15687
508.040	8685
508.112	8593
508.185	7667
508.257	6891
508.330	10495
508.402	6366
508.475	7904
508.547	7647
508.620	9039
508.692	12698
508.765	7326
508.837	5492
508.909	6211
508.982	5423
509.054	7851
509.127	5016
509.199	6337
509.271	4821
509.344	4797
509.416	5606
509.488	6229
509.560	5933
509.633	6011
509.705	7337
509.777	7766
509.849	9227
509.922	6716
509.994	4954
510.066	7391
510.138	7987
510.210	17295
510.283	13037
510.355	10865
510.427	9730
510.499	8935
510.571	8172
510.643	8575
510.715	12716
510.787	7662
510.859	8893
510.931	10519
511.003	11260
511.076	10464
511.148	7259
511.219	8845
511.291	14071
511.363	14045
511.435	7657
511.507	6635
511.579	6687
511.651	7950
511.723	6594
511.795	6309
511.867	6707
511.939	10200
512.010	18608
512.082	12604
512.154	6212
512.226	8151
512.298	12464
512.369	15440
512.441	12455
512.513	11511
512.585	8435
512.656	10627
512.728	10105
512.800	7621
512.871	9228
512.943	8662
513.015	5893
513.086	8540
513.158	8201
513.230	8007
513.301	11154
513.373	11992
513.444	6992
513.516	7266
513.588	6702
513.659	7855
513.731	9639
513.802	7821
513.874	17449
513.945	21372
514.016	7369
514.088	7489
514.159	6846
514.231	11750
514.302	14225
514.374	11798
514.445	11212
514.516	23067
514.588	13701
514.659	12062
514.730	20562
514.802	16488
514.873	15375
514.944	18895
515.016	13000
515.087	11292
515.158	17645
515.229	22571
515.301	19464
515.372	27967
515.443	15629
515.514	11053
515.585	7921
515.656	8800
515.728	7847
515.799	6525
515.870	7855
515.941	8094
516.012	7463
516.083	12248
516.154	10228
516.225	12836
516.296	11216
516.367	10305
516.438	9690
516.509	12379
516.580	17585
516.651	58747
516.722	142341
516.793	47409
516.864	17437
516.935	16962
517.006	17853
517.077	24785
517.148	56511
517.219	179115
517.289	196831
517.360	104762
517.431	29782
517.502	11629
517.573	12379
517.643	11319
517.714	14161
517.785	13273
517.856	12235
517.926	14691
517.997	15087
518.068	14471
518.138	20709
518.209	33835
518.280	140131
518.350	358634
518.421	85599
518.492	16367
518.562	13425
518.633	14244
518.703	11070
518.774	18958
518.845	31255
518.915	25463
518.986	12774
519.056	15896
519.127	24506
519.197	44473
519.268	112171
519.338	50390
519.408	14981
519.479	15280
519.549	9991
519.620	10542
519.690	6995
519.760	8288
519.831	7221
519.901	7311
519.971	7161
520.042	8278
520.112	9684
520.182	10573
520.253	9566
520.323	7795
520.393	12614
520.463	16807
520.534	13031
520.604	24131
520.674	11782
520.744	14163
520.814	27112
520.885	22976
520.955	49079
521.025	133593
521.095	31132
521.165	10107
521.235	7932
521.305	6623
521.375	6188
521.445	8560
521.515	8232
521.585	11239
521.655	6626
521.725	8934
521.795	8013
521.865	5781
521.935	13072
522.005	9403
522.075	5495
522.145	7211
522.215	8232
522.285	12360
522.355	17356
522.424	32722
522.494	21259
522.564	11485
522.634	23757
522.704	49446
522.774	12948
522.843	7207
522.913	6100
522.983	8656
523.053	5500
523.122	7389
523.192	8811
523.262	30012
523.331	17237
523.401	6503
523.471	5251
523.540	6528
523.610	2713
523.680	5111
523.749	4632
523.819	8583
523.888	5900
523.958	4410
524.027	5708
524.097	6227
524.166	5386
524.236	4891
524.305	7058
524.375	5052
524.444	3817
524.514	7872
524.583	5922
524.653	7091
524.722	8112
524.791	4760
524.861	6485
524.930	4618
524.999	4962
525.069	8529
525.138	6717
525.207	8358
525.277	5997
525.346	4938
525.415	6120
525.484	6472
525.554	6540
525.623	7235
525.692	6325
525.761	5505
525.830	6310
525.900	6616
525.969	9547
526.038	13426
526.107	22189
526.176	53402
526.245	33581
526.314	19706
526.383	34995
526.452	35456
526.522	76053
526.591	60300
526.660	24206
526.729	12016
526.797	15899
526.867	47583
526.935	168837
527.004	180309
527.073	60477
527.142	8945
527.211	7546
527.280	8349
527.349	6812
527.418	3665
527.487	5665
527.555	3906
527.624	3260
527.693	2727
527.762	4914
527.831	2389
527.899	3720
527.968	5141
528.037	2716
528.106	6103
528.174	9831
528.243	7751
528.312	13362
528.380	12063
528.449	3890
528.518	4608
528.586	1753
528.655	3988
528.723	3368
528.792	3496
528.861	2926
528.929	2667
528.998	4385
529.066	2904
529.135	3468
529.203	4104
529.272	3045
529.340	3695
529.409	5162
529.477	3287
529.545	5056
529.614	8113
529.682	6095
529.751	7497
529.819	9498
529.887	5164
529.956	3128
530.024	5408
530.092	3027
530.161	5122
530.229	7041
530.297	3717
530.365	4913
530.434	4363
530.502	2650
530.570	5034
530.638	2202
530.707	4209
530.775	5486
530.843	3813
530.911	4261
530.979	4080
531.047	3994
531.115	4683
531.183	3427
531.252	5221
531.320	4102
531.388	3945
531.456	4146
531.524	2162
531.592	4228
531.660	6108
531.728	3058
531.796	3764
531.864	3068
531.932	4174
532.000	4252
532.067	4419
532.135	5044
532.203	5853
532.271	5447
532.339	13001
532.407	21673
532.475	10222
532.542	6230
532.610	7492
532.678	12196
532.746	56967
532.814	87592
532.881	17190
532.949	5334
533.017	5750
533.084	5272
533.152	4728
533.220	4135
533.287	3798
533.355	4255
533.423	4810
533.490	2895
533.558	5181
533.625	4699
533.693	4991
533.761	5199
533.828	6565
533.896	4609
533.963	11265
534.031	12128
534.098	16509
534.166	7037
534.233	5031
534.300	6351
534.368	5460
534.435	4190
534.503	5882
534.570	5731
534.637	4914
534.705	4764
534.772	6234
534.840	8232
534.907	30339
534.974	22914
535.041	6870
535.109	5666
535.176	3932
535.243	4293
535.310	4612
535.378	3453
535.445	4100
535.512	4644
535.579	6022
535.646	4055
535.714	5523
535.781	6065
535.848	6723
535.915	7936
535.982	7065
536.049	5970
536.116	6914
536.183	4435
536.250	6509
536.317	4343
536.384	5575
536.451	8139
536.518	7892
536.585	4398
536.652	9594
536.719	10108
536.786	5972
536.853	6222
536.920	10741
536.987	13411
537.053	15429
537.120	57534
537.187	29725
537.254	4246
537.321	4554
537.388	5138
537.454	3916
537.521	3672
537.588	3016
537.654	6073
537.721	6375
537.788	6658
537.855	4992
537.921	4913
537.988	4657
538.055	5150
538.121	4769
538.188	5925
538.254	9032
538.321	12811
538.388	7869
538.454	5500
538.521	4855
538.587	3686
538.654	3746
538.720	3680
538.787	5138
538.853	5170
538.920	6838
538.986	6693
539.053	6372
539.119	4734
539.185	5855
539.252	7099
539.318	8231
539.385	8133
539.451	6245
539.517	6867
539.583	8944
539.650	21269
539.716	33824
539.782	8931
539.849	4408
539.915	5761
539.981	6130
540.047	5926
540.114	6190
540.180	6822
540.246	4320
540.312	7429
540.378	13662
540.444	13046
540.510	21602
540.576	38527
540.643	9282
540.709	4606
540.775	5137
540.841	5753
540.907	9838
540.973	12541
541.039	9329
541.105	8401
541.171	5935
541.237	4510
541.303	6353
541.369	7588
541.435	9127
541.500	11489
541.566	5573
541.632	4929
541.698	4234
541.764	5310
541.830	4456
541.896	4665
541.961	5861
542.027	5032
542.093	5474
542.159	5649
542.224	6378
542.290	9390
542.356	13514
542.421	12113
542.487	7352
542.553	5660
542.618	7286
542.684	5614
542.750	5796
542.815	6886
542.881	14777
542.947	39683
543.012	18327
543.078	4575
543.143	5023
543.209	6462
543.274	5521
543.340	8216
543.405	18527
543.471	17917
543.536	6217
543.602	5825
543.667	3976
543.732	5987
543.798	4661
543.863	5808
543.928	4572
543.994	3531
544.059	5609
544.124	4751
544.190	4316
544.255	4919
544.320	4559
544.386	3366
544.451	8429
544.516	7639
544.581	10136
544.646	28108
544.712	28538
544.777	7610
544.842	7325
544.907	7317
544.972	6633
545.037	6267
545.102	7833
545.168	6899
545.233	8212
545.298	7931
545.363	9481
545.428	9655
545.493	19355
545.558	27692
545.623	10541
545.688	6673
545.753	7704
545.818	6849
545.883	8060
545.947	6339
546.012	8288
546.077	7460
546.142	8355
546.207	6959
546.272	9453
546.337	7892
546.401	8681
546.466	7605
546.531	6808
546.596	8457
546.661	8817
546.725	8145
546.790	6440
546.855	8322
546.919	6884
546.984	7712
547.049	8794
547.113	10277
547.178	8644
547.243	11235
547.307	12317
547.372	13096
547.436	12583
547.501	10297
547.565	10878
547.630	12244
547.695	13319
547.759	14494
547.823	12020
547.888	10341
547.952	10688
548.017	11097
548.081	14716
548.146	16646
548.210	13869
548.274	11164
548.339	11221
548.403	10583
548.468	10392
548.532	9780
548.596	10728
548.660	10476
548.725	11838
548.789	13167
548.853	14036
548.917	11735
548.982	16136
549.046	14332
549.110	9512
549.174	9657
549.238	10172
549.303	9959
549.367	13192
549.431	10378
549.495	10441
549.559	9795
549.623	12090
549.687	14345
549.751	15107
549.815	13753
549.879	14750
549.943	12216
550.007	15231
550.071	14119
550.135	14892
550.199	12104
550.263	13628
550.327	14850
550.391	16815
550.455	12459
550.519	13331
550.582	15038
550.646	17930
550.710	16264
550.774	15055
550.838	14725
550.901	16498
550.965	16780
551.029	17524
551.093	19759
551.156	24636
551.220	41752
551.284	34949
551.347	24560
551.411	48380
551.475	36164
551.538	18064
551.602	15056
551.666	14511
551.729	12705
551.793	13469
551.856	14104
551.920	13913
551.983	13892
552.047	13547
552.110	12698
552.174	13117
552.237	12162
552.301	13458
552.364	12230
552.428	12699
552.491	11970
552.554	12892
552.618	12185
552.681	13132
552.745	13047
552.808	18742
552.871	17446
552.934	13860
552.998	13437
553.061	14487
553.124	13854
553.187	13945
553.251	14186
553.314	15288
553.377	15810
553.440	28293
553.503	84364
553.567	85701
553.630	17210
553.693	13784
553.756	13210
553.819	13735
553.882	11963
553.945	13134
554.008	11045
554.071	11904
554.134	12184
554.197	11335
554.260	11387
554.323	12665
554.386	12360
554.449	11729
554.512	12865
554.575	11772
554.638	10960
554.701	11080
554.764	10898
554.827	11041
554.889	9675
554.952	9781
555.015	9336
555.078	10920
555.141	10536
555.203	10073
555.266	9632
555.329	9988
555.391	8995
555.454	10145
555.517	9545
555.580	9466
555.642	8478
555.705	9735
555.768	9722
555.830	9940
555.893	8947
555.955	9100
556.018	7856
556.080	9353
556.143	8713
556.206	8553
556.268	9246
556.330	8827
556.393	8942
556.455	9687
556.518	13636
556.580	12081
556.643	7839
556.705	7512
556.767	7735
556.830	9273
556.892	9340
556.955	11687
557.017	8742
557.079	7730
557.142	7807
557.204	9044
557.266	14361
557.328	10392
557.391	6271
557.453	6570
557.515	7262
557.577	8759
557.639	7954
557.701	7412
557.764	6536
557.826	7119
557.888	8516
557.950	8135
558.012	7419
558.074	11200
558.136	22745
558.198	36622
558.260	13921
558.322	9264
558.384	9632
558.446	10862
558.508	10991
558.570	13710
558.632	20724
558.694	26595
558.756	35160
558.818	119823
558.880	191019
558.942	45336
559.003	39233
559.065	17016
559.127	11274
559.189	10771
559.251	12105
559.312	19273
559.374	52987
559.436	125288
559.498	38271
559.559	11651
559.621	10242
559.683	13489
559.744	26245
559.806	72709
559.868	65744
559.929	14558
559.991	11503
560.052	19106
560.114	39063
560.176	21327
560.237	28905
560.299	31364
560.360	9667
560.422	8455
560.483	8171
560.545	8582
560.606	7080
560.667	7321
560.729	6427
560.790	7825
560.852	7433
560.913	7606
560.974	7337
561.036	7210
561.097	7359
561.158	8011
561.220	6656
561.281	7733
561.342	6539
561.403	9008
561.465	10254
561.526	21464
561.587	18610
561.648	7889
561.709	6805
561.771	7432
561.832	8030
561.893	7227
561.954	7422
562.015	7618
562.076	7856
562.137	7601
562.198	6535
562.259	7695
562.320	7723
562.381	7321
562.442	9894
562.503	7488
562.564	7813
562.625	7476
562.686	7977
562.747	7990
562.808	7414
562.869	7525
562.930	9093
562.991	8817
563.051	9124
563.112	8414
563.173	7642
563.234	6886
563.294	8305
563.355	7846
563.416	7314
563.477	8199
563.537	7408
563.598	7827
563.659	7885
563.720	7440
563.780	8294
563.841	7447
563.901	8367
563.962	7368
564.023	7236
564.083	8825
564.144	7215
564.204	8072
564.265	8208
564.325	11393
564.386	20042
564.446	13297
564.507	7984
564.567	7898
564.628	7812
564.688	8276
564.749	7947
564.809	9610
564.869	10067
564.930	7597
564.990	7231
565.050	8014
565.111	8568
565.171	8230
565.231	7548
565.292	9298
565.352	7472
565.412	8492
565.472	8070
565.532	8024
565.593	7680
565.653	8966
565.713	7915
565.773	10099
565.833	10332
565.893	12234
565.953	7784
566.013	10338
566.074	10468
566.134	14284
566.194	19680
566.254	17006
566.314	11972
566.374	11399
566.434	13068
566.494	12939
566.554	12561
566.614	13416
566.673	13295
566.733	15788
566.793	15785
566.853	16916
566.913	17077
566.973	17338
567.033	16820
567.092	16585
567.152	15765
567.212	17739
567.272	18506
567.331	19926
567.391	21565
567.451	23134
567.511	26359
567.570	24172
567.630	18719
567.690	19227
567.749	19519
567.809	21205
567.868	24241
567.928	27982
567.988	34057
568.047	40453
568.107	51668
568.166	75293
568.226	118670
568.285	151567
568.345	127575
568.404	104392
568.464	88992
568.523	81199
568.582	82446
568.642	92777
568.701	120657
568.761	183538
568.820	264502
568.879	246129
568.939	187550
568.998	136438
569.057	103534
569.116	80334
569.176	65945
569.235	54483
569.294	45401
569.353	38452
569.413	33471
569.472	29998
569.531	25968
569.590	23773
569.649	21915
569.708	20234
569.767	18672
569.827	18316
569.886	17257
569.945	14323
570.004	13635
570.063	14066
570.122	13856
570.181	13104
570.240	13697
570.299	12850
570.358	12322
570.417	11180
570.475	9918
570.534	10965
570.593	10404
570.652	10375
570.711	9183
570.770	10785
570.829	10495
570.887	10202
570.946	8968
571.005	8888
571.064	8068
571.122	10259
571.181	10026
571.240	8641
571.299	8402
571.357	9755
571.416	9394
571.475	9877
571.533	9102
571.592	8496
571.650	7015
571.709	7521
571.768	6885
571.826	7505
571.885	7357
571.943	7419
572.002	6799
572.060	7593
572.119	7979
572.177	7575
572.236	6480
572.294	6597
572.352	6797
572.411	6253
572.469	6649
572.528	6227
572.586	6182
572.644	8105
572.703	8608
572.761	7455
572.819	7116
572.877	6906
572.936	6291
572.994	6601
573.052	6248
573.110	5980
573.169	6095
573.227	6218
573.285	5877
573.343	6200
573.401	6439
573.459	6632
573.517	5628
573.576	5944
573.634	6609
573.692	6123
573.750	6197
573.808	5868
573.866	7078
573.924	8266
573.982	6484
574.040	6187
574.098	6124
574.155	6484
574.213	5663
574.271	5677
574.329	5703
574.387	5585
574.445	5561
574.503	5638
574.560	4234
574.618	5455
574.676	4492
574.734	5539
574.792	4897
574.849	5995
574.907	4886
574.965	6591
575.022	4814
575.080	4455
575.138	5936
575.195	6589
575.253	4335
575.311	6017
575.368	5389
575.426	5128
575.483	6661
575.541	5601
575.598	5352
575.656	6008
575.713	5437
575.771	5817
575.828	5242
575.886	6166
575.943	6351
576.001	6537
576.058	5757
576.115	6975
576.173	6968
576.230	7768
576.287	7704
576.345	6693
576.402	6236
576.459	6531
576.517	6809
576.574	7387
576.631	7313
576.688	7729
576.746	5955
576.803	6576
576.860	5805
576.917	6085
576.974	5933
577.031	6377
577.089	6791
577.146	6489
577.203	6099
577.260	7745
577.317	7230
577.374	7250
577.431	6648
577.488	6843
577.545	5874
577.602	6117
577.659	6119
577.716	7659
577.773	7093
577.830	6585
577.886	6497
577.943	7334
578.000	6063
578.057	6429
578.114	7519
578.171	9490
578.227	10002
578.284	9940
578.341	8757
578.398	7420
578.454	7989
578.511	8352
578.568	8184
578.625	7257
578.681	5938
578.738	6413
578.794	5747
578.851	7199
578.908	6367
578.964	7127
579.021	6747
579.077	7244
579.134	6391
579.190	7247
579.247	6939
579.303	7278
579.360	6114
579.416	6983
579.473	6448
579.529	6163
579.586	5988
579.642	7280
579.698	6732
579.755	7997
579.811	6849
579.867	7744
579.924	6915
579.980	8075
580.036	9285
580.093	9825
580.149	13637
580.205	13576
580.261	10935
580.317	10301
580.374	8501
580.430	9310
580.486	8364
580.542	7561
580.598	7732
580.619	7957
580.654	8356
580.692	7717
580.710	7412
580.765	7597
580.767	7608
580.823	7537
580.838	7650
580.879	7973
580.911	7371
580.935	6940
580.984	7824
580.991	7952
581.047	7051
581.057	7266
581.103	8263
581.130	8504
581.159	8763
581.203	9335
581.215	9495
581.270	9234
581.276	9160
581.326	8508
581.349	8382
581.382	8191
581.422	9232
581.438	9702
581.494	8717
581.494	8704
581.550	7739
581.567	8173
581.606	9088
581.640	8474
581.661	8128
581.713	8464
581.717	8495
581.773	8785
581.786	8769
581.829	8661
581.859	8866
581.885	9093
581.932	8774
581.940	8715
581.996	9302
582.004	9207
582.052	8691
582.077	8638
582.107	8573
582.150	8438
582.163	8417
582.219	9145
582.223	9148
582.274	9161
582.296	9156
582.330	9241
582.368	9459
582.386	9548
582.441	9738
582.441	9740
582.497	8527
582.514	8838
582.552	9662
582.587	9874
582.608	9974
582.659	10524
582.663	10550
582.719	9832
582.732	9605
582.774	9104
582.805	9722
582.830	10245
582.877	10059
582.885	10012
582.941	10340
582.950	10440
582.996	11063
583.023	10690
583.052	10392
583.095	11695
583.107	11989
583.162	13363
583.168	13360
583.218	13262
583.240	12743
583.273	12049
583.313	12025
583.328	12031
583.384	11553
583.385	11550
583.439	11174
583.458	11082
583.494	10999
583.531	11032
583.549	11140
583.603	11633
583.605	11640
583.660	11323
583.676	11368
583.715	11561
583.748	11799
583.770	11973
583.820	12185
583.825	12189
583.881	11823
583.893	11728
583.936	11656
583.965	11900
583.991	12014
584.038	12078
584.046	12078
584.101	12400
584.110	12386
584.156	12466
584.183	12786
584.211	13119
584.255	12595
584.266	12416
584.321	12796
584.328	12801
584.376	13125
584.400	13378
584.431	13659
584.472	13318
584.486	13131
584.541	13705
584.545	13744
584.596	14506
584.617	14013
584.651	13440
584.689	14229
584.706	14440
584.761	15389
584.762	15382
584.816	14689
584.834	15022
584.871	15620
584.906	15649
584.926	15801
584.978	16271
584.980	16279
585.035	16241
585.051	16487
585.090	17329
585.123	18014
585.145	18249
585.195	18439
585.200	18525
585.254	19241
585.267	19744
585.309	21279
585.340	21888
585.364	22235
585.412	21692
585.419	21555
585.473	21968
585.484	22186
585.528	23935
585.556	25876
585.583	28986
585.628	35388
585.637	37539
585.692	59300
585.700	61484
585.747	68333
585.772	60946
585.801	44613
585.845	29581
585.856	27746
585.910	24680
585.917	24294
585.965	24357
585.989	24483
586.019	24694
586.061	25009
586.074	25084
586.128	25757
586.133	25773
586.183	26465
586.205	26603
586.237	26618
586.277	28021
586.292	28455
586.346	27936
586.349	27989
586.401	29729
586.421	30207
586.455	31073
586.493	33048
586.509	34604
586.564	38770
586.565	38966
586.618	49506
586.637	49435
586.672	42854
586.709	38391
586.727	37657
586.781	37821
586.781	37829
586.835	37940
586.853	38011
586.889	38627
586.925	39646
586.944	40137
586.996	41329
586.998	41387
587.052	43892
587.068	44639
587.106	46559
587.140	47639
587.161	48029
587.212	49270
587.215	49396
587.269	53656
587.284	54291
587.323	55761
587.356	57357
587.377	58507
587.427	61984
587.431	62273
587.485	66112
587.499	66903
587.539	69402
587.571	72175
587.593	74386
587.643	78914
587.648	79413
587.702	85883
587.715	87447
587.755	92923
587.786	96931
587.810	99831
587.858	106590
587.864	107574
587.917	118248
587.930	120735
587.971	130517
588.001	137979
588.025	143807
588.073	155977
588.079	157796
588.133	174932
588.145	179090
588.187	196300
588.217	209177
588.241	221471
588.288	246201
588.295	249965
588.348	284240
588.360	292042
588.402	327183
588.431	353793
588.456	380399
588.503	433833
588.510	442776
588.564	521409
588.575	539473
588.617	630163
588.646	696445
588.671	769851
588.718	917185
588.725	944046
588.778	1153883
588.789	1193440
588.832	1321263
588.861	1378367
588.886	1337672
588.932	1195295
588.939	1177011
588.993	1101737
589.004	1107855
589.047	1327375
589.075	1425029
589.100	1383109
589.147	1249673
589.154	1225746
589.207	1035692
589.218	999416
589.261	931373
589.290	896094
589.314	912014
589.361	957775
589.368	975602
589.421	1132478
589.433	1164417
589.475	1269746
589.504	1307559
589.528	1253215
589.576	1137235
589.582	1142097
589.635	1268954
589.647	1278008
589.689	1151475
589.718	1039882
589.742	923630
589.790	697129
589.795	680609
589.849	533701
589.861	501345
589.902	433548
589.932	384413
589.955	355497
590.004	297951
590.009	294262
590.062	256072
590.075	246660
590.115	222561
590.146	204898
590.168	196749
590.218	178664
590.222	177348
590.275	159910
590.289	155348
590.328	145627
590.360	137850
590.381	133382
590.431	122699
590.435	122219
590.488	113583
590.503	110940
590.541	105297
590.574	100809
590.594	98558
590.645	92292
590.647	92158
590.700	87419
590.716	85737
590.753	81753
590.787	78487
590.806	77127
590.859	72817
590.859	72809
590.912	68966
590.930	67759
590.965	66295
591.001	64498
591.018	63473
591.071	60512
591.072	60431
591.124	58677
591.143	57934
591.177	56303
591.214	54723
591.230	54507
591.283	53257
591.285	53159
591.336	51882
591.356	51367
591.389	50576
591.427	49414
591.442	48825
591.495	46542
591.498	46321
591.547	44736
591.569	43983
591.600	43449
591.640	42599
591.653	42703
591.706	43135
591.711	43127
591.759	41838
591.782	41068
591.811	41281
591.853	41513
591.864	40986
591.917	38025
591.924	37570
591.969	37640
591.995	37559
592.022	37032
592.066	36134
592.075	36385
592.127	37688
592.137	37895
592.180	38590
592.208	38871
592.233	37372
592.279	34462
592.285	34343
592.338	33015
592.350	32674
592.390	31707
592.421	30931
592.443	30831
592.491	30502
592.495	30538
592.548	30509
592.562	30465
592.600	30046
592.633	29614
592.653	29454
592.704	28800
592.705	28949
592.775	28121
592.846	27801
592.916	27087
592.987	28552
593.058	26995
593.128	25299
593.199	25609
593.270	25501
593.341	23855
593.411	23725
593.482	22824
593.553	23973
593.623	22340
593.694	23632
593.764	23437
593.835	22447
593.906	21001
593.976	21489
594.047	21264
594.117	25622
594.188	24695
594.258	20211
594.329	19875
594.399	20400
594.470	19762
594.540	20148
594.611	20396
594.681	19373
594.751	19189
594.822	20035
594.892	20022
594.963	20289
595.033	19505
595.103	19293
595.174	21859
595.244	27683
595.314	31652
595.384	20426
595.455	18085
595.525	18241
595.595	18427
595.665	18416
595.736	18210
595.806	18284
595.876	17779
595.946	17524
596.016	17421
596.087	17048
596.157	18082
596.227	17494
596.297	17631
596.367	18088
596.437	20695
596.507	24943
596.577	29182
596.647	18962
596.717	17870
596.787	18427
596.857	17341
596.927	18546
596.997	17272
597.067	19300
597.137	19445
597.207	20232
597.277	18067
597.347	18430
597.417	17731
597.487	18369
597.557	17219
597.626	18200
597.696	19682
597.766	21912
597.836	27345
597.906	19687
597.975	17517
598.045	16145
598.115	16754
598.185	16196
598.254	18329
598.324	18590
598.394	18701
598.464	18753
598.533	16915
598.603	18424
598.672	16775
598.742	17475
598.812	16455
598.881	17070
598.951	16121
599.020	16551
599.090	16731
599.159	18020
599.229	17039
599.299	15604
599.368	16639
599.437	16516
599.507	16879
599.576	17643
599.646	17331
599.715	17632
599.785	16292
599.854	17323
599.924	19405
599.993	17457
600.062	14993
600.132	15822
600.201	16354
600.270	17895
600.340	17855
600.409	16910
600.478	17336
600.547	17037
600.617	17193
600.686	15856
600.755	15314
600.824	14748
600.894	15467
600.963	14924
601.032	14415
601.101	15751
601.170	14081
601.239	14260
601.308	16073
601.378	15485
601.447	15005
601.516	14200
601.585	15864
601.654	16684
601.723	15303
601.792	15209
601.861	15251
601.930	18609
601.999	16933
602.068	15749
602.137	17737
602.206	18141
602.275	14739
602.343	16056
602.412	16653
602.481	14641
602.550	14349
602.619	14895
602.688	15763
602.756	14674
602.825	14248
602.894	15211
602.963	15739
603.032	15698
603.100	14627
603.169	14674
603.238	14079
603.307	16198
603.375	14887
603.444	14783
603.513	15832
603.581	15429
603.650	15830
603.719	14683
603.787	14618
603.856	15306
603.924	14836
603.993	15371
604.061	14723
604.130	16757
604.198	15482
604.267	15904
604.335	15213
604.404	16721
604.472	15451
604.541	16083
604.609	15660
604.678	16554
604.746	16399
604.815	16078
604.883	16315
604.951	16805
605.020	16026
605.088	16047
605.156	16339
605.225	15866
605.293	15525
605.361	17035
605.429	16469
605.498	16446
605.566	16909
605.634	17614
605.702	17879
605.771	18140
605.839	18020
605.907	17870
605.975	17271
606.043	16273
606.111	17203
606.180	17866
606.248	18314
606.316	20745
606.384	17347
606.452	19843
606.520	19024
606.588	16555
606.656	15526
606.724	15581
606.792	14922
606.860	14657
606.928	13607
606.996	13066
607.064	12542
607.132	12754
607.200	13721
607.267	13984
607.335	14096
607.403	15014
607.471	13299
607.539	13724
607.607	12989
607.674	12970
607.742	14153
607.810	12769
607.878	12963
607.946	11622
608.013	13479
608.081	12963
608.149	13449
608.216	12534
608.284	14395
608.352	13284
608.419	14156
608.487	20553
608.555	14635
608.622	13780
608.690	14853
608.757	14861
608.825	14820
608.893	14264
608.960	16143
609.028	17317
609.095	21249
609.163	14994
609.230	13393
609.298	14137
609.365	12415
609.432	13248
609.500	12752
609.567	14161
609.635	16305
609.702	16878
609.769	17472
609.837	16486
609.904	15028
609.971	14939
610.039	17491
610.106	24763
610.173	46272
610.241	106257
610.308	85410
610.375	38642
610.442	18236
610.509	14498
610.577	14915
610.644	13326
610.711	13200
610.778	14721
610.845	13413
610.912	15324
610.980	17659
611.047	21745
611.114	18077
611.181	13983
611.248	13233
611.315	15892
611.382	14486
611.449	14770
611.516	15901
611.583	15336
611.650	15597
611.717	15939
611.784	16653
611.851	16675
611.918	20155
611.984	24451
612.051	38201
612.118	85611
612.185	215616
612.252	138505
612.319	30601
612.386	21841
612.452	19270
612.519	20353
612.586	24233
612.653	20181
612.719	16994
612.786	15660
612.853	15477
612.919	14506
612.986	15795
613.053	14021
613.120	13649
613.186	13471
613.253	15739
613.319	13843
613.386	13376
613.453	14059
613.519	15810
613.586	16381
613.652	21015
613.719	18371
613.785	16696
613.852	14842
613.918	13563
613.985	17187
614.051	21314
614.118	39172
614.184	35221
614.250	16704
614.317	14984
614.383	14499
614.449	14019
614.516	14357
614.582	15533
614.648	14471
614.715	13952
614.781	14079
614.847	14527
614.914	15333
614.980	14801
615.046	15572
615.112	15290
615.179	17566
615.245	21567
615.311	29908
615.377	53936
615.443	66344
615.509	37342
615.575	24812
615.642	20260
615.708	20911
615.774	22400
615.840	27989
615.906	38033
615.972	65310
616.038	134760
616.104	205521
616.170	324927
616.236	265083
616.302	61410
616.368	35728
616.434	25398
616.500	23056
616.565	24079
616.631	27200
616.697	22425
616.763	24643
616.829	32950
616.895	56796
616.961	56970
617.026	28451
617.092	18114
617.158	17360
617.224	15352
617.289	15552
617.355	14270
617.421	13803
617.487	15437
617.552	13955
617.618	12435
617.684	12566
617.749	15055
617.815	13594
617.880	13353
617.946	12587
618.012	13871
618.077	12745
618.143	12651
618.208	13689
618.274	13608
618.339	14262
618.405	11561
618.470	13640
618.536	12754
618.601	14977
618.667	12553
618.732	12713
618.798	12240
618.863	12250
618.928	11299
618.994	13160
619.059	14786
619.124	17478
619.190	13840
619.255	12228
619.320	13051
619.386	11059
619.451	11129
619.516	12403
619.581	12288
619.647	12379
619.712	12135
619.777	12282
619.842	11946
619.907	12383
619.972	11678
620.038	12823
620.103	11627
620.168	11646
620.233	11953
620.298	11370
620.363	11552
620.428	13419
620.493	11052
620.558	11312
620.623	11786
620.688	12681
620.753	11609
620.818	11322
620.883	13035
620.948	12253
621.013	11607
621.078	12159
621.143	10562
621.207	15045
621.272	12555
621.337	14381
621.402	14040
621.467	17628
621.532	18692
621.596	15033
621.661	13640
621.726	13592
621.791	12764
621.855	13743
621.920	14460
621.985	15031
622.049	18061
622.114	15668
622.179	14041
622.243	14959
622.308	13936
622.373	16285
622.437	15029
622.502	13879
622.566	13861
622.631	13287
622.695	15346
622.760	15074
622.824	13417
622.889	13926
622.953	14583
623.018	19678
623.082	18042
623.147	14029
623.211	13747
623.276	13756
623.340	13290
623.404	13228
623.469	12662
623.533	13503
623.597	12862
623.662	12875
623.726	11734
623.790	11669
623.854	12326
623.919	11922
623.983	11816
624.047	12585
624.111	11369
624.176	12744
624.240	13148
624.304	14811
624.368	12479
624.432	12590
624.496	13130
624.560	13265
624.625	13091
624.689	12885
624.753	11713
624.817	12342
624.881	11324
624.945	12450
625.009	11396
625.073	11346
625.137	11965
625.201	15118
625.265	13587
625.329	12107
625.393	12029
625.456	12872
625.520	12355
625.584	13715
625.648	17863
625.712	28283
625.776	63339
625.839	72939
625.903	26615
625.967	15359
626.031	26967
626.095	40692
626.158	15122
626.222	9532
626.286	9947
626.349	8734
626.413	7972
626.477	11023
626.540	10077
626.604	9371
626.668	10111
626.731	9277
626.795	9913
626.858	9782
626.922	8952
626.986	10257
627.049	6953
627.113	10401
627.176	8878
627.240	8873
627.303	9226
627.366	8979
627.430	9330
627.493	9104
627.557	8667
627.620	10094
627.684	8849
627.747	9375
627.810	7720
627.874	8843
627.937	7699
628.000	10128
628.064	8874
628.127	7583
628.190	9294
628.253	8178
628.317	8121
628.380	7839
628.443	8129
628.506	7772
628.569	6601
628.632	7021
628.696	7379
628.759	7274
628.822	6791
628.885	6965
628.948	7262
629.011	7611
629.074	6965
629.137	6399
629.200	6074
629.263	9159
629.326	5808
629.389	6901
629.452	6537
629.515	7207
629.578	6742
629.641	8019
629.704	7040
629.767	6624
629.830	6733
629.892	6288
629.955	5536
630.018	9491
630.081	7025
630.144	8802
630.207	5748
630.269	9421
630.332	8044
630.395	6907
630.458	6462
630.520	5432
630.583	6383
630.646	6971
630.708	6097
630.771	5318
630.834	6796
630.896	5266
630.959	6973
631.021	4913
631.084	6017
631.146	7199
631.209	8514
631.272	6507
631.334	6632
631.397	5935
631.459	4649
631.522	6561
631.584	6423
631.646	6599
631.709	6566
631.771	8464
631.834	6701
631.896	6411
631.958	4900
632.021	6906
632.083	4371
632.145	6812
632.208	5593
632.270	7296
632.332	4955
632.395	5556
632.457	5859
632.519	4123
632.581	6645
632.643	3843
632.706	5659
632.768	4218
632.830	5638
632.892	5468
632.954	4874
633.016	6639
633.078	5461
633.141	4612
633.203	5780
633.265	5140
633.327	5124
633.389	5100
633.451	5772
633.513	7479
633.575	7477
633.637	6300
633.698	4839
633.760	6338
633.822	5097
633.884	5689
633.946	5499
634.008	4927
634.070	6336
634.132	7910
634.193	5679
634.255	6370
634.317	6084
634.379	7026
634.441	4681
634.502	5243
634.564	5489
634.626	6072
634.687	4916
634.749	5551
634.811	4550
634.873	4054
634.934	5231
634.996	6133
635.057	3818
635.119	4242
635.181	5077
635.242	5009
635.304	3139
635.365	7061
635.427	4789
635.488	4982
635.550	4388
635.611	6019
635.673	3304
635.734	6850
635.796	5629
635.857	6876
635.918	4345
635.980	7088
636.041	4783
636.102	6199
636.164	5898
636.225	7725
636.286	3920
636.348	5802
636.409	5094
636.470	4418
636.531	5626
636.593	5758
636.654	5649
636.715	4727
636.776	4236
636.838	4098
636.899	4571
636.960	3693
637.021	3182
637.082	3757
637.143	4282
637.204	3057
637.265	4389
637.326	4632
637.387	4235
637.448	2445
637.509	4084
637.570	4791
637.631	5133
637.692	3431
637.753	3159
637.814	3937
637.875	3818
637.936	5125
637.997	3715
638.058	3398
638.119	4920
638.179	4526
638.240	3382
638.301	4114
638.362	3380
638.423	3415
638.483	5581
638.544	2388
638.605	4112
638.666	3955
638.726	3858
638.787	5437
638.848	3718
638.908	3701
638.969	4040
639.030	3954
639.090	2368
639.151	2581
639.211	4341
639.272	5537
639.332	7096
639.393	5145
639.453	3109
639.514	4536
639.574	3902
639.635	3395
639.695	4596
639.756	3120
639.816	4423
639.877	4327
639.937	7331
639.997	8533
640.058	2832
640.118	3268
640.178	4229
640.239	2888
640.299	3231
640.359	3689
640.420	3579
640.480	4650
640.540	3357
640.600	3128
640.661	4321
640.721	2461
640.781	6148
640.841	3377
640.901	4091
640.961	3383
641.021	4466
641.082	4237
641.142	5462
641.202	4970
641.262	1763
641.322	4103
641.382	2313
641.442	4518
641.502	3524
641.562	3951
641.622	3301
641.682	3825
641.742	3259
641.802	3954
641.861	3760
641.921	4406
641.981	4565
642.041	4605
642.101	4500
642.161	2401
642.221	2166
642.280	3266
642.340	3115
642.400	2223
642.460	3529
642.519	3443
642.579	3246
642.639	3782
642.698	729
642.758	4768
642.818	3439
642.877	2013
642.937	2757
642.997	4474
643.056	6140
643.116	2714
643.175	5001
643.235	2424
643.294	2743
643.354	3944
643.414	4278
643.473	5361
643.532	5639
643.592	6641
643.651	11264
643.711	21118
643.770	39899
643.830	96955
643.889	205293
643.948	43686
644.008	8516
644.067	5431
644.126	3589
644.186	3507
644.245	4287
644.304	2222
644.363	4563
644.423	1672
644.482	3379
644.541	3317
644.600	1681
644.659	3626
644.719	3494
644.778	5967
644.837	8533
644.896	18136
644.955	37015
645.014	13178
645.073	4672
645.132	2828
645.191	3211
645.250	3082
645.309	4179
645.368	3001
645.427	4617
645.486	4998
645.545	7734
645.604	2948
645.663	3450
645.722	2628
645.781	3445
645.840	4133
645.898	4343
645.957	7202
646.016	8797
646.075	17941
646.134	34067
646.192	93757
646.251	132458
646.310	17852
646.369	5016
646.427	5240
646.486	3183
646.545	3547
646.603	3781
646.662	2793
646.721	3307
646.779	2362
646.838	1501
646.896	3898
646.955	4010
647.014	5727
647.072	8805
647.131	23776
647.189	10841
647.248	2634
647.306	3418
647.365	3833
647.423	973
647.481	2903
647.540	855
647.598	2932
647.657	2867
647.715	2857
647.773	1597
647.832	2840
647.890	1585
647.948	1801
648.007	3504
648.065	1006
648.123	2132
648.181	4500
648.240	3646
648.298	3043
648.356	1673
648.414	2905
648.472	2462
648.531	3244
648.589	2194
648.647	2233
648.705	2355
648.763	2092
648.821	2326
648.879	2002
648.937	2486
648.995	2493
649.053	3869
649.111	5398
649.169	7514
649.227	12981
649.285	26390
649.343	71538
649.401	34301
649.459	12377
649.516	7594
649.574	5548
649.632	13381
649.690	16130
649.748	7419
649.806	7752
649.863	12901
649.921	17890
649.979	10447
650.037	2853
650.094	1163
650.152	3364
650.210	1314
650.268	2630
650.325	2539
650.383	2255
650.440	617
650.498	1939
650.556	1656
650.613	795
650.671	1754
650.728	2734
650.786	1466
650.843	2462
650.901	58
650.958	2037
651.016	1007
651.073	2560
651.131	1019
651.188	1362
651.246	1877
651.303	681
651.360	2187
651.418	1442
651.475	1821
651.532	344
651.590	1907
651.647	878
651.704	2535
651.762	971
651.819	2343
651.876	1889
651.933	1793
651.990	1245
652.048	515
652.105	435
652.162	2728
652.219	1292
652.276	1523
652.333	1985
652.390	672
652.448	1980
652.505	2003
652.562	2165
652.619	2287
652.676	4864
652.733	4610
652.790	1190
652.847	337
652.904	2046
652.961	545
653.017	1537
653.074	1947
653.131	2031
653.188	214
653.245	1645
653.302	1028
653.359	1029
653.415	2497
653.472	1250
653.529	926
653.586	822
653.642	1194
653.699	2234
653.756	878
653.813	1102
653.869	1271
653.926	1334
653.983	665
654.039	1432
654.096	813
654.152	1591
654.209	487
654.266	1997
654.322	513
654.379	2237
654.435	2071
654.492	1635
654.548	3031
654.605	4784
654.661	3242
654.717	1439
654.774	1437
654.830	1473
654.887	1520
654.943	861
655.000	1406
655.056	1653
655.112	2293
655.168	1103
655.225	1535
655.281	2722
655.337	2661
655.394	5615
655.450	3815
655.506	3271
655.562	6162
655.618	4217
655.675	844
655.731	2009
655.787	1232
655.843	2314
655.899	-75
655.955	2597
656.011	2519
656.067	835
656.123	2145
656.179	2705
656.235	3080
656.291	1430
656.347	3254
656.403	1716
656.459	1610
656.515	2568
656.571	1758
656.627	1763
656.683	1455
656.739	2095
656.795	881
656.850	1561
656.906	2477
656.962	2222
657.018	-39
657.074	1805
657.129	1086
657.185	1908
657.241	1711
657.297	1675
657.352	1298
657.408	1365
657.464	1747
657.519	1452
657.575	823
657.630	1211
657.686	758
657.742	1115
657.797	706
657.853	1152
657.908	2347
657.964	110
658.019	1422
658.075	1415
658.130	1548
658.186	450
658.241	1426
658.297	729
658.352	910
658.407	1936
658.463	184
658.518	1492
658.573	1534
658.629	515
658.684	646
658.739	2051
658.795	804
658.850	1341
658.905	690
658.960	705
659.016	697
659.071	1365
659.126	1242
659.181	1775
659.236	3368
659.291	3577
659.346	1404
659.401	1705
659.457	3161
659.512	3264
659.567	2760
659.622	1567
659.677	1185
659.732	715
659.787	1070
659.842	1654
659.897	1962
659.952	1944
660.007	1257
660.061	298
660.116	575
660.171	1176
660.226	290
660.281	2406
660.336	549
660.391	1431
660.445	801
660.500	1316
660.555	1483
660.610	1762
660.664	1414
660.719	539
660.774	749
660.828	961
660.883	1343
660.938	2010
660.992	-285
661.047	1666
661.101	385
661.156	1165
661.211	313
661.265	1105
661.320	1271
661.374	838
661.429	-56
661.483	1554
661.538	129
661.592	638
661.647	1029
661.701	1916
661.755	422
661.810	924
661.864	1026
661.919	303
661.973	1345
662.027	434
662.081	702
662.136	736
662.190	1606
662.244	1662
662.299	327
662.353	1533
662.407	531
662.461	1265
662.515	586
662.569	292
662.624	1363
662.678	1276
662.732	809
662.786	-121
662.840	833
662.894	1878
662.948	352
663.002	1046
663.056	1520
663.110	884
663.164	559
663.218	941
663.272	977
663.326	1494
663.380	1168
663.434	1899
663.488	1187
663.542	1436
663.595	95
663.649	1359
663.703	883
663.757	372
663.811	310
663.864	435
663.918	1173
663.972	1005
664.026	657
664.079	942
664.133	1195
664.187	958
664.240	1028
664.294	1011
664.348	1067
664.401	1214
664.455	1129
664.508	700
664.562	897
664.615	571
664.669	433
664.722	735
664.776	-12
664.829	1325
664.883	665
664.936	116
664.990	989
665.043	1635
665.097	1471
665.150	1892
665.203	1402
665.257	128
665.310	654
665.363	1124
665.417	904
665.470	1149
665.523	707
665.576	1851
665.630	586
665.683	1908
665.736	1947
665.789	1327
665.842	543
665.895	785
665.949	1125
666.002	579
666.055	670
666.108	1213
666.161	1406
666.214	2135
666.267	1061
666.320	2648
666.373	641
666.426	1148
666.479	1060
666.532	1021
666.585	1208
666.638	2682
666.691	1053
666.744	3126
666.796	677
666.849	1306
666.902	1450
666.955	1100
667.008	901
667.060	199
667.113	404
667.166	767
667.219	779
667.271	1053
667.324	977
667.377	1356
667.430	702
667.482	1815
667.535	674
667.587	1080
667.640	470
667.693	1605
667.745	2758
667.798	2981
667.850	1504
667.903	1473
667.955	399
668.008	1474
668.060	1098
668.113	656
668.165	1769
668.218	762
668.270	1084
668.322	1547
668.375	458
668.427	1538
668.479	268
668.532	1324
668.584	1763
668.636	1115
668.689	1374
668.741	1371
668.793	857
668.845	690
668.898	1688
668.950	982
669.002	1315
669.054	1440
669.106	732
669.158	1631
669.211	1755
669.263	1396
669.315	2201
669.367	2057
669.419	1876
669.471	2665
669.523	1426
669.575	2893
669.627	2099
669.679	1617
669.731	1619
669.783	2424
669.835	2480
669.886	1093
669.938	1302
669.990	1931
670.042	2035
670.094	1862
670.146	1887
670.197	2447
670.249	2328
670.301	2651
670.353	5149
670.404	8067
670.456	11170
670.508	17655
670.560	28430
670.611	50989
670.663	87597
670.715	211142
670.766	319222
670.818	96084
670.869	16608
670.921	8746
670.972	5995
671.024	4559
671.075	3254
671.127	2702
671.178	2396
671.230	2747
671.281	2576
671.333	2105
671.384	1606
671.436	2421
671.487	3052
671.538	2782
671.590	3311
671.641	3453
671.692	5867
671.744	9720
671.795	7856
671.846	4133
671.897	2365
671.949	2062
672.000	1730
672.051	1821
672.102	1555
672.153	912
672.204	2042
672.256	1718
672.307	1229
672.358	2186
672.409	1378
672.460	1864
672.511	1193
672.562	1318
672.613	1107
672.664	789
672.715	2326
672.766	618
672.817	499
672.868	2098
672.919	803
672.970	577
673.021	1293
673.071	603
673.122	427
673.173	1015
673.224	1695
673.275	1513
673.326	1427
673.376	1538
673.427	1557
673.478	1077
673.528	1354
673.579	1342
673.630	521
673.680	1401
673.731	813
673.782	699
673.832	1138
673.883	1642
673.934	1656
673.984	469
674.035	729
674.085	671
674.136	1749
674.186	665
674.237	2314
674.287	3085
674.338	1198
674.388	1261
674.438	602
674.489	1228
674.539	1566
674.589	691
674.640	1344
674.690	980
674.740	846
674.791	942
674.841	1169
674.891	1279
674.942	1111
674.992	1158
675.042	1199
675.092	440
675.142	57
675.193	492
675.243	310
675.293	1365
675.343	677
675.393	955
675.443	1623
675.493	1156
675.543	479
675.593	189
675.643	271
675.693	664
675.743	1536
675.793	731
675.843	1697
675.893	979
675.943	895
675.993	768
676.043	-243
676.093	872
676.142	398
676.192	934
676.242	835
676.292	900
676.341	1098
676.391	997
676.441	1117
676.491	644
676.540	84
676.590	1192
676.640	286
676.689	511
676.739	343
676.789	826
676.838	-193
676.888	979
676.937	-13
676.987	-198
677.037	228
677.086	270
677.136	466
677.185	280
677.235	206
677.284	1316
677.333	869
677.383	285
677.432	948
677.482	1089
677.531	441
677.580	35
677.630	-457
677.679	484
677.728	118
677.778	1414
677.827	-501
677.876	155
677.925	-642
677.975	837
678.024	681
678.073	438
678.122	379
678.171	296
678.220	740
678.269	1395
678.319	260
678.368	627
678.417	655
678.466	470
678.515	610
678.564	321
678.613	-350
678.662	300
678.711	-120
678.760	116
678.809	805
678.857	1052
678.906	663
678.955	890
679.004	496
679.053	941
679.102	702
679.151	145
679.199	1076
679.248	-556
679.297	-74
679.346	373
679.394	120
679.443	384
679.492	672
679.540	1007
679.589	39
679.638	199
679.686	-78
679.735	751
679.784	141
679.832	397
679.881	27
679.929	507
679.978	95
680.026	622
680.075	944
680.123	7
680.172	140
680.220	-62
680.268	43
680.317	-353
680.365	421
680.414	166
680.462	182
680.510	1307
680.559	177
680.607	96
680.655	-383
680.703	-64
680.752	169
680.800	213
680.848	328
680.896	-264
680.945	314
680.993	-705
681.041	-206
681.089	926
681.137	17
681.185	119
681.233	324
681.258	291
681.281	240
681.329	-3
681.377	-113
681.380	-99
681.425	-318
681.473	626
681.502	642
681.521	612
681.569	1229
681.617	248
681.624	282
681.665	340
681.713	627
681.745	385
681.761	234
681.809	1134
681.857	511
681.867	520
681.904	470
681.952	197
681.989	539
682.000	609
682.048	807
682.096	866
682.111	1022
682.143	1296
682.191	1032
682.233	1635
682.239	1702
682.286	1242
682.334	908
682.354	810
682.382	621
682.430	1522
682.476	840
682.477	808
682.525	1153
682.572	966
682.598	1115
682.620	1195
682.667	1290
682.715	1616
682.720	1707
682.763	2342
682.810	1519
682.841	1581
682.857	1592
682.905	1650
682.952	1737
682.963	1700
683.000	1500
683.047	2028
683.085	2856
683.095	3055
683.142	1960
683.190	1443
683.206	1663
683.237	1989
683.284	1763
683.328	1852
683.332	1850
683.379	3010
683.426	1683
683.449	1894
683.473	2065
683.521	1913
683.568	2049
683.571	2074
683.615	2151
683.662	2915
683.693	2462
683.709	2195
683.757	1341
683.804	2847
683.814	2759
683.851	2359
683.898	1767
683.936	1986
683.945	2037
683.992	2387
684.039	3078
684.057	2628
684.086	1862
684.133	3278
684.179	2377
684.180	2333
684.227	2802
684.274	3386
684.300	3114
684.321	2889
684.368	1939
684.415	2298
684.422	2405
684.462	2928
684.509	2971
684.543	3037
684.556	3054
684.603	2700
684.649	3252
684.665	3308
684.696	3471
684.743	3411
684.786	3056
684.790	3014
684.837	2989
684.883	4064
684.908	3973
684.930	3817
684.977	4500
685.023	4219
685.029	4236
685.070	4251
685.117	3714
685.150	3793
685.164	3831
685.210	4231
685.257	4969
685.272	4646
685.303	3931
685.350	3787
685.393	4096
685.396	4114
685.443	4443
685.490	4537
685.514	4531
685.536	4464
685.583	4941
685.629	4509
685.636	4397
685.675	3677
685.722	4385
685.757	4324
685.768	4320
685.815	4702
685.861	4593
685.878	4683
685.908	4827
685.954	4430
686.000	5492
686.000	5507
686.047	4855
686.093	5460
686.121	5720
686.139	5706
686.185	5317
686.232	5430
686.242	5354
686.278	5170
686.324	5283
686.363	5384
686.370	5404
686.416	4899
686.463	5123
686.484	4733
686.509	4328
686.555	5336
686.601	4873
686.606	4952
686.647	5562
686.693	5071
686.727	5208
686.739	5255
686.785	5051
686.831	5188
686.848	5291
686.877	5510
686.923	5141
686.969	5197
686.969	5197
687.015	4790
687.061	5413
687.090	5482
687.107	5355
687.153	5404
687.199	5158
687.211	4867
687.245	4480
687.291	5375
687.332	5636
687.336	5641
687.382	5730
687.428	5289
687.453	5617
687.474	5870
687.520	5103
687.565	5747
687.574	5708
687.611	5650
687.657	5631
687.695	5408
687.702	5417
687.748	6177
687.794	6924
687.816	6852
687.839	6464
687.885	5585
687.931	5979
687.937	5948
687.976	5993
688.022	5869
688.058	5873
688.067	5890
688.113	6035
688.158	6112
688.179	6123
688.204	6121
688.249	5781
688.295	6204
688.300	6181
688.340	6238
688.386	6353
688.421	6333
688.431	6272
688.477	6487
688.522	6827
688.542	6453
688.567	6051
688.613	6159
688.658	6802
688.663	6767
688.703	6518
688.749	6064
688.784	6292
688.794	6397
688.839	6677
688.884	6686
688.905	6899
688.930	7048
688.975	7050
689.020	6747
689.026	6684
689.065	6487
689.110	6518
689.146	6804
689.155	6834
689.201	7018
689.246	6649
689.267	6609
689.291	6698
689.336	6959
689.381	6797
689.388	6754
689.426	6627
689.471	7012
689.509	7278
689.516	7288
689.561	7236
689.606	6822
689.630	6613
689.651	6555
689.696	6381
689.741	7254
689.750	7164
689.785	6936
689.830	7364
689.871	6932
689.875	6890
689.920	7223
689.965	7268
689.992	7362
690.010	7422
690.054	7288
690.099	6873
690.112	7054
690.144	7585
690.189	7216
690.233	7231
690.233	7242
690.278	7688
690.323	7250
690.354	7365
690.367	7513
690.412	7592
690.457	7648
690.474	7944
690.501	8305
690.546	8074
690.590	7809
690.595	7812
690.635	8355
690.680	8883
690.716	9438
690.724	9619
690.769	10243
690.813	11153
690.836	11316
690.857	12256
690.902	14761
690.946	17112
690.957	17723
690.991	22989
691.035	30206
691.077	36790
691.080	36878
691.124	36414
691.168	36152
691.198	35794
691.213	33657
691.257	27739
691.301	21167
691.318	18723
691.346	17295
691.390	14692
691.434	12595
691.439	12320
691.478	11688
691.522	10912
691.559	10144
691.567	10134
691.611	10527
691.655	10342
691.680	10180
691.699	10030
691.743	9898
691.787	9820
691.800	9585
691.831	9148
691.875	9042
691.919	9163
691.921	9137
691.964	9070
692.008	9367
692.041	9154
692.052	9157
692.096	9552
692.139	9697
692.162	9758
692.183	9735
692.227	9833
692.271	9546
692.282	9578
692.315	9724
692.359	9544
692.402	9405
692.403	9423
692.447	9182
692.490	9148
692.523	9017
692.534	9054
692.578	9172
692.622	8913
692.643	9002
692.666	9270
692.709	9701
692.753	9848
692.763	9868
692.797	9669
692.840	9871
692.884	9657
692.884	9680
692.928	9891
692.971	10078
693.004	10289
693.015	10330
693.059	10312
693.102	10335
693.124	10383
693.146	10490
693.189	10427
693.233	10341
693.245	10394
693.276	11161
693.320	11683
693.363	12607
693.365	12607
693.407	13166
693.450	13784
693.485	14167
693.493	14640
693.537	17144
693.580	19415
693.605	20881
693.624	23283
693.667	28588
693.710	34135
693.725	36011
693.753	46005
693.797	61896
693.840	77893
693.845	79573
693.883	79096
693.926	78120
693.966	77336
693.970	76054
694.013	61452
694.056	46320
694.086	36210
694.099	34559
694.142	28770
694.185	22958
694.206	20104
694.229	19129
694.272	17501
694.315	15835
694.326	15321
694.358	14605
694.401	13932
694.444	12830
694.446	12749
694.487	12618
694.530	12648
694.566	12539
694.573	12436
694.616	11385
694.659	10558
694.686	10045
694.702	10113
694.745	10147
694.787	10066
694.806	9996
694.830	9996
694.873	10320
694.916	10476
694.926	10414
694.959	10231
695.002	10298
695.044	10118
695.046	10096
695.087	10246
695.130	10263
695.166	10162
695.172	10195
695.215	10110
695.258	10297
695.286	10331
695.301	10446
695.343	10780
695.386	11087
695.406	11064
695.428	10755
695.471	10384
695.514	10129
695.526	9952
695.556	10048
695.599	10376
695.641	10611
695.646	10603
695.684	10534
695.726	10426
695.766	10324
695.769	10347
695.811	10282
695.854	10136
695.886	10102
695.896	10122
695.938	10071
695.981	9876
696.005	9790
696.023	9952
696.065	10144
696.108	10486
696.125	10594
696.150	10715
696.192	10914
696.235	11084
696.245	11068
696.277	10811
696.319	10523
696.361	10182
696.365	10132
696.404	10307
696.446	10400
696.485	10455
696.488	10501
696.530	10696
696.572	10978
696.604	11035
696.614	10986
696.656	10711
696.698	10605
696.724	10387
696.740	10385
696.783	10250
696.825	10355
696.844	10321
696.867	10482
696.909	10674
696.951	10893
696.964	10950
696.992	10736
697.034	10249
697.076	9879
697.083	9789
697.118	10093
697.160	10324
697.202	10682
697.203	10657
697.244	10297
697.286	10095
697.323	9687
697.327	9696
697.369	9624
697.411	9498
697.442	9478
697.453	9602
697.494	9894
697.536	10158
697.562	10318
697.578	10407
697.620	10652
697.661	10698
697.682	10743
697.703	10965
697.744	11381
697.786	11813
697.801	11888
697.828	11674
697.869	11385
697.911	11034
697.921	10924
697.952	10992
697.994	11049
698.035	11086
698.040	11061
698.077	11088
698.118	11069
698.160	11062
698.160	11031
698.201	11015
698.243	10979
698.279	10915
698.284	10960
698.325	11068
698.367	11238
698.399	11279
698.408	11228
698.449	10854
698.491	10511
698.518	10241
698.532	10362
698.573	10671
698.614	10925
698.638	11058
698.656	11027
698.697	10867
698.738	10702
698.757	10600
698.779	10848
698.820	11259
698.862	11663
698.877	11781
698.903	11808
698.944	11797
698.985	11788
698.996	11753
699.026	11700
699.067	11582
699.116	11410
699.235	10233
699.354	10546
699.474	10439
699.593	11513
699.713	10947
699.832	10475
699.951	10413
700.070	10630
700.190	10462
700.309	10461
700.428	10667
700.547	10319
700.667	10373
700.786	11516
700.905	10095
701.024	10950
701.143	9925
701.262	9571
701.381	10052
701.500	10276
701.619	10181
701.738	10231
701.857	9939
701.976	8813
702.095	9428
702.214	10306
702.333	9856
702.452	9408
702.571	9335
702.690	9667
702.809	10180
702.928	9248
703.047	9630
703.165	8985
703.284	9255
703.403	9191
703.522	9395
703.640	11267
703.759	10288
703.878	12578
703.997	9331
704.115	9329
704.234	8493
704.353	8237
704.471	8244
704.590	8536
704.708	8980
704.827	8919
704.946	9680
705.064	8630
705.183	9294
705.301	10583
705.420	13813
705.538	12887
705.656	11534
705.775	11761
705.893	20976
706.012	24721
706.130	11413
706.249	11150
706.367	10836
706.485	11733
706.604	10731
706.722	11431
706.840	12384
706.958	13502
707.077	11912
707.195	10633
707.313	10508
707.431	10381
707.549	9443
707.668	10206
707.786	10860
707.904	9913
708.022	10028
708.140	10697
708.258	10290
708.376	10350
708.494	9652
708.612	11521
708.730	15053
708.848	13860
708.966	12406
709.084	12584
709.202	11986
709.320	13093
709.438	12124
709.556	11957
709.674	12060
709.791	12199
709.909	11219
710.027	11473
710.145	11713
710.263	11964
710.380	10886
710.498	11402
710.616	11451
710.733	10905
710.851	12278
710.969	12008
711.086	11276
711.204	11923
711.322	10848
711.439	11372
711.557	11630
711.674	11275
711.792	10563
711.909	12053
712.027	11145
712.144	10445
712.262	10216
712.379	11197
712.497	16095
712.614	16071
712.732	13229
712.849	13463
712.966	12384
713.084	14225
713.201	13494
713.318	13317
713.436	12751
713.553	12965
713.670	13460
713.787	13471
713.905	13839
714.022	13290
714.139	12660
714.256	14315
714.373	12768
714.490	17887
714.608	28257
714.725	95852
714.842	95268
714.959	15834
715.076	13433
715.193	11811
715.310	11269
715.427	12118
715.544	10476
715.661	11224
715.778	11216
715.895	11833
716.011	12319
716.128	11495
716.245	10474
716.362	10324
716.479	12505
716.596	11288
716.713	10736
716.829	11044
716.946	10465
717.063	9845
717.180	9265
717.296	9894
717.413	10326
717.530	9399
717.646	9950
717.763	10611
717.880	9920
717.996	9349
718.113	8602
718.229	9901
718.346	8801
718.462	9523
718.579	10552
718.695	12465
718.812	11108
718.928	11705
719.045	10039
719.161	9308
719.277	8687
719.394	9313
719.510	9938
719.626	9133
719.743	10656
719.859	11163
719.975	12902
720.092	27754
720.208	54311
720.324	12743
720.440	8982
720.557	10001
720.673	11258
720.789	16159
720.905	30745
721.021	12811
721.137	8524
721.253	8744
721.369	8830
721.486	9309
721.602	12257
721.718	8710
721.834	8369
721.950	8680
722.066	7357
722.181	7900
722.297	8160
722.413	8127
722.529	8524
722.645	8110
722.761	7385
722.877	7403
722.993	7593
723.108	7982
723.224	7476
723.340	6787
723.456	7739
723.571	7099
723.687	6752
723.803	7611
723.918	7036
724.034	7009
724.150	7122
724.265	7798
724.381	13105
724.497	15813
724.612	7320
724.728	6561
724.843	6549
724.959	7508
725.074	11701
725.190	14268
725.305	6811
725.421	7223
725.536	6680
725.651	6353
725.767	6756
725.882	7132
725.997	6774
726.113	6563
726.228	5964
726.343	5814
726.459	5514
726.574	5635
726.689	5604
726.804	6044
726.920	6133
727.035	6389
727.150	6121
727.265	6220
727.380	5789
727.495	6454
727.610	4631
727.725	6577
727.841	7078
727.956	12698
728.071	9785
728.186	5638
728.301	5348
728.416	5942
728.531	5054
728.645	5201
728.760	5915
728.875	5200
728.990	5480
729.105	5477
729.220	5623
729.335	5602
729.449	5073
729.564	5163
729.679	5144
729.794	5471
729.908	5481
730.023	5857
730.138	5582
730.253	4720
730.367	4545
730.482	5161
730.596	5281
730.711	5266
730.826	5013
730.940	5567
731.055	4847
731.169	4951
731.284	4918
731.398	4968
731.513	5542
731.627	5202
731.742	5928
731.856	5892
731.970	5225
732.085	4744
732.199	6529
732.313	7152
732.428	11389
732.542	25297
732.656	15052
732.771	6329
732.885	5531
732.999	4725
733.113	5180
733.227	5183
733.342	5123
733.456	4530
733.570	4328
733.684	4514
733.798	4468
733.912	4047
734.026	3520
734.140	4970
734.254	5957
734.368	6854
734.482	8340
734.596	3998
734.710	4864
734.824	3859
734.938	4218
735.052	4344
735.166	4061
735.280	4896
735.393	4497
735.507	4073
735.621	5458
735.735	9018
735.849	5383
735.962	4458
736.076	4256
736.190	4201
736.303	6205
736.417	7277
736.531	3685
736.644	3672
736.758	4305
736.872	4038
736.985	3665
737.099	4579
737.212	3557
737.326	4205
737.439	3949
737.553	3604
737.666	4093
737.780	3518
737.893	4558
738.007	3706
738.120	3461
738.233	3267
738.347	3153
738.460	4220
738.573	4007
738.687	3700
738.800	3502
738.913	3803
739.026	3507
739.140	3497
739.253	3827
739.366	4097
739.479	3484
739.592	2406
739.705	3682
739.818	4106
739.932	3325
740.045	3045
740.158	3491
740.271	3847
740.384	3371
740.497	3673
740.610	3364
740.723	3887
740.836	4680
740.949	3717
741.062	3455
741.174	4333
741.287	3521
741.400	3834
741.513	3488
741.626	3611
741.739	3517
741.851	3454
741.964	2828
742.077	3013
742.189	3762
742.302	4098
742.415	3420
742.527	3331
742.640	3072
742.753	3966
742.865	2407
742.978	2868
743.090	3536
743.203	3282
743.316	3618
743.428	3069
743.541	3381
743.653	2487
743.766	3691
743.878	2531
743.990	3300
744.103	4608
744.215	3914
744.327	3272
744.440	4156
744.552	5064
744.664	2753
744.777	2830
744.889	2544
745.001	3739
745.113	3035
745.226	2666
745.338	3363
745.450	3152
745.562	2911
745.674	2883
745.786	3305
745.898	3981
746.010	2740
746.122	2721
746.234	3297
746.347	2536
746.459	3064
746.570	2853
746.682	3348
746.794	4158
746.906	3047
747.018	3554
747.130	2792
747.242	3094
747.354	2429
747.466	3042
747.577	2646
747.689	3650
747.801	2535
747.913	2065
748.024	2678
748.136	2826
748.248	1938
748.359	4472
748.471	3140
748.583	2768
748.694	3195
748.806	4766
748.918	3872
749.029	3754
749.141	2449
749.252	3216
749.364	2525
749.475	4542
749.587	3865
749.698	3139
749.809	3440
749.921	2728
750.032	2883
750.144	3585
750.255	2920
750.366	2553
750.478	2765
750.589	2597
750.700	3110
750.811	3924
750.923	4477
751.034	4238
751.145	4106
751.256	3312
751.367	3327
751.479	3023
751.590	2782
751.701	2618
751.812	2466
751.923	3115
752.034	3538
752.145	2830
752.256	2403
752.367	2519
752.478	2909
752.589	3041
752.700	2857
752.811	2856
752.922	2929
753.032	2855
753.143	3640
753.254	2489
753.365	2741
753.476	2210
753.586	2497
753.697	3589
753.808	3026
753.919	3075
754.029	1981
754.140	2645
754.251	2742
754.361	2757
754.472	3535
754.582	2748
754.693	2635
754.804	3097
754.914	1860
755.025	2960
755.135	1729
755.246	2939
755.356	2599
755.466	2718
755.577	2891
755.687	3212
755.798	3169
755.908	3056
756.018	2403
756.129	3238
756.239	2723
756.349	3104
756.460	2703
756.570	2603
756.680	3132
756.790	2646
756.900	3173
757.011	2950
757.121	3317
757.231	3296
757.341	3273
757.451	2413
757.561	2263
757.671	3087
757.781	2366
757.891	3479
758.001	2441
758.111	3233
758.221	3480
758.331	3427
758.441	3208
758.551	3481
758.661	3694
758.771	2971
758.880	3826
758.990	3896
759.100	3207
759.210	3887
759.320	4045
759.429	3508
759.539	4156
759.649	3845
759.758	4116
759.868	4540
759.978	4096
760.087	4728
760.197	4432
760.307	4446
760.416	4299
760.526	3323
760.635	4894
760.745	4556
760.854	4690
760.964	4837
761.073	4728
761.182	4549
761.292	5168
761.401	5566
761.511	5515
761.620	5841
761.729	5304
761.839	4857
761.948	5534
762.057	5600
762.166	5415
762.276	5286
762.385	7458
762.494	6740
762.603	6461
762.712	6320
762.822	6216
762.931	7823
763.040	6463
763.149	7995
763.258	9104
763.367	8941
763.476	9603
763.585	9887
763.694	10576
763.803	10748
763.912	12283
764.021	12007
764.130	12717
764.238	14904
764.347	14802
764.456	15626
764.565	17561
764.674	18084
764.783	20389
764.891	21937
765.000	25576
765.109	30070
765.217	32373
765.326	38484
765.435	45926
765.543	55787
765.652	69664
765.761	89778
765.869	121643
765.978	170295
766.086	249668
766.195	381719
766.303	560383
766.412	564483
766.520	501026
766.629	484147
766.737	334370
766.846	225271
766.954	158840
767.062	117362
767.171	90024
767.279	68526
767.387	55033
767.496	45915
767.604	39187
767.712	33694
767.820	29567
767.928	28674
768.037	24145
768.145	25204
768.253	23793
768.361	22435
768.469	22241
768.577	22678
768.685	24823
768.793	27099
768.901	27918
769.009	33822
769.117	40052
769.225	52351
769.333	70620
769.441	106492
769.549	170716
769.657	307450
769.765	507728
769.873	478651
769.981	423500
770.088	267319
770.196	157521
770.304	104231
770.412	73418
770.519	56583
770.627	44684
770.735	36434
770.842	30196
770.950	25651
771.058	21423
771.165	20100
771.273	17335
771.380	17281
771.488	15408
771.595	13993
771.703	12075
771.810	13208
771.918	12156
772.025	9876
772.133	9455
772.240	9147
772.348	8777
772.455	9229
772.562	7721
772.670	7393
772.777	7156
772.884	7592
772.991	7006
773.099	7020
773.206	5738
773.313	6805
773.420	7080
773.528	5972
773.635	5121
773.742	5318
773.849	5515
773.956	4936
774.063	4917
774.170	3760
774.277	5646
774.384	5071
774.491	4454
774.598	5115
774.705	4356
774.812	5126
774.919	4755
775.026	4738
775.133	4626
775.239	3889
775.346	4026
775.453	4000
775.560	3307
775.667	4675
775.773	2923
775.880	4020
775.987	3279
776.093	3318
776.200	3088
776.307	3067
776.413	3610
776.520	3343
776.627	3443
776.733	3558
776.840	1901
776.946	4583
777.053	4746
777.159	5654
777.266	2149
777.372	6212
777.478	5197
777.585	3906
777.691	2459
777.798	3576
777.904	3577
778.010	4097
778.117	4332
778.223	2633
778.329	1779
778.435	3095
778.542	2359
778.648	3442
778.754	1809
778.860	2647
778.966	1921
779.072	2436
779.178	2067
779.284	3328
779.391	2719
779.497	2929
779.603	5581
779.708	5560
779.815	13688
779.920	49131
780.026	84672
780.132	13145
780.238	4098
780.344	3456
780.450	2009
780.556	2492
780.661	1769
780.767	2651
780.873	2107
780.979	2281
781.085	1547
781.190	1402
781.296	1436
781.402	2307
781.507	2023
781.613	2567
781.719	1272
781.824	1618
781.930	2292
782.035	1569
782.141	2116
782.246	2202
782.352	1471
782.457	1375
782.563	1358
782.668	2056
782.773	1215
782.879	1124
782.984	1218
783.090	1762
783.195	2296
783.300	1902
783.405	1931
783.511	1867
783.616	1508
783.721	1442
783.826	1466
783.932	2035
784.037	1452
784.142	1375
784.247	1148
784.352	1541
784.457	1531
784.562	1776
784.667	2099
784.772	1405
784.877	843
784.982	1665
785.087	475
785.192	1150
785.297	895
785.402	1455
785.507	951
785.611	952
785.716	1102
785.821	981
785.926	271
786.031	1463
786.135	768
786.240	1139
786.345	-463
786.450	1793
786.554	1518
786.659	1819
786.763	455
786.868	2366
786.973	1397
787.077	1270
787.182	1634
787.286	744
787.391	591
787.495	1143
787.600	1317
787.704	1654
787.809	990
787.913	901
788.017	1668
788.122	1612
788.226	858
788.330	317
788.435	1070
788.539	980
788.643	991
788.747	1511
788.852	674
788.956	550
789.060	1153
789.164	946
789.268	199
789.372	867
789.476	1681
789.580	1129
789.684	-270
789.788	1731
789.892	166
789.996	1829
790.100	798
790.204	666
790.308	1481
790.412	550
790.516	1598
790.620	589
790.724	181
790.828	828
790.931	519
791.035	2291
791.139	1079
791.242	93
791.346	2195
791.450	990
791.554	486
791.657	-220
791.761	2028
791.864	1826
791.968	1008
792.072	1722
792.175	1296
792.279	1219
792.382	1032
792.486	1428
792.589	865
792.693	1098
792.796	-283
792.899	1348
793.003	2016
793.106	-176
793.209	199
793.313	1902
793.416	-1022
793.519	1598
793.623	1233
793.726	1353
793.829	664
793.932	1339
794.035	-871
794.138	1784
794.242	1735
794.345	1096
794.448	2933
794.551	6225
794.654	25995
794.757	48892
794.860	8729
794.963	1074
795.066	1350
795.169	2273
795.272	589
795.375	953
795.477	36
795.580	754
795.683	293
795.786	897
795.889	-240
795.991	1279
796.094	1363
796.197	-86
796.300	1815
796.402	-480
796.505	353
796.608	1029
796.710	1456
796.813	632
796.915	204
797.018	921
797.120	747
797.223	-505
797.326	1845
797.428	258
797.530	518
797.633	861
797.735	1272
797.838	667
797.940	1339
798.042	319
798.145	-21
798.247	1336
798.349	-245
798.452	910
798.554	-383
798.656	-395
798.758	1366
798.860	464
798.962	1103
799.065	-93
799.167	-34
799.269	871
799.371	668
799.473	821
799.575	-167
799.677	165
799.779	1880
799.881	-416
799.983	1369
800.085	463
800.187	467
800.289	351
800.390	447
800.492	131
800.594	1635
800.696	-351
800.798	-126
800.899	-258
801.001	-921
801.103	-19
801.205	-159
801.306	539
801.408	-1049
801.509	406
801.611	224
801.713	1105
801.814	-91
801.916	-601
802.017	260
802.119	-7
802.220	433
802.322	-465
802.423	2222
802.525	-554
802.626	1155
802.727	850
802.829	377
802.930	-1566
803.031	1420
803.133	-169
803.234	19
803.335	109
803.436	-654
803.538	1122
803.639	-1447
803.740	883
803.841	-912
803.942	1090
804.043	734
804.144	-871
804.245	142
804.346	-522
804.447	-851
804.548	363
804.649	1460
804.750	-131
804.851	-441
804.952	-282
805.053	486
805.154	-637
805.255	677
805.355	278
805.456	494
805.557	-901
805.658	-276
805.758	1145
805.859	863
805.960	381
806.061	-155
806.161	493
806.262	-232
806.362	-1051
806.463	-187
806.564	674
806.664	53
806.765	551
806.865	445
806.966	44
807.066	-563
807.166	560
807.267	1454
807.367	-126
807.468	686
807.568	-1620
807.668	-210
807.769	830
807.869	-539
807.969	801
808.069	-621
808.170	145
808.270	-451
808.370	454
808.470	532
808.570	-1122
808.670	151
808.770	358
808.870	-507
808.970	158
809.070	644
809.170	-713
809.271	-281
809.370	-149
809.470	-115
809.570	-663
809.670	-347
809.770	-288
809.870	127
809.970	602
810.070	1000
810.169	635
810.269	-1004
810.369	696
810.469	-229
810.568	-1371
810.668	-378
810.768	-155
810.867	478
810.967	-80
811.066	-132
811.166	231
811.265	1277
811.365	-68
811.464	-1198
811.564	-111
811.663	295
811.763	-1254
811.862	1119
811.962	1055
812.061	201
812.160	1009
812.260	537
812.359	184
812.458	285
812.557	1900
812.657	2967
812.756	2001
812.855	561
812.954	726
813.053	912
813.153	-22
813.252	-714
813.351	971
813.450	414
813.549	136
813.648	900
813.747	552
813.846	134
813.945	500
814.044	747
814.143	1080
814.242	816
814.341	118
814.439	1515
814.538	1059
814.637	1133
814.736	797
814.835	1148
814.933	670
815.032	1328
815.131	1273
815.229	566
815.328	987
815.427	993
815.525	1415
815.624	1515
815.722	480
815.821	1902
815.919	1740
816.018	1209
816.116	2756
816.215	1662
816.313	2742
816.412	3305
816.510	2837
816.609	4256
816.707	3511
816.805	3188
816.904	4582
817.002	4954
817.100	6827
817.198	7036
817.296	7257
817.395	8567
817.493	12117
817.591	12775
817.689	18493
817.787	24995
817.885	37161
817.983	62446
818.081	114757
818.179	224518
818.277	392350
818.375	350735
818.473	194239
818.571	103312
818.669	67265
818.767	54811
818.865	53936
818.963	60870
819.061	79738
819.158	117862
819.256	201041
819.354	350315
819.452	468025
819.549	371593
819.647	239765
819.745	138069
819.842	85524
819.940	59967
820.038	42672
820.135	33016
820.233	27002
820.330	21108
820.428	16418
820.525	15175
820.623	12265
820.720	10517
820.818	9624
820.915	8671
821.012	7214
821.110	5964
821.207	6749
821.304	4857
821.402	4191
821.499	5594
821.596	5747
821.693	3285
821.791	3720
821.888	2785
821.985	4531
822.082	3321
822.179	4021
822.276	3177
822.373	2345
822.470	1293
822.567	1918
822.664	1228
822.761	1771
822.858	744
822.955	2011
823.052	1303
823.149	1005
823.246	1023
823.343	1246
823.440	1660
823.536	911
823.633	514
823.730	778
823.827	1023
823.923	172
824.020	1823
824.117	1224
824.213	310
824.310	1522
824.407	591
824.503	1190
824.600	891
824.696	273
824.793	540
824.889	-306
824.986	283
825.082	-159
825.179	455
825.275	-59
825.371	-833
825.468	981
825.564	-706
825.660	228
825.757	645
825.853	248
825.949	-1463
826.045	206
826.142	-586
826.238	-535
826.334	-169
826.430	-793
826.526	578
826.622	-424
826.718	318
826.814	-440
826.910	983
827.006	-17
827.102	-219
827.198	717
827.294	-52
827.390	-186
827.486	695
827.582	-1546
827.678	-1244
827.774	945
827.869	-723
827.965	390
828.061	-1302
828.157	237
828.252	-439
828.348	-658
828.444	298
828.539	-1375
828.635	-1472
828.731	257
828.826	-1036
828.922	-524
829.017	-436
829.113	77
829.208	-878
829.304	-546
829.399	194
829.495	-317
829.590	855
829.685	-820
829.781	-151
829.876	-270
829.971	-1544
830.066	-532
830.162	-724
830.257	-888
830.352	150
830.447	594
830.543	-890
830.638	-1974
830.733	317
830.828	-827
830.923	320
831.018	-290
831.113	-618
831.208	-1071
831.303	-237
831.398	-912
831.493	-382
831.588	-161
831.683	-728
831.778	-632
831.873	-993
831.967	127
832.062	-1213
832.157	-2001
832.252	241
832.346	-916
832.441	695
832.536	534
832.631	711
832.725	-282
832.820	-418
832.914	-869
833.009	-1591
833.104	-1045
833.198	-894
833.293	-1539
833.387	42
833.482	-106
833.576	-990
833.670	212
833.765	-613
833.859	-998
833.954	-9
834.048	65
834.142	-446
834.237	-298
834.331	-179
834.425	-457
834.519	-1383
834.613	-377
834.708	-604
834.802	-61
834.896	-801
834.990	-984
835.084	-1036
835.178	-31
835.272	-1464
835.366	-1168
835.460	340
835.554	-1136
835.648	-656
835.742	-694
835.836	-248
835.930	-1450
836.024	-456
836.117	126
836.211	-265
836.305	-551
836.399	313
836.493	-1475
836.586	260
836.680	-1314
836.774	-1824
836.867	8
836.961	-1569
837.055	-1576
837.148	-1184
837.242	-402
837.335	-1037
837.429	-266
837.522	-1048
837.616	-564
837.709	411
837.803	-414
837.896	-445
837.989	-502
838.083	-145
838.176	1992
838.269	-28
838.363	-295
838.456	-1198
838.549	-230
838.642	-252
838.735	1473
838.829	180
838.922	-1504
839.015	-1132
839.108	-1296
839.201	-781
839.294	-313
839.387	-942
839.480	-762
839.573	-425
839.666	891
839.759	-806
839.852	-1680
839.945	-302
840.038	-1393
840.131	-1014
840.223	-1289
840.316	147
840.409	-708
840.502	-2179
840.594	-48
840.687	-1542
840.780	-73
840.873	-519
840.965	-300
841.058	86
841.150	956
841.243	-192
841.336	-621
841.428	-1175
841.521	-783
841.613	-1583
841.706	-261
841.798	-609
841.890	-633
841.983	-1122
842.075	-217
842.167	-1581
842.260	-1157
842.352	-239
842.444	-360
842.537	1333
842.629	2145
842.721	-843
842.813	-280
842.905	-1102
842.997	-1126
843.090	-448
843.182	299
843.274	879
843.366	4799
843.458	8758
843.550	5449
843.642	-375
843.734	-268
843.826	-671
843.918	-282
844.009	198
844.101	-1572
844.193	-857
844.285	-839
844.377	-525
844.469	75
844.560	-549
844.652	-534
844.744	-828
844.835	-1037
844.927	-360
845.019	-251
845.110	-545
845.202	-1229
845.293	-1556
845.385	-1347
845.476	16
845.568	-146
845.659	-1021
845.751	-482
845.842	-1093
845.934	-995
846.025	-1069
846.116	-131
846.208	-716
846.299	-1371
846.390	-534
846.482	-676
846.573	-1043
846.664	-693
846.755	-1182
846.846	252
846.937	-1689
847.029	-1015
847.120	-969
847.211	-1021
847.302	-764
847.393	-1944
847.484	-312
847.575	-814
847.666	-701
847.757	-972
847.847	-472
847.938	-402
848.029	-444
848.120	-1026
848.211	-1196
848.302	-558
848.392	-880
848.483	-882
848.574	-1521
848.664	-881
848.755	-789
848.846	-1545
848.936	-1099
849.027	-1129
849.118	-656
849.208	-1282
849.299	-1450
849.389	-335
849.480	-792
849.570	210
849.661	830
849.751	2228
849.841	-667
849.932	-1455
850.022	-987
850.112	-542
850.203	-849
850.293	-630
850.383	-1513
850.474	-1892
850.564	-2124
850.654	-979
850.744	-1080
850.834	-796
850.924	-1453
851.014	-612
851.104	-708
851.194	-927
851.284	-612
851.374	-371
851.464	-1009
851.554	-582
851.644	-1096
851.734	-204
851.824	-216
851.914	-705
852.004	436
852.094	447
852.183	-427
852.273	-323
852.363	-792
852.452	-1161
852.542	-1267
852.632	-1002
852.721	-873
852.811	-1652
852.901	-421
852.990	-388
853.080	-337
853.169	-1564
853.259	-1185
853.348	-1255
853.438	-1859
853.527	-846
853.617	-466
853.706	271
853.795	59
853.885	3021
853.974	6045
854.063	13521
854.152	18903
854.242	5955
854.331	6
854.420	-1306
854.509	-1765
854.598	-452
854.687	-1075
854.777	-597
854.866	-378
854.955	-447
855.044	-1482
855.133	-1733
855.222	-828
855.311	-784
855.400	-600
855.488	-845
855.577	-1348
855.666	-856
855.755	312
855.844	-259
855.933	-619
856.021	-1016
856.110	-721
856.199	-1676
856.288	-1782
856.376	-1217
856.465	-1613
856.554	-976
856.642	-1530
856.731	-976
856.819	-577
856.908	-1628
856.996	-1606
857.085	-641
857.173	-1830
857.262	-448
857.350	-846
857.438	-1601
857.527	-1179
857.615	-1432
857.703	-1126
857.792	-1197
857.880	-914
857.968	-738
858.056	-1043
858.145	-1029
858.233	-1107
858.321	-2158
858.409	-644
858.497	-1702
858.585	-1224
858.673	-1079
858.761	-1310
858.849	-762
858.937	-1795
859.025	-356
859.113	-1237
859.201	-2126
859.289	-470
859.377	-1387
859.465	-1098
859.552	-1834
859.640	-1542
859.728	-556
859.816	-2445
859.903	-1186
859.991	-1809
860.079	-1289
860.166	-1782
860.254	-695
860.342	-1270
860.429	-1647
860.517	-1127
860.604	-851
860.692	-725
860.779	-1666
860.867	-1707
860.954	-1676
861.042	-1784
861.129	-957
861.216	-1063
861.304	-1420
861.391	-1607
861.478	-1110
861.565	-450
861.653	-604
861.740	-1946
861.827	-1192
861.914	-2056
862.001	-1416
862.089	-1461
862.176	-260
862.263	-1544
862.350	-1113
862.437	-1043
862.524	-1601
862.611	-1647
862.698	-1391
862.785	-1377
862.871	-1385
862.958	-1507
863.045	-1560
863.132	-1876
863.219	-1088
863.306	-1733
863.392	-657
863.479	-993
863.566	-1331
863.652	-957
863.739	-1656
863.826	-1161
863.912	-1250
863.999	-2002
864.086	-878
864.172	-1649
864.259	-1320
864.345	-1582
864.432	-1507
864.518	-1237
864.604	-1268
864.691	-1783
864.777	-1588
864.863	-461
864.950	-1487
865.036	-1542
865.122	-1257
865.209	-1808
865.295	-1049
865.381	-362
865.467	-950
865.553	-711
865.639	-1273
865.726	-1583
865.812	607
865.898	1711
865.984	4115
866.070	9126
866.156	8766
866.242	527
866.328	138
866.414	-724
866.499	-538
866.585	-785
866.671	-1121
866.757	-956
866.843	-1124
866.928	-697
867.014	-1244
867.100	-1284
867.186	-881
867.271	-1038
867.357	-956
867.442	-573
867.528	-833
867.614	-1372
867.699	-1108
867.785	-839
867.870	-1350
867.956	-86
868.041	-847
868.127	-1195
868.212	-562
868.297	-377
868.383	-1133
868.468	-282
868.553	-783
868.639	-723
868.724	829
868.809	655
868.894	-1474
868.979	-1261
869.065	-828
869.150	-1637
869.235	-920
869.320	-1959
869.405	-1361
869.490	-1679
869.575	-1139
869.660	-1019
869.745	-516
869.830	-1549
869.915	-1652
870.000	-2720
870.085	-1396
870.169	-923
870.254	-822
870.339	-1475
870.424	-1142
870.509	-1195
870.593	-1521
870.678	-809
870.763	-1747
870.847	-1555
870.932	-1281
871.016	-1672
871.101	-1087
871.186	-1274
871.270	-788
871.355	-1576
871.439	-676
871.523	-1263
871.608	-1459
871.692	-1969
871.777	-1509
871.861	-1255
871.945	-1611
872.030	-822
872.114	-1572
872.198	-1356
872.282	-1113
872.367	-1696
872.451	-1858
872.535	-1776
872.619	-1244
872.703	-1529
872.787	-1652
872.871	-1530
872.955	-1858
873.039	-1058
873.123	-1514
873.207	-1270
873.291	-1956
873.375	-2280
873.459	-1137
873.543	-1320
873.627	-1496
873.711	-1343
873.794	-1560
873.878	-1546
873.962	-1823
874.045	-1608
874.129	-1919
874.137	-1899
874.213	-1700
874.245	-1697
874.296	-1703
874.352	-1944
874.380	-2059
874.460	-1395
874.464	-1370
874.547	-1916
874.568	-1799
874.631	-1445
874.676	-1384
874.714	-1336
874.784	-1007
874.798	-945
874.881	-189
874.892	-354
874.965	-1454
874.999	-1309
875.048	-1115
875.107	-1141
875.131	-1161
875.215	-1359
875.215	-1358
875.298	-1176
875.323	-1196
875.381	-1240
875.430	-1431
875.465	-1531
875.538	-1612
875.548	-1633
875.631	-1896
875.646	-1864
875.714	-1763
875.753	-1463
875.798	-1054
875.861	-1665
875.881	-1856
875.964	-1586
875.968	-1558
876.047	-1181
876.076	-1104
876.130	-852
876.183	-963
876.213	-1078
876.291	-1062
876.296	-1057
876.379	-1626
876.398	-1628
876.462	-1678
876.506	-1621
876.545	-1555
876.613	-1548
876.628	-1534
876.711	-2010
876.721	-1983
876.794	-1787
876.828	-1654
876.877	-1448
876.935	-1132
876.960	-1020
877.043	-1822
877.043	-1820
877.125	-1297
877.150	-1364
877.208	-1356
877.258	-735
877.291	-429
877.365	-1051
877.374	-1118
877.456	-782
877.472	-882
877.539	-1137
877.579	-1006
877.622	-1024
877.687	-1050
877.704	-1009
877.787	-775
877.794	-830
877.869	-1491
877.901	-1363
877.952	-1195
878.008	-1001
878.034	-839
878.115	-1384
878.117	-1397
878.199	-1014
878.222	-1003
878.282	-779
878.329	-814
878.364	-964
878.437	-634
878.447	-560
878.529	-1073
878.544	-941
878.611	-563
878.651	-532
878.694	-268
878.758	5
878.776	-6
878.858	-725
878.865	-735
878.941	-569
878.972	-651
879.023	-838
879.078	-846
879.105	-807
879.185	-446
879.187	-445
879.269	-1012
879.292	-948
879.351	-506
879.399	-800
879.433	-1143
879.506	-1321
879.516	-1278
879.598	-899
879.613	-861
879.680	-856
879.720	-725
879.762	-558
879.827	-752
879.844	-902
879.926	-988
879.933	-1038
880.007	-1011
880.040	-957
880.089	-894
880.147	-777
880.171	-736
880.253	-351
880.254	-353
880.335	-359
880.360	-382
880.417	-120
880.467	575
880.499	1001
880.574	1598
880.580	1573
880.662	576
880.680	209
880.744	-685
880.787	-503
880.825	-277
880.893	-714
880.907	-857
880.989	-1406
881.000	-1344
881.070	-188
881.106	-165
881.152	-497
881.213	-709
881.233	-652
881.315	-384
881.319	-362
881.396	-318
881.426	-422
881.478	-566
881.532	-721
881.559	-803
881.639	-1214
881.641	-1210
881.722	-451
881.745	-460
881.803	-763
881.852	-672
881.885	-491
881.958	-713
881.966	-772
882.047	-341
882.064	-480
882.129	-779
882.171	-771
882.210	-588
882.277	-120
882.291	-98
882.372	-269
882.383	-311
882.454	-645
882.489	-690
882.535	-679
882.596	-740
882.616	-703
882.697	-897
882.702	-879
882.778	-217
882.808	-91
882.859	-335
882.914	-460
882.940	-377
883.020	-415
883.021	-413
883.102	-852
883.127	-721
883.183	134
883.233	311
883.264	98
883.339	-35
883.345	-18
883.426	-605
883.445	-467
883.507	-96
883.551	-437
883.587	-495
883.657	-185
883.668	-196
883.749	-101
883.763	-128
883.830	17
883.869	36
883.910	-81
883.975	-174
883.991	-277
884.072	-699
884.081	-804
884.152	-773
884.187	-536
884.233	-418
884.292	-542
884.314	-540
884.394	-168
884.398	-163
884.475	-91
884.504	-166
884.555	-444
884.610	-549
884.636	-478
884.716	-283
884.716	-277
884.797	-153
884.821	-157
884.877	206
884.927	548
884.958	306
885.033	-543
885.038	-519
885.118	78
885.139	212
885.199	121
885.244	-37
885.279	-60
885.350	-48
885.359	-69
885.439	-218
885.456	-318
885.520	-189
885.561	175
885.600	78
885.667	-641
885.680	-631
885.760	-208
885.773	-170
885.840	-226
885.878	-199
885.920	52
885.984	213
886.000	156
886.080	176
886.089	112
886.160	-382
886.195	-434
886.240	-81
886.300	309
886.320	304
886.400	457
886.406	439
886.480	-147
886.511	-372
886.560	-12
886.616	503
886.640	447
886.720	14
886.722	1
886.800	387
886.827	454
886.879	-104
886.932	-588
886.959	-293
887.038	602
887.039	609
887.119	385
887.143	368
887.198	443
887.248	491
887.278	231
887.354	-464
887.358	-408
887.437	625
887.459	927
887.517	833
887.564	637
887.596	733
887.669	941
887.676	862
887.755	-51
887.774	-330
887.835	-107
887.880	182
887.914	245
887.985	160
887.994	145
888.073	28
888.090	-11
888.153	-102
888.195	-76
888.232	219
888.300	635
888.311	578
888.391	77
888.405	-5
888.470	72
888.510	84
888.549	224
888.615	512
888.628	523
888.708	505
888.720	488
888.787	281
888.825	190
888.866	276
888.930	352
888.945	366
889.024	419
889.035	420
889.103	89
889.140	-94
889.182	301
889.245	865
889.261	817
889.340	524
889.349	485
889.419	288
889.454	187
889.498	798
889.559	1607
889.577	1447
889.656	711
889.664	634
889.735	793
889.768	860
889.814	740
889.873	576
889.978	1148
890.083	345
890.187	1077
890.292	257
890.397	1433
890.501	897
890.606	559
890.710	648
890.815	1027
890.919	1564
891.024	-120
891.128	917
891.233	193
891.337	961
891.442	1104
891.546	818
891.650	323
891.755	435
891.859	1373
891.963	959
892.068	1423
892.172	441
892.276	817
892.380	439
892.484	1304
892.589	694
892.693	927
892.797	501
892.901	823
893.005	154
893.109	1425
893.213	288
893.317	1257
893.421	427
893.525	1064
893.629	-278
893.733	366
893.837	856
893.941	591
894.045	770
894.148	1232
894.252	1009
894.356	417
894.460	501
894.564	385
894.667	181
894.771	246
894.875	108
894.978	943
895.082	478
895.186	744
895.289	1230
895.393	519
895.496	464
895.600	-98
895.703	29
895.807	79
895.910	488
896.014	838
896.117	-475
896.221	1242
896.324	249
896.427	1299
896.531	259
896.634	232
896.737	418
896.840	839
896.944	287
897.047	572
897.150	86
897.253	289
897.356	209
897.460	153
897.563	430
897.666	-114
897.769	397
897.872	401
897.975	-9
898.078	1220
898.181	569
898.284	640
898.387	-21
898.490	471
898.593	610
898.695	353
898.798	546
898.901	1240
899.004	1256
899.107	347
899.209	430
899.312	-13
899.415	92
899.518	489
899.620	-60
899.723	-278
899.826	300
899.928	1344
900.031	51
900.133	858
900.236	148
900.338	430
900.441	-583
900.543	-220
900.646	188
900.748	483
900.851	841
900.953	801
901.055	664
901.158	421
901.260	800
901.362	150
901.465	327
901.567	1614
901.669	1074
901.771	288
901.873	784
901.976	-385
902.078	-200
902.180	1201
902.282	28
902.384	61
902.486	537
902.588	1070
902.690	1208
902.792	425
902.894	89
902.996	351
903.098	-266
903.200	-192
903.302	838
903.404	-55
903.505	160
903.607	-5
903.709	145
903.811	153
903.913	439
904.014	-14
904.116	-15
904.218	270
904.319	389
904.421	646
904.523	508
904.624	-74
904.726	121
904.827	45
904.929	310
905.030	649
905.132	402
905.233	542
905.335	72
905.436	178
905.537	522
905.639	1348
905.740	379
905.841	528
905.943	389
906.044	352
906.145	-71
906.247	-88
906.348	-723
906.449	176
906.550	248
906.651	98
906.752	-411
906.854	-80
906.955	266
907.056	418
907.157	-387
907.258	355
907.359	760
907.460	225
907.561	-376
907.662	301
907.762	539
907.863	895
907.964	-446
908.065	37
908.166	-218
908.267	192
908.367	452
908.468	618
908.569	276
908.670	46
908.770	-19
908.871	526
908.971	320
909.072	405
909.173	613
909.273	744
909.374	-22
909.474	-290
909.575	307
909.675	-41
909.776	706
909.876	122
909.977	481
910.077	130
910.177	-884
910.278	145
910.378	826
910.478	279
910.579	-238
910.679	685
910.779	-521
910.879	707
910.980	-378
911.080	-447
911.180	217
911.280	1357
911.380	314
911.480	543
911.580	316
911.680	174
911.780	14
911.880	170
911.980	-141
912.080	880
912.180	-491
912.280	237
912.380	435
912.480	173
912.580	-51
912.679	-676
912.779	508
912.879	340
912.979	321
913.078	-280
913.178	-952
913.278	427
913.377	151
913.477	-356
913.577	-406
913.676	553
913.776	74
913.875	479
913.975	486
914.074	-381
914.174	54
914.273	-453
914.373	658
914.472	459
914.572	-156
914.671	93
914.770	59
914.870	56
914.969	-290
915.068	-176
915.167	684
915.267	-147
915.366	321
915.465	65
915.564	384
915.663	359
915.763	-284
915.862	685
915.961	-207
916.060	-166
916.159	170
916.258	-530
916.357	-246
916.456	1432
916.555	226
916.654	772
916.752	-838
916.851	-232
916.950	245
917.049	-337
917.148	-66
917.247	68
917.345	249
917.444	-78
917.543	-30
917.642	-98
917.740	170
917.839	-631
917.937	696
918.036	1214
918.135	319
918.233	473
918.332	-902
918.430	354
918.529	455
918.627	17
918.726	-281
918.824	357
918.923	-69
919.021	1049
919.119	316
919.218	-80
919.316	-937
919.414	-546
919.512	365
919.611	475
919.709	-657
919.807	416
919.905	-1009
920.003	-226
920.102	83
920.200	-115
920.298	-471
920.396	938
920.494	-267
920.592	-198
920.690	733
920.788	-260
920.886	-442
920.984	427
921.082	483
921.180	559
921.277	352
921.375	76
921.473	45
921.571	891
921.669	-288
921.766	-133
921.864	142
921.962	776
922.060	195
922.157	0
922.255	-206
922.352	187
922.450	1156
922.548	820
922.645	333
922.743	264
922.840	506
922.938	904
923.035	443
923.133	-307
923.230	-22
923.327	384
923.425	-70
923.522	1150
923.619	-593
923.717	-216
923.814	207
923.911	933
924.008	568
924.106	281
924.203	311
924.300	-365
924.397	-23
924.494	1201
924.591	357
924.688	525
924.786	-53
924.883	1119
924.979	929
925.077	50
925.173	-176
925.270	12
925.367	-101
925.464	234
925.561	514
925.658	649
925.755	862
925.852	1073
925.948	542
926.045	635
926.142	515
926.239	1837
926.335	-505
926.432	850
926.529	1901
926.625	1341
926.722	491
926.818	-179
926.915	321
927.011	421
927.108	809
927.204	426
927.301	224
927.397	72
927.494	-62
927.590	5
927.687	63
927.783	589
927.879	247
927.976	-244
928.072	-306
928.168	782
928.264	-237
928.361	512
928.457	-495
928.553	346
928.649	1251
928.745	953
928.841	274
928.937	-303
929.033	-375
929.129	299
929.225	-29
929.321	212
929.417	-32
929.513	-100
929.609	-557
929.705	612
929.801	-86
929.897	-2
929.993	267
930.089	220
930.184	-248
930.280	456
930.376	256
930.471	-163
930.567	-328
930.663	154
930.758	-768
930.854	167
930.950	-785
931.045	-27
931.141	751
931.236	692
931.332	-213
931.427	-40
931.523	76
931.618	100
931.714	-778
931.809	-349
931.905	703
932.000	562
932.095	-136
932.191	69
932.286	393
932.381	-212
932.476	-195
932.572	182
932.667	935
932.762	-107
932.857	154
932.952	760
933.047	178
933.142	58
933.237	-139
933.332	14
933.427	461
933.522	44
933.617	487
933.712	148
933.807	-617
933.902	294
933.997	-624
934.092	-549
934.187	-160
934.282	601
934.376	-158
934.471	-117
934.566	75
934.661	394
934.755	-158
934.850	383
934.945	241
935.039	44
935.134	14
935.228	-401
935.323	312
935.417	-97
935.512	-334
935.606	-2
935.701	378
935.795	96
935.890	-52
935.984	760
936.079	-603
936.173	903
936.267	455
936.362	-58
936.456	-142
936.550	336
936.644	-301
936.738	889
936.833	406
936.927	287
937.021	378
937.115	-749
937.209	-812
937.303	1139
937.397	-125
937.491	678
937.585	70
937.679	615
937.773	30
937.867	-29
937.961	113
938.055	-435
938.149	-134
938.243	826
938.337	40
938.430	732
938.524	-316
938.618	1152
938.712	538
938.805	-442
938.899	465
938.993	-143
939.086	-750
939.180	474
939.274	514
939.367	718
939.461	455
939.554	-257
939.648	120
939.741	451
939.835	623
939.928	1174
940.022	-223
940.115	108
940.208	-82
940.302	526
940.395	800
940.488	-357
940.582	315
940.675	-965
940.768	-257
940.861	257
940.954	-222
941.048	148
941.141	557
941.234	98
941.327	326
941.420	1805
941.513	146
941.606	-604
941.699	375
941.792	977
941.885	115
941.978	463
942.071	-641
942.164	268
942.257	413
942.349	532
942.442	603
942.535	-1082
942.628	466
942.721	182
942.813	-533
942.906	1103
942.999	696
943.091	-8
943.184	-111
943.277	133
943.369	957
943.462	533
943.554	323
943.647	75
943.739	57
943.832	-168
943.924	-390
944.017	-501
944.109	-327
944.201	124
944.294	689
944.386	412
944.478	54
944.571	334
944.663	-467
944.755	198
944.847	-542
944.940	236
945.032	-593
945.124	340
945.216	587
945.308	418
945.400	444
945.492	781
945.584	-967
945.676	259
945.768	-37
945.860	-200
945.952	-538
946.044	423
946.136	-640
946.228	403
946.320	-393
946.412	40
946.503	-175
946.595	840
946.687	-104
946.779	-531
946.870	-459
946.962	258
947.054	298
947.145	331
947.237	-82
947.329	636
947.420	-523
947.512	689
947.603	-156
947.695	212
947.786	-121
947.878	-710
947.969	-578
948.061	-205
948.152	-1279
948.243	-320
948.335	-177
948.426	-481
948.517	-595
948.609	74
948.700	207
948.791	-213
948.882	-588
948.973	-625
949.065	-448
949.156	355
949.247	-659
949.338	841
949.429	205
949.520	-116
949.611	-735
949.702	190
949.793	-765
949.884	483
949.975	-251
950.066	-561
950.157	-208
950.247	-449
950.338	-141
950.429	193
950.520	-16
950.611	446
950.701	-855
950.792	283
950.883	-179
950.973	661
951.064	-758
951.155	-84
951.245	269
951.336	460
951.427	-469
951.517	222
951.608	-377
951.698	-274
951.788	-490
951.879	-107
951.969	-548
952.060	-341
952.150	-716
952.240	139
952.331	-1649
952.421	954
952.511	-334
952.602	-468
952.692	-445
952.782	-296
952.872	-72
952.962	579
953.052	-322
953.143	-318
953.233	421
953.323	-39
953.413	-320
953.503	2
953.593	-94
953.683	-412
953.773	-1005
953.863	-553
953.953	-733
954.042	240
954.132	-1082
954.222	656
954.312	-391
954.402	-791
954.492	130
954.581	912
954.671	-666
954.761	-1063
954.850	239
954.940	-249
955.030	-99
955.119	23
955.209	-663
955.298	-552
955.388	23
955.477	892
955.567	-528
955.656	-43
955.746	-166
955.835	262
955.925	-1272
956.014	396
956.103	-900
956.193	70
956.282	-24
956.371	428
956.461	-927
956.550	-430
956.639	-54
956.728	-560
956.817	404
956.906	-400
956.995	-215
957.085	-765
957.174	195
957.263	88
957.352	-541
957.441	-1022
957.530	-761
957.619	455
957.708	-1373
957.796	275
957.885	-1088
957.974	-207
958.063	-279
958.152	-967
958.241	299
958.329	239
958.418	-74
958.507	-581
958.596	47
958.684	-906
958.773	633
958.861	-519
958.950	122
959.039	826
959.127	-38
959.216	-84
959.304	-5
959.393	286
959.481	-830
959.570	131
959.658	270
959.746	179
959.835	-84
959.923	433
960.011	57
960.100	540
960.188	-69
960.276	-149
960.365	-1272
960.453	143
960.541	-713
960.629	-23
960.717	-279
960.805	-913
960.893	-149
960.981	-352
961.069	-506
961.158	-1297
961.245	-222
961.333	21
961.421	-357
961.509	-65
961.597	-925
961.685	-636
961.773	-528
961.861	-948
961.949	-127
962.036	-729
962.124	69
962.212	-223
962.299	-601
962.387	-751
962.475	-97
962.562	-984
962.650	269
962.738	-813
962.825	-1321
962.913	386
963.000	-902
963.088	-355
963.175	-759
963.263	-520
963.350	-819
963.438	-480
963.525	-393
963.612	1272
963.700	1972
963.787	5674
963.874	2112
963.962	116
964.049	-364
964.136	-279
964.223	-633
964.310	-85
964.398	-357
964.485	-82
964.572	-97
964.659	605
964.746	602
964.833	-462
964.920	-858
965.007	-263
965.094	-414
965.181	-1431
965.268	-591
965.355	-582
965.441	-842
965.528	-646
965.615	69
965.702	-242
965.789	-745
965.875	-427
965.962	-427
966.049	-874
966.136	-504
966.222	-1180
966.309	-269
966.395	-368
966.482	-45
966.569	-1205
966.655	-685
966.742	-502
966.828	-54
966.915	-248
967.001	271
967.087	-428
967.174	-489
967.260	393
967.347	528
967.433	1448
967.519	3910
967.605	931
967.692	-1466
967.778	-345
967.864	-800
967.950	-742
968.036	-618
968.123	-696
968.209	-1064
968.295	-1695
968.381	684
968.467	-301
968.553	-1844
968.639	202
968.725	-1346
968.811	172
968.897	270
968.983	-403
969.069	-1232
969.154	151
969.240	465
969.326	-836
969.412	-988
969.497	-672
969.583	-1897
969.669	334
969.755	-1198
969.840	-1265
969.926	384
970.012	-555
970.097	-293
970.183	-704
970.268	-403
970.354	160
970.439	-610
970.525	2573
970.610	-584
970.696	423
970.781	-1069
970.866	-1894
970.952	259
971.037	-1006
971.122	-1243
971.208	365
971.293	-1106
971.378	-1388
971.463	-1068
971.549	-247
971.634	-633
971.719	-17
971.804	-779
971.889	-268
971.974	-1265
972.059	-215
972.144	-565
972.229	-992
972.314	-1245
972.399	-115
972.484	-467
972.569	306
972.654	-1235
972.739	1143
972.824	19
972.908	-266
972.993	-1174
973.078	-701
973.163	-503
973.247	-466
973.332	-2172
973.417	780
973.501	-1324
973.586	-220
973.671	-1195
973.755	-582
973.840	-797
973.924	219
974.009	-36
974.093	-444
974.178	361
974.262	425
974.346	-294
974.431	-1062
974.515	-1025
974.600	-1159
974.684	80
974.768	-1556
974.852	-470
974.937	-1015
975.021	-8
975.105	-401
975.189	-1010
975.273	58
975.358	-1517
975.442	-801
975.526	-872
975.610	-1551
975.694	-1526
975.778	-11
975.862	-607
975.946	-2224
976.030	533
976.114	-556
976.198	-147
976.281	-1990
976.365	-683
976.449	-944
976.533	-1071
976.617	-776
976.700	136
976.784	-372
976.868	-1587
976.951	-626
977.035	-1038
977.119	-283
977.202	-531
977.286	-282
977.369	-767
977.453	23
977.536	-622
977.620	-640
977.703	-933
977.787	-1299
977.870	173
977.953	616
978.037	-1522
978.120	482
978.203	-776
978.287	12
978.370	-426
978.453	-814
978.536	-1087
978.620	514
978.703	-400
978.786	-455
978.869	-969
978.952	-2247
979.035	684
979.118	-869
979.201	-1125
979.284	-241
979.367	-1493
979.450	-24
979.533	-1319
979.616	-998
979.699	-348
979.782	-1042
979.865	-714
979.948	-1346
980.030	-1501
980.113	-507
980.196	-1107
980.279	199
980.361	-982
980.444	-889
980.526	-233
980.609	-435
980.692	-1512
980.774	-972
980.857	-1692
980.939	-1001
981.022	-945
981.104	-1228
981.187	-1417
981.269	0
981.352	-1229
981.434	-1630
981.516	-1663
981.599	466
981.681	51
981.763	-585
981.846	-1236
981.928	-438
982.010	-1062
982.092	-1009
982.174	-1240
982.256	-1239
982.339	-617
982.421	-532
982.503	-720
982.585	-1676
982.667	-508
982.749	-844
982.831	-1336
982.913	-1339
982.995	-67
983.077	-992
983.158	-1002
983.240	-1156
983.322	-508
983.404	-1602
983.486	-1906
983.568	-609
983.649	-1563
983.731	-722
983.813	-968
983.894	-374
983.976	-2053
984.058	-704
984.139	-127
984.221	-1433
984.302	-130
984.384	-806
984.465	-2305
984.547	-697
984.628	-1921
984.710	-354
984.791	-1016
984.872	-415
984.954	-1178
985.035	-176
985.116	-907
985.198	-1199
985.279	275
985.360	-698
985.441	-802
985.522	51
985.604	-872
985.685	-2290
985.766	-156
985.847	335
985.928	-1988
986.009	-1079
986.090	-1717
986.171	-214
986.252	-2003
986.333	-754
986.414	-1418
986.495	-734
986.576	-1354
986.656	-951
986.737	-925
986.818	-837
986.899	-1693
986.980	-1354
987.060	-306
987.141	-1728
987.222	-974
987.302	-973
987.383	-567
987.464	-397
987.544	-960
987.625	-1464
987.705	-769
987.786	-260
987.866	-1365
987.947	-1135
988.027	-717
988.108	-1164
988.188	-439
988.268	-808
988.349	-429
988.429	-496
988.509	-114
988.589	-924
988.670	-2743
988.750	-158
988.830	-188
988.910	-712
988.990	-1631
989.070	-1522
989.151	-952
989.231	-1780
989.311	-498
989.391	-54
989.471	-1439
989.551	-1327
989.631	-1828
989.711	-177
989.791	-1494
989.870	-1464
989.950	117
990.030	-1724
990.110	-1000
990.190	-660
990.269	-829
990.349	-806
990.429	-1270
990.509	-641
990.588	-1723
990.668	-664
990.747	-1460
990.827	-789
990.907	-739
990.986	-686
991.066	-1337
991.145	-801
991.225	-886
991.304	-902
991.383	-1035
991.463	-867
991.542	-544
991.622	-1695
991.701	-1221
991.780	-987
991.859	-455
991.939	-946
992.018	-780
992.097	-919
992.176	-937
992.256	-897
992.335	-1130
992.414	-375
992.493	-712
992.572	-747
992.651	-318
992.730	-1773
992.809	-249
992.888	-1387
992.967	-1277
993.046	-426
993.125	-1395
993.203	-1268
993.282	-1047
993.361	-567
993.440	-1213
993.519	-1448
993.597	-253
993.676	-2254
993.755	-760
993.834	-635
993.912	-2016
993.991	-250
994.069	-1996
994.148	-969
994.226	-704
994.305	-492
994.384	-1704
994.462	82
994.540	-1649
994.619	-944
994.697	-1043
994.776	-1244
994.854	-81
994.932	-1352
995.011	-1086
995.089	-1581
995.167	-864
995.245	-424
995.324	-1739
995.402	-98
995.480	-883
995.558	-1309
995.636	-1805
995.714	-555
995.792	-884
995.870	-1450
995.948	-1199
996.026	-479
996.104	-2224
996.182	-689
996.260	-1458
996.338	-765
996.416	-2274
996.494	-1344
996.572	-552
996.649	-1412
996.727	-1807
996.805	-497
996.883	-1843
996.960	-1047
997.038	-807
997.116	-1317
997.193	-2116
997.271	-561
997.348	-1586
997.426	-731
997.504	-1822
997.581	-328
997.658	-91
997.736	-1052
997.813	-1673
997.891	-171
997.968	-2014
998.046	-1150
998.123	-1142
998.200	-315
998.277	-2150
998.355	-699
998.432	-2086
998.509	-1380
998.586	-616
998.663	-1111
998.741	-1927
998.818	-1497
998.895	-930
998.972	-1025
999.049	-1666
999.126	-1322
999.203	-846
999.280	-523
999.357	-1377
999.434	-749
999.511	-486
999.587	-899
999.664	-1657
999.741	-548
999.818	-378
999.895	-1570
999.971	-1525
1000.048	-516
1000.125	-702
1000.202	-1607
1000.278	-1434
1000.355	74
1000.431	-1340
1000.508	-1580
1000.584	-546
1000.661	-657
1000.738	-1788
1000.814	-813
1000.890	-1204
1000.967	-522
1001.043	-708
1001.120	-2110
1001.196	-1446
1001.272	-1465
1001.349	-1697
1001.425	-1001
1001.501	-1166
1001.577	-1408
1001.654	-1046
1001.730	-1293
1001.806	-1615
1001.882	-2509
1001.958	-499
1002.034	-733
1002.110	-1064
1002.186	-1697
1002.262	-1401
1002.338	-1576
1002.414	-1019
1002.490	-608
1002.566	-1632
1002.642	-1697
1002.718	50
1002.794	-1031
1002.870	-1373
1002.945	-828
1003.021	-1324
1003.097	-812
1003.173	-228
1003.248	-1632
1003.324	-684
1003.400	-370
1003.475	-2110
1003.551	-218
1003.626	-1657
1003.702	-1095
1003.777	-1290
1003.853	-1413
1003.928	-799
1004.004	-1167
1004.079	-1395
1004.155	-276
1004.230	-1935
1004.305	-777
1004.381	-2299
1004.456	-672
1004.531	-1055
1004.607	-731
1004.682	-1048
1004.757	-512
1004.832	-1063
1004.907	-1479
1004.982	-847
1005.057	-789
1005.133	-1899
1005.208	-1129
1005.283	-1156
1005.358	-622
1005.433	-2641
1005.508	-1333
1005.583	-1643
1005.657	-1510
1005.732	-333
1005.807	-962
1005.882	-975
1005.957	-1527
1006.032	-928
1006.106	-1332
1006.181	-1357
1006.256	-1011
1006.331	-2293
1006.405	-1284
1006.480	-609
1006.554	-1232
1006.629	-1670
1006.704	-1467
1006.778	-913
1006.853	-911
1006.927	-1520
1007.002	-1578
1007.076	-965
1007.150	-1850
1007.225	-896
1007.299	-918
1007.373	-1569
1007.448	-1164
1007.522	-774
1007.596	-1137
1007.671	-1795
1007.745	-1482
1007.819	-1521
1007.893	-940
1007.967	-1368
1008.041	-1688
1008.115	-957
1008.190	-1730
1008.264	-1119
1008.338	-2099
1008.412	-1288
1008.486	-1282
1008.560	-1644
1008.633	-1284
1008.707	-1569
1008.781	-673
1008.855	-1441
1008.929	-1462
1009.003	-2150
1009.076	-1227
1009.150	-1155
1009.224	-759
1009.298	-1434
1009.371	-1319
1009.445	-1231
1009.519	-1108
1009.592	-1847
1009.666	-814
1009.739	-660
1009.813	-1999
1009.886	278
1009.960	-2377
1010.033	-1379
1010.107	-1614
1010.180	-1938
1010.253	-1953
1010.327	-1356
1010.400	-782
1010.473	-1112
1010.547	-670
1010.620	-994
1010.693	-1005
1010.766	-1922
1010.840	-864
1010.913	-926
1010.986	-1199
1011.059	-1157
1011.132	-1125
1011.205	-915
1011.278	-1098
1011.351	-1337
1011.424	-913
1011.497	-1649
1011.570	-2408
1011.643	-2007
1011.716	-1543
1011.789	-1784
1011.862	-1315
1011.934	-1045
1012.007	-2033
1012.080	-1914
1012.153	-729
1012.225	-529
1012.298	-1522
1012.371	-1501
1012.443	-751
1012.516	-1964
1012.588	-992
1012.661	-1352
1012.733	-1366
1012.806	-1129
1012.879	-1102
1012.951	-669
1013.023	-1489
1013.096	-864
1013.168	-1164
1013.241	-633
1013.313	-1111
1013.385	-2071
1013.458	-1279
1013.530	-1447
1013.602	-1988
1013.674	-1264
1013.746	-807
1013.819	-2227
1013.891	-431
1013.963	-2091
1014.035	-1487
1014.107	-1419
1014.179	-1366
1014.251	-2444
1014.323	-1163
1014.395	-2168
1014.467	-1205
1014.539	-1954
1014.611	-1219
1014.683	-1643
1014.754	-846
1014.826	-1459
1014.898	-810
1014.970	-2036
1015.042	-259
1015.113	-1623
1015.185	-866
1015.257	-1568
1015.328	-1959
1015.400	-1350
1015.471	-1438
1015.543	-2635
1015.615	-1283
1015.686	-1831
1015.757	-1910
1015.829	-786
1015.901	-1063
1015.972	-1415
1016.043	-1160
1016.115	-1560
1016.186	-1486
1016.257	-2155
1016.328	-1305
1016.400	-1073
1016.471	-1924
1016.542	-1589
1016.613	-1187
1016.685	-918
1016.756	-877
1016.827	-2286
1016.898	-2067
1016.969	-1205
1017.040	-1491
1017.111	-1969
1017.182	-1382
1017.253	-1010
1017.324	-1388
1017.395	-1738
1017.466	-1029
1017.537	-750
1017.608	-1573
1017.678	-1528
1017.749	-740
1017.820	-1024
1017.891	-1772
1017.961	-1470
1018.032	-1586
1018.103	-1603
1018.173	-1383
1018.244	-2747
1018.315	-1567
1018.385	-1358
1018.456	-1682
1018.526	-2253
1018.597	-1222
1018.667	-1557
1018.738	-1910
1018.808	-1882
1018.878	-1812
1018.949	-1269
1019.019	-1486
1019.089	-1259
1019.160	-1044
1019.230	-1780
1019.300	-593
1019.371	-2524
1019.441	-1105
1019.511	-1767
1019.581	-1427
1019.651	-1438
1019.721	-1768
1019.791	-1334
1019.861	-1007
1019.931	-1192
1020.001	-1016
1020.071	-1529
1020.141	-1475
1020.211	-1626
1020.281	-2154
1020.351	-1691
1020.421	-874
1020.491	-1116
1020.560	-2097
1020.630	-1496
1020.700	-1796
1020.770	-2149
1020.839	-1611
1020.909	-799
1020.979	-1626
1021.048	-2245
1021.118	-1998
1021.187	-2142
1021.257	-990
1021.326	-818
1021.396	-1632
1021.465	-1463
1021.535	-1309
1021.604	-2599
1021.674	-1708
1021.743	-2379
1021.812	-1072
1021.882	-2455
1021.951	-1697
1022.020	-1981
1022.089	-1189
1022.159	-2725
1022.228	-929
1022.297	-2161
1022.366	-1162
1022.435	-1564
1022.504	-932
1022.573	-1855
1022.642	-1662
1022.711	-2311
1022.781	-1534
1022.849	-2303
1022.918	-1679
1022.987	-1622
1023.056	-1392
1023.125	-1824
1023.194	-1834
1023.263	-1037
1023.331	-1084
1023.400	-1332
1023.469	-2833
1023.538	-1236
1023.606	-1581
1023.675	-2191
1023.744	-2161
1023.812	-1831
1023.881	-1416
1023.949	-1568
1024.018	-1960
1024.086	-2330
1024.155	-2141
1024.223	-2048
1024.292	-1530
1024.360	-1408
1024.429	-1509
1024.497	-2223
1024.565	-1352
1024.634	-2112
1024.702	-741
1024.770	-1608
1024.838	-1777
1024.907	-1281
1024.975	-1611
1025.043	-1113
1025.111	-1856
1025.179	-1623
1025.247	-2002
1025.315	-1979
1025.383	-1764
1025.451	-1944
1025.519	-1578
1025.587	-1157
1025.655	-1468
1025.723	-1719
1025.791	-1681
1025.859	-1510
1025.927	-780
1025.995	-2360
1026.062	-1861
1026.130	-1768
1026.198	-1773
1026.266	-1839
1026.333	-776
1026.401	-1109
1026.469	-1182
1026.536	-1901
1026.604	-1356
1026.671	-1385
1026.739	-2074
1026.806	-1302
1026.874	-1766
1026.941	-2495
1027.009	-554
1027.076	-2434
1027.144	-1251
1027.211	-2002
1027.278	-1769
1027.345	-1877
1027.413	-1406
1027.480	-1722
1027.547	-2498
1027.614	-1441
1027.682	-1200
1027.749	-2367
1027.816	-1829
1027.883	-1979
1027.950	-1758
1028.017	-1568
1028.084	-2130
1028.151	-2940
1028.218	-1466
1028.285	-1967
1028.352	-1784
1028.419	-2140
1028.486	-1299
1028.553	-1411
1028.619	-1217
1028.686	-1455
1028.753	-1500
1028.820	-1339
1028.886	-2105
1028.953	-2690
1029.020	-1188
1029.086	-1340
1029.153	-1337
1029.220	-1928
1029.286	-1503
1029.353	-1808
1029.419	-1894
1029.486	-2162
1029.552	-2232
1029.619	-1585
1029.685	-1847
1029.751	-1952
1029.818	-1317
1029.884	-1885
1029.951	-1065
1030.017	-3002
1030.083	-2060
1030.149	-1449
1030.216	-1808
1030.282	-1663
1030.348	-2113
1030.414	-2123
1030.480	-2082
1030.546	-2384
1030.612	-1922
1030.678	-2461
1030.744	-1788
1030.810	-1612
1030.876	-1541
1030.942	-1978
1031.008	-1489
1031.074	-1494
1031.140	-1908
1031.206	-2181
1031.272	-2267
1031.337	-2323
1031.403	-1344
1031.469	-1326
1031.534	-1840
1031.600	-1745
1031.666	-1665
1031.731	-2252
1031.797	-1647
1031.863	-2146
1031.928	-2010
1031.994	-1624
1032.059	-1392
1032.125	-1862
1032.190	-2085
1032.256	-2121
1032.321	-1789
1032.386	-1513
1032.452	-1286
1032.517	-1976
1032.582	-1913
1032.647	-1021
1032.713	-1848
1032.778	-1706
1032.843	-2216
1032.908	-2724
1032.974	-1940
1033.039	-1788
1033.104	-868
1033.169	-2351
1033.234	-2629
1033.299	-1482
1033.364	-1929
1033.429	-1832
1033.494	-2001
1033.559	-2087
1033.624	-1390
1033.688	-1530
1033.753	-2278
1033.818	-1253
1033.883	-1662
1033.948	-1614
1034.013	-1687
1034.077	-2876
1034.142	-2009
1034.207	-1504
1034.271	-1324
1034.336	-1485
1034.400	-1831
1034.465	-1573
1034.530	-981
1034.594	-1564
1034.658	-1546
1034.723	-2257
1034.787	-1161
1034.852	-1260
1034.916	-1314
1034.981	-2061
1035.045	-1663
1035.109	-2086
1035.173	-1298
1035.238	-2700
1035.302	-867
1035.366	-2129
1035.430	-1547
1035.495	-2187
1035.559	-244
1035.623	-2256
1035.687	-2203
1035.751	-2661
1035.815	-1674
1035.879	-2378
1035.943	-1375
1036.007	-2508
1036.071	-1862
1036.135	-2057
1036.198	-2130
1036.262	-1455
1036.326	-2066
1036.390	-1393
1036.454	-1018
1036.517	-1941
1036.581	-1932
1036.645	-1502
1036.709	-772
1036.772	-1446
1036.836	-910
1036.900	-1305
1036.963	-1434
1037.026	-1266
1037.090	-2511
1037.154	-2232
1037.217	-1219
1037.280	-2236
1037.344	-1481
1037.407	-2127
1037.471	-1941
1037.534	-2365
1037.597	-2495
1037.661	-1912
1037.724	-2318
1037.787	-2812
1037.850	-2450
1037.913	-1942
1037.977	-1406
1038.040	-1189
1038.103	-1982
1038.166	-1905
1038.229	-1443
1038.292	-1254
1038.355	-1663
1038.418	-1839
1038.481	-1143
1038.544	-2233
1038.607	-1792
1038.670	-2372
1038.732	-1620
1038.795	-2781
1038.858	-1842
1038.921	-2475
1038.984	-1139
1039.046	-2094
1039.109	-1828
1039.172	-2176
1039.234	-1265
1039.297	-1793
1039.360	-1319
1039.422	-2066
1039.485	-1489
1039.547	-2358
1039.610	-1445
1039.672	-2465
1039.734	-1929
1039.797	-1959
1039.859	-2100
1039.922	-2481
1039.984	-1576
1040.046	-1962
1040.109	-1566
1040.171	-2122
1040.233	-1033
1040.295	-2120
1040.358	-1565
1040.420	-1219
1040.482	-1672
1040.544	-1918
1040.606	-2004
1040.668	-1206
1040.730	-2320
1040.792	-2030
1040.854	-2241
1040.916	-2020
1040.978	-1604
1041.040	-1699
1041.102	-1508
1041.164	-2521
1041.225	-1752
1041.287	-2785
1041.349	-2490
1041.411	-2245
1041.472	-1690
1041.534	-2367
1041.596	-2228
1041.657	-1157
1041.719	-1218
1041.781	-1907
1041.842	-1899
1041.904	-2050
1041.965	-1786
1042.027	-2437
1042.088	-1681
1042.150	-2303
1042.211	-1458
1042.272	-1563
1042.334	-1433
1042.395	-2087
1042.456	-2047
1042.518	-1740
1042.579	-1716
1042.640	-1738
1042.701	-1546
1042.763	-1500
1042.824	-1918
1042.885	-1998
1042.946	-1890
1043.007	-1908
1043.068	-1496
1043.129	-2104
1043.190	-1671
1043.251	-1999
1043.312	-2188
1043.373	-1949
1043.434	-1462
1043.495	-2220
1043.556	-1138
1043.616	-1401
1043.677	-1431
1043.738	-2226
1043.799	-1821
1043.859	-1636
1043.920	-1576
1043.981	-1164
1044.041	-1347
1044.102	-1631
1044.162	-831
1044.223	-1475
1044.284	-1805
1044.344	-1585
1044.405	-1959
1044.465	-1981
1044.525	-1686
1044.586	-1750
1044.646	-1783
1044.707	-1805
1044.767	-1522
1044.827	-1313
1044.887	-1734
1044.948	-1542
1045.008	-1252
1045.068	-2247
1045.128	-1345
1045.188	-1888
1045.249	-1135
1045.309	-2448
1045.369	-1268
1045.429	-1924
1045.489	-1708
1045.549	-1523
1045.609	-1719
1045.669	-1953
1045.729	-1751
1045.789	-1793
1045.848	-328
1045.908	-1616
1045.968	-1785
1046.028	-2162
1046.088	-873
1046.147	-827
1046.207	-1728
1046.267	-1831
1046.326	-1230
1046.386	-2028
1046.446	-540
1046.505	-567
1046.565	-999
1046.624	-1156
1046.684	-715
1046.743	-410
1046.803	-881
1046.862	-44
1046.922	0
