'Start Wavelength	183.907
'End Wavelength	1046.922
'Gate Delay	5.000
'Gate Width (ms)	1.050
'Laser Output Level	0.000
'X Position	0.000
'Y Position	0.000
'Z Position	0.000
'Grid Point Number	1.000
'Shot Number	100.000
183.907	785.000
183.977	-305.000
184.047	-52
184.116	119
184.186	474
184.256	47
184.325	332
184.395	-977
184.465	1274
184.534	-325
184.604	-639
184.674	265
184.743	-791
184.813	-23
184.883	-154
184.952	-140
185.022	225
185.092	138
185.161	711
185.231	-97
185.301	-657
185.370	640
185.440	-250
185.509	-628
185.579	545
185.649	-241
185.718	358
185.788	-568
185.857	690
185.927	-182
185.996	-336
186.066	-1076
186.136	39
186.205	-394
186.275	245
186.344	219
186.414	-154
186.483	-1082
186.553	415
186.622	-157
186.692	790
186.761	-565
186.831	120
186.900	132
186.970	466
187.039	-370
187.109	1148
187.178	-28
187.248	141
187.317	-276
187.387	260
187.456	-261
187.526	265
187.595	-5
187.664	60
187.734	-541
187.803	422
187.873	-579
187.942	697
188.012	-162
188.081	179
188.150	-426
188.220	725
188.289	-297
188.358	-406
188.428	-333
188.497	158
188.567	267
188.636	83
188.705	-187
188.775	-342
188.844	-751
188.913	1211
188.983	-591
189.052	470
189.121	-618
189.191	804
189.260	-315
189.329	908
189.399	102
189.468	-79
189.537	-815
189.606	5
189.676	-578
189.745	832
189.814	3
189.883	461
189.953	9
190.022	796
190.091	-740
190.161	467
190.230	-148
190.299	362
190.368	-121
190.437	-97
190.507	368
190.576	214
190.645	-772
190.714	600
190.783	-172
190.853	663
190.922	-227
190.991	409
191.060	-34
191.129	40
191.198	-204
191.268	-220
191.337	-121
191.406	594
191.475	-436
191.544	616
191.613	-94
191.682	417
191.752	-73
191.821	-191
191.890	-841
191.959	250
192.028	-59
192.097	-124
192.166	0
192.235	135
192.304	-225
192.373	486
192.442	-78
192.511	550
192.580	-894
192.650	544
192.719	-488
192.788	295
192.857	-280
192.926	369
192.995	-521
193.064	444
193.133	269
193.202	-186
193.271	-146
193.340	1264
193.409	-753
193.478	1212
193.547	-165
193.615	-84
193.684	241
193.753	617
193.822	44
193.891	443
193.960	-62
194.029	162
194.098	377
194.167	123
194.236	-99
194.305	456
194.374	-161
194.443	370
194.512	-221
194.580	-143
194.649	51
194.718	408
194.787	115
194.856	-370
194.925	410
194.994	655
195.062	-316
195.131	378
195.200	-366
195.269	307
195.338	-635
195.407	313
195.475	-476
195.544	649
195.613	-581
195.682	76
195.751	-152
195.819	178
195.888	-121
195.957	1488
196.026	0
196.094	843
196.163	-4
196.232	864
196.301	-1205
196.369	102
196.438	299
196.507	725
196.576	-1235
196.644	239
196.713	-918
196.782	-606
196.850	-138
196.919	-150
196.988	-330
197.056	-267
197.125	-79
197.194	185
197.262	-206
197.331	-160
197.400	-310
197.468	117
197.537	-1125
197.606	805
197.674	157
197.743	993
197.812	43
197.880	985
197.949	-902
198.017	1159
198.086	414
198.155	127
198.223	-14
198.292	1066
198.360	384
198.429	99
198.497	-505
198.566	310
198.635	422
198.703	352
198.772	542
198.840	708
198.909	268
198.977	104
199.046	126
199.114	172
199.183	-139
199.251	579
199.320	-901
199.388	215
199.457	-208
199.525	-345
199.594	-452
199.662	76
199.731	-848
199.799	-299
199.867	-972
199.936	454
200.004	98
200.073	817
200.141	-802
200.210	-700
200.278	-631
200.346	419
200.415	-325
200.483	-931
200.552	-231
200.620	-165
200.688	-386
200.757	730
200.825	4
200.893	537
200.962	-286
201.030	-775
201.098	-726
201.167	15
201.235	14
201.303	-586
201.372	381
201.440	343
201.508	-532
201.577	448
201.645	331
201.713	727
201.781	-841
201.850	798
201.918	-462
201.986	-151
202.055	339
202.123	-733
202.191	24
202.259	40
202.327	-528
202.396	-746
202.464	157
202.532	122
202.600	1638
202.669	514
202.737	-20
202.805	353
202.873	-435
202.941	-86
203.009	125
203.078	130
203.146	-777
203.214	-554
203.282	-1884
203.350	542
203.418	-278
203.487	511
203.555	-190
203.623	92
203.691	-22
203.759	-762
203.827	-346
203.895	1005
203.963	-574
204.031	-445
204.099	-429
204.168	-92
204.236	371
204.304	572
204.372	-92
204.440	295
204.508	-425
204.576	-298
204.644	-528
204.712	-162
204.780	-205
204.848	-326
204.916	-773
204.984	670
205.052	-65
205.120	-443
205.188	-224
205.256	203
205.324	-61
205.392	6
205.460	1049
205.528	6
205.596	331
205.664	-845
205.732	-1007
205.799	738
205.867	1997
205.935	115
206.003	694
206.071	979
206.139	-734
206.207	-360
206.275	-640
206.343	497
206.411	-866
206.478	-396
206.546	-250
206.614	-19
206.682	-7
206.750	131
206.818	-139
206.885	1475
206.953	-1411
207.021	556
207.089	-94
207.157	-455
207.225	-800
207.292	-400
207.360	-1377
207.428	-47
207.496	-599
207.563	413
207.631	-474
207.699	-263
207.767	-44
207.834	-714
207.902	-289
207.970	-677
208.038	-606
208.105	296
208.173	-210
208.241	366
208.309	179
208.376	633
208.444	283
208.512	-914
208.579	-880
208.647	395
208.715	561
208.782	-1
208.850	329
208.918	-260
208.985	-532
209.053	189
209.120	-6
209.188	153
209.256	-408
209.323	-791
209.391	17
209.459	1574
209.526	-339
209.594	-806
209.661	40
209.729	73
209.796	-170
209.864	-32
209.932	-1374
209.999	986
210.067	-344
210.134	617
210.202	-682
210.269	728
210.337	-119
210.404	822
210.472	-868
210.539	-71
210.607	-849
210.674	652
210.742	814
210.809	-206
210.877	565
210.944	119
211.012	-1169
211.079	1734
211.146	87
211.214	-557
211.281	-697
211.349	281
211.416	146
211.484	63
211.551	-877
211.618	308
211.686	-425
211.753	151
211.821	559
211.888	139
211.955	139
212.023	741
212.090	-930
212.157	-245
212.225	332
212.292	848
212.359	1876
212.427	6372
212.494	1732
212.561	820
212.629	-253
212.696	133
212.763	-582
212.831	363
212.898	20
212.965	-467
213.032	-359
213.100	-55
213.167	-91
213.234	117
213.301	-48
213.369	-147
213.436	-347
213.503	-171
213.570	146
213.638	1253
213.705	-132
213.772	-1271
213.839	-500
213.906	1065
213.973	287
214.041	41
214.108	-504
214.175	-318
214.242	189
214.309	585
214.376	-732
214.444	-282
214.511	-45
214.578	-100
214.645	61
214.712	-339
214.779	-198
214.846	-503
214.913	175
214.980	698
215.048	-278
215.115	843
215.182	180
215.249	184
215.316	-454
215.383	410
215.450	-171
215.517	220
215.584	-962
215.651	278
215.718	-165
215.785	408
215.852	-1189
215.919	558
215.986	-325
216.053	935
216.120	-492
216.187	643
216.254	-37
216.321	13
216.388	-1361
216.455	149
216.522	-234
216.589	333
216.656	235
216.722	779
216.789	-122
216.856	807
216.923	418
216.990	727
217.057	259
217.124	816
217.191	226
217.258	403
217.324	-246
217.391	1410
217.458	-24
217.525	729
217.592	-217
217.659	-427
217.725	395
217.792	1084
217.859	831
217.926	139
217.993	-954
218.059	743
218.126	-197
218.193	380
218.260	-54
218.327	23
218.393	-762
218.460	-52
218.527	-365
218.594	-137
218.660	-666
218.727	1397
218.794	-505
218.860	89
218.927	-816
218.994	474
219.061	-384
219.127	648
219.194	191
219.261	128
219.327	-281
219.394	-177
219.461	-863
219.527	-141
219.594	855
219.661	723
219.727	-1044
219.794	685
219.860	-1113
219.927	499
219.994	-3
220.060	1164
220.127	515
220.193	1057
220.260	-553
220.326	600
220.393	264
220.460	1402
220.526	64
220.593	795
220.659	1076
220.726	459
220.792	2258
220.859	1795
220.925	1982
220.992	2869
221.058	3145
221.125	4475
221.191	2006
221.258	779
221.324	41
221.391	478
221.457	739
221.524	724
221.590	817
221.657	3777
221.723	1304
221.789	962
221.856	944
221.922	-234
221.989	105
222.055	644
222.121	-377
222.188	1094
222.254	-74
222.321	522
222.387	-660
222.453	246
222.520	-555
222.586	-170
222.652	462
222.719	-263
222.785	-487
222.851	555
222.918	59
222.984	-498
223.050	-256
223.116	-801
223.183	225
223.249	-356
223.315	-692
223.382	645
223.448	176
223.514	-675
223.580	-860
223.647	-786
223.713	-815
223.779	328
223.845	-511
223.911	423
223.978	-828
224.044	-7
224.110	-705
224.176	623
224.242	360
224.309	-1142
224.375	349
224.441	78
224.507	-402
224.573	-347
224.639	-202
224.705	7
224.772	-388
224.838	-531
224.904	-65
224.970	886
225.036	-902
225.102	-723
225.168	299
225.234	523
225.300	-320
225.366	-741
225.432	-267
225.499	-37
225.565	-939
225.631	-146
225.697	-66
225.763	218
225.829	-593
225.895	797
225.961	-31
226.027	673
226.093	-115
226.159	722
226.225	1166
226.291	3114
226.357	4767
226.423	2465
226.489	44
226.554	909
226.620	406
226.686	1210
226.752	1004
226.818	2675
226.884	6893
226.950	6822
227.016	1611
227.082	1380
227.148	130
227.214	414
227.279	238
227.345	622
227.411	-500
227.477	473
227.543	-121
227.609	358
227.674	-244
227.740	180
227.806	-328
227.872	-70
227.938	-787
228.003	807
228.069	-88
228.135	-529
228.201	-292
228.267	-16
228.332	-512
228.398	-691
228.464	393
228.530	-236
228.595	-281
228.661	-516
228.727	-527
228.792	1013
228.858	-1285
228.924	-1190
228.990	1732
229.055	-455
229.121	-28
229.187	-162
229.252	-655
229.318	-261
229.384	-570
229.449	552
229.515	-1651
229.581	-1481
229.646	1832
229.712	121
229.777	638
229.843	322
229.909	284
229.974	675
230.040	-179
230.105	58
230.171	-778
230.236	943
230.302	490
230.368	548
230.433	-1606
230.499	969
230.564	599
230.630	-875
230.695	-101
230.761	568
230.826	-1411
230.892	1426
230.957	-1113
231.023	-8
231.088	-1121
231.154	93
231.219	-280
231.284	-393
231.350	-298
231.415	-448
231.481	-456
231.546	-231
231.612	708
231.677	-551
231.742	-1719
231.808	1337
231.873	-1346
231.939	-1494
232.004	456
232.069	1402
232.135	-663
232.200	512
232.265	83
232.331	-404
232.396	-444
232.461	-636
232.527	-1642
232.592	-817
232.657	193
232.723	505
232.788	-62
232.853	483
232.918	-376
232.984	-568
233.049	-653
233.114	-160
233.179	-551
233.245	1194
233.310	484
233.375	-814
233.440	-514
233.506	11
233.571	-660
233.636	-113
233.701	-214
233.766	-170
233.832	-467
233.897	58
233.962	-1337
234.027	1606
234.092	230
234.157	-296
234.222	-60
234.288	673
234.353	1398
234.418	1947
234.483	1719
234.548	671
234.613	-180
234.678	286
234.743	-439
234.808	3248
234.873	-179
234.938	1800
235.004	-749
235.069	-12
235.134	-788
235.199	1259
235.264	525
235.329	-547
235.394	786
235.459	872
235.524	-1805
235.589	674
235.654	265
235.719	-778
235.784	249
235.849	10
235.913	167
235.978	1438
236.043	1354
236.108	34
236.173	-477
236.238	1247
236.303	-190
236.368	-124
236.433	-46
236.498	804
236.563	1247
236.627	1891
236.692	9724
236.757	7806
236.822	1920
236.887	1586
236.952	925
237.017	675
237.081	2442
237.146	928
237.211	3898
237.276	8804
237.341	17996
237.405	6530
237.470	2305
237.535	2074
237.600	720
237.664	1232
237.729	75
237.794	346
237.859	1480
237.923	2301
237.988	282
238.053	700
238.118	-145
238.182	3290
238.247	4060
238.312	-39
238.376	718
238.441	-666
238.506	477
238.570	-1616
238.635	808
238.700	521
238.764	-317
238.829	955
238.893	622
238.958	993
239.023	-553
239.087	44
239.152	378
239.216	-553
239.281	-849
239.346	511
239.410	-595
239.475	195
239.539	3297
239.604	1735
239.668	281
239.733	-389
239.797	-143
239.862	325
239.926	1147
239.991	961
240.055	-393
240.120	45
240.184	-176
240.249	-320
240.313	-774
240.378	307
240.442	1849
240.507	3619
240.571	146
240.635	959
240.700	1070
240.764	-80
240.829	-237
240.893	-1103
240.957	7
241.022	1541
241.086	2965
241.151	-463
241.215	-1001
241.279	691
241.344	381
241.408	289
241.472	-1055
241.537	511
241.601	-1134
241.665	-394
241.730	-832
241.794	1074
241.858	-938
241.922	-124
241.987	278
242.051	261
242.115	-962
242.179	953
242.244	-1101
242.308	192
242.372	-556
242.436	187
242.501	355
242.565	-497
242.629	-697
242.693	997
242.757	-585
242.822	113
242.886	37
242.950	341
243.014	-922
243.078	-168
243.142	-730
243.206	-229
243.271	253
243.335	179
243.399	873
243.463	3208
243.527	13823
243.591	3686
243.655	45
243.719	149
243.783	578
243.847	1061
243.911	1346
243.975	836
244.040	-987
244.104	2459
244.168	243
244.232	475
244.296	265
244.360	1957
244.424	-780
244.488	850
244.552	-298
244.615	-1264
244.679	230
244.743	134
244.807	-505
244.871	260
244.935	281
244.999	-770
245.063	90
245.127	1049
245.191	-205
245.255	417
245.319	-74
245.383	-619
245.446	1047
245.510	-702
245.574	-228
245.638	1463
245.702	-1731
245.766	1655
245.829	1068
245.893	-168
245.957	-286
246.021	79
246.085	-583
246.149	317
246.212	2344
246.276	3645
246.340	752
246.404	1094
246.467	697
246.531	181
246.595	904
246.659	892
246.722	-1072
246.786	493
246.850	635
246.913	1003
246.977	-986
247.041	3
247.104	-232
247.168	500
247.232	1302
247.295	4556
247.359	2210
247.423	336
247.486	804
247.550	1610
247.614	-476
247.677	911
247.741	918
247.804	-251
247.868	1081
247.932	1434
247.995	5933
248.059	628
248.122	-920
248.186	1458
248.249	1148
248.313	8736
248.376	8760
248.440	5577
248.503	-74
248.567	2569
248.630	110
248.694	1957
248.757	3225
248.821	10777
248.884	5419
248.948	3835
249.011	7097
249.075	11854
249.138	9317
249.202	3136
249.265	457
249.328	2671
249.392	-19
249.455	1058
249.519	899
249.582	576
249.645	1145
249.709	969
249.772	127
249.835	1902
249.899	-63
249.962	854
250.025	-810
250.089	3172
250.152	4369
250.215	1652
250.279	1135
250.342	1931
250.405	1379
250.468	980
250.532	1547
250.595	3190
250.658	13280
250.721	26277
250.785	5610
250.848	4182
250.911	923
250.974	2008
251.038	1346
251.101	6595
251.164	2006
251.227	2570
251.290	1203
251.354	4240
251.417	20195
251.480	19816
251.543	10304
251.606	41583
251.669	27906
251.732	8071
251.795	7864
251.859	8684
251.922	24763
251.985	13326
252.048	5507
252.111	3913
252.174	1291
252.237	5285
252.300	12473
252.363	12263
252.426	32825
252.489	11289
252.552	5619
252.615	2709
252.678	2749
252.741	9375
252.804	11170
252.867	34266
252.930	16321
252.993	7401
253.056	3285
253.119	2618
253.182	1714
253.245	3049
253.308	3075
253.371	1465
253.434	1386
253.497	2265
253.559	5454
253.622	2807
253.685	1423
253.748	2019
253.811	1709
253.874	2169
253.937	1259
254.000	875
254.062	1643
254.125	5321
254.188	4048
254.251	2416
254.314	835
254.376	1738
254.439	1976
254.502	1670
254.565	1756
254.628	6549
254.690	710
254.753	50
254.816	342
254.878	1345
254.941	2526
255.004	3408
255.067	703
255.129	-154
255.192	-463
255.255	-165
255.317	587
255.380	893
255.443	-59
255.505	31
255.568	-1322
255.631	40
255.693	-449
255.756	-435
255.819	511
255.881	-212
255.944	-203
256.006	-328
256.069	-203
256.132	121
256.194	-102
256.257	2518
256.319	1065
256.382	71
256.444	1139
256.507	-413
256.569	-884
256.632	75
256.694	532
256.757	5343
256.819	15137
256.882	4311
256.944	902
257.007	1912
257.069	93
257.132	298
257.194	1582
257.257	454
257.319	-229
257.381	-76
257.444	3724
257.506	19083
257.569	17135
257.631	5336
257.693	2765
257.756	758
257.818	238
257.880	953
257.943	822
258.005	-271
258.067	250
258.130	382
258.192	-605
258.254	812
258.317	852
258.379	466
258.441	405
258.503	2655
258.566	2243
258.628	4388
258.690	-1214
258.753	2021
258.815	1369
258.877	425
258.939	-22
259.001	1147
259.064	-619
259.126	-582
259.188	-113
259.250	929
259.312	45
259.375	1394
259.437	340
259.499	737
259.561	-237
259.623	565
259.685	-559
259.747	524
259.809	2668
259.872	5912
259.934	10068
259.996	9654
260.058	2706
260.120	903
260.182	1072
260.244	674
260.306	-1506
260.368	967
260.430	-745
260.492	1895
260.554	3099
260.616	271
260.678	3008
260.740	5440
260.802	286
260.864	1003
260.926	-1002
260.988	972
261.050	-427
261.112	2350
261.174	8638
261.236	5776
261.298	1153
261.359	2663
261.421	3303
261.483	202
261.545	-21
261.607	-555
261.669	404
261.731	248
261.793	3010
261.854	-142
261.916	293
261.978	283
262.040	358
262.102	364
262.164	-514
262.225	528
262.287	653
262.349	1395
262.411	213
262.472	1069
262.534	-171
262.596	2298
262.658	462
262.719	-398
262.781	496
262.843	2036
262.904	459
262.966	403
263.028	-199
263.090	6654
263.151	18872
263.213	6477
263.275	2310
263.336	1270
263.398	839
263.459	114
263.521	-478
263.583	1285
263.644	928
263.706	112
263.767	-882
263.829	23
263.891	-287
263.952	262
264.014	-520
264.075	1406
264.137	3847
264.198	1745
264.260	-344
264.321	-266
264.383	634
264.444	6688
264.506	1160
264.567	537
264.629	2193
264.690	4445
264.752	1405
264.813	361
264.875	-185
264.936	957
264.998	-845
265.059	79
265.120	-664
265.182	782
265.243	5526
265.305	6077
265.366	438
265.427	748
265.489	322
265.550	-972
265.611	119
265.673	-514
265.734	56
265.795	425
265.857	-405
265.918	-630
265.979	1670
266.040	11732
266.102	8915
266.163	2709
266.224	807
266.286	199
266.347	-781
266.408	-1383
266.469	-434
266.530	388
266.592	-960
266.653	692
266.714	261
266.775	-447
266.836	-282
266.898	29
266.959	-138
267.020	-129
267.081	-69
267.142	407
267.203	-1282
267.264	-1505
267.326	308
267.387	-834
267.448	-872
267.509	212
267.570	-1470
267.631	-771
267.692	-859
267.753	-353
267.814	-1252
267.875	-210
267.936	612
267.997	541
268.058	-452
268.119	-668
268.180	-163
268.241	-875
268.302	-880
268.363	62
268.424	-1627
268.485	-388
268.546	-1706
268.607	77
268.668	-1170
268.729	-5
268.790	-1178
268.851	-295
268.912	383
268.972	1424
269.033	-708
269.094	-668
269.155	-468
269.216	-340
269.277	-910
269.338	192
269.398	-435
269.459	-399
269.520	-729
269.581	-54
269.642	-375
269.702	-812
269.763	-645
269.824	-299
269.885	-967
269.945	857
270.006	59
270.067	-1292
270.128	-694
270.188	-450
270.249	-1295
270.310	-385
270.370	-440
270.431	-478
270.492	-905
270.553	-435
270.613	-81
270.674	593
270.734	-556
270.795	100
270.856	142
270.916	-148
270.977	-1035
271.038	354
271.098	-126
271.159	81
271.219	-4
271.280	13
271.340	-235
271.401	-600
271.462	492
271.522	146
271.583	-128
271.643	386
271.704	-719
271.764	384
271.825	537
271.885	7322
271.946	12614
272.006	3115
272.066	3996
272.127	10446
272.187	1740
272.248	855
272.308	-78
272.369	6915
272.429	2841
272.489	1361
272.550	953
272.610	1764
272.671	-229
272.731	1441
272.791	1638
272.852	684
272.912	319
272.972	277
273.033	-840
273.093	187
273.153	520
273.214	362
273.274	245
273.334	5085
273.394	7383
273.455	2297
273.515	2260
273.575	5818
273.635	1819
273.696	3728
273.756	7969
273.816	2808
273.876	535
273.936	2690
273.997	5821
274.057	1177
274.117	23
274.177	1294
274.237	9969
274.297	9678
274.358	4469
274.418	5571
274.478	3836
274.538	979
274.598	-919
274.658	4530
274.718	5196
274.778	2173
274.838	808
274.898	1744
274.958	7661
275.018	8947
275.078	4358
275.138	1444
275.198	-358
275.258	260
275.318	-788
275.378	913
275.438	922
275.498	614
275.558	3027
275.618	8440
275.678	3982
275.738	2011
275.798	1277
275.858	1647
275.918	-237
275.978	621
276.038	-120
276.098	261
276.157	-85
276.217	3333
276.277	819
276.337	432
276.397	-1473
276.457	130
276.517	-582
276.576	57
276.636	-1045
276.696	2
276.756	1413
276.815	311
276.875	-237
276.935	283
276.995	27
277.055	-443
277.114	-1222
277.174	66
277.234	2819
277.293	1145
277.353	-406
277.413	-585
277.472	-371
277.532	160
277.592	589
277.651	1904
277.711	2873
277.771	332
277.830	3603
277.890	3671
277.950	1814
278.009	10349
278.069	2851
278.128	3207
278.188	3312
278.248	565
278.307	2755
278.367	2495
278.426	-448
278.486	592
278.545	-435
278.605	322
278.664	-557
278.724	461
278.783	2279
278.843	9667
278.902	1369
278.962	938
279.021	12
279.081	422
279.140	312
279.199	-163
279.259	-507
279.318	1193
279.378	1627
279.437	2328
279.496	11676
279.556	43057
279.615	34367
279.675	6620
279.734	2780
279.793	4540
279.853	8401
279.912	3367
279.971	1020
280.031	1227
280.090	2524
280.149	6957
280.208	4777
280.268	31274
280.327	31016
280.386	5572
280.445	2495
280.505	2978
280.564	1890
280.623	650
280.682	1369
280.742	2636
280.801	-556
280.860	-239
280.919	-228
280.978	-179
281.037	-144
281.097	106
281.156	-170
281.215	232
281.274	415
281.333	4713
281.392	2722
281.451	-448
281.510	-645
281.569	53
281.628	-544
281.688	446
281.747	246
281.806	383
281.865	177
281.924	-106
281.983	-444
282.042	-609
282.101	-363
282.160	213
282.219	-879
282.278	168
282.337	1404
282.396	395
282.454	-636
282.513	249
282.572	2094
282.631	1076
282.690	-91
282.749	-464
282.808	-511
282.867	238
282.926	223
282.985	202
283.043	-1166
283.102	-156
283.161	-288
283.220	1565
283.279	5028
283.338	2097
283.396	-526
283.455	504
283.514	-1367
283.573	1270
283.631	248
283.690	1039
283.749	-449
283.808	1012
283.866	974
283.925	5
283.984	201
284.043	729
284.101	-558
284.160	276
284.219	1124
284.277	936
284.336	501
284.395	4870
284.453	2761
284.512	728
284.570	781
284.629	1306
284.688	64
284.746	567
284.805	727
284.863	1897
284.922	1367
284.981	2937
285.039	3578
285.098	6661
285.156	17574
285.215	67697
285.273	66462
285.332	22712
285.390	9846
285.449	5700
285.507	3060
285.566	2453
285.624	1702
285.683	1295
285.741	1210
285.799	652
285.858	454
285.916	432
285.975	-137
286.033	849
286.091	-470
286.150	624
286.208	121
286.267	397
286.325	-42
286.383	761
286.442	1076
286.500	662
286.558	72
286.616	-29
286.675	-474
286.733	525
286.791	-1033
286.850	558
286.908	-541
286.966	1114
287.024	-370
287.083	187
287.141	-814
287.199	369
287.257	662
287.315	1332
287.374	-257
287.432	2254
287.490	1237
287.548	24
287.606	185
287.664	713
287.723	526
287.781	1915
287.839	1276
287.897	1226
287.955	1653
288.013	3578
288.071	6553
288.129	30143
288.187	98671
288.245	43506
288.303	12031
288.361	6369
288.419	5057
288.477	3418
288.535	1938
288.593	1351
288.651	91
288.709	333
288.767	960
288.825	-8
288.883	548
288.941	1055
288.999	-197
289.057	669
289.115	346
289.173	87
289.231	473
289.289	231
289.346	-470
289.404	15
289.462	52
289.520	812
289.578	-757
289.636	117
289.694	-1180
289.751	574
289.809	-394
289.867	-15
289.925	128
289.983	232
290.040	-20
290.098	-272
290.156	-126
290.214	734
290.271	-1320
290.329	-338
290.387	-736
290.444	-251
290.502	-245
290.560	-126
290.617	-954
290.675	885
290.733	-312
290.790	77
290.848	-11
290.906	-322
290.963	63
291.021	476
291.078	408
291.136	164
291.194	3187
291.251	9509
291.309	1432
291.366	707
291.424	-657
291.481	69
291.539	-875
291.596	-29
291.654	-1113
291.711	226
291.769	-106
291.826	551
291.884	-348
291.941	-559
291.999	-655
292.056	34
292.114	-283
292.171	-267
292.228	435
292.286	-264
292.343	727
292.401	1514
292.458	-46
292.515	456
292.573	-29
292.630	-313
292.687	-29
292.745	228
292.802	853
292.859	6159
292.917	7147
292.974	3294
293.031	382
293.089	351
293.146	7
293.203	534
293.260	317
293.318	1113
293.375	3361
293.432	1519
293.489	-22
293.546	438
293.604	341
293.661	3388
293.718	12165
293.775	7610
293.832	2250
293.889	1424
293.947	1406
294.004	1238
294.061	67
294.118	2959
294.175	7470
294.232	15532
294.289	5552
294.346	2679
294.403	1356
294.460	1301
294.517	3
294.574	703
294.631	286
294.688	2289
294.745	2692
294.802	17284
294.859	23577
294.916	9851
294.973	2648
295.030	2888
295.087	891
295.144	1002
295.201	999
295.258	459
295.315	1386
295.372	4568
295.429	10303
295.486	5234
295.542	2304
295.599	9666
295.656	20345
295.713	12368
295.770	10943
295.827	4560
295.883	2044
295.940	1017
295.997	1658
296.054	2293
296.111	613
296.167	2214
296.224	267
296.281	918
296.338	363
296.394	1429
296.451	-102
296.508	4585
296.564	8713
296.621	7866
296.678	12697
296.734	21315
296.791	8235
296.848	4194
296.904	2612
296.961	5007
297.018	10592
297.074	9928
297.131	3839
297.187	1817
297.244	2505
297.301	11928
297.357	22861
297.414	8809
297.470	3041
297.527	2722
297.583	826
297.640	833
297.696	1077
297.753	365
297.809	49
297.866	665
297.922	-91
297.979	609
298.035	716
298.092	1604
298.148	6084
298.204	6093
298.261	2959
298.317	6401
298.374	17625
298.430	10394
298.486	3048
298.543	2836
298.599	2029
298.656	2691
298.712	3390
298.768	9722
298.824	7464
298.881	2521
298.937	512
298.993	1712
299.050	373
299.106	2177
299.162	755
299.218	1955
299.275	1056
299.331	1648
299.387	3290
299.443	12964
299.500	13676
299.556	5132
299.612	2517
299.668	1046
299.724	574
299.780	1626
299.837	762
299.893	2818
299.949	7803
300.005	10634
300.061	9256
300.117	20522
300.173	10251
300.229	4059
300.285	3183
300.341	3904
300.397	1954
300.453	589
300.510	606
300.566	1244
300.622	224
300.678	3265
300.734	5841
300.790	9627
300.845	12154
300.901	7313
300.957	6361
301.013	7668
301.069	1793
301.125	1917
301.181	1062
301.237	1903
301.293	265
301.349	838
301.405	816
301.461	1380
301.516	1516
301.572	1624
301.628	2350
301.684	2057
301.740	4103
301.796	6573
301.851	5428
301.907	6178
301.963	7000
302.019	12080
302.074	39132
302.130	42535
302.186	19091
302.242	7921
302.297	4357
302.353	3909
302.409	6695
302.464	7107
302.520	4581
302.576	11323
302.631	14600
302.687	8348
302.743	3051
302.798	2787
302.854	1617
302.910	1506
302.965	1886
303.021	3610
303.076	3164
303.132	4044
303.187	4446
303.243	3227
303.299	1241
303.354	1808
303.410	2164
303.465	750
303.521	561
303.576	1593
303.632	1297
303.687	4363
303.743	12187
303.798	11685
303.853	4760
303.909	2388
303.964	1543
304.020	2408
304.075	3648
304.130	3274
304.186	4430
304.241	6332
304.297	4539
304.352	2989
304.358	2878
304.407	1975
304.449	2871
304.463	3177
304.518	1828
304.539	1903
304.573	2007
304.629	1590
304.630	1634
304.684	3794
304.720	6865
304.739	8326
304.794	15953
304.811	13710
304.850	8433
304.902	4987
304.905	4766
304.960	2081
304.992	2143
305.015	2181
305.071	1855
305.083	2064
305.126	2833
305.173	1634
305.181	1451
305.236	1492
305.264	1402
305.292	1221
305.347	1903
305.354	1896
305.402	1961
305.445	2305
305.457	2397
305.512	2737
305.535	2834
305.567	2981
305.622	2262
305.626	2381
305.678	5088
305.716	10541
305.733	12456
305.788	15305
305.807	13338
305.843	10364
305.897	14065
305.898	14093
305.953	13607
305.988	9554
306.008	7474
306.063	3996
306.078	3735
306.118	3314
306.168	2231
306.173	2142
306.228	2237
306.259	1891
306.283	1606
306.338	2389
306.349	2403
306.393	2229
306.440	2548
306.448	2699
306.503	2469
306.530	3067
306.558	4598
306.613	10562
306.620	11486
306.668	14738
306.711	13466
306.723	12964
306.778	9924
306.801	7656
306.833	5223
306.888	2968
306.892	2846
306.943	1590
306.982	1713
306.997	1874
307.052	2342
307.072	2607
307.107	3568
307.162	5409
307.163	5445
307.217	9637
307.253	11661
307.272	11634
307.327	11494
307.343	10115
307.381	7852
307.434	5896
307.436	5985
307.491	12211
307.524	17301
307.546	17758
307.600	13257
307.614	11305
307.655	7566
307.704	4783
307.710	4800
307.765	6941
307.795	8963
307.819	10260
307.874	17676
307.885	17663
307.929	13731
307.975	9363
307.984	9252
308.038	9759
308.065	11455
308.093	19875
308.148	43131
308.156	49089
308.202	74532
308.246	89010
308.257	87900
308.312	49722
308.336	33998
308.366	23836
308.421	13929
308.426	13327
308.475	9361
308.517	7712
308.530	7164
308.585	5240
308.607	5079
308.639	5787
308.694	6668
308.697	6839
308.748	14782
308.787	22715
308.803	22332
308.857	16069
308.877	12674
308.912	9761
308.967	8108
308.967	8108
309.021	9598
309.058	11123
309.076	13436
309.130	22463
309.148	26643
309.185	58136
309.238	115370
309.239	115482
309.293	119110
309.328	99730
309.348	85924
309.402	40174
309.418	29309
309.457	19210
309.508	11732
309.511	11401
309.566	9041
309.598	8591
309.620	8739
309.674	9851
309.688	10387
309.729	9676
309.778	7537
309.783	7398
309.837	6163
309.868	5475
309.892	6487
309.946	9841
309.959	10983
310.001	13490
310.049	15476
310.055	15059
310.109	9603
310.139	6388
310.163	5169
310.218	3090
310.229	2883
310.272	3294
310.319	3485
310.326	3410
310.381	3508
310.409	3321
310.435	3387
310.489	3746
310.499	3760
310.543	3899
310.589	4494
310.598	4512
310.652	4465
310.679	4367
310.706	3709
310.760	1934
310.769	1759
310.814	2334
310.859	2597
310.868	2520
310.923	2322
310.948	2139
310.977	2419
311.031	3335
311.038	3428
311.085	2650
311.128	1842
311.139	1987
311.193	2920
311.218	3295
311.247	2998
311.301	2395
311.308	2332
311.356	2480
311.398	2627
311.410	2519
311.464	1921
311.488	1667
311.518	1843
311.572	2169
311.578	2203
311.626	2226
311.668	2341
311.680	2618
311.734	3789
311.758	4354
311.788	3972
311.842	3135
311.847	3062
311.896	4616
311.937	5989
311.950	5773
312.004	4841
312.027	4408
312.058	3727
312.112	2573
312.117	2470
312.165	2752
312.207	3016
312.297	5167
312.386	3438
312.476	3187
312.566	3359
312.656	2423
312.745	1492
312.835	2733
312.925	2394
313.015	3810
313.104	4373
313.194	2417
313.284	2111
313.374	1710
313.463	1622
313.553	2142
313.643	829
313.732	2120
313.822	1435
313.912	2776
314.001	1694
314.091	2877
314.180	3854
314.270	3264
314.360	4994
314.449	2750
314.539	1809
314.628	2646
314.718	2488
314.808	5089
314.897	2244
314.987	2357
315.076	1137
315.166	4066
315.255	3960
315.345	3648
315.434	3620
315.524	4030
315.613	3634
315.703	3047
315.792	1900
315.881	2222
315.971	2499
316.060	8103
316.150	17983
316.239	17713
316.328	4388
316.418	3109
316.507	1132
316.597	3005
316.686	2505
316.775	8731
316.865	17967
316.954	2834
317.043	1753
317.133	2879
317.222	924
317.311	1602
317.400	87
317.490	2991
317.579	2129
317.668	1584
317.757	1983
317.847	2827
317.936	4147
318.025	3982
318.114	2302
318.203	2669
318.293	3642
318.382	5593
318.471	5320
318.560	11430
318.649	28153
318.738	5014
318.828	2885
318.917	3430
319.006	6487
319.095	19745
319.184	35913
319.273	13132
319.362	4379
319.451	3750
319.540	2558
319.629	4634
319.718	5535
319.807	4819
319.896	11758
319.985	41576
320.074	9582
320.163	6407
320.252	11465
320.341	7816
320.430	4942
320.519	4831
320.608	2781
320.697	2289
320.786	1922
320.875	2966
320.964	2990
321.053	3961
321.142	5336
321.230	6286
321.319	6073
321.408	13528
321.497	6147
321.586	6166
321.675	16532
321.764	11846
321.852	7383
321.941	7648
322.030	4456
322.119	8406
322.207	14530
322.296	23043
322.385	8682
322.474	6759
322.562	12718
322.651	8132
322.740	5870
322.829	13746
322.917	24826
323.006	6708
323.095	5933
323.183	7729
323.272	8673
323.361	17541
323.449	54634
323.538	16364
323.626	44169
323.715	21126
323.804	10348
323.892	42253
323.981	15723
324.069	6788
324.158	27171
324.246	18746
324.335	4993
324.424	4926
324.512	3656
324.601	3571
324.689	2974
324.778	7539
324.866	16183
324.954	5257
325.043	4038
325.131	10574
325.220	21908
325.308	22549
325.397	15834
325.485	7540
325.574	1765
325.662	897
325.750	1775
325.839	2583
325.927	1820
326.015	3883
326.104	10175
326.192	12008
326.280	2048
326.369	2442
326.457	2903
326.545	4815
326.634	2533
326.722	2580
326.810	851
326.898	1762
326.987	1960
327.075	4288
327.163	9516
327.251	5196
327.340	1991
327.428	2981
327.516	2383
327.604	2102
327.692	2330
327.781	5675
327.869	9724
327.957	4453
328.045	2571
328.133	2623
328.221	4882
328.309	2708
328.397	1840
328.485	2450
328.574	2386
328.662	6992
328.750	8373
328.838	4372
328.926	1733
329.014	2010
329.102	2229
329.190	9111
329.278	3550
329.366	1570
329.454	1758
329.542	3044
329.630	680
329.718	2199
329.806	1631
329.893	2936
329.981	1357
330.069	2038
330.157	3298
330.245	8036
330.333	3784
330.421	1683
330.509	2723
330.597	7397
330.684	5348
330.772	4517
330.860	8372
330.948	9798
331.036	3002
331.123	1761
331.211	2379
331.299	3858
331.387	7106
331.475	11325
331.562	4271
331.650	2210
331.738	4162
331.825	5815
331.913	1535
332.001	1848
332.089	3521
332.176	10194
332.264	27011
332.352	14562
332.439	3546
332.527	4204
332.614	2924
332.702	5499
332.790	2548
332.877	11729
332.965	20906
333.052	2774
333.140	3744
333.228	8159
333.315	2766
333.403	3945
333.490	16720
333.578	8747
333.665	5350
333.753	8053
333.840	1746
333.928	4227
334.015	16737
334.103	21934
334.190	52206
334.278	10474
334.365	6867
334.452	5670
334.540	2655
334.627	4780
334.715	5533
334.802	13322
334.889	78868
334.977	52583
335.064	5292
335.151	2794
335.239	2949
335.326	4644
335.413	26832
335.501	27568
335.588	2544
335.675	2650
335.762	4652
335.850	7626
335.937	3981
336.024	15987
336.111	67354
336.199	19200
336.286	3902
336.373	2677
336.460	920
336.547	2174
336.635	3014
336.722	2170
336.809	2705
336.896	4467
336.983	13383
337.070	35159
337.157	47881
337.245	47981
337.332	26691
337.419	4236
337.506	2431
337.593	3477
337.680	13871
337.767	34883
337.854	8356
337.941	12846
338.028	19893
338.115	7030
338.202	6174
338.289	14182
338.376	45947
338.463	11757
338.550	22958
338.637	19607
338.724	11608
338.811	18376
338.898	3040
338.984	2487
339.071	2135
339.158	2495
339.245	4409
339.332	4228
339.419	13665
339.506	10635
339.593	170
339.679	1285
339.766	1282
339.853	2164
339.940	2201
340.027	1393
340.113	569
340.200	2182
340.287	1486
340.374	1754
340.460	2267
340.547	899
340.634	2014
340.720	8197
340.807	2398
340.894	1814
340.980	1362
341.067	578
341.154	1243
341.240	1520
341.327	2855
341.414	1835
341.500	271
341.587	1755
341.674	1884
341.760	2973
341.847	2523
341.933	1114
342.020	-144
342.106	1610
342.193	1564
342.279	2968
342.366	626
342.452	2474
342.539	759
342.625	3937
342.712	6108
342.798	3125
342.885	1508
342.971	353
343.058	742
343.144	1359
343.230	830
343.317	1447
343.403	-210
343.490	1175
343.576	-148
343.662	755
343.749	447
343.835	2221
343.921	3978
344.008	27744
344.094	50675
344.180	9763
344.267	2783
344.353	13449
344.439	16738
344.525	4540
344.612	1929
344.698	1647
344.784	304
344.870	1534
344.957	588
345.043	2590
345.129	384
345.215	3098
345.301	434
345.387	1482
345.474	350
345.560	1652
345.646	2287
345.732	1388
345.818	410
345.904	836
345.990	779
346.076	4062
346.162	7322
346.249	2817
346.335	440
346.421	2522
346.507	6025
346.593	16956
346.679	2129
346.765	1688
346.851	188
346.937	597
347.023	665
347.108	581
347.194	423
347.280	1047
347.366	1145
347.452	5865
347.538	20850
347.624	15607
347.710	13063
347.796	3098
347.882	1090
347.967	1993
348.053	2671
348.139	1191
348.225	1163
348.311	1761
348.397	315
348.482	1859
348.568	802
348.654	494
348.740	293
348.825	-309
348.911	2404
348.997	12308
349.083	22229
349.168	3939
349.254	1585
349.340	1423
349.425	1084
349.511	1007
349.597	1915
349.682	2989
349.768	9508
349.854	4063
349.939	1168
350.025	1200
350.110	961
350.196	679
350.282	-487
350.367	1535
350.453	5018
350.538	4356
350.624	1047
350.709	2200
350.795	839
350.880	586
350.966	2435
351.051	4828
351.137	2744
351.222	1341
351.308	2646
351.393	7119
351.479	987
351.564	1168
351.649	830
351.735	1215
351.820	382
351.906	1201
351.991	1957
352.076	6262
352.162	7112
352.247	1677
352.332	830
352.418	2658
352.503	2647
352.588	10483
352.673	6404
352.759	1416
352.844	618
352.929	1114
353.014	419
353.100	1629
353.185	2155
353.270	2418
353.355	3503
353.441	2769
353.526	2462
353.611	3511
353.696	2513
353.781	3624
353.866	127
353.952	2399
354.037	2268
354.122	5177
354.207	3431
354.292	2105
354.377	521
354.462	1308
354.547	1077
354.632	2562
354.717	1514
354.802	1771
354.887	1200
354.972	1536
355.057	228
355.142	798
355.227	941
355.312	2111
355.397	2969
355.482	7701
355.567	2709
355.652	4187
355.737	3489
355.822	12653
355.907	7243
355.991	2483
356.076	2085
356.161	2560
356.246	645
356.331	1190
356.416	2553
356.501	25006
356.585	19765
356.670	2099
356.755	2989
356.840	3397
356.924	17824
357.009	56415
357.094	16990
357.179	2924
357.263	1656
357.348	3045
357.433	3413
357.517	2591
357.602	1777
357.687	2187
357.771	2973
357.856	7675
357.941	4419
358.025	16716
358.110	65109
358.195	23574
358.279	2920
358.364	2918
358.448	8460
358.533	18955
358.617	12538
358.702	13915
358.787	5266
358.871	2263
358.956	2440
359.040	1679
359.125	1216
359.209	1854
359.294	4294
359.378	5438
359.462	1731
359.547	2421
359.631	1991
359.716	809
359.800	1187
359.885	3768
359.969	1005
360.053	2508
360.138	1547
360.222	1624
360.306	2383
360.391	2800
360.475	4449
360.559	7686
360.644	6510
360.728	4698
360.812	15214
360.896	34956
360.981	14076
361.065	7527
361.149	2854
361.233	2077
361.318	320
361.402	2690
361.486	1794
361.570	679
361.654	1471
361.739	4718
361.823	23271
361.907	33536
361.991	3720
362.075	3368
362.159	3624
362.243	4506
362.327	1062
362.411	4114
362.495	2569
362.580	1676
362.664	321
362.748	201
362.832	807
362.916	-96
363.000	4305
363.084	23548
363.168	37364
363.252	7159
363.336	3706
363.420	6982
363.503	32786
363.587	34215
363.671	4287
363.755	1990
363.839	3741
363.923	1948
364.007	3287
364.091	5527
364.175	14121
364.258	48949
364.342	18256
364.426	5769
364.510	3574
364.594	6877
364.677	8424
364.761	31000
364.845	19061
364.929	5304
365.013	3299
365.096	3537
365.180	3187
365.264	15931
365.347	52232
365.431	20164
365.515	4414
365.598	1935
365.682	2267
365.766	5692
365.849	6108
365.933	2327
366.017	6702
366.100	3311
366.184	1748
366.267	2977
366.351	524
366.435	646
366.518	316
366.602	965
366.685	283
366.769	2027
366.852	4244
366.936	5433
367.019	1548
367.103	3135
367.186	8732
367.270	1272
367.353	-76
367.436	1572
367.520	-188
367.603	1303
367.687	234
367.770	2363
367.853	2097
367.937	9058
368.020	11668
368.104	1290
368.187	2634
368.270	3329
368.353	3096
368.437	12940
368.520	35824
368.603	13590
368.687	8142
368.770	13951
368.853	2808
368.936	6182
369.020	6220
369.103	1869
369.186	314
369.269	363
369.352	2023
369.436	3854
369.519	2677
369.602	546
369.685	1915
369.768	1227
369.851	1642
369.934	378
370.018	879
370.101	2640
370.184	4357
370.267	3037
370.350	2380
370.433	6099
370.516	14937
370.599	15890
370.682	2291
370.765	8515
370.848	10662
370.931	20760
371.014	11143
371.097	1600
371.180	1415
371.263	1967
371.346	357
371.429	2354
371.511	1538
371.594	3747
371.677	6155
371.760	7888
371.843	5063
371.926	26491
372.009	51296
372.091	15333
372.174	10645
372.257	23229
372.340	7893
372.423	9371
372.505	12869
372.588	4747
372.671	7417
372.754	18212
372.836	11203
372.919	17471
373.002	28172
373.085	6245
373.167	3880
373.250	8432
373.332	19170
373.415	35841
373.498	65780
373.580	22681
373.663	32663
373.746	41323
373.828	7375
373.911	5091
373.993	6837
374.076	30576
374.159	26679
374.241	9305
374.324	15159
374.406	11169
374.489	22095
374.571	52510
374.654	17481
374.736	10779
374.819	33573
374.901	49825
374.983	46972
375.066	7479
375.148	4060
375.231	27094
375.313	44155
375.395	13406
375.478	1863
375.560	2018
375.643	2959
375.725	12949
375.807	44477
375.890	50764
375.972	28109
376.054	15745
376.136	29114
376.219	10303
376.301	13563
376.383	31004
376.465	10911
376.548	4927
376.630	8804
376.712	23961
376.794	8734
376.877	2649
376.959	728
377.041	3011
377.123	6243
377.205	7907
377.287	722
377.369	2204
377.452	1514
377.534	995
377.616	1428
377.698	1194
377.780	-731
377.862	1367
377.944	1705
378.026	1159
378.108	1543
378.190	1811
378.272	919
378.354	1371
378.436	1241
378.518	4171
378.600	11088
378.682	8712
378.764	10126
378.846	8832
378.928	4531
379.010	4312
379.091	7746
379.173	3784
379.255	26
379.337	2994
379.419	9007
379.501	20995
379.583	6821
379.664	2738
379.746	2552
379.828	10967
379.910	11735
379.991	12075
380.073	2297
380.155	3793
380.237	2165
380.318	2879
380.400	1274
380.482	3684
380.564	4038
380.645	2907
380.727	2750
380.809	4225
380.890	1545
380.972	2332
381.053	757
381.135	2883
381.217	3338
381.298	11398
381.380	4902
381.461	8004
381.543	25354
381.624	28643
381.706	4852
381.787	4526
381.869	4711
381.951	17463
382.032	52811
382.113	30947
382.195	4652
382.276	5384
382.358	8642
382.439	23080
382.521	30331
382.602	46052
382.684	19407
382.765	29389
382.846	23931
382.928	21377
383.009	11507
383.090	10250
383.172	31934
383.253	45995
383.334	22107
383.416	33160
383.497	16301
383.578	5315
383.659	8779
383.741	31642
383.822	72332
383.903	36307
383.984	18744
384.066	37542
384.147	20836
384.228	4727
384.309	2686
384.390	2959
384.471	2104
384.553	3379
384.634	3992
384.715	4239
384.796	4013
384.877	6968
384.958	12636
385.039	11947
385.120	4516
385.201	5073
385.282	5377
385.363	7501
385.444	4680
385.525	8242
385.606	18330
385.687	17253
385.768	5517
385.849	7279
385.930	27678
386.011	44776
386.092	10691
386.173	4002
386.254	4058
386.335	5228
386.416	2916
386.496	8036
386.577	11539
386.658	6379
386.739	4470
386.820	6487
386.901	3993
386.981	5238
387.062	4277
387.143	7826
387.224	12526
387.304	10064
387.385	4060
387.466	2770
387.547	5342
387.627	2680
387.708	6134
387.789	21246
387.869	23615
387.950	8467
388.031	3459
388.111	4346
388.192	12925
388.273	18065
388.353	8484
388.434	3258
388.514	5651
388.595	26215
388.676	26763
388.756	10403
388.837	9153
388.917	5714
388.998	2007
389.078	4272
389.159	2593
389.239	-3
389.320	3261
389.400	777
389.480	7367
389.561	13139
389.641	6876
389.722	2338
389.802	2374
389.883	7552
389.963	16405
390.043	15559
390.124	6557
390.204	5890
390.284	10703
390.365	8394
390.445	19628
390.525	32925
390.605	20733
390.686	5712
390.766	4123
390.846	4802
390.927	374
391.007	1555
391.087	3070
391.167	2587
391.247	2093
391.328	7975
391.408	8706
391.488	5914
391.568	2066
391.648	2761
391.728	2244
391.808	3184
391.888	2960
391.969	7690
392.049	9877
392.129	9020
392.209	7355
392.289	14711
392.369	9478
392.449	12665
392.529	6531
392.609	4550
392.689	4859
392.769	13475
392.849	10925
392.929	14106
393.009	23069
393.089	12566
393.169	5736
393.248	18452
393.328	83196
393.408	81312
393.488	14381
393.568	3741
393.648	2270
393.728	1509
393.807	1280
393.887	2693
393.967	2226
394.047	3791
394.127	4627
394.206	9733
394.286	39573
394.366	148947
394.446	140415
394.525	25777
394.605	5924
394.685	7334
394.764	20579
394.844	35374
394.924	27565
395.003	5958
395.083	3153
395.163	3977
395.242	4638
395.322	4576
395.402	843
395.481	4909
395.561	13328
395.640	31690
395.720	21422
395.799	36982
395.879	27609
395.958	12334
396.038	51715
396.117	193003
396.197	188635
396.276	47907
396.356	16004
396.435	13054
396.515	6161
396.594	3643
396.673	5956
396.753	25340
396.832	74000
396.912	51109
396.991	9687
397.070	4312
397.150	1811
397.229	3434
397.308	1683
397.388	2094
397.467	1804
397.546	1953
397.625	-536
397.705	2585
397.784	1202
397.863	919
397.942	1510
398.022	2241
398.101	13550
398.180	35302
398.259	17929
398.338	4878
398.417	1325
398.497	1714
398.576	1946
398.655	508
398.734	2092
398.813	5085
398.892	16561
398.971	38144
399.050	16694
399.129	2756
399.208	2405
399.287	2347
399.366	1021
399.445	2456
399.524	3890
399.603	3240
399.682	2298
399.761	11486
399.840	39586
399.919	29843
399.998	3685
400.077	1063
400.156	130
400.235	4272
400.313	805
400.392	2040
400.471	5979
400.550	8358
400.629	1266
400.708	1753
400.786	3106
400.865	9608
400.944	7688
401.023	4414
401.102	438
401.180	3284
401.259	4598
401.338	2596
401.416	1583
401.495	2345
401.574	2023
401.652	872
401.731	2514
401.810	782
401.888	566
401.967	748
402.046	305
402.124	4297
402.203	2620
402.281	2316
402.360	2707
402.438	11715
402.517	6071
402.596	2471
402.674	1170
402.753	829
402.831	2013
402.910	2719
402.988	3591
403.066	9877
403.145	9028
403.223	7128
403.302	5204
403.380	5622
403.459	3882
403.537	1878
403.615	549
403.694	303
403.772	836
403.850	1466
403.929	485
404.007	1216
404.085	4911
404.164	2310
404.242	2920
404.320	8017
404.398	11116
404.477	13591
404.555	34989
404.633	28576
404.711	8719
404.789	4779
404.868	470
404.946	198
405.024	160
405.102	677
405.180	-221
405.258	-5
405.336	1350
405.415	570
405.493	2967
405.571	2266
405.649	-585
405.727	-639
405.805	2146
405.883	1746
405.961	1955
406.039	3891
406.117	789
406.195	2936
406.273	7149
406.351	25555
406.429	15975
406.507	3195
406.585	1319
406.663	1826
406.740	728
406.818	528
406.896	272
406.974	1514
407.052	1458
407.130	15408
407.208	19127
407.285	5091
407.363	1762
407.441	1913
407.519	1247
407.596	3690
407.674	5785
407.752	14140
407.830	13158
407.907	6540
407.985	1459
408.063	1567
408.141	60
408.218	3209
408.296	1937
408.373	718
408.451	686
408.529	1052
408.606	2591
408.684	5209
408.762	1257
408.839	663
408.917	140
408.994	544
409.072	-359
409.149	-169
409.227	-17
409.304	71
409.382	-511
409.459	-210
409.537	-689
409.614	-54
409.692	-482
409.769	-458
409.846	173
409.924	1713
410.001	-791
410.079	1223
410.156	1290
410.233	886
410.311	-230
410.388	-60
410.465	134
410.543	361
410.620	758
410.697	1448
410.775	523
410.852	-456
410.929	2190
411.006	3089
411.083	503
411.161	1142
411.238	1835
411.315	1746
411.392	23
411.469	862
411.547	628
411.624	-854
411.701	-60
411.778	2417
411.855	1346
411.932	1316
412.009	764
412.086	1089
412.163	779
412.240	2992
412.317	6819
412.394	5877
412.471	1053
412.548	-293
412.625	31
412.702	2623
412.779	3652
412.856	2355
412.933	-177
413.010	1912
413.087	1550
413.164	5178
413.241	5865
413.318	2624
413.395	2849
413.471	1732
413.548	459
413.625	2137
413.702	1318
413.779	4002
413.855	758
413.932	-583
414.009	-507
414.086	423
414.162	1034
414.239	3403
414.316	6811
414.393	11599
414.469	2376
414.546	431
414.623	-183
414.699	687
414.776	-256
414.853	722
414.929	1542
415.006	1989
415.082	1934
415.159	2736
415.236	2368
415.312	1529
415.389	1393
415.465	448
415.542	736
415.618	858
415.695	718
415.771	192
415.848	-68
415.924	1395
416.000	659
416.077	1398
416.153	-1202
416.230	-349
416.306	147
416.383	902
416.459	964
416.535	1098
416.612	664
416.688	1082
416.764	1
416.841	181
416.917	-202
416.993	964
417.069	1108
417.146	1035
417.222	1836
417.298	432
417.374	-861
417.451	1555
417.527	189
417.603	608
417.679	556
417.755	1539
417.831	112
417.908	967
417.984	-318
418.060	-847
418.136	1066
418.212	1818
418.288	71
418.364	601
418.440	-870
418.516	1836
418.592	2661
418.668	5544
418.744	3576
418.820	1992
418.896	581
418.972	-451
419.048	-395
419.124	2966
419.200	-360
419.276	1144
419.352	4
419.428	965
419.504	469
419.579	1056
419.655	2594
419.731	1700
419.807	2610
419.883	4057
419.959	1823
420.034	888
420.110	1559
420.186	5652
420.262	4279
420.337	1255
420.413	-129
420.489	1576
420.565	424
420.640	-348
420.716	240
420.792	-1348
420.867	652
420.943	-446
421.019	627
421.094	16
421.170	-378
421.245	299
421.321	-524
421.397	-188
421.472	1635
421.548	3912
421.623	1234
421.699	879
421.774	269
421.850	-1110
421.925	558
422.001	619
422.076	-514
422.152	198
422.227	606
422.302	1714
422.378	749
422.453	1671
422.529	8105
422.604	36679
422.679	72180
422.755	32687
422.830	5555
422.905	1437
422.981	-19
423.056	839
423.131	5
423.207	1011
423.282	83
423.357	1359
423.432	850
423.508	1331
423.583	2170
423.658	2099
423.733	283
423.808	1987
423.883	1886
423.959	1035
424.034	220
424.109	460
424.184	-970
424.259	9
424.334	-462
424.409	-583
424.484	-521
424.559	736
424.634	399
424.709	1633
424.784	1881
424.859	1035
424.934	757
425.009	4609
425.084	6548
425.159	2059
425.234	470
425.309	342
425.384	2025
425.459	1466
425.534	834
425.609	1075
425.683	-216
425.758	407
425.833	-436
425.908	630
425.983	2315
426.058	8628
426.132	3069
426.207	1723
426.282	3393
426.357	2909
426.431	288
426.506	655
426.581	859
426.655	143
426.730	-832
426.805	-501
426.879	-180
426.954	1243
427.029	1763
427.103	10353
427.178	20309
427.253	9049
427.327	1725
427.402	3050
427.476	6086
427.551	2215
427.625	733
427.700	1767
427.774	-722
427.849	1201
427.923	-122
427.998	1347
428.072	424
428.147	2447
428.221	5023
428.296	8456
428.370	1876
428.444	1877
428.519	3930
428.593	8458
428.667	7953
428.742	9466
428.816	6703
428.890	13693
428.965	13727
429.039	9598
429.113	9164
429.188	2985
429.262	836
429.336	1510
429.410	4422
429.485	4433
429.559	7830
429.633	7656
429.707	3004
429.781	4784
429.855	16761
429.930	21251
430.004	24622
430.078	41355
430.152	27875
430.226	11543
430.300	9463
430.374	2797
430.448	3254
430.522	14775
430.596	37066
430.670	18848
430.744	18110
430.818	23085
430.892	4695
430.966	823
431.040	558
431.114	-704
431.188	-731
431.262	109
431.336	770
431.410	5151
431.484	10104
431.557	5524
431.631	-995
431.705	-187
431.779	71
431.853	6086
431.927	2857
432.000	545
432.074	-502
432.148	1929
432.222	-38
432.295	633
432.369	-762
432.443	1562
432.516	11412
432.590	24058
432.664	8840
432.737	1198
432.811	-953
432.885	-64
432.958	-161
433.032	551
433.106	-982
433.179	-121
433.253	-181
433.326	1082
433.400	2952
433.473	1072
433.547	-995
433.620	-255
433.694	489
433.767	1925
433.841	68
433.914	-444
433.988	-974
434.061	7
434.134	-628
434.208	-1077
434.281	-1413
434.355	-589
434.428	68
434.501	-943
434.575	-590
434.648	-37
434.721	-933
434.795	-685
434.868	-477
434.941	289
435.014	-1028
435.088	-36
435.161	-352
435.234	166
435.307	-248
435.381	203
435.454	54
435.527	430
435.600	-908
435.673	-478
435.746	-685
435.819	-632
435.892	-853
435.966	98
436.039	-946
436.112	-45
436.185	-1012
436.258	-902
436.331	-1239
436.404	-90
436.477	-143
436.550	-821
436.623	-694
436.696	-718
436.769	292
436.842	179
436.915	-185
436.987	190
437.060	-793
437.133	-653
437.206	-240
437.279	499
437.352	-342
437.425	-643
437.498	-498
437.570	1608
437.643	511
437.716	-577
437.789	-1237
437.861	877
437.934	1633
438.007	611
438.080	-316
438.152	577
438.225	2193
438.298	16124
438.370	37990
438.443	15672
438.516	2542
438.588	569
438.661	219
438.734	299
438.806	229
438.879	747
438.951	-24
439.024	1574
439.096	380
439.169	1819
439.241	-357
439.314	670
439.386	286
439.459	2767
439.531	3981
439.604	841
439.676	30
439.749	-173
439.821	-655
439.893	509
439.966	342
440.038	894
440.110	-153
440.183	74
440.255	-372
440.327	220
440.400	7437
440.472	24229
440.544	14796
440.617	2304
440.689	1128
440.761	1776
440.833	2574
440.905	1603
440.978	-58
441.050	-303
441.122	288
441.194	-470
441.266	-780
441.338	-841
441.411	131
441.483	6478
441.555	8256
441.627	3216
441.699	2451
441.771	2917
441.843	385
441.915	1068
441.987	-48
442.059	-482
442.131	339
442.203	1970
442.275	1562
442.347	1993
442.419	707
442.491	2682
442.563	5945
442.635	7338
442.706	10830
442.778	9599
442.850	1272
442.922	1218
442.994	3224
443.066	2573
443.137	866
443.209	576
443.281	826
443.353	2558
443.425	6528
443.496	11396
443.568	10536
443.640	4638
443.711	1512
443.783	749
443.855	1
443.926	163
443.998	60
444.070	2223
444.141	301
444.213	2120
444.285	1533
444.356	2783
444.428	2677
444.499	873
444.571	-452
444.642	158
444.714	-885
444.785	1679
444.857	2910
444.928	11381
445.000	5915
445.071	7321
445.143	7397
445.214	3671
445.285	5121
445.357	15370
445.428	16692
445.500	27450
445.571	23256
445.642	9923
445.714	10249
445.785	15679
445.856	2997
445.928	1597
445.999	1450
446.070	2561
446.141	888
446.213	2002
446.284	1575
446.355	3290
446.426	125
446.497	1139
446.569	2509
446.640	4066
446.711	1959
446.782	1501
446.853	2785
446.924	2390
446.995	664
447.066	1764
447.138	4407
447.209	2272
447.280	-356
447.351	-20
447.422	-1317
447.493	553
447.564	560
447.635	1153
447.706	536
447.777	-387
447.847	-579
447.918	507
447.989	2202
448.060	3447
448.131	7618
448.202	6012
448.273	2271
448.344	2325
448.414	932
448.485	446
448.556	264
448.627	-94
448.698	684
448.768	245
448.839	889
448.910	3544
448.981	2236
449.051	774
449.122	-15
449.193	13
449.263	490
449.334	804
449.405	-277
449.475	1948
449.546	2296
449.616	3859
449.687	3690
449.758	1049
449.828	-269
449.899	416
449.969	-657
450.040	172
450.110	1260
450.181	2085
450.251	537
450.322	758
450.392	466
450.463	563
450.533	-136
450.604	420
450.674	-496
450.744	1392
450.815	-689
450.885	980
450.955	535
451.026	191
451.096	259
451.166	1789
451.237	5763
451.307	15230
451.377	5481
451.447	659
451.518	-241
451.588	948
451.658	1273
451.728	3831
451.799	15390
451.869	17525
451.939	3482
452.009	783
452.079	-115
452.149	1395
452.219	5384
452.289	19443
452.360	13468
452.430	2705
452.500	1302
452.570	2141
452.640	2844
452.710	10793
452.780	15877
452.850	8758
452.920	4421
452.990	2881
453.060	1538
453.129	1822
453.199	4433
453.269	20791
453.339	38961
453.409	57189
453.479	59386
453.549	87400
453.619	91711
453.688	38800
453.758	6122
453.828	2317
453.898	1166
453.968	1936
454.037	1094
454.087	1391
454.107	1499
454.168	292
454.177	99
454.247	1304
454.249	1327
454.316	1233
454.330	1584
454.386	2514
454.411	5439
454.456	9881
454.492	12375
454.525	14690
454.574	7636
454.595	4636
454.655	2101
454.665	1720
454.734	3647
454.736	3820
454.804	6682
454.817	9243
454.873	18129
454.898	19359
454.943	21539
454.979	13955
455.013	7556
455.060	5314
455.082	4514
455.141	5716
455.152	5760
455.221	15711
455.222	15990
455.291	25015
455.303	23745
455.360	18404
455.384	20266
455.430	21490
455.465	18743
455.499	16376
455.546	17738
455.569	17885
455.627	11367
455.638	10449
455.707	2902
455.708	2919
455.777	1669
455.789	1841
455.846	2561
455.869	2638
455.916	2879
455.950	2871
455.985	2659
456.031	2886
456.054	2996
456.112	2317
456.124	2254
456.193	2891
456.193	2865
456.262	4036
456.274	4163
456.332	4522
456.355	4608
456.401	4123
456.436	3213
456.470	2554
456.516	1735
456.540	1335
456.597	1633
456.609	1695
456.678	1351
456.678	1336
456.747	1827
456.759	1676
456.817	1079
456.840	1321
456.886	1694
456.920	1686
456.955	1906
457.001	2892
457.024	3389
457.082	3826
457.093	3881
457.162	5761
457.163	5798
457.232	6360
457.243	6013
457.301	4490
457.324	3318
457.370	1699
457.405	2055
457.439	2377
457.485	2060
457.508	1818
457.566	2278
457.577	2408
457.646	2618
457.647	2642
457.715	3389
457.727	3369
457.784	3537
457.808	3876
457.853	3947
457.889	4226
457.922	4359
457.969	3886
457.991	3953
458.050	4339
458.060	4404
458.129	6231
458.130	6287
458.198	5293
458.211	4898
458.267	3811
458.292	3359
458.336	3254
458.372	3320
458.405	3895
458.453	4589
458.474	4823
458.533	7427
458.543	7682
458.611	8648
458.614	8713
458.680	5857
458.694	4940
458.749	3868
458.775	3687
458.818	3398
458.855	3235
458.887	3200
458.936	3568
458.955	3717
459.016	3513
459.024	3483
459.093	4295
459.097	4296
459.162	3712
459.177	3727
459.230	4172
459.257	4472
459.299	5004
459.338	5888
459.368	6416
459.418	7050
459.437	6821
459.499	4876
459.505	4764
459.574	3554
459.579	3565
459.643	4149
459.659	4152
459.711	3853
459.740	3819
459.780	4038
459.820	4394
459.849	4827
459.900	5854
459.917	5812
459.981	4894
459.986	4830
460.054	4411
460.061	4372
460.123	4560
460.141	4729
460.191	5174
460.222	5111
460.260	4992
460.302	5970
460.328	6377
460.382	5782
460.397	5614
460.462	5564
460.465	5716
460.534	8863
460.543	9376
460.602	16593
460.623	19451
460.671	28437
460.703	35962
460.739	28980
460.783	18306
460.808	16600
460.864	7986
460.876	7175
460.944	5723
460.945	5693
461.013	5221
461.024	5076
461.081	4698
461.104	4876
461.150	5072
461.184	4676
461.218	4562
461.264	5103
461.286	5192
461.345	4736
461.355	4725
461.423	5247
461.425	5246
461.491	7456
461.505	8088
461.559	15470
461.585	18946
461.628	26943
461.665	34998
461.696	34696
461.745	36569
461.764	32455
461.825	10646
461.832	10281
461.901	6483
461.905	6569
461.969	5986
461.985	5610
462.037	6349
462.065	6898
462.105	8823
462.145	10820
462.173	13638
462.225	19280
462.241	20850
462.305	29100
462.310	28270
462.378	13383
462.385	11278
462.446	7013
462.465	6373
462.514	6013
462.545	6127
462.582	6517
462.625	6927
462.650	7206
462.705	7726
462.718	8155
462.785	10976
462.786	11033
462.854	13911
462.865	14435
462.922	15054
462.945	15181
462.990	11305
463.025	7674
463.058	7159
463.104	6547
463.126	6111
463.184	5930
463.194	6155
463.262	6827
463.264	6882
463.330	7924
463.344	7931
463.398	8756
463.424	9460
463.466	9077
463.504	8579
463.533	8630
463.583	8563
463.601	8663
463.663	8930
463.669	9268
463.737	13522
463.743	13867
463.805	22986
463.823	25771
463.873	37661
463.903	45484
463.940	43373
463.982	41493
464.008	33810
464.062	13588
464.076	12685
464.142	8198
464.144	8129
464.211	7282
464.221	7227
464.279	7110
464.301	6990
464.347	8593
464.381	9942
464.414	10888
464.461	12204
464.482	12186
464.540	12431
464.550	12127
464.617	8948
464.620	8834
464.685	9747
464.699	9993
464.753	11437
464.779	12145
464.820	12960
464.859	13563
464.888	13651
464.938	14180
464.956	14345
465.018	14606
465.023	14353
465.091	10542
465.098	10134
465.158	10473
465.177	10663
465.226	10915
465.257	10912
465.293	11008
465.336	11200
465.361	12344
465.416	14921
465.428	16924
465.495	27573
465.496	27717
465.563	43421
465.575	46213
465.631	49305
465.654	50638
465.698	30263
465.734	12103
465.765	11267
465.813	10154
465.833	9931
465.893	10130
465.900	10172
465.968	10407
465.972	10413
466.035	9724
466.052	9501
466.102	9904
466.131	10127
466.170	10463
466.210	10736
466.237	11079
466.290	11813
466.304	11681
466.369	10768
466.372	10779
466.439	10721
466.449	10688
466.506	13313
466.528	14285
466.573	24097
466.607	31425
466.641	43064
466.687	59207
466.708	61379
466.766	67485
466.775	61808
466.842	17764
466.845	15646
466.909	13556
466.925	13176
466.977	13186
467.004	13223
467.044	13808
467.083	14366
467.111	15274
467.163	16906
467.178	16860
467.242	16510
467.245	16515
467.312	16024
467.321	15931
467.379	17337
467.400	17800
467.446	19769
467.480	21129
467.559	15877
467.638	14960
467.717	14465
467.796	15800
467.875	15589
467.955	19499
468.034	38481
468.113	72430
468.192	91113
468.271	16771
468.350	14161
468.429	14003
468.508	13997
468.588	13431
468.667	14453
468.746	13987
468.825	15027
468.904	13845
468.983	18478
469.062	28581
469.141	29806
469.220	12936
469.299	14955
469.378	13777
469.456	17556
469.535	14818
469.614	13963
469.693	17057
469.772	22561
469.851	31880
469.930	16382
470.009	13107
470.088	12279
470.166	12085
470.245	14218
470.324	14087
470.403	12904
470.482	12225
470.560	12918
470.639	12855
470.718	14059
470.797	13375
470.875	17457
470.954	22209
471.033	22152
471.111	11330
471.190	11338
471.269	11206
471.347	11294
471.426	13688
471.505	15977
471.583	14528
471.662	13447
471.740	12607
471.819	12969
471.898	12298
471.976	12849
472.055	12747
472.133	15123
472.212	19926
472.290	20617
472.369	12942
472.447	11528
472.526	10572
472.604	11662
472.683	11761
472.761	12359
472.839	12464
472.918	12309
472.996	13493
473.075	15722
473.153	13767
473.231	12397
473.310	14685
473.388	13317
473.466	13167
473.545	13009
473.623	13948
473.701	12514
473.780	11453
473.858	10309
473.936	13648
474.014	13640
474.093	15190
474.171	22322
474.249	32912
474.327	15774
474.405	10752
474.484	9629
474.562	10285
474.640	10358
474.718	12165
474.796	12178
474.874	11615
474.952	9382
475.030	10180
475.108	10390
475.187	9989
475.265	10824
475.343	11072
475.421	13461
475.499	10587
475.577	12619
475.655	21095
475.733	40995
475.811	65474
475.889	57860
475.966	27659
476.044	13312
476.122	13429
476.200	14401
476.278	12036
476.356	13042
476.434	13285
476.512	14647
476.590	15244
476.667	14491
476.745	12127
476.823	13427
476.901	13418
476.979	14532
477.056	13351
477.134	12514
477.212	12252
477.290	12125
477.367	12447
477.445	11596
477.523	12026
477.601	11349
477.678	13553
477.756	16248
477.834	14968
477.911	11560
477.989	11821
478.066	12821
478.144	14409
478.222	12029
478.299	13635
478.377	12634
478.454	10191
478.532	10607
478.609	10792
478.687	10945
478.764	10535
478.842	10472
478.919	11743
478.997	11268
479.074	11560
479.152	15166
479.229	18718
479.307	10804
479.384	9936
479.461	10848
479.539	11816
479.616	14435
479.694	11140
479.771	13329
479.848	14518
479.926	19950
480.003	17957
480.080	11009
480.157	11089
480.235	10128
480.312	11861
480.389	16070
480.467	24499
480.544	26040
480.621	14581
480.698	13279
480.775	16309
480.853	16111
480.930	12925
481.007	14078
481.084	17047
481.161	15860
481.238	15325
481.315	11433
481.392	11297
481.470	11399
481.547	11200
481.624	12138
481.701	12157
481.778	13329
481.855	14766
481.932	23911
482.009	38829
482.086	18571
482.163	12334
482.240	13067
482.317	14958
482.393	12826
482.470	12496
482.547	14176
482.624	11633
482.701	12097
482.778	10267
482.855	9451
482.932	9928
483.009	10364
483.085	12016
483.162	12018
483.239	10988
483.316	9715
483.393	10961
483.469	11689
483.546	14413
483.623	15578
483.699	11483
483.776	12505
483.853	14990
483.930	26990
484.006	61354
484.083	86654
484.160	33670
484.236	43450
484.313	31364
484.389	25449
484.466	24150
484.543	23332
484.619	22998
484.696	26005
484.772	28692
484.849	29554
484.925	21839
485.002	23927
485.078	24166
485.155	23679
485.231	21935
485.308	22703
485.384	25145
485.461	33994
485.537	56467
485.614	53621
485.690	22472
485.766	20764
485.843	22365
485.919	23960
485.995	22625
486.072	20455
486.148	19527
486.224	19982
486.301	22922
486.377	24697
486.453	23171
486.530	23398
486.606	29925
486.682	33081
486.758	43925
486.835	47276
486.911	40697
486.987	65033
487.063	36899
487.139	34603
487.215	28819
487.292	22864
487.368	19919
487.444	22867
487.520	24995
487.596	20812
487.672	25168
487.748	37454
487.824	38414
487.900	21823
487.976	22808
488.052	21868
488.128	24842
488.204	22578
488.280	22695
488.356	35734
488.432	69502
488.508	82661
488.584	20827
488.660	16854
488.736	17970
488.812	17654
488.888	22985
488.964	26079
489.039	37423
489.115	44344
489.191	26480
489.267	19721
489.343	19428
489.418	15757
489.494	15865
489.570	14981
489.646	18581
489.722	18052
489.797	20152
489.873	40746
489.949	78536
490.024	43664
490.100	18689
490.176	19046
490.251	17056
490.327	18664
490.403	14270
490.478	14577
490.554	13160
490.629	13837
490.705	12850
490.781	15235
490.856	15226
490.932	16268
491.007	15717
491.083	14779
491.158	15995
491.234	29295
491.309	59565
491.385	42311
491.460	16466
491.536	17685
491.611	14055
491.686	14834
491.762	16806
491.837	26078
491.913	42023
491.988	55235
492.063	50745
492.139	37019
492.214	21571
492.289	12587
492.365	13452
492.440	18689
492.515	15596
492.590	15606
492.666	13545
492.741	22149
492.816	30472
492.891	13742
492.967	11913
493.042	10894
493.117	11578
493.192	13684
493.267	28225
493.342	67292
493.418	62750
493.493	12805
493.568	10000
493.643	12987
493.718	16716
493.793	23484
493.868	16707
493.943	11602
494.018	11756
494.093	12430
494.168	11900
494.243	9818
494.318	10439
494.393	12097
494.468	9905
494.543	9207
494.618	10653
494.693	10520
494.768	10467
494.842	10195
494.917	11370
494.992	11010
495.067	9987
495.142	10600
495.217	10685
495.292	10981
495.366	13266
495.441	16234
495.516	18697
495.591	22542
495.665	49351
495.740	77439
495.815	28685
495.890	18474
495.964	14342
496.039	17741
496.114	15470
496.188	15892
496.263	15855
496.338	15231
496.412	18407
496.487	19266
496.561	17627
496.636	16859
496.710	16011
496.785	19056
496.860	20436
496.934	14928
497.009	15999
497.083	15387
497.158	17197
497.232	19730
497.307	21756
497.381	18964
497.455	25388
497.530	30397
497.604	19376
497.679	24268
497.753	36961
497.827	35178
497.902	27467
497.976	44393
498.050	154080
498.125	444011
498.199	260379
498.273	30456
498.348	22570
498.422	20899
498.496	20684
498.570	20315
498.645	20152
498.719	21039
498.793	28676
498.867	46945
498.941	71846
499.016	225639
499.090	422363
499.164	73515
499.238	18427
499.312	17538
499.386	20107
499.460	19226
499.534	18496
499.609	25322
499.683	38653
499.757	38730
499.831	117631
499.905	337220
499.979	186818
500.053	44948
500.127	35195
500.201	20687
500.275	19006
500.349	19437
500.422	20690
500.496	28801
500.570	64866
500.644	200781
500.718	272129
500.792	35365
500.866	23441
500.940	30257
501.013	21577
501.087	21073
501.161	29501
501.235	50205
501.309	146398
501.382	324374
501.456	163906
501.530	62245
501.603	98135
501.677	25327
501.751	16266
501.825	24591
501.898	58019
501.972	130624
502.046	47216
502.119	25053
502.193	67986
502.266	131727
502.340	46145
502.413	75271
502.487	110169
502.561	53396
502.634	15707
502.708	14186
502.781	13279
502.855	13142
502.928	11906
503.002	13269
503.075	12836
503.149	14511
503.222	14402
503.295	16365
503.369	19374
503.442	35276
503.516	124327
503.589	226660
503.662	105896
503.736	52296
503.809	114085
503.882	74429
503.956	136331
504.029	69811
504.102	25153
504.175	22215
504.249	13841
504.322	18583
504.395	15840
504.468	12243
504.542	13713
504.615	9206
504.688	9909
504.761	9997
504.834	12460
504.907	11561
504.980	14370
505.053	12442
505.127	10365
505.200	19348
505.273	20599
505.346	11561
505.419	10736
505.492	11035
505.565	9190
505.638	10092
505.711	9235
505.784	8654
505.857	8825
505.930	10632
506.003	8936
506.076	12818
506.149	16495
506.221	16558
506.294	21529
506.367	68964
506.440	166831
506.513	46550
506.586	19590
506.659	9562
506.731	9137
506.804	11094
506.877	12608
506.950	11856
507.022	10557
507.095	16272
507.168	15674
507.241	9338
507.313	8055
507.386	8528
507.459	10822
507.531	8455
507.604	7991
507.677	9119
507.749	6466
507.822	11606
507.894	17228
507.967	18103
508.040	10750
508.112	11229
508.185	11373
508.257	9233
508.330	14134
508.402	11458
508.475	12355
508.547	12245
508.620	14146
508.692	20686
508.765	11811
508.837	9095
508.909	9170
508.982	9442
509.054	10295
509.127	8700
509.199	8960
509.271	9107
509.344	7796
509.416	8717
509.488	9498
509.560	9889
509.633	9107
509.705	9405
509.777	10153
509.849	12141
509.922	9588
509.994	9485
510.066	11213
510.138	11629
510.210	18421
510.283	15729
510.355	13293
510.427	11591
510.499	11433
510.571	11683
510.643	11879
510.715	15198
510.787	10231
510.859	13450
510.931	13779
511.003	13773
511.076	13864
511.148	11657
511.219	13533
511.291	25465
511.363	21617
511.435	12466
511.507	11290
511.579	11636
511.651	12705
511.723	9663
511.795	9957
511.867	11342
511.939	16441
512.010	32708
512.082	17411
512.154	10106
512.226	10739
512.298	17101
512.369	16879
512.441	13487
512.513	13170
512.585	9984
512.656	12435
512.728	11936
512.800	10141
512.871	12001
512.943	11811
513.015	8465
513.086	10856
513.158	9801
513.230	10390
513.301	11659
513.373	12576
513.444	10575
513.516	9459
513.588	9305
513.659	9756
513.731	10617
513.802	9060
513.874	16770
513.945	17924
514.016	10186
514.088	10192
514.159	9739
514.231	13037
514.302	14668
514.374	13786
514.445	16366
514.516	38382
514.588	18500
514.659	17554
514.730	30374
514.802	15636
514.873	9079
514.944	13498
515.016	11781
515.087	11705
515.158	22919
515.229	24856
515.301	8854
515.372	11436
515.443	9298
515.514	9408
515.585	8324
515.656	10013
515.728	9787
515.799	8498
515.870	10802
515.941	10822
516.012	10191
516.083	13763
516.154	11884
516.225	12745
516.296	13044
516.367	10951
516.438	11341
516.509	12375
516.580	19011
516.651	48521
516.722	100259
516.793	33414
516.864	20655
516.935	21474
517.006	22862
517.077	26763
517.148	51172
517.219	135360
517.289	156697
517.360	150241
517.431	35461
517.502	15612
517.573	16101
517.643	16794
517.714	20178
517.785	17009
517.856	16633
517.926	17682
517.997	18296
518.068	18352
518.138	21192
518.209	32469
518.280	108538
518.350	231534
518.421	49528
518.492	19252
518.562	16980
518.633	18909
518.703	15236
518.774	23815
518.845	32492
518.915	23850
518.986	17745
519.056	20360
519.127	30392
519.197	64330
519.268	172566
519.338	62565
519.408	21177
519.479	17883
519.549	13695
519.620	14498
519.690	11152
519.760	12244
519.831	12154
519.901	10539
519.971	12701
520.042	14575
520.112	15716
520.182	14504
520.253	14708
520.323	13048
520.393	16099
520.463	19255
520.534	17580
520.604	27815
520.674	15896
520.744	19164
520.814	29692
520.885	29486
520.955	84337
521.025	196106
521.095	38646
521.165	17864
521.235	14697
521.305	11052
521.375	11012
521.445	11580
521.515	11229
521.585	12888
521.655	9991
521.725	12620
521.795	13007
521.865	10633
521.935	22485
522.005	13528
522.075	10238
522.145	12233
522.215	15045
522.285	22085
522.355	33251
522.424	57441
522.494	33897
522.564	15697
522.634	24654
522.704	38010
522.774	13461
522.843	11051
522.913	10854
522.983	11010
523.053	9805
523.122	10783
523.192	11831
523.262	25738
523.331	17073
523.401	12037
523.471	8559
523.540	8550
523.610	7147
523.680	9929
523.749	10101
523.819	14676
523.888	11162
523.958	9967
524.027	10646
524.097	11087
524.166	9255
524.236	9476
524.305	11788
524.375	9358
524.444	8562
524.514	12334
524.583	11580
524.653	14042
524.722	13881
524.791	9042
524.861	10544
524.930	9455
524.999	9421
525.069	13590
525.138	13628
525.207	15325
525.277	10271
525.346	11058
525.415	9897
525.484	10477
525.554	13684
525.623	10726
525.692	9006
525.761	9733
525.830	9529
525.900	9576
525.969	14978
526.038	15201
526.107	20734
526.176	37739
526.245	22633
526.314	21269
526.383	29708
526.452	26459
526.522	58777
526.591	45713
526.660	19955
526.729	12991
526.797	18497
526.867	40851
526.935	121614
527.004	113985
527.073	33492
527.142	12628
527.211	9711
527.280	10492
527.349	10507
527.418	7937
527.487	9349
527.555	7051
527.624	7936
527.693	6800
527.762	8586
527.831	6230
527.899	7841
527.968	6991
528.037	6382
528.106	9612
528.174	12510
528.243	14039
528.312	20754
528.380	14267
528.449	7003
528.518	8647
528.586	5831
528.655	8003
528.723	7654
528.792	7259
528.861	7775
528.929	6379
528.998	8035
529.066	7615
529.135	6735
529.203	7554
529.272	7049
529.340	8565
529.409	8413
529.477	7948
529.545	12236
529.614	13604
529.682	14369
529.751	13250
529.819	16630
529.887	8640
529.956	7690
530.024	9044
530.092	6404
530.161	9721
530.229	10063
530.297	7675
530.365	8074
530.434	6718
530.502	6060
530.570	7923
530.638	5752
530.707	7474
530.775	9982
530.843	7091
530.911	7757
530.979	6776
531.047	7489
531.115	8720
531.183	7413
531.252	7793
531.320	8272
531.388	7130
531.456	7428
531.524	5585
531.592	7790
531.660	9880
531.728	6605
531.796	7064
531.864	7873
531.932	7724
532.000	7763
532.067	7158
532.135	8480
532.203	9805
532.271	8711
532.339	13630
532.407	19163
532.475	11433
532.542	9908
532.610	9884
532.678	13479
532.746	47313
532.814	57430
532.881	12892
532.949	9241
533.017	8402
533.084	7840
533.152	7105
533.220	7582
533.287	6585
533.355	7521
533.423	8344
533.490	6985
533.558	8224
533.625	9178
533.693	8553
533.761	8257
533.828	8845
533.896	7978
533.963	14363
534.031	16334
534.098	16780
534.166	9940
534.233	8530
534.300	9956
534.368	10138
534.435	7808
534.503	8567
534.570	8032
534.637	6897
534.705	7620
534.772	8322
534.840	9528
534.907	24805
534.974	15264
535.041	10228
535.109	11506
535.176	6967
535.243	7463
535.310	7692
535.378	6967
535.445	7131
535.512	6727
535.579	8161
535.646	6907
535.714	8077
535.781	10068
535.848	9989
535.915	12146
535.982	11474
536.049	10572
536.116	10640
536.183	8275
536.250	8883
536.317	8165
536.384	9748
536.451	10190
536.518	10731
536.585	7249
536.652	12108
536.719	10985
536.786	8547
536.853	8474
536.920	14905
536.987	14865
537.053	15765
537.120	45156
537.187	20943
537.254	8035
537.321	6989
537.388	8619
537.454	6181
537.521	6327
537.588	6627
537.654	8479
537.721	8304
537.788	8229
537.855	6306
537.921	7903
537.988	8149
538.055	8163
538.121	7305
538.188	8106
538.254	10615
538.321	12574
538.388	9339
538.454	7640
538.521	7568
538.587	7397
538.654	6771
538.720	7228
538.787	7212
538.853	8354
538.920	10803
538.986	10402
539.053	8247
539.119	8568
539.185	8496
539.252	9942
539.318	9584
539.385	10455
539.451	7245
539.517	9573
539.583	12407
539.650	21929
539.716	27437
539.782	9893
539.849	7786
539.915	8015
539.981	7447
540.047	8668
540.114	7862
540.180	9012
540.246	6404
540.312	9025
540.378	14642
540.444	13188
540.510	19478
540.576	27681
540.643	9721
540.709	6913
540.775	8265
540.841	8149
540.907	15210
540.973	15837
541.039	10893
541.105	9946
541.171	7643
541.237	7480
541.303	8632
541.369	9386
541.435	9201
541.500	11830
541.566	7478
541.632	7337
541.698	7663
541.764	8103
541.830	7807
541.896	7294
541.961	7866
542.027	6515
542.093	7286
542.159	7505
542.224	8025
542.290	11424
542.356	13144
542.421	11768
542.487	9121
542.553	9432
542.618	9243
542.684	8109
542.750	7379
542.815	10459
542.881	16228
542.947	31854
543.012	14157
543.078	7370
543.143	7932
543.209	8847
543.274	7415
543.340	10213
543.405	16778
543.471	13422
543.536	7755
543.602	9269
543.667	6357
543.732	8038
543.798	7522
543.863	7471
543.928	7262
543.994	6730
544.059	6958
544.124	6900
544.190	6864
544.255	7494
544.320	6220
544.386	6565
544.451	9463
544.516	9142
544.581	11529
544.646	25172
544.712	22150
544.777	10507
544.842	11990
544.907	12381
544.972	10643
545.037	11079
545.102	11698
545.168	11293
545.233	11400
545.298	13094
545.363	13313
545.428	14482
545.493	21958
545.558	24556
545.623	12815
545.688	12644
545.753	12085
545.818	10981
545.883	12554
545.947	11076
546.012	13929
546.077	12071
546.142	11749
546.207	10178
546.272	12623
546.337	10639
546.401	12647
546.466	11653
546.531	10256
546.596	12004
546.661	11162
546.725	10636
546.790	10179
546.855	11352
546.919	10209
546.984	11299
547.049	12214
547.113	14402
547.178	11778
547.243	14532
547.307	14821
547.372	16667
547.436	15865
547.501	12187
547.565	12444
547.630	13011
547.695	14433
547.759	18570
547.823	13376
547.888	11418
547.952	12024
548.017	12425
548.081	16416
548.146	20784
548.210	15176
548.274	12384
548.339	11658
548.403	11288
548.468	10217
548.532	10785
548.596	11446
548.660	11232
548.725	12626
548.789	15233
548.853	14554
548.917	14142
548.982	22326
549.046	16484
549.110	11129
549.174	10576
549.238	11440
549.303	10769
549.367	12111
549.431	10985
549.495	10579
549.559	10678
549.623	11650
549.687	13788
549.751	15057
549.815	13658
549.879	13744
549.943	12631
550.007	14197
550.071	15609
550.135	16982
550.199	12347
550.263	13001
550.327	18354
550.391	20254
550.455	13204
550.519	13978
550.582	14628
550.646	16405
550.710	15400
550.774	14494
550.838	14253
550.901	15399
550.965	16169
551.029	15972
551.093	19507
551.156	28976
551.220	55262
551.284	36811
551.347	29228
551.411	71986
551.475	44031
551.538	15810
551.602	13740
551.666	13319
551.729	11054
551.793	13038
551.856	13823
551.920	11713
551.983	11960
552.047	11898
552.110	11972
552.174	12015
552.237	11454
552.301	11002
552.364	12411
552.428	11794
552.491	12434
552.554	11762
552.618	12854
552.681	13349
552.745	12568
552.808	15599
552.871	14782
552.934	13301
552.998	12920
553.061	13867
553.124	12286
553.187	12347
553.251	12550
553.314	13898
553.377	14988
553.440	22420
553.503	59091
553.567	46166
553.630	13038
553.693	13669
553.756	12788
553.819	10667
553.882	12216
553.945	11710
554.008	11772
554.071	10134
554.134	11898
554.197	10528
554.260	10675
554.323	12010
554.386	11195
554.449	11000
554.512	11895
554.575	10538
554.638	12289
554.701	11445
554.764	10813
554.827	11755
554.889	10119
554.952	9139
555.015	10916
555.078	9797
555.141	9530
555.203	10048
555.266	9911
555.329	10583
555.391	9807
555.454	9673
555.517	10132
555.580	10419
555.642	10685
555.705	8741
555.768	9427
555.830	9546
555.893	10029
555.955	9744
556.018	9425
556.080	9253
556.143	9083
556.206	9271
556.268	10710
556.330	10787
556.393	10709
556.455	12941
556.518	19249
556.580	15405
556.643	9950
556.705	9626
556.767	9063
556.830	10247
556.892	9743
556.955	11045
557.017	10684
557.079	9684
557.142	9106
557.204	10930
557.266	15008
557.328	10984
557.391	8421
557.453	8703
557.515	9125
557.577	10261
557.639	9051
557.701	9303
557.764	7560
557.826	9624
557.888	10238
557.950	8823
558.012	9387
558.074	11170
558.136	18212
558.198	21166
558.260	11969
558.322	9853
558.384	10259
558.446	9856
558.508	11735
558.570	13545
558.632	18346
558.694	20649
558.756	27553
558.818	77974
558.880	90813
558.942	23421
559.003	23532
559.065	11417
559.127	9841
559.189	10894
559.251	11579
559.312	15804
559.374	37671
559.436	67217
559.498	18831
559.559	10706
559.621	12355
559.683	13882
559.744	26891
559.806	51922
559.868	36524
559.929	14223
559.991	14836
560.052	19619
560.114	28886
560.176	16789
560.237	24112
560.299	19707
560.360	10640
560.422	11593
560.483	12108
560.545	11091
560.606	11930
560.667	10894
560.729	10595
560.790	10945
560.852	11937
560.913	10868
560.974	11178
561.036	10510
561.097	12167
561.158	10776
561.220	10638
561.281	11111
561.342	11132
561.403	13388
561.465	14119
561.526	22144
561.587	18995
561.648	10736
561.709	10411
561.771	10830
561.832	10921
561.893	10896
561.954	10501
562.015	10659
562.076	11144
562.137	10562
562.198	11073
562.259	11124
562.320	10377
562.381	10916
562.442	11675
562.503	10879
562.564	10604
562.625	11041
562.686	10358
562.747	11349
562.808	10766
562.869	12971
562.930	15839
562.991	14088
563.051	13233
563.112	13432
563.173	12291
563.234	10942
563.294	11333
563.355	10297
563.416	11306
563.477	10264
563.537	11632
563.598	12689
563.659	11615
563.720	11530
563.780	12159
563.841	11149
563.901	11596
563.962	11369
564.023	11751
564.083	12212
564.144	11315
564.204	12204
564.265	13436
564.325	17793
564.386	32764
564.446	19552
564.507	10761
564.567	10946
564.628	11369
564.688	10997
564.749	11906
564.809	16304
564.869	14549
564.930	9760
564.990	10105
565.050	10549
565.111	10962
565.171	9855
565.231	9824
565.292	9939
565.352	9774
565.412	10847
565.472	11510
565.532	11732
565.593	9634
565.653	10343
565.713	10596
565.773	10739
565.833	10814
565.893	12111
565.953	11027
566.013	9973
566.074	13114
566.134	18812
566.194	28642
566.254	22025
566.314	14865
566.374	11913
566.434	12226
566.494	11159
566.554	10537
566.614	9738
566.673	9255
566.733	12306
566.793	11633
566.853	12609
566.913	13101
566.973	13112
567.033	13448
567.092	12072
567.152	12615
567.212	11858
567.272	11966
567.331	11766
567.391	12599
567.451	14964
567.511	22045
567.570	16736
567.630	11251
567.690	12924
567.749	11657
567.809	11679
567.868	11784
567.928	12301
567.988	12606
568.047	12782
568.107	12625
568.166	14729
568.226	17663
568.285	20228
568.345	16705
568.404	16554
568.464	13807
568.523	14189
568.582	14394
568.642	14224
568.701	17073
568.761	22791
568.820	29153
568.879	28024
568.939	25577
568.998	17610
569.057	14553
569.116	13583
569.176	12516
569.235	11815
569.294	11431
569.353	10325
569.413	12450
569.472	11854
569.531	11007
569.590	11894
569.649	12692
569.708	10022
569.767	11693
569.827	11551
569.886	11564
569.945	11330
570.004	9000
570.063	10694
570.122	11423
570.181	12546
570.240	14208
570.299	12288
570.358	10579
570.417	8909
570.475	8848
570.534	10187
570.593	9908
570.652	9884
570.711	9687
570.770	10206
570.829	11370
570.887	9845
570.946	10428
571.005	9420
571.064	10375
571.122	10852
571.181	12054
571.240	11166
571.299	10319
571.357	11441
571.416	11237
571.475	14233
571.533	11930
571.592	11006
571.650	11623
571.709	8522
571.768	10070
571.826	9679
571.885	10741
571.943	9945
572.002	9070
572.060	9555
572.119	8664
572.177	8779
572.236	8230
572.294	8295
572.352	8384
572.411	7927
572.469	7572
572.528	8974
572.586	10107
572.644	9588
572.703	10267
572.761	9253
572.819	8759
572.877	8504
572.936	8678
572.994	8337
573.052	8234
573.110	7499
573.169	8141
573.227	6912
573.285	9055
573.343	7987
573.401	9007
573.459	9252
573.517	8099
573.576	7530
573.634	8557
573.692	8236
573.750	7879
573.808	8279
573.866	10450
573.924	14179
573.982	12407
574.040	8853
574.098	8853
574.155	8642
574.213	8651
574.271	7475
574.329	8830
574.387	8738
574.445	8698
574.503	6729
574.560	6380
574.618	6717
574.676	6521
574.734	6552
574.792	7332
574.849	6750
574.907	7575
574.965	6544
575.022	6605
575.080	5977
575.138	6960
575.195	7191
575.253	7172
575.311	7234
575.368	7204
575.426	6062
575.483	7582
575.541	6871
575.598	6052
575.656	8000
575.713	8115
575.771	7626
575.828	6932
575.886	7920
575.943	8076
576.001	8869
576.058	8975
576.115	10212
576.173	12445
576.230	12753
576.287	10633
576.345	10321
576.402	10058
576.459	9235
576.517	10405
576.574	11185
576.631	11389
576.688	9295
576.746	9344
576.803	9020
576.860	10822
576.917	12239
576.974	9606
577.031	9323
577.089	9152
577.146	9552
577.203	10196
577.260	12560
577.317	12535
577.374	12655
577.431	10506
577.488	8475
577.545	7913
577.602	8245
577.659	8143
577.716	8497
577.773	9242
577.830	7572
577.886	9316
577.943	8615
578.000	7459
578.057	9670
578.114	9095
578.171	10822
578.227	12254
578.284	12348
578.341	10931
578.398	11061
578.454	11379
578.511	13107
578.568	13477
578.625	10222
578.681	9524
578.738	9565
578.794	10662
578.851	10474
578.908	11660
578.964	8683
579.021	10031
579.077	10312
579.134	11261
579.190	7852
579.247	8175
579.303	7449
579.360	7342
579.416	7226
579.473	7698
579.529	6742
579.586	8739
579.642	8666
579.698	9007
579.755	9985
579.811	7648
579.867	9842
579.924	8283
579.980	8367
580.036	9906
580.093	13233
580.149	17517
580.205	16238
580.261	13223
580.317	11613
580.374	13366
580.430	13340
580.486	11029
580.542	9287
580.598	9462
580.619	9277
580.654	8966
580.692	8752
580.710	8663
580.765	8405
580.767	8406
580.823	8193
580.838	8267
580.879	8510
580.911	7836
580.935	7346
580.984	7437
580.991	7461
581.047	9380
581.057	9494
581.103	10032
581.130	10192
581.159	10406
581.203	11130
581.215	11327
581.270	11283
581.276	11202
581.326	10528
581.349	10109
581.382	9502
581.422	9426
581.438	9400
581.494	9080
581.494	9064
581.550	8093
581.567	8545
581.606	9494
581.640	8668
581.661	8213
581.713	8810
581.717	8868
581.773	8158
581.786	8294
581.829	8677
581.859	8957
581.885	9248
581.932	8722
581.940	8632
581.996	9080
582.004	9062
582.052	8899
582.077	8528
582.107	8188
582.150	9426
582.163	9766
582.219	9435
582.223	9410
582.274	9284
582.296	9489
582.330	9743
582.368	9165
582.386	8979
582.441	8228
582.441	8229
582.497	8436
582.514	8582
582.552	9025
582.587	9064
582.608	9068
582.659	7444
582.663	7324
582.719	8612
582.732	8727
582.774	8897
582.805	8315
582.830	7977
582.877	8543
582.885	8612
582.941	8370
582.950	8471
582.996	9140
583.023	9104
583.052	9082
583.095	9878
583.107	10068
583.162	12355
583.168	12325
583.218	12017
583.240	11097
583.273	9667
583.313	9506
583.328	9536
583.384	9257
583.385	9227
583.439	8155
583.458	8337
583.494	8672
583.531	8582
583.549	8672
583.603	7778
583.605	7733
583.660	8016
583.676	7924
583.715	7847
583.748	8113
583.770	8409
583.820	9373
583.825	9424
583.881	8042
583.893	7981
583.936	7990
583.965	7824
583.991	7553
584.038	8218
584.046	8367
584.101	7815
584.110	7815
584.156	7901
584.183	8029
584.211	8009
584.255	7875
584.266	7893
584.321	7725
584.328	7707
584.376	7520
584.400	7576
584.431	7628
584.472	8154
584.486	8252
584.541	7851
584.545	7850
584.596	7926
584.617	7934
584.651	8222
584.689	8284
584.706	8228
584.761	8750
584.762	8750
584.816	8467
584.834	8582
584.871	8638
584.906	8559
584.926	8642
584.978	7715
584.980	7674
585.035	9349
585.051	9464
585.090	9580
585.123	9101
585.145	8907
585.195	8922
585.200	8922
585.254	9977
585.267	10155
585.309	10988
585.340	11713
585.364	11735
585.412	9683
585.419	9459
585.473	10769
585.484	10732
585.528	10744
585.556	11932
585.583	13210
585.628	15140
585.637	15594
585.692	22520
585.700	23022
585.747	25257
585.772	21017
585.801	14874
585.845	11008
585.856	10357
585.910	9981
585.917	9875
585.965	9253
585.989	9420
586.019	9781
586.061	9401
586.074	9214
586.128	9439
586.133	9497
586.183	10827
586.205	11305
586.237	11750
586.277	11595
586.292	11379
586.346	10799
586.349	10819
586.401	11158
586.421	11357
586.455	11889
586.493	13765
586.509	15397
586.564	22107
586.565	22404
586.618	36287
586.637	33993
586.672	22245
586.709	14449
586.727	12069
586.781	10188
586.781	10180
586.835	9640
586.853	9704
586.889	10069
586.925	9678
586.944	9300
586.996	9641
586.998	9670
587.052	10727
587.068	10833
587.106	10462
587.140	10458
587.161	10352
587.212	10289
587.215	10299
587.269	10152
587.284	10332
587.323	10655
587.356	10519
587.377	10456
587.427	11104
587.431	11156
587.485	11362
587.499	11461
587.539	11195
587.571	11288
587.593	11700
587.643	12375
587.648	12367
587.702	12327
587.715	12423
587.755	13467
587.786	13948
587.810	13535
587.858	12580
587.864	12662
587.917	14917
587.930	15375
587.971	16036
588.001	16515
588.025	16996
588.073	17725
588.079	17788
588.133	18687
588.145	19014
588.187	19957
588.217	20833
588.241	21687
588.288	23831
588.295	24158
588.348	27033
588.360	27908
588.402	31398
588.431	33872
588.456	35752
588.503	40419
588.510	41010
588.564	47129
588.575	49080
588.617	57411
588.646	64414
588.671	70943
588.718	89416
588.725	93113
588.778	135224
588.789	148568
588.832	229144
588.861	300247
588.886	403802
588.932	619444
588.939	638927
588.993	691477
589.004	679044
589.047	394041
589.075	234211
589.100	170886
589.147	96023
589.154	91725
589.207	72165
589.218	69582
589.261	68513
589.290	70254
589.314	73719
589.361	87980
589.368	92020
589.421	139233
589.433	153748
589.475	260485
589.504	353857
589.528	452933
589.576	600980
589.582	582754
589.635	305762
589.647	257007
589.689	133340
589.718	67179
589.742	55580
589.790	38567
589.795	37863
589.849	34617
589.861	34549
589.902	34906
589.932	32885
589.955	28236
590.004	19999
590.009	19638
590.062	17482
590.075	17000
590.115	16276
590.146	15913
590.168	15701
590.218	15283
590.222	15195
590.275	14473
590.289	14347
590.328	14131
590.360	13899
590.381	13686
590.431	13038
590.435	12977
590.488	12644
590.503	12561
590.541	12373
590.574	12273
590.594	12194
590.645	11991
590.647	11967
590.700	11733
590.716	11739
590.753	11365
590.787	11024
590.806	10975
590.859	11032
590.859	11032
590.912	11978
590.930	12419
590.965	11739
591.001	10927
591.018	10828
591.071	10508
591.072	10521
591.124	10136
591.143	10020
591.177	10609
591.214	11293
591.230	11398
591.283	11842
591.285	11865
591.336	11440
591.356	11353
591.389	11650
591.427	11971
591.442	11656
591.495	10465
591.498	10391
591.547	9965
591.569	9868
591.600	10028
591.640	10187
591.653	10277
591.706	10814
591.711	10886
591.759	11147
591.782	11410
591.811	12553
591.853	14005
591.864	13557
591.917	11328
591.924	11035
591.969	11158
591.995	11320
592.022	11262
592.066	11166
592.075	11418
592.127	13109
592.137	13480
592.180	15856
592.208	17230
592.233	15246
592.279	11603
592.285	11441
592.338	10298
592.350	10054
592.390	9652
592.421	9392
592.443	9640
592.491	10260
592.495	10234
592.548	10116
592.562	10107
592.600	10240
592.633	10390
592.653	10067
592.704	9238
592.705	9325
592.775	11152
592.846	10667
592.916	10554
592.987	12582
593.058	13845
593.128	10338
593.199	9923
593.270	9688
593.341	9063
593.411	10106
593.482	9997
593.553	9299
593.623	9799
593.694	10437
593.764	11604
593.835	10188
593.906	8333
593.976	10466
594.047	12746
594.117	14634
594.188	12921
594.258	9643
594.329	8120
594.399	8007
594.470	8564
594.540	8085
594.611	8742
594.681	8575
594.751	8271
594.822	9524
594.892	10177
594.963	9494
595.033	10205
595.103	9915
595.174	11509
595.244	17563
595.314	24309
595.384	9336
595.455	8780
595.525	10361
595.595	9818
595.665	9244
595.736	9859
595.806	9080
595.876	8444
595.946	9403
596.016	9125
596.087	9344
596.157	8967
596.227	8450
596.297	9070
596.367	9135
596.437	10294
596.507	16454
596.577	22569
596.647	11167
596.717	9313
596.787	8903
596.857	8698
596.927	8962
596.997	9181
597.067	8821
597.137	9936
597.207	9145
597.277	9208
597.347	9663
597.417	8914
597.487	9907
597.557	11167
597.626	10091
597.696	9970
597.766	14670
597.836	21116
597.906	12063
597.975	8932
598.045	8471
598.115	8816
598.185	8520
598.254	9385
598.324	9181
598.394	9095
598.464	8852
598.533	8388
598.603	8034
598.672	8100
598.742	9189
598.812	9399
598.881	9832
598.951	8641
599.020	8070
599.090	8684
599.159	9058
599.229	9125
599.299	7876
599.368	7673
599.437	8674
599.507	9408
599.576	9448
599.646	8757
599.715	9045
599.785	8292
599.854	10572
599.924	11569
599.993	10168
600.062	8827
600.132	8976
600.201	9532
600.270	9708
600.340	8253
600.409	8701
600.478	7940
600.547	9076
600.617	10844
600.686	9648
600.755	8331
600.824	9609
600.894	9099
600.963	7128
601.032	7648
601.101	8670
601.170	8347
601.239	8364
601.308	8916
601.378	9548
601.447	8852
601.516	7719
601.585	8025
601.654	8822
601.723	9844
601.792	7170
601.861	7901
601.930	10094
601.999	9796
602.068	7756
602.137	7989
602.206	8733
602.275	7779
602.343	9818
602.412	11127
602.481	7634
602.550	7245
602.619	7672
602.688	8225
602.756	7165
602.825	7768
602.894	6742
602.963	7560
603.032	7226
603.100	7861
603.169	7727
603.238	7569
603.307	8562
603.375	8905
603.444	7967
603.513	7362
603.581	6574
603.650	7359
603.719	6840
603.787	7141
603.856	7312
603.924	6916
603.993	7010
604.061	6247
604.130	7050
604.198	7619
604.267	8221
604.335	9506
604.404	7270
604.472	6853
604.541	7263
604.609	6555
604.678	6702
604.746	7363
604.815	7524
604.883	6826
604.951	7279
605.020	6814
605.088	6808
605.156	7788
605.225	7107
605.293	5929
605.361	7200
605.429	6676
605.498	6788
605.566	8629
605.634	7245
605.702	7893
605.771	8617
605.839	7182
605.907	6418
605.975	8206
606.043	7180
606.111	7127
606.180	7458
606.248	7200
606.316	8410
606.384	8008
606.452	10681
606.520	9726
606.588	8221
606.656	7073
606.724	6342
606.792	7069
606.860	6721
606.928	6413
606.996	6150
607.064	5371
607.132	7188
607.200	7399
607.267	6329
607.335	5525
607.403	7230
607.471	5867
607.539	6529
607.607	7221
607.674	6061
607.742	7258
607.810	5840
607.878	6836
607.946	5696
608.013	6866
608.081	6334
608.149	5768
608.216	5471
608.284	6872
608.352	5913
608.419	6857
608.487	13260
608.555	8174
608.622	6576
608.690	6047
608.757	6707
608.825	7349
608.893	5746
608.960	7776
609.028	9837
609.095	14583
609.163	8481
609.230	7343
609.298	7498
609.365	5803
609.432	5813
609.500	5966
609.567	6765
609.635	6726
609.702	6762
609.769	7894
609.837	9554
609.904	7426
609.971	6467
610.039	8423
610.106	10086
610.173	16573
610.241	34480
610.308	48819
610.375	34442
610.442	10573
610.509	7201
610.577	7293
610.644	6786
610.711	5690
610.778	7200
610.845	7250
610.912	6611
610.980	6086
611.047	8091
611.114	7295
611.181	6215
611.248	5053
611.315	6599
611.382	6032
611.449	6034
611.516	6581
611.583	5759
611.650	5800
611.717	6730
611.784	6089
611.851	7004
611.918	7341
611.984	6629
612.051	10585
612.118	18010
612.185	37893
612.252	24886
612.319	8674
612.386	6978
612.452	7244
612.519	9112
612.586	14980
612.653	9160
612.719	7222
612.786	5941
612.853	5417
612.919	4878
612.986	6558
613.053	5474
613.120	5484
613.186	5482
613.253	7906
613.319	5659
613.386	5747
613.453	5815
613.519	6759
613.586	8202
613.652	12200
613.719	8878
613.785	8056
613.852	6244
613.918	5080
613.985	7813
614.051	9990
614.118	22509
614.184	20824
614.250	6538
614.317	5749
614.383	5355
614.449	5335
614.516	5992
614.582	6836
614.648	6273
614.715	5328
614.781	5660
614.847	6583
614.914	7040
614.980	5800
615.046	5800
615.112	5767
615.179	4820
615.245	5496
615.311	5569
615.377	7182
615.443	6680
615.509	6124
615.575	6742
615.642	6145
615.708	6397
615.774	7838
615.840	8212
615.906	9851
615.972	10474
616.038	14701
616.104	26791
616.170	53512
616.236	43947
616.302	14022
616.368	9401
616.434	8470
616.500	9668
616.565	10461
616.631	9301
616.697	8184
616.763	9327
616.829	9310
616.895	14015
616.961	12355
617.026	9441
617.092	7433
617.158	7370
617.224	6864
617.289	8038
617.355	7196
617.421	7297
617.487	7983
617.552	7751
617.618	6012
617.684	5767
617.749	8831
617.815	7128
617.880	6389
617.946	6931
618.012	7558
618.077	5436
618.143	5452
618.208	7265
618.274	6677
618.339	7792
618.405	6512
618.470	7732
618.536	7076
618.601	10638
618.667	8925
618.732	6686
618.798	7960
618.863	7128
618.928	5809
618.994	7910
619.059	8949
619.124	11677
619.190	9910
619.255	7443
619.320	7066
619.386	7375
619.451	7068
619.516	8064
619.581	7905
619.647	7130
619.712	7067
619.777	6775
619.842	9209
619.907	7556
619.972	7574
620.038	8011
620.103	7649
620.168	6343
620.233	7826
620.298	6544
620.363	6935
620.428	7161
620.493	6975
620.558	6919
620.623	7056
620.688	6401
620.753	7229
620.818	6638
620.883	7847
620.948	6433
621.013	6656
621.078	7281
621.143	5905
621.207	9045
621.272	9015
621.337	8046
621.402	9371
621.467	13861
621.532	15139
621.596	10500
621.661	8943
621.726	7208
621.791	9074
621.855	8432
621.920	9725
621.985	10685
622.049	13505
622.114	11319
622.179	10386
622.243	10197
622.308	10744
622.373	11493
622.437	10046
622.502	8397
622.566	9088
622.631	8602
622.695	10518
622.760	10002
622.824	10270
622.889	9933
622.953	9577
623.018	13734
623.082	12442
623.147	9620
623.211	9226
623.276	8894
623.340	8369
623.404	8578
623.469	8643
623.533	8659
623.597	8509
623.662	8775
623.726	7955
623.790	8348
623.854	9083
623.919	8854
623.983	8939
624.047	8157
624.111	8153
624.176	8165
624.240	8686
624.304	9854
624.368	9075
624.432	9139
624.496	8077
624.560	8876
624.625	9362
624.689	8017
624.753	8251
624.817	9971
624.881	10441
624.945	16693
625.009	13599
625.073	8353
625.137	7924
625.201	9482
625.265	10344
625.329	7936
625.393	8565
625.456	7983
625.520	9267
625.584	10455
625.648	13737
625.712	23778
625.776	60702
625.839	69614
625.903	23669
625.967	11752
626.031	23397
626.095	37431
626.158	13297
626.222	9116
626.286	8298
626.349	6621
626.413	6234
626.477	8239
626.540	7777
626.604	6638
626.668	8209
626.731	6391
626.795	7135
626.858	6950
626.922	7561
626.986	7353
627.049	4858
627.113	7682
627.176	7953
627.240	6314
627.303	6587
627.366	6079
627.430	6453
627.493	6201
627.557	6435
627.620	7766
627.684	6459
627.747	7203
627.810	5014
627.874	6594
627.937	5002
628.000	7967
628.064	6154
628.127	4809
628.190	6259
628.253	6720
628.317	4872
628.380	5627
628.443	6148
628.506	6356
628.569	6242
628.632	5513
628.696	7549
628.759	5425
628.822	5627
628.885	5771
628.948	5328
629.011	5730
629.074	5670
629.137	4645
629.200	4826
629.263	7832
629.326	6579
629.389	5034
629.452	6092
629.515	6410
629.578	8316
629.641	6313
629.704	6617
629.767	4647
629.830	5930
629.892	5325
629.955	5099
630.018	7964
630.081	5503
630.144	7994
630.207	5034
630.269	7747
630.332	7517
630.395	6320
630.458	5637
630.520	3954
630.583	5604
630.646	5455
630.708	4980
630.771	4119
630.834	6026
630.896	3898
630.959	5646
631.021	5766
631.084	5691
631.146	6202
631.209	8377
631.272	5183
631.334	4484
631.397	4399
631.459	4716
631.522	4554
631.584	5184
631.646	5337
631.709	5495
631.771	6807
631.834	6106
631.896	4888
631.958	4758
632.021	6791
632.083	4472
632.145	5524
632.208	3659
632.270	5675
632.332	3857
632.395	3983
632.457	5083
632.519	4583
632.581	6177
632.643	2865
632.706	5270
632.768	3913
632.830	5403
632.892	4229
632.954	4035
633.016	4722
633.078	4285
633.141	4390
633.203	3861
633.265	4262
633.327	4963
633.389	4306
633.451	5168
633.513	5777
633.575	6120
633.637	4958
633.698	4779
633.760	4255
633.822	4664
633.884	3533
633.946	3322
634.008	4067
634.070	4785
634.132	4701
634.193	3838
634.255	3784
634.317	3838
634.379	5308
634.441	3766
634.502	3714
634.564	3689
634.626	3790
634.687	4449
634.749	3820
634.811	4812
634.873	3457
634.934	3592
634.996	4945
635.057	3764
635.119	2592
635.181	4218
635.242	4619
635.304	1711
635.365	5736
635.427	2410
635.488	2974
635.550	2675
635.611	4526
635.673	2025
635.734	4709
635.796	3552
635.857	5039
635.918	3709
635.980	4727
636.041	2915
636.102	3698
636.164	3358
636.225	4325
636.286	2522
636.348	4448
636.409	2571
636.470	3759
636.531	4295
636.593	4094
636.654	4681
636.715	3093
636.776	2979
636.838	2200
636.899	4741
636.960	3023
637.021	3089
637.082	3533
637.143	3864
637.204	2447
637.265	2748
637.326	3790
637.387	3264
637.448	1258
637.509	3129
637.570	3091
637.631	3378
637.692	1757
637.753	2106
637.814	3604
637.875	2009
637.936	3448
637.997	2026
638.058	2757
638.119	4243
638.179	3272
638.240	2566
638.301	3389
638.362	2249
638.423	3327
638.483	5343
638.544	2591
638.605	4109
638.666	2603
638.726	3481
638.787	3733
638.848	2627
638.908	3574
638.969	5086
639.030	5571
639.090	2433
639.151	2895
639.211	4358
639.272	4859
639.332	9984
639.393	12119
639.453	4689
639.514	3987
639.574	3321
639.635	3167
639.695	3399
639.756	1924
639.816	3952
639.877	4257
639.937	6222
639.997	7819
640.058	3186
640.118	2245
640.178	3718
640.239	2700
640.299	2545
640.359	1735
640.420	2319
640.480	3098
640.540	2077
640.600	2457
640.661	2983
640.721	1692
640.781	3776
640.841	2182
640.901	3442
640.961	4267
641.021	5484
641.082	5802
641.142	4843
641.202	4415
641.262	1208
641.322	3714
641.382	2687
641.442	4104
641.502	3485
641.562	2905
641.622	1870
641.682	2466
641.742	2823
641.802	2438
641.861	3266
641.921	3241
641.981	3683
642.041	4030
642.101	3815
642.161	1838
642.221	1908
642.280	2470
642.340	2160
642.400	1923
642.460	3834
642.519	3096
642.579	2496
642.639	3102
642.698	64
642.758	3999
642.818	3123
642.877	1647
642.937	2428
642.997	3508
643.056	4778
643.116	1649
643.175	4078
643.235	2623
643.294	2549
643.354	2581
643.414	3082
643.473	3942
643.532	2624
643.592	1860
643.651	3932
643.711	6236
643.770	8538
643.830	16501
643.889	36403
643.948	9841
644.008	3158
644.067	2696
644.126	1451
644.186	1806
644.245	2341
644.304	1376
644.363	3841
644.423	1344
644.482	1996
644.541	2982
644.600	344
644.659	2956
644.719	1945
644.778	2626
644.837	2919
644.896	4201
644.955	7624
645.014	3689
645.073	3054
645.132	2286
645.191	3987
645.250	1658
645.309	3181
645.368	2612
645.427	4632
645.486	3471
645.545	6199
645.604	4758
645.663	3783
645.722	2600
645.781	2978
645.840	2968
645.898	2294
645.957	2993
646.016	2245
646.075	4993
646.134	6389
646.192	15603
646.251	23608
646.310	4477
646.369	2429
646.427	2253
646.486	1692
646.545	1177
646.603	3005
646.662	2376
646.721	2280
646.779	2075
646.838	629
646.896	2229
646.955	2112
647.014	2360
647.072	1964
647.131	5304
647.189	3254
647.248	1644
647.306	3017
647.365	3388
647.423	704
647.481	2887
647.540	1097
647.598	1509
647.657	2146
647.715	1430
647.773	993
647.832	2799
647.890	648
647.948	1549
648.007	2931
648.065	683
648.123	1521
648.181	3702
648.240	3239
648.298	2302
648.356	2235
648.414	3171
648.472	2528
648.531	3377
648.589	2967
648.647	1773
648.705	2166
648.763	1853
648.821	2027
648.879	1328
648.937	1869
648.995	2382
649.053	1320
649.111	2658
649.169	3348
649.227	4229
649.285	6238
649.343	13916
649.401	8242
649.459	7582
649.516	6360
649.574	3348
649.632	9731
649.690	10851
649.748	4944
649.806	3753
649.863	4572
649.921	4968
649.979	2997
650.037	2289
650.094	448
650.152	1723
650.210	1874
650.268	2024
650.325	1996
650.383	1712
650.440	1098
650.498	2412
650.556	2810
650.613	1401
650.671	2103
650.728	2037
650.786	2204
650.843	1947
650.901	1065
650.958	1482
651.016	2134
651.073	909
651.131	677
651.188	1211
651.246	2360
651.303	1312
651.360	1856
651.418	1265
651.475	1717
651.532	409
651.590	2223
651.647	819
651.704	1992
651.762	1165
651.819	1662
651.876	1578
651.933	1509
651.990	2786
652.048	565
652.105	1307
652.162	1956
652.219	1045
652.276	1525
652.333	2115
652.390	913
652.448	1158
652.505	2261
652.562	1430
652.619	2089
652.676	3034
652.733	2465
652.790	1470
652.847	450
652.904	1649
652.961	75
653.017	1361
653.074	1287
653.131	1907
653.188	1164
653.245	1071
653.302	1041
653.359	927
653.415	1508
653.472	709
653.529	1966
653.586	522
653.642	1074
653.699	2116
653.756	984
653.813	1594
653.869	2069
653.926	460
653.983	741
654.039	1790
654.096	1112
654.152	2337
654.209	1187
654.266	3506
654.322	2304
654.379	2511
654.435	2125
654.492	1737
654.548	3312
654.605	4762
654.661	3099
654.717	1477
654.774	1511
654.830	1535
654.887	1573
654.943	1471
655.000	1822
655.056	2273
655.112	2427
655.168	145
655.225	1381
655.281	2872
655.337	3250
655.394	5847
655.450	4257
655.506	3201
655.562	6095
655.618	5139
655.675	725
655.731	1326
655.787	1789
655.843	2914
655.899	1722
655.955	2278
656.011	2615
656.067	1653
656.123	2924
656.179	2779
656.235	4443
656.291	2013
656.347	3792
656.403	2040
656.459	2320
656.515	3106
656.571	3047
656.627	1865
656.683	2141
656.739	1766
656.795	1578
656.850	2029
656.906	2050
656.962	2654
657.018	338
657.074	958
657.129	1528
657.185	1330
657.241	1183
657.297	1280
657.352	2096
657.408	587
657.464	1808
657.519	1376
657.575	419
657.630	1590
657.686	2247
657.742	1931
657.797	1905
657.853	2386
657.908	1437
657.964	414
658.019	859
658.075	1411
658.130	1364
658.186	249
658.241	1719
658.297	237
658.352	-260
658.407	1349
658.463	979
658.518	1195
658.573	1352
658.629	465
658.684	1284
658.739	1783
658.795	690
658.850	1403
658.905	817
658.960	989
659.016	961
659.071	1258
659.126	1492
659.181	1466
659.236	3135
659.291	2783
659.346	1682
659.401	1667
659.457	1794
659.512	820
659.567	2347
659.622	849
659.677	1084
659.732	650
659.787	1493
659.842	1473
659.897	2505
659.952	1810
660.007	1739
660.061	1326
660.116	330
660.171	928
660.226	706
660.281	1236
660.336	273
660.391	1430
660.445	275
660.500	1674
660.555	560
660.610	89
660.664	1649
660.719	233
660.774	2000
660.828	1580
660.883	1574
660.938	1164
660.992	778
661.047	672
661.101	1381
661.156	1202
661.211	1594
661.265	312
661.320	1268
661.374	960
661.429	-272
661.483	1561
661.538	717
661.592	1295
661.647	1243
661.701	712
661.755	1662
661.810	1493
661.864	497
661.919	1038
661.973	1429
662.027	648
662.081	-183
662.136	1151
662.190	1482
662.244	1289
662.299	1129
662.353	1105
662.407	1416
662.461	816
662.515	1198
662.569	713
662.624	1336
662.678	1100
662.732	1295
662.786	678
662.840	1626
662.894	916
662.948	1583
663.002	1513
663.056	1375
663.110	615
663.164	1896
663.218	932
663.272	1189
663.326	947
663.380	1064
663.434	803
663.488	892
663.542	1062
663.595	1083
663.649	786
663.703	1699
663.757	1158
663.811	-92
663.864	291
663.918	1050
663.972	1033
664.026	958
664.079	1170
664.133	1535
664.187	486
664.240	1297
664.294	477
664.348	1237
664.401	1586
664.455	1562
664.508	1242
664.562	524
664.615	1063
664.669	269
664.722	611
664.776	846
664.829	1111
664.883	631
664.936	196
664.990	1288
665.043	2361
665.097	1356
665.150	2238
665.203	1019
665.257	1527
665.310	830
665.363	1383
665.417	1661
665.470	1341
665.523	1399
665.576	518
665.630	1823
665.683	1286
665.736	1426
665.789	812
665.842	627
665.895	1354
665.949	931
666.002	1081
666.055	1108
666.108	2545
666.161	1167
666.214	2347
666.267	1608
666.320	1671
666.373	1820
666.426	1492
666.479	976
666.532	1425
666.585	1794
666.638	2034
666.691	1200
666.744	2436
666.796	1760
666.849	1838
666.902	1280
666.955	1230
667.008	113
667.060	1369
667.113	327
667.166	1115
667.219	1210
667.271	529
667.324	1300
667.377	1312
667.430	475
667.482	1505
667.535	503
667.587	1453
667.640	1501
667.693	848
667.745	2500
667.798	2275
667.850	1621
667.903	907
667.955	1336
668.008	551
668.060	1354
668.113	1269
668.165	1291
668.218	2290
668.270	1387
668.322	1731
668.375	715
668.427	1675
668.479	1579
668.532	763
668.584	1246
668.636	1440
668.689	927
668.741	685
668.793	1948
668.845	582
668.898	1391
668.950	695
669.002	1169
669.054	920
669.106	647
669.158	1199
669.211	1335
669.263	1020
669.315	1364
669.367	1993
669.419	1594
669.471	2415
669.523	1981
669.575	3695
669.627	1746
669.679	851
669.731	1425
669.783	1494
669.835	2608
669.886	1266
669.938	2122
669.990	1530
670.042	1694
670.094	1048
670.146	1699
670.197	1914
670.249	2622
670.301	2957
670.353	4843
670.404	6034
670.456	9401
670.508	13543
670.560	21938
670.611	39854
670.663	71242
670.715	169124
670.766	266679
670.818	86899
670.869	16344
670.921	9891
670.972	6759
671.024	3420
671.075	2526
671.127	2147
671.178	1662
671.230	2019
671.281	1845
671.333	1989
671.384	2028
671.436	1335
671.487	2435
671.538	1541
671.590	1094
671.641	2285
671.692	1934
671.744	2812
671.795	3231
671.846	1319
671.897	2187
671.949	1516
672.000	932
672.051	1315
672.102	1908
672.153	621
672.204	1501
672.256	707
672.307	936
672.358	1686
672.409	764
672.460	1902
672.511	1371
672.562	919
672.613	778
672.664	724
672.715	659
672.766	1469
672.817	559
672.868	725
672.919	1084
672.970	682
673.021	697
673.071	962
673.122	1527
673.173	953
673.224	1080
673.275	826
673.326	1214
673.376	586
673.427	501
673.478	1044
673.528	839
673.579	581
673.630	645
673.680	1024
673.731	1364
673.782	488
673.832	862
673.883	1014
673.934	247
673.984	1071
674.035	827
674.085	276
674.136	1048
674.186	1723
674.237	2069
674.287	3045
674.338	1792
674.388	836
674.438	-165
674.489	799
674.539	1109
674.589	459
674.640	1101
674.690	1689
674.740	433
674.791	1212
674.841	937
674.891	1620
674.942	914
674.992	543
675.042	471
675.092	292
675.142	597
675.193	1020
675.243	949
675.293	1593
675.343	953
675.393	352
675.443	887
675.493	600
675.543	418
675.593	982
675.643	-675
675.693	995
675.743	26
675.793	-9
675.843	914
675.893	872
675.943	948
675.993	480
676.043	852
676.093	735
676.142	-471
676.192	965
676.242	1124
676.292	426
676.341	1281
676.391	475
676.441	45
676.491	98
676.540	-506
676.590	250
676.640	614
676.689	-108
676.739	507
676.789	-136
676.838	120
676.888	1013
676.937	965
676.987	199
677.037	425
677.086	-583
677.136	-270
677.185	-334
677.235	19
677.284	74
677.333	1055
677.383	710
677.432	274
677.482	330
677.531	487
677.580	256
677.630	541
677.679	-298
677.728	826
677.778	-49
677.827	-941
677.876	513
677.925	388
677.975	-85
678.024	-467
678.073	608
678.122	444
678.171	333
678.220	137
678.269	694
678.319	-162
678.368	531
678.417	-153
678.466	1146
678.515	932
678.564	974
678.613	-29
678.662	-55
678.711	1379
678.760	904
678.809	-168
678.857	-13
678.906	191
678.955	610
679.004	743
679.053	-49
679.102	256
679.151	-151
679.199	543
679.248	-295
679.297	-39
679.346	939
679.394	285
679.443	111
679.492	245
679.540	-229
679.589	327
679.638	362
679.686	191
679.735	954
679.784	-361
679.832	476
679.881	449
679.929	477
679.978	-79
680.026	-297
680.075	306
680.123	-91
680.172	-2
680.220	-179
680.268	-126
680.317	-500
680.365	46
680.414	-801
680.462	358
680.510	537
680.559	-350
680.607	-15
680.655	-266
680.703	404
680.752	-358
680.800	-56
680.848	1055
680.896	-172
680.945	217
680.993	267
681.041	637
681.089	109
681.137	275
681.185	-649
681.233	-325
681.258	-409
681.281	-519
681.329	85
681.377	117
681.380	195
681.425	1032
681.473	1178
681.502	867
681.521	596
681.569	1260
681.617	474
681.624	437
681.665	-56
681.713	695
681.745	677
681.761	625
681.809	956
681.857	1446
681.867	1200
681.904	196
681.952	950
681.989	1017
682.000	1005
682.048	487
682.096	1042
682.111	978
682.143	730
682.191	1002
682.233	2117
682.239	2256
682.286	844
682.334	1451
682.354	1369
682.382	1178
682.430	1259
682.476	1746
682.477	1729
682.525	1208
682.572	1610
682.598	1454
682.620	1280
682.667	2223
682.715	2286
682.720	2284
682.763	1969
682.810	2224
682.841	2351
682.857	2373
682.905	2002
682.952	2160
682.963	2178
683.000	2094
683.047	2637
683.085	2931
683.095	3001
683.142	1879
683.190	2074
683.206	2121
683.237	2103
683.284	3374
683.328	2656
683.332	2573
683.379	3044
683.426	2969
683.449	2918
683.473	2839
683.521	2703
683.568	2418
683.571	2491
683.615	3137
683.662	2782
683.693	2905
683.709	2968
683.757	2538
683.804	3609
683.814	3542
683.851	3208
683.898	3385
683.936	3288
683.945	3230
683.992	3089
684.039	3011
684.057	3092
684.086	3207
684.133	3972
684.179	3756
684.180	3727
684.227	3818
684.274	3519
684.300	4026
684.321	4409
684.368	4003
684.415	4129
684.422	4152
684.462	4227
684.509	3490
684.543	4057
684.556	4219
684.603	4563
684.649	4236
684.665	4405
684.696	4735
684.743	4243
684.786	4243
684.790	4245
684.837	4947
684.883	5086
684.908	5608
684.930	5951
684.977	5897
685.023	5938
685.029	5854
685.070	4951
685.117	5361
685.150	5685
685.164	5842
685.210	5645
685.257	6135
685.272	6020
685.303	5696
685.350	5394
685.393	5517
685.396	5528
685.443	5547
685.490	6589
685.514	6488
685.536	6281
685.583	6332
685.629	5778
685.636	5847
685.675	6220
685.722	6385
685.757	6665
685.768	6739
685.815	6152
685.861	6192
685.878	6056
685.908	5940
685.954	6317
686.000	7305
686.000	7320
686.047	7485
686.093	8406
686.121	8530
686.139	8155
686.185	7814
686.232	7563
686.242	7471
686.278	7210
686.324	6972
686.363	6214
686.370	6130
686.416	6207
686.463	6829
686.484	6706
686.509	6615
686.555	6492
686.601	6715
686.606	6771
686.647	7094
686.693	6866
686.727	6763
686.739	6740
686.785	6856
686.831	6746
686.848	6858
686.877	6844
686.923	6530
686.969	6096
686.969	6095
687.015	6534
687.061	6417
687.090	7039
687.107	7313
687.153	7426
687.199	7508
687.211	7403
687.245	7160
687.291	7767
687.332	7652
687.336	7652
687.382	7666
687.428	8036
687.453	7950
687.474	7578
687.520	7349
687.565	7209
687.574	7049
687.611	6965
687.657	7041
687.695	7342
687.702	7402
687.748	7836
687.794	7948
687.816	8018
687.839	7852
687.885	7687
687.931	7601
687.937	7587
687.976	7931
688.022	7732
688.058	7889
688.067	7867
688.113	7561
688.158	7318
688.179	7467
688.204	7762
688.249	7534
688.295	8025
688.300	8046
688.340	8499
688.386	9134
688.421	8892
688.431	8704
688.477	8751
688.522	8764
688.542	8552
688.567	8461
688.613	8745
688.658	8305
688.663	8317
688.703	8335
688.749	7845
688.784	8455
688.794	8690
688.839	8484
688.884	8607
688.905	8681
688.930	8729
688.975	9020
689.020	8654
689.026	8662
689.065	8766
689.110	9178
689.146	8644
689.155	8502
689.201	8624
689.246	8867
689.267	8626
689.291	8570
689.336	8993
689.381	9091
689.388	9156
689.426	9201
689.471	9049
689.509	8536
689.516	8505
689.561	8626
689.606	9201
689.630	9242
689.651	9254
689.696	8831
689.741	9008
689.750	9038
689.785	9391
689.830	9320
689.871	9939
689.875	9963
689.920	9443
689.965	9409
689.992	9100
690.010	9172
690.054	9566
690.099	9866
690.112	9976
690.144	9887
690.189	9472
690.233	8812
690.233	8825
690.278	9292
690.323	9329
690.354	9168
690.367	9167
690.412	9827
690.457	10203
690.474	10295
690.501	10351
690.546	10315
690.590	10299
690.595	10292
690.635	10448
690.680	10352
690.716	10355
690.724	10513
690.769	10995
690.813	12329
690.836	12610
690.857	13185
690.902	14337
690.946	16472
690.957	16815
690.991	20599
691.035	25910
691.077	30376
691.080	30417
691.124	30467
691.168	29422
691.198	29557
691.213	28310
691.257	23697
691.301	19155
691.318	17514
691.346	16561
691.390	14498
691.434	12630
691.439	12406
691.478	12113
691.522	11521
691.559	11273
691.567	11316
691.611	11782
691.655	11725
691.680	11687
691.699	11771
691.743	11901
691.787	11871
691.800	11978
691.831	12068
691.875	11947
691.919	11886
691.921	11852
691.964	11924
692.008	12518
692.041	12390
692.052	12328
692.096	12380
692.139	12739
692.162	12501
692.183	12265
692.227	12684
692.271	12131
692.282	12121
692.315	12340
692.359	12820
692.402	12740
692.403	12772
692.447	13615
692.490	14213
692.523	15080
692.534	15026
692.578	14200
692.622	13416
692.643	12996
692.666	12931
692.709	12856
692.753	12701
692.763	12642
692.797	12499
692.840	12418
692.884	12106
692.884	12134
692.928	12186
692.971	12536
693.004	12541
693.015	12512
693.059	12511
693.102	12463
693.124	12430
693.146	12701
693.189	13127
693.233	13747
693.245	13744
693.276	13932
693.320	14544
693.363	15154
693.365	15143
693.407	16196
693.450	17052
693.485	17866
693.493	18116
693.537	19119
693.580	20085
693.605	20668
693.624	22106
693.667	25611
693.710	29016
693.725	30203
693.753	38108
693.797	50429
693.840	62803
693.845	64165
693.883	62698
693.926	60237
693.966	57976
693.970	56972
694.013	45330
694.056	34299
694.086	26340
694.099	25529
694.142	22693
694.185	20126
694.206	18748
694.229	18381
694.272	17750
694.315	17243
694.326	17020
694.358	16637
694.401	16101
694.444	15719
694.446	15651
694.487	15444
694.530	15189
694.566	15260
694.573	15240
694.616	14297
694.659	13703
694.686	13297
694.702	13305
694.745	13180
694.787	12903
694.806	12831
694.830	13086
694.873	13495
694.916	13881
694.926	13877
694.959	13484
695.002	13417
695.044	12796
695.046	12754
695.087	13273
695.130	13560
695.166	13776
695.172	13795
695.215	13776
695.258	13780
695.286	13623
695.301	13641
695.343	13843
695.386	13797
695.406	13739
695.428	13619
695.471	13418
695.514	13228
695.526	13164
695.556	13349
695.599	13498
695.641	13550
695.646	13528
695.684	13590
695.726	13642
695.766	13579
695.769	13612
695.811	13610
695.854	13757
695.886	13697
695.896	13633
695.938	13177
695.981	12770
696.005	12536
696.023	12699
696.065	12886
696.108	13328
696.125	13359
696.150	13263
696.192	13091
696.235	13056
696.245	12979
696.277	13133
696.319	13299
696.361	13418
696.365	13422
696.404	13890
696.446	13871
696.485	14063
696.488	14112
696.530	14182
696.572	14257
696.604	14252
696.614	14214
696.656	13929
696.698	13516
696.724	13393
696.740	13472
696.783	13379
696.825	13291
696.844	13219
696.867	13262
696.909	13341
696.951	13395
696.964	13378
696.992	13607
697.034	13674
697.076	13991
697.083	14002
697.118	13748
697.160	13187
697.202	12885
697.203	12837
697.244	13219
697.286	13586
697.323	13900
697.327	13901
697.369	13534
697.411	13120
697.442	12780
697.453	12917
697.494	13299
697.536	13747
697.562	14020
697.578	14104
697.620	14143
697.661	14190
697.682	14158
697.703	14227
697.744	14295
697.786	14521
697.801	14472
697.828	14465
697.869	14510
697.911	14583
697.921	14544
697.952	14293
697.994	13925
698.035	13575
698.040	13493
698.077	13515
698.118	13514
698.160	13474
698.160	13435
698.201	13737
698.243	13941
698.279	14074
698.284	14119
698.325	14162
698.367	14234
698.399	14247
698.408	14160
698.449	13551
698.491	12971
698.518	12547
698.532	12664
698.573	12909
698.614	13130
698.638	13215
698.656	13378
698.697	13700
698.738	13999
698.757	14099
698.779	14132
698.820	14127
698.862	14112
698.877	14067
698.903	14418
698.944	14912
698.985	15405
698.996	15500
699.026	15149
699.067	14598
699.116	13903
699.235	13463
699.354	12901
699.474	14743
699.593	16509
699.713	15816
699.832	13789
699.951	14070
700.070	14066
700.190	12880
700.309	14221
700.428	15122
700.547	13457
700.667	14659
700.786	14937
700.905	13742
701.024	13947
701.143	14755
701.262	12657
701.381	12901
701.500	13561
701.619	13833
701.738	12913
701.857	13224
701.976	12580
702.095	12222
702.214	14105
702.333	15865
702.452	13471
702.571	11207
702.690	12057
702.809	11947
702.928	12204
703.047	13340
703.165	13004
703.284	12080
703.403	11468
703.522	13221
703.640	14029
703.759	15696
703.878	22066
703.997	14238
704.115	12185
704.234	12032
704.353	11635
704.471	12085
704.590	14440
704.708	11201
704.827	10440
704.946	13369
705.064	12446
705.183	11474
705.301	14575
705.420	20612
705.538	17852
705.656	16069
705.775	14662
705.893	20920
706.012	23957
706.130	16905
706.249	16064
706.367	16148
706.485	18028
706.604	20011
706.722	17936
706.840	20650
706.958	18102
707.077	15702
707.195	14123
707.313	14162
707.431	14024
707.549	14579
707.668	13488
707.786	15352
707.904	13353
708.022	13374
708.140	13881
708.258	13404
708.376	14037
708.494	14358
708.612	15685
708.730	21057
708.848	20079
708.966	18443
709.084	17184
709.202	17141
709.320	17693
709.438	17016
709.556	16626
709.674	17306
709.791	16616
709.909	15946
710.027	16169
710.145	16738
710.263	16761
710.380	16654
710.498	15117
710.616	16694
710.733	16626
710.851	17201
710.969	17734
711.086	16869
711.204	15738
711.322	16620
711.439	16288
711.557	17532
711.674	16436
711.792	16422
711.909	15671
712.027	15992
712.144	14174
712.262	15227
712.379	16759
712.497	23348
712.614	22840
712.732	20252
712.849	18144
712.966	20295
713.084	21626
713.201	19441
713.318	18515
713.436	17568
713.553	18871
713.670	18873
713.787	22082
713.905	21264
714.022	18702
714.139	17916
714.256	18089
714.373	18668
714.490	18934
714.608	22352
714.725	45611
714.842	49428
714.959	18718
715.076	16118
715.193	16824
715.310	15561
715.427	16547
715.544	15745
715.661	15579
715.778	17017
715.895	17355
716.011	17860
716.128	17435
716.245	16472
716.362	16681
716.479	17781
716.596	15576
716.713	14764
716.829	14282
716.946	14750
717.063	13815
717.180	13739
717.296	13686
717.413	14904
717.530	14251
717.646	14009
717.763	13911
717.880	13487
717.996	13636
718.113	14277
718.229	13637
718.346	12740
718.462	13047
718.579	15599
718.695	20951
718.812	20385
718.928	20488
719.045	15102
719.161	11387
719.277	11685
719.394	12312
719.510	13190
719.626	11464
719.743	15023
719.859	12489
719.975	14269
720.092	18499
720.208	28971
720.324	15684
720.440	13702
720.557	14088
720.673	20192
720.789	29119
720.905	66292
721.021	23695
721.137	12030
721.253	12998
721.369	13308
721.486	14204
721.602	21981
721.718	13587
721.834	11023
721.950	11895
722.066	10771
722.181	9982
722.297	11243
722.413	11074
722.529	10801
722.645	10299
722.761	10732
722.877	10508
722.993	10007
723.108	11026
723.224	9330
723.340	10988
723.456	10660
723.571	10278
723.687	10197
723.803	9831
723.918	10263
724.034	9747
724.150	11339
724.265	12366
724.381	24695
724.497	34561
724.612	10024
724.728	9782
724.843	9050
724.959	11860
725.074	24101
725.190	28449
725.305	12534
725.421	10054
725.536	9062
725.651	8915
725.767	8508
725.882	8428
725.997	8914
726.113	8619
726.228	8915
726.343	8686
726.459	8801
726.574	9573
726.689	8116
726.804	8850
726.920	8672
727.035	8475
727.150	8874
727.265	7086
727.380	8933
727.495	8335
727.610	7313
727.725	8492
727.841	8468
727.956	11810
728.071	12375
728.186	10476
728.301	8352
728.416	8319
728.531	8371
728.645	6816
728.760	7671
728.875	8057
728.990	7388
729.105	7705
729.220	8076
729.335	7480
729.449	7793
729.564	7322
729.679	6816
729.794	6867
729.908	7898
730.023	7860
730.138	6921
730.253	6894
730.367	6213
730.482	6178
730.596	6391
730.711	6155
730.826	7502
730.940	6201
731.055	6873
731.169	5793
731.284	5986
731.398	7455
731.513	8258
731.627	7737
731.742	8387
731.856	8743
731.970	5696
732.085	6931
732.199	7274
732.313	5893
732.428	8432
732.542	13229
732.656	10382
732.771	6875
732.885	6125
732.999	7162
733.113	7231
733.227	7053
733.342	7798
733.456	7131
733.570	6224
733.684	6068
733.798	5569
733.912	5581
734.026	6009
734.140	6204
734.254	7192
734.368	12654
734.482	18711
734.596	5701
734.710	5637
734.824	5644
734.938	5747
735.052	5496
735.166	6689
735.280	6308
735.393	5896
735.507	5105
735.621	8034
735.735	17303
735.849	8024
735.962	5085
736.076	5749
736.190	6899
736.303	9180
736.417	12366
736.531	6265
736.644	5658
736.758	4237
736.872	5122
736.985	5249
737.099	4940
737.212	5493
737.326	4722
737.439	4922
737.553	5124
737.666	4435
737.780	4536
737.893	5536
738.007	5851
738.120	5416
738.233	5568
738.347	5709
738.460	5562
738.573	5962
738.687	4256
738.800	5131
738.913	6656
739.026	5424
739.140	4675
739.253	4679
739.366	5122
739.479	3531
739.592	3940
739.705	4915
739.818	5676
739.932	3650
740.045	4428
740.158	5207
740.271	5855
740.384	7668
740.497	6239
740.610	6412
740.723	5723
740.836	5708
740.949	6083
741.062	6326
741.174	8092
741.287	6239
741.400	5407
741.513	5228
741.626	6047
741.739	6357
741.851	5085
741.964	4634
742.077	5226
742.189	5799
742.302	6368
742.415	5818
742.527	4486
742.640	4943
742.753	5174
742.865	3808
742.978	4665
743.090	3979
743.203	4490
743.316	5195
743.428	6676
743.541	6257
743.653	5039
743.766	5298
743.878	5656
743.990	8076
744.103	8377
744.215	7264
744.327	6054
744.440	6091
744.552	8354
744.664	5984
744.777	4717
744.889	4774
745.001	4428
745.113	4435
745.226	4721
745.338	4254
745.450	3929
745.562	5231
745.674	4125
745.786	3874
745.898	4556
746.010	4349
746.122	4253
746.234	4878
746.347	4992
746.459	5535
746.570	6524
746.682	5938
746.794	8155
746.906	5102
747.018	5175
747.130	4984
747.242	4069
747.354	4448
747.466	5513
747.577	4648
747.689	5140
747.801	4766
747.913	4049
748.024	3640
748.136	3844
748.248	5107
748.359	5320
748.471	4596
748.583	4254
748.694	4646
748.806	4684
748.918	6586
749.029	4607
749.141	4260
749.252	4837
749.364	4386
749.475	7940
749.587	8121
749.698	4548
749.809	5135
749.921	4404
750.032	4133
750.144	2709
750.255	3401
750.366	3348
750.478	4532
750.589	4009
750.700	4658
750.811	4001
750.923	6350
751.034	8354
751.145	8322
751.256	4345
751.367	4356
751.479	3812
751.590	3322
751.701	3522
751.812	3853
751.923	4411
752.034	2460
752.145	3495
752.256	3835
752.367	3566
752.478	3103
752.589	3705
752.700	4397
752.811	4466
752.922	4121
753.032	3649
753.143	5192
753.254	3402
753.365	4221
753.476	2991
753.586	4157
753.697	4364
753.808	4692
753.919	4235
754.029	3797
754.140	3945
754.251	3489
754.361	3982
754.472	3522
754.582	3857
754.693	3270
754.804	2441
754.914	2322
755.025	2603
755.135	2993
755.246	2720
755.356	2826
755.466	3653
755.577	3904
755.687	3092
755.798	2700
755.908	3176
756.018	4583
756.129	2992
756.239	4089
756.349	3213
756.460	3087
756.570	3558
756.680	3832
756.790	3478
756.900	4251
757.011	3391
757.121	3408
757.231	2864
757.341	3123
757.451	3028
757.561	3526
757.671	3717
757.781	3255
757.891	3503
758.001	3534
758.111	3309
758.221	3945
758.331	3609
758.441	4079
758.551	4721
758.661	5317
758.771	3967
758.880	3987
758.990	3614
759.100	3717
759.210	4786
759.320	4681
759.429	3540
759.539	4690
759.649	3782
759.758	5066
759.868	4705
759.978	3114
760.087	3583
760.197	4623
760.307	4564
760.416	3657
760.526	3487
760.635	4042
760.745	3716
760.854	3576
760.964	4745
761.073	4258
761.182	4221
761.292	5022
761.401	5086
761.511	4420
761.620	4532
761.729	5495
761.839	4334
761.948	5954
762.057	3532
762.166	5272
762.276	4090
762.385	6022
762.494	5054
762.603	4456
762.712	5683
762.822	5644
762.931	6199
763.040	5328
763.149	5996
763.258	5735
763.367	5888
763.476	6706
763.585	7096
763.694	7277
763.803	7979
763.912	8535
764.021	7923
764.130	8147
764.238	9167
764.347	8660
764.456	9550
764.565	11100
764.674	12021
764.783	11652
764.891	11541
765.000	14976
765.109	15896
765.217	18408
765.326	21722
765.435	26605
765.543	29467
765.652	37210
765.761	47675
765.869	64180
765.978	90950
766.086	137347
766.195	220840
766.303	372163
766.412	488597
766.520	429138
766.629	348803
766.737	199011
766.846	123192
766.954	82933
767.062	62752
767.171	46236
767.279	37118
767.387	28763
767.496	23841
767.604	20773
767.712	19959
767.820	17347
767.928	15632
768.037	15186
768.145	13725
768.253	14531
768.361	13455
768.469	13808
768.577	12627
768.685	14497
768.793	14123
768.901	17280
769.009	18865
769.117	21534
769.225	27585
769.333	37428
769.441	56860
769.549	93558
769.657	174210
769.765	337541
769.873	411376
769.981	316743
770.088	156135
770.196	83602
770.304	53896
770.412	39755
770.519	29677
770.627	23369
770.735	19620
770.842	16933
770.950	13841
771.058	11796
771.165	11918
771.273	10973
771.380	10203
771.488	9291
771.595	8020
771.703	7707
771.810	8057
771.918	6943
772.025	6891
772.133	6107
772.240	5583
772.348	6833
772.455	6555
772.562	6366
772.670	4504
772.777	5640
772.884	5200
772.991	5007
773.099	4742
773.206	4054
773.313	4483
773.420	4672
773.528	3128
773.635	4074
773.742	4084
773.849	5097
773.956	3432
774.063	3640
774.170	4027
774.277	4385
774.384	3545
774.491	3696
774.598	3687
774.705	3230
774.812	4369
774.919	4675
775.026	4146
775.133	4297
775.239	4241
775.346	3443
775.453	3353
775.560	3320
775.667	2965
775.773	2692
775.880	3795
775.987	2881
776.093	2821
776.200	2927
776.307	3633
776.413	3374
776.520	2533
776.627	4145
776.733	3060
776.840	2407
776.946	4975
777.053	6065
777.159	9610
777.266	6000
777.372	8657
777.478	6994
777.585	4243
777.691	2879
777.798	2361
777.904	3313
778.010	4091
778.117	3397
778.223	3486
778.329	2782
778.435	3102
778.542	3074
778.648	2523
778.754	2779
778.860	2675
778.966	2778
779.072	2347
779.178	3140
779.284	2065
779.391	2227
779.497	1544
779.603	4527
779.708	3175
779.815	8556
779.920	26172
780.026	55732
780.132	8778
780.238	3266
780.344	3657
780.450	2672
780.556	2146
780.661	2067
780.767	2460
780.873	1912
780.979	2468
781.085	2529
781.190	2354
781.296	2121
781.402	1909
781.507	1651
781.613	2616
781.719	1490
781.824	1773
781.930	2442
782.035	2845
782.141	2290
782.246	1218
782.352	1827
782.457	2361
782.563	992
782.668	1566
782.773	1784
782.879	1315
782.984	2960
783.090	3209
783.195	3848
783.300	2828
783.405	2601
783.511	1831
783.616	2721
783.721	2297
783.826	2127
783.932	2118
784.037	2681
784.142	2187
784.247	2526
784.352	2312
784.457	2903
784.562	1625
784.667	1928
784.772	2042
784.877	2184
784.982	2578
785.087	1857
785.192	2258
785.297	1596
785.402	1422
785.507	1501
785.611	2611
785.716	3086
785.821	1330
785.926	1103
786.031	1407
786.135	1632
786.240	1730
786.345	1906
786.450	1453
786.554	1824
786.659	1188
786.763	396
786.868	1534
786.973	2510
787.077	860
787.182	2005
787.286	2373
787.391	1891
787.495	1085
787.600	2230
787.704	1024
787.809	2077
787.913	1292
788.017	2046
788.122	1494
788.226	1848
788.330	2354
788.435	1932
788.539	1306
788.643	555
788.747	796
788.852	2446
788.956	1447
789.060	1313
789.164	1285
789.268	944
789.372	1311
789.476	1573
789.580	534
789.684	1139
789.788	1787
789.892	1807
789.996	1512
790.100	1286
790.204	1187
790.308	1516
790.412	584
790.516	1470
790.620	499
790.724	2204
790.828	1507
790.931	1135
791.035	3757
791.139	1658
791.242	1957
791.346	2505
791.450	1944
791.554	2289
791.657	669
791.761	2006
791.864	1749
791.968	2726
792.072	2427
792.175	1561
792.279	1690
792.382	2229
792.486	2821
792.589	1938
792.693	2321
792.796	1371
792.899	2188
793.003	1816
793.106	570
793.209	658
793.313	2460
793.416	635
793.519	3353
793.623	2966
793.726	3183
793.829	2068
793.932	2013
794.035	1230
794.138	2683
794.242	2129
794.345	2680
794.448	3980
794.551	5459
794.654	15764
794.757	30481
794.860	8346
794.963	4203
795.066	2284
795.169	2515
795.272	1569
795.375	2266
795.477	1782
795.580	1847
795.683	521
795.786	1640
795.889	978
795.991	2797
796.094	2471
796.197	532
796.300	3457
796.402	1478
796.505	1378
796.608	707
796.710	1849
796.813	661
796.915	1578
797.018	298
797.120	1331
797.223	60
797.326	2391
797.428	1668
797.530	1204
797.633	1815
797.735	2913
797.838	4253
797.940	4551
798.042	1143
798.145	1931
798.247	2015
798.349	831
798.452	2173
798.554	1130
798.656	606
798.758	1808
798.860	1311
798.962	1101
799.065	588
799.167	1077
799.269	1844
799.371	1994
799.473	1299
799.575	1259
799.677	1860
799.779	3130
799.881	1505
799.983	2031
800.085	700
800.187	1838
800.289	757
800.390	776
800.492	787
800.594	2704
800.696	315
800.798	1519
800.899	1230
801.001	871
801.103	490
801.205	1153
801.306	627
801.408	952
801.509	1576
801.611	676
801.713	-3
801.814	719
801.916	613
802.017	1335
802.119	619
802.220	1047
802.322	-199
802.423	4591
802.525	957
802.626	1240
802.727	628
802.829	1383
802.930	-948
803.031	1782
803.133	165
803.234	540
803.335	-14
803.436	-597
803.538	509
803.639	488
803.740	794
803.841	649
803.942	840
804.043	1801
804.144	254
804.245	346
804.346	-489
804.447	364
804.548	1499
804.649	2204
804.750	991
804.851	667
804.952	408
805.053	888
805.154	17
805.255	1654
805.355	1313
805.456	98
805.557	-393
805.658	-508
805.758	1208
805.859	656
805.960	88
806.061	254
806.161	435
806.262	585
806.362	-180
806.463	1162
806.564	333
806.664	1128
806.765	796
806.865	1991
806.966	1098
807.066	-48
807.166	1381
807.267	1161
807.367	-205
807.468	1236
807.568	-408
807.668	661
807.769	914
807.869	269
807.969	373
808.069	669
808.170	705
808.270	132
808.370	348
808.470	921
808.570	347
808.670	613
808.770	1103
808.870	450
808.970	913
809.070	314
809.170	191
809.271	1120
809.370	-45
809.470	679
809.570	150
809.670	-121
809.770	0
809.870	114
809.970	-193
810.070	603
810.169	633
810.269	-975
810.369	607
810.469	261
810.568	-286
810.668	-136
810.768	76
810.867	213
810.967	599
811.066	181
811.166	-297
811.265	825
811.365	-708
811.464	437
811.564	270
811.663	424
811.763	-1185
811.862	554
811.962	1024
812.061	142
812.160	-783
812.260	343
812.359	610
812.458	1524
812.557	3509
812.657	6726
812.756	2498
812.855	217
812.954	-268
813.053	395
813.153	184
813.252	-697
813.351	-69
813.450	-518
813.549	204
813.648	766
813.747	-298
813.846	564
813.945	-327
814.044	26
814.143	265
814.242	323
814.341	-718
814.439	823
814.538	213
814.637	495
814.736	-517
814.835	390
814.933	-1077
815.032	66
815.131	-1
815.229	-109
815.328	-102
815.427	-1103
815.525	-39
815.624	444
815.722	-1046
815.821	203
815.919	9
816.018	-642
816.116	412
816.215	-372
816.313	46
816.412	-294
816.510	-473
816.609	1542
816.707	-383
816.805	-543
816.904	-791
817.002	-969
817.100	513
817.198	157
817.296	-122
817.395	454
817.493	841
817.591	-392
817.689	221
817.787	58
817.885	760
817.983	2884
818.081	5450
818.179	15846
818.277	44232
818.375	42081
818.473	9853
818.571	3668
818.669	2228
818.767	3484
818.865	1004
818.963	1796
819.061	3016
819.158	5320
819.256	14685
819.354	35244
819.452	89504
819.549	60183
819.647	12015
819.745	4528
819.842	2554
819.940	1613
820.038	1371
820.135	389
820.233	995
820.330	634
820.428	-259
820.525	745
820.623	420
820.720	-228
820.818	364
820.915	177
821.012	719
821.110	-652
821.207	905
821.304	-358
821.402	556
821.499	1872
821.596	2279
821.693	1238
821.791	238
821.888	794
821.985	2922
822.082	1274
822.179	1542
822.276	329
822.373	645
822.470	-611
822.567	-511
822.664	-706
822.761	745
822.858	-1535
822.955	-150
823.052	541
823.149	-304
823.246	256
823.343	-997
823.440	281
823.536	-929
823.633	-1209
823.730	-350
823.827	388
823.923	-431
824.020	555
824.117	-61
824.213	150
824.310	467
824.407	-363
824.503	-318
824.600	637
824.696	-117
824.793	227
824.889	-819
824.986	120
825.082	-753
825.179	246
825.275	-1088
825.371	-886
825.468	17
825.564	-957
825.660	78
825.757	-904
825.853	-44
825.949	-393
826.045	-67
826.142	-1111
826.238	-876
826.334	293
826.430	-1059
826.526	-170
826.622	-611
826.718	-148
826.814	-853
826.910	735
827.006	-805
827.102	-1139
827.198	245
827.294	-1051
827.390	-69
827.486	293
827.582	-1528
827.678	-1009
827.774	397
827.869	-1095
827.965	596
828.061	-881
828.157	-1504
828.252	-1081
828.348	-1236
828.444	50
828.539	-1399
828.635	-320
828.731	723
828.826	-1681
828.922	-648
829.017	-682
829.113	-218
829.208	-758
829.304	-1137
829.399	920
829.495	-807
829.590	-422
829.685	-1036
829.781	220
829.876	-373
829.971	-605
830.066	-910
830.162	-356
830.257	-1182
830.352	91
830.447	292
830.543	338
830.638	-711
830.733	524
830.828	-1374
830.923	-6
831.018	-517
831.113	-795
831.208	-1346
831.303	-108
831.398	-160
831.493	-538
831.588	-868
831.683	-1213
831.778	195
831.873	-307
831.967	40
832.062	-609
832.157	-471
832.252	-313
832.346	-504
832.441	1291
832.536	371
832.631	2040
832.725	1303
832.820	-728
832.914	-1057
833.009	-111
833.104	-550
833.198	229
833.293	-979
833.387	231
833.482	-544
833.576	-1076
833.670	-5
833.765	-893
833.859	-948
833.954	-471
834.048	-1494
834.142	-152
834.237	-661
834.331	-541
834.425	-454
834.519	-788
834.613	1535
834.708	-276
834.802	101
834.896	-721
834.990	-1350
835.084	90
835.178	-673
835.272	-302
835.366	-703
835.460	53
835.554	-94
835.648	-655
835.742	-869
835.836	-1139
835.930	-1077
836.024	138
836.117	630
836.211	-384
836.305	891
836.399	1641
836.493	-911
836.586	217
836.680	-1529
836.774	-1008
836.867	352
836.961	-1172
837.055	-505
837.148	-335
837.242	-1351
837.335	-1114
837.429	200
837.522	-536
837.616	-447
837.709	2578
837.803	631
837.896	35
837.989	-105
838.083	1809
838.176	3410
838.269	3249
838.363	-186
838.456	-619
838.549	10
838.642	506
838.735	2385
838.829	835
838.922	-1064
839.015	-5
839.108	-942
839.201	-125
839.294	-634
839.387	-173
839.480	-566
839.573	1059
839.666	1556
839.759	-906
839.852	-880
839.945	-796
840.038	-180
840.131	-780
840.223	-484
840.316	46
840.409	-316
840.502	-757
840.594	-370
840.687	-1488
840.780	-113
840.873	-291
840.965	-227
841.058	1046
841.150	3488
841.243	911
841.336	660
841.428	-1057
841.521	-1532
841.613	-139
841.706	-296
841.798	-198
841.890	-408
841.983	-914
842.075	-347
842.167	-194
842.260	-777
842.352	816
842.444	1465
842.537	3815
842.629	6265
842.721	668
842.813	-515
842.905	-1119
842.997	-766
843.090	-143
843.182	300
843.274	2880
843.366	9771
843.458	19561
843.550	13372
843.642	745
843.734	-180
843.826	98
843.918	454
844.009	118
844.101	-1644
844.193	-660
844.285	-638
844.377	95
844.469	358
844.560	1360
844.652	882
844.744	-417
844.835	-1153
844.927	-200
845.019	-627
845.110	270
845.202	-484
845.293	-336
845.385	-1181
845.476	-15
845.568	-291
845.659	-556
845.751	-402
845.842	-408
845.934	-1104
846.025	-1046
846.116	-247
846.208	-1276
846.299	-1271
846.390	-563
846.482	-295
846.573	394
846.664	568
846.755	553
846.846	588
846.937	-2072
847.029	-655
847.120	-1135
847.211	-1025
847.302	355
847.393	-1652
847.484	-413
847.575	-1084
847.666	-351
847.757	-338
847.847	-533
847.938	-153
848.029	-1082
848.120	-1384
848.211	-916
848.302	-894
848.392	-1316
848.483	-450
848.574	-1105
848.664	-1440
848.755	-904
848.846	-593
848.936	-1222
849.027	-625
849.118	-477
849.208	-2150
849.299	-980
849.389	-164
849.480	94
849.570	-174
849.661	457
849.751	1086
849.841	237
849.932	-945
850.022	-530
850.112	-986
850.203	-251
850.293	-1135
850.383	-220
850.474	-1855
850.564	-311
850.654	-685
850.744	-590
850.834	-379
850.924	-256
851.014	-582
851.104	-1260
851.194	-825
851.284	465
851.374	-62
851.464	-554
851.554	-141
851.644	453
851.734	1443
851.824	-941
851.914	-695
852.004	-390
852.094	-116
852.183	394
852.273	14
852.363	-210
852.452	-881
852.542	-948
852.632	-988
852.721	-643
852.811	-497
852.901	-453
852.990	-1105
853.080	-495
853.169	-1032
853.259	-1033
853.348	-1605
853.438	-1095
853.527	-295
853.617	-477
853.706	12
853.795	-332
853.885	2433
853.974	4601
854.063	10322
854.152	15099
854.242	5443
854.331	48
854.420	-626
854.509	-950
854.598	-155
854.687	86
854.777	-68
854.866	-717
854.955	-441
855.044	-640
855.133	-426
855.222	-626
855.311	-887
855.400	-259
855.488	-1445
855.577	-542
855.666	-278
855.755	-605
855.844	-1119
855.933	-303
856.021	-551
856.110	-568
856.199	-1451
856.288	-648
856.376	-972
856.465	-803
856.554	-612
856.642	-1214
856.731	-943
856.819	-186
856.908	-1106
856.996	-514
857.085	-390
857.173	-1319
857.262	-882
857.350	-355
857.438	-1524
857.527	-695
857.615	-1136
857.703	-176
857.792	-810
857.880	-1093
857.968	-1607
858.056	-1273
858.145	-341
858.233	-713
858.321	-1203
858.409	232
858.497	-1221
858.585	-1216
858.673	-515
858.761	-996
858.849	-595
858.937	-401
859.025	-1277
859.113	-461
859.201	-799
859.289	-97
859.377	-984
859.465	-581
859.552	-736
859.640	-1348
859.728	-646
859.816	-963
859.903	-564
859.991	-1071
860.079	-1593
860.166	-1340
860.254	-321
860.342	-1079
860.429	-1123
860.517	-651
860.604	-780
860.692	-101
860.779	-1632
860.867	-702
860.954	-914
861.042	-42
861.129	-951
861.216	-178
861.304	-1678
861.391	-914
861.478	-816
861.565	-414
861.653	-978
861.740	-1701
861.827	-819
861.914	-785
862.001	-507
862.089	-972
862.176	-1557
862.263	-1144
862.350	-986
862.437	-804
862.524	-1468
862.611	-1160
862.698	-176
862.785	-416
862.871	-1036
862.958	-744
863.045	-1784
863.132	-554
863.219	-605
863.306	-1041
863.392	-489
863.479	-1234
863.566	-1477
863.652	-633
863.739	-1974
863.826	-671
863.912	-1291
863.999	-1493
864.086	-1305
864.172	-589
864.259	-1377
864.345	-1291
864.432	-761
864.518	-1134
864.604	-501
864.691	-434
864.777	-897
864.863	-572
864.950	301
865.036	-1322
865.122	-1204
865.209	-697
865.295	-1286
865.381	-341
865.467	-739
865.553	-122
865.639	-1891
865.726	-306
865.812	229
865.898	1455
865.984	2859
866.070	6714
866.156	8093
866.242	742
866.328	-933
866.414	-1869
866.499	-671
866.585	-865
866.671	-638
866.757	-933
866.843	-1232
866.928	-1309
867.014	-1231
867.100	26
867.186	-899
867.271	233
867.357	1075
867.442	1580
867.528	-479
867.614	-125
867.699	-750
867.785	-522
867.870	-594
867.956	1111
868.041	841
868.127	77
868.212	16
868.297	18
868.383	-350
868.468	-224
868.553	-32
868.639	916
868.724	2740
868.809	2733
868.894	-1155
868.979	-1594
869.065	-595
869.150	-796
869.235	-762
869.320	-1101
869.405	-1177
869.490	-1218
869.575	-1509
869.660	-1715
869.745	-192
869.830	-1639
869.915	-556
870.000	-517
870.085	-926
870.169	-1225
870.254	-622
870.339	-1302
870.424	-1947
870.509	-1572
870.593	-1197
870.678	-357
870.763	-1846
870.847	-1290
870.932	-1189
871.016	-1303
871.101	-729
871.186	-1098
871.270	-1772
871.355	-1230
871.439	-1387
871.523	-1116
871.608	-1119
871.692	-490
871.777	-832
871.861	-961
871.945	-1560
872.030	-1293
872.114	-1424
872.198	-886
872.282	-815
872.367	-1494
872.451	-1592
872.535	-732
872.619	-1099
872.703	-1683
872.787	-1721
872.871	-707
872.955	-1518
873.039	-1421
873.123	-1332
873.207	-1385
873.291	-582
873.375	-460
873.459	-1042
873.543	-1371
873.627	-723
873.711	-76
873.794	-551
873.878	-1487
873.962	-1788
874.045	-706
874.129	-1291
874.137	-1277
874.213	-1134
874.245	-1177
874.296	-1249
874.352	-1604
874.380	-1776
874.460	-602
874.464	-556
874.547	-748
874.568	-938
874.631	-1493
874.676	-802
874.714	-214
874.784	-232
874.798	-238
874.881	-67
874.892	-228
874.965	-1375
874.999	-1166
875.048	-857
875.107	-1246
875.131	-1411
875.215	-79
875.215	-79
875.298	-490
875.323	-602
875.381	-861
875.430	-1072
875.465	-1214
875.538	-294
875.548	-173
875.631	-976
875.646	-959
875.714	-908
875.753	-1225
875.798	-1568
875.861	-716
875.881	-441
875.964	-1585
875.968	-1537
876.047	-696
876.076	-552
876.130	-328
876.183	-524
876.213	-622
876.291	-86
876.296	-45
876.379	-725
876.398	-666
876.462	-504
876.506	-643
876.545	-759
876.613	-318
876.628	-234
876.711	-696
876.721	-633
876.794	-157
876.828	-575
876.877	-1119
876.935	-1013
876.960	-959
877.043	-519
877.043	-520
877.125	-742
877.150	-570
877.208	-256
877.258	-337
877.291	-247
877.365	-68
877.374	-68
877.456	23
877.472	-19
877.539	-179
877.579	-535
877.622	-894
877.687	-46
877.704	166
877.787	-118
877.794	-178
877.869	-566
877.901	-647
877.952	-1008
878.008	-640
878.034	-376
878.115	-961
878.117	-975
878.199	-821
878.222	-816
878.282	-634
878.329	-614
878.364	-662
878.437	-570
878.447	-569
878.529	-673
878.544	-691
878.611	-700
878.651	-662
878.694	-571
878.758	-261
878.776	-167
878.858	-185
878.865	-207
878.941	-777
878.972	-909
879.023	-1027
879.078	-1141
879.105	-1088
879.185	-358
879.187	-347
879.269	-369
879.292	-604
879.351	-1122
879.399	-1108
879.433	-1052
879.506	-171
879.516	-83
879.598	-445
879.613	-398
879.680	-25
879.720	-134
879.762	-359
879.827	-466
879.844	-481
879.926	-929
879.933	-925
880.007	-745
880.040	-749
880.089	-852
880.147	-482
880.171	-201
880.253	401
880.254	402
880.335	144
880.360	147
880.417	659
880.467	1481
880.499	1959
880.574	2130
880.580	2100
880.662	201
880.680	-70
880.744	-683
880.787	-690
880.825	-647
880.893	-734
880.907	-872
880.989	-1061
881.000	-1097
881.070	-333
881.106	-237
881.152	-581
881.213	-624
881.233	-597
881.315	-454
881.319	-481
881.396	-665
881.426	-505
881.478	-308
881.532	-349
881.559	-353
881.639	-652
881.641	-659
881.722	-497
881.745	-367
881.803	86
881.852	-375
881.885	-749
881.958	-669
881.966	-669
882.047	-612
882.064	-685
882.129	-431
882.171	-77
882.210	-98
882.277	397
882.291	515
882.372	-466
882.383	-531
882.454	-499
882.489	-355
882.535	-448
882.596	-541
882.616	-551
882.697	-407
882.702	-416
882.778	-181
882.808	-181
882.859	-542
882.914	-512
882.940	-316
883.020	-222
883.021	-220
883.102	-193
883.127	-173
883.183	-178
883.233	-356
883.264	-595
883.339	-843
883.345	-804
883.426	-443
883.445	-336
883.507	-42
883.551	-141
883.587	-555
883.657	-319
883.668	-165
883.749	-64
883.763	3
883.830	-143
883.869	-224
883.910	-120
883.975	-87
883.991	-166
884.072	-377
884.081	-429
884.152	121
884.187	306
884.233	-223
884.292	-295
884.314	-215
884.394	-630
884.398	-646
884.475	-389
884.504	-243
884.555	-270
884.610	-488
884.636	-532
884.716	-234
884.716	-229
884.797	-175
884.821	-195
884.877	-168
884.927	-250
884.958	-220
885.033	-112
885.038	-119
885.118	-325
885.139	-281
885.199	-329
885.244	-509
885.279	-498
885.350	-784
885.359	-780
885.439	-284
885.456	-226
885.520	56
885.561	250
885.600	99
885.667	-117
885.680	-72
885.760	13
885.773	21
885.840	89
885.878	207
885.920	-14
885.984	-528
886.000	-456
886.080	56
886.089	123
886.160	116
886.195	5
886.240	-101
886.300	-333
886.320	-172
886.400	701
886.406	761
886.480	-5
886.511	-519
886.560	-195
886.616	572
886.640	584
886.720	182
886.722	170
886.800	-234
886.827	-330
886.879	-188
886.932	-161
886.959	-33
887.038	354
887.039	354
887.119	-82
887.143	-194
887.198	-78
887.248	2
887.278	-2
887.354	-89
887.358	-75
887.437	221
887.459	263
887.517	253
887.564	309
887.596	197
887.669	-200
887.676	-189
887.755	87
887.774	105
887.835	-25
887.880	-114
887.914	-86
887.985	76
887.994	90
888.073	113
888.090	93
888.153	-31
888.195	-37
888.232	-226
888.300	-668
888.311	-557
888.391	249
888.405	391
888.470	-68
888.510	-361
888.549	-202
888.615	81
888.628	128
888.708	359
888.720	404
888.787	82
888.825	-147
888.866	-57
888.930	90
888.945	103
889.024	185
889.035	190
889.103	741
889.140	1031
889.182	441
889.245	-427
889.261	-386
889.340	-207
889.349	-185
889.419	553
889.454	909
889.498	800
889.559	642
889.577	629
889.656	566
889.664	558
889.735	249
889.768	103
889.814	290
889.873	537
889.978	487
890.083	323
890.187	550
890.292	-198
890.397	344
890.501	118
890.606	435
890.710	486
890.815	1225
890.919	167
891.024	-132
891.128	421
891.233	437
891.337	392
891.442	-73
891.546	-30
891.650	141
891.755	-127
891.859	871
891.963	289
892.068	53
892.172	-19
892.276	511
892.380	227
892.484	47
892.589	-708
892.693	269
892.797	-573
892.901	809
893.005	-85
893.109	243
893.213	825
893.317	332
893.421	-127
893.525	-326
893.629	69
893.733	-100
893.837	-64
893.941	209
894.045	327
894.148	-55
894.252	371
894.356	504
894.460	579
894.564	570
894.667	431
894.771	-96
894.875	-654
894.978	452
895.082	-363
895.186	711
895.289	61
895.393	266
895.496	35
895.600	45
895.703	9
895.807	227
895.910	732
896.014	57
896.117	-31
896.221	558
896.324	-34
896.427	17
896.531	177
896.634	631
896.737	265
896.840	-171
896.944	-748
897.047	-21
897.150	341
897.253	-305
897.356	-154
897.460	885
897.563	-148
897.666	-103
897.769	175
897.872	-262
897.975	-184
898.078	-244
898.181	-182
898.284	584
898.387	31
898.490	2
898.593	266
898.695	-92
898.798	-324
898.901	279
899.004	-443
899.107	20
899.209	-230
899.312	274
899.415	375
899.518	-497
899.620	-438
899.723	222
899.826	-66
899.928	145
900.031	177
900.133	-378
900.236	552
900.338	389
900.441	-1057
900.543	-588
900.646	264
900.748	-188
900.851	129
900.953	221
901.055	-243
901.158	689
901.260	-564
901.362	-382
901.465	78
901.567	281
901.669	-118
901.771	-355
901.873	-77
901.976	-71
902.078	-232
902.180	-61
902.282	-418
902.384	210
902.486	-84
902.588	286
902.690	316
902.792	250
902.894	-28
902.996	635
903.098	66
903.200	129
903.302	92
903.404	344
903.505	-548
903.607	251
903.709	204
903.811	-67
903.913	147
904.014	737
904.116	69
904.218	613
904.319	620
904.421	556
904.523	748
904.624	630
904.726	-242
904.827	288
904.929	247
905.030	52
905.132	-421
905.233	829
905.335	353
905.436	33
905.537	-346
905.639	774
905.740	230
905.841	135
905.943	-105
906.044	1297
906.145	-95
906.247	261
906.348	-657
906.449	462
906.550	146
906.651	451
906.752	-52
906.854	-236
906.955	-103
907.056	238
907.157	126
907.258	188
907.359	0
907.460	484
907.561	610
907.662	162
907.762	-196
907.863	-83
907.964	-38
908.065	913
908.166	-368
908.267	89
908.367	353
908.468	-702
908.569	-1031
908.670	45
908.770	-244
908.871	488
908.971	29
909.072	404
909.173	-119
909.273	338
909.374	631
909.474	-71
909.575	-169
909.675	150
909.776	251
909.876	-100
909.977	-315
910.077	-267
910.177	-717
910.278	-81
910.378	-32
910.478	171
910.579	-705
910.679	208
910.779	103
910.879	640
910.980	-301
911.080	235
911.180	57
911.280	-668
911.380	270
911.480	339
911.580	-274
911.680	-250
911.780	252
911.880	-127
911.980	239
912.080	-153
912.180	-480
912.280	-102
912.380	-600
912.480	584
912.580	186
912.679	-24
912.779	539
912.879	-532
912.979	145
913.078	-595
913.178	-460
913.278	950
913.377	-176
913.477	535
913.577	-380
913.676	360
913.776	-19
913.875	142
913.975	742
914.074	-203
914.174	-358
914.273	-341
914.373	-408
914.472	19
914.572	-314
914.671	-382
914.770	25
914.870	-242
914.969	52
915.068	-246
915.167	-160
915.267	-218
915.366	301
915.465	347
915.564	-116
915.663	-369
915.763	-57
915.862	424
915.961	-505
916.060	290
916.159	-647
916.258	-176
916.357	133
916.456	395
916.555	-592
916.654	349
916.752	40
916.851	34
916.950	-637
917.049	62
917.148	-655
917.247	897
917.345	-403
917.444	414
917.543	-226
917.642	407
917.740	9
917.839	96
917.937	621
918.036	-622
918.135	-195
918.233	241
918.332	-222
918.430	-59
918.529	-892
918.627	168
918.726	-283
918.824	1296
918.923	-544
919.021	-90
919.119	-401
919.218	226
919.316	-368
919.414	318
919.512	-1022
919.611	-917
919.709	-742
919.807	146
919.905	-568
920.003	66
920.102	-1207
920.200	-131
920.298	-460
920.396	-150
920.494	-371
920.592	-82
920.690	-326
920.788	102
920.886	-819
920.984	-36
921.082	-751
921.180	-379
921.277	-442
921.375	-228
921.473	-439
921.571	-927
921.669	-637
921.766	-111
921.864	651
921.962	-246
922.060	-760
922.157	154
922.255	-48
922.352	-151
922.450	59
922.548	-7
922.645	201
922.743	50
922.840	-3
922.938	-21
923.035	-24
923.133	894
923.230	-902
923.327	-858
923.425	23
923.522	53
923.619	-81
923.717	13
923.814	618
923.911	-400
924.008	163
924.106	199
924.203	-466
924.300	-373
924.397	-427
924.494	721
924.591	-222
924.688	87
924.786	-309
924.883	323
924.979	-1671
925.077	808
925.173	457
925.270	113
925.367	-598
925.464	338
925.561	-142
925.658	-155
925.755	636
925.852	192
925.948	480
926.045	673
926.142	331
926.239	307
926.335	1161
926.432	1144
926.529	1527
926.625	1401
926.722	614
926.818	628
926.915	423
927.011	145
927.108	-127
927.204	-129
927.301	-263
927.397	106
927.494	141
927.590	-687
927.687	-140
927.783	-207
927.879	131
927.976	-164
928.072	-576
928.168	287
928.264	-730
928.361	-381
928.457	-927
928.553	-339
928.649	-483
928.745	92
928.841	661
928.937	225
929.033	-1095
929.129	-17
929.225	138
929.321	-68
929.417	-47
929.513	213
929.609	-239
929.705	184
929.801	165
929.897	32
929.993	37
930.089	324
930.184	-458
930.280	248
930.376	-931
930.471	-409
930.567	-417
930.663	185
930.758	-659
930.854	-201
930.950	181
931.045	-202
931.141	-454
931.236	-70
931.332	-14
931.427	55
931.523	-595
931.618	131
931.714	114
931.809	167
931.905	-267
932.000	-39
932.095	-354
932.191	-1069
932.286	87
932.381	-499
932.476	-698
932.572	-401
932.667	-212
932.762	42
932.857	-287
932.952	-262
933.047	-653
933.142	-1037
933.237	-342
933.332	-295
933.427	-401
933.522	33
933.617	-610
933.712	107
933.807	-8
933.902	-896
933.997	-427
934.092	51
934.187	-902
934.282	-858
934.376	-563
934.471	-537
934.566	-358
934.661	-130
934.755	-216
934.850	-430
934.945	-427
935.039	152
935.134	-182
935.228	510
935.323	-815
935.417	222
935.512	-587
935.606	-433
935.701	146
935.795	-970
935.890	-1316
935.984	-232
936.079	-363
936.173	-585
936.267	-701
936.362	-359
936.456	-1079
936.550	-419
936.644	59
936.738	9
936.833	-406
936.927	86
937.021	-740
937.115	-284
937.209	-449
937.303	5
937.397	-636
937.491	-818
937.585	-174
937.679	-82
937.773	-1053
937.867	-387
937.961	144
938.055	514
938.149	666
938.243	131
938.337	-152
938.430	-238
938.524	465
938.618	2106
938.712	1157
938.805	-72
938.899	-550
938.993	423
939.086	466
939.180	2290
939.274	2170
939.367	833
939.461	7
939.554	-237
939.648	252
939.741	-96
939.835	-258
939.928	-59
940.022	-629
940.115	-429
940.208	-642
940.302	-7
940.395	-907
940.488	-238
940.582	207
940.675	-588
940.768	-424
940.861	-11
940.954	-81
941.048	28
941.141	361
941.234	-678
941.327	-76
941.420	723
941.513	-1284
941.606	-643
941.699	204
941.792	-181
941.885	-544
941.978	-911
942.071	-746
942.164	-759
942.257	-1120
942.349	-198
942.442	-729
942.535	-140
942.628	-249
942.721	581
942.813	-1243
942.906	72
942.999	-356
943.091	-612
943.184	-929
943.277	-1045
943.369	-37
943.462	-480
943.554	-83
943.647	-763
943.739	-318
943.832	-459
943.924	-634
944.017	-559
944.109	-1732
944.201	-983
944.294	-434
944.386	398
944.478	-459
944.571	228
944.663	-696
944.755	-622
944.847	-368
944.940	-23
945.032	-1130
945.124	-529
945.216	516
945.308	-819
945.400	-184
945.492	133
945.584	-613
945.676	-574
945.768	-811
945.860	18
945.952	-430
946.044	-37
946.136	-302
946.228	-105
946.320	-140
946.412	-688
946.503	-1715
946.595	570
946.687	-517
946.779	323
946.870	-155
946.962	-907
947.054	-1089
947.145	547
947.237	-812
947.329	661
947.420	-374
947.512	295
947.603	-1041
947.695	-1482
947.786	-851
947.878	-27
947.969	-99
948.061	-506
948.152	-687
948.243	115
948.335	-118
948.426	-242
948.517	-815
948.609	-748
948.700	-282
948.791	-852
948.882	-468
948.973	-384
949.065	-469
949.156	580
949.247	-1240
949.338	-296
949.429	-748
949.520	-87
949.611	-1383
949.702	66
949.793	-369
949.884	-212
949.975	-1486
950.066	-381
950.157	-469
950.247	-360
950.338	-1005
950.429	-399
950.520	95
950.611	66
950.701	-723
950.792	-791
950.883	-521
950.973	-228
951.064	-92
951.155	-548
951.245	-397
951.336	-1113
951.427	-887
951.517	361
951.608	-486
951.698	-306
951.788	-71
951.879	-217
951.969	-599
952.060	-418
952.150	-1448
952.240	-212
952.331	-1777
952.421	392
952.511	-1562
952.602	-527
952.692	-933
952.782	-714
952.872	-762
952.962	-437
953.052	-782
953.143	-1297
953.233	-106
953.323	-701
953.413	-476
953.503	-384
953.593	-1054
953.683	-231
953.773	-1099
953.863	-717
953.953	-434
954.042	-841
954.132	-1234
954.222	-665
954.312	-1038
954.402	-524
954.492	-413
954.581	612
954.671	-726
954.761	-874
954.850	754
954.940	-254
955.030	-33
955.119	-469
955.209	-782
955.298	-1059
955.388	-602
955.477	400
955.567	-420
955.656	17
955.746	-386
955.835	-469
955.925	-1140
956.014	-874
956.103	-982
956.193	81
956.282	-802
956.371	-282
956.461	-437
956.550	-962
956.639	-1337
956.728	-815
956.817	-1255
956.906	-932
956.995	66
957.085	-669
957.174	-251
957.263	-254
957.352	-882
957.441	-524
957.530	-196
957.619	-349
957.708	-1247
957.796	-677
957.885	-720
957.974	-272
958.063	-750
958.152	-1033
958.241	-453
958.329	-622
958.418	-1093
958.507	-1930
958.596	412
958.684	-1086
958.773	-582
958.861	-363
958.950	-250
959.039	526
959.127	-564
959.216	468
959.304	-1254
959.393	-795
959.481	-521
959.570	-277
959.658	-796
959.746	-387
959.835	388
959.923	75
960.011	-736
960.100	-575
960.188	-658
960.276	-1042
960.365	-1239
960.453	-501
960.541	-689
960.629	-1119
960.717	-829
960.805	-1613
960.893	-1329
960.981	-548
961.069	-214
961.158	-1172
961.245	-33
961.333	-637
961.421	-1166
961.509	45
961.597	-686
961.685	-68
961.773	-1182
961.861	-123
961.949	-620
962.036	-549
962.124	-586
962.212	-844
962.299	-1311
962.387	-703
962.475	-500
962.562	-1410
962.650	-697
962.738	-516
962.825	-777
962.913	-197
963.000	-424
963.088	-1257
963.175	-604
963.263	-135
963.350	-1277
963.438	-628
963.525	-622
963.612	-498
963.700	180
963.787	3423
963.874	1399
963.962	-355
964.049	-748
964.136	-706
964.223	-1605
964.310	-687
964.398	-1273
964.485	-1239
964.572	-1019
964.659	-986
964.746	-476
964.833	-902
964.920	-1391
965.007	-90
965.094	-630
965.181	-1535
965.268	-1083
965.355	-918
965.441	-490
965.528	-1195
965.615	-107
965.702	-825
965.789	-1542
965.875	-131
965.962	-858
966.049	-1741
966.136	-897
966.222	-1455
966.309	-672
966.395	-1250
966.482	-187
966.569	-1321
966.655	-884
966.742	-685
966.828	-1030
966.915	-752
967.001	-847
967.087	-1084
967.174	-1138
967.260	-426
967.347	-628
967.433	416
967.519	2328
967.605	-705
967.692	-1824
967.778	-808
967.864	-936
967.950	-659
968.036	-1821
968.123	-275
968.209	-1092
968.295	-1535
968.381	-229
968.467	-171
968.553	-2145
968.639	-752
968.725	-1950
968.811	-246
968.897	-1079
968.983	-1224
969.069	-1205
969.154	177
969.240	-625
969.326	-1286
969.412	-1541
969.497	-805
969.583	-1255
969.669	-726
969.755	-990
969.840	-1201
969.926	-1350
970.012	-1487
970.097	-598
970.183	-1266
970.268	-867
970.354	-61
970.439	-1357
970.525	1545
970.610	-1186
970.696	21
970.781	-526
970.866	-1752
970.952	-636
971.037	-1450
971.122	-1588
971.208	-981
971.293	-1661
971.378	-1524
971.463	-672
971.549	-607
971.634	-1302
971.719	-1044
971.804	-1407
971.889	45
971.974	-1446
972.059	-674
972.144	-1241
972.229	-635
972.314	-1924
972.399	-574
972.484	-1600
972.569	-1212
972.654	-2094
972.739	-16
972.824	-814
972.908	-436
972.993	-1079
973.078	-1137
973.163	-522
973.247	-516
973.332	-2192
973.417	-220
973.501	-1265
973.586	-662
973.671	-1363
973.755	-765
973.840	-1051
973.924	-661
974.009	-1933
974.093	-1941
974.178	-503
974.262	127
974.346	-532
974.431	-800
974.515	-1369
974.600	-1828
974.684	-521
974.768	-1006
974.852	-316
974.937	-2101
975.021	-1231
975.105	-1427
975.189	-1062
975.273	-1106
975.358	-838
975.442	-1506
975.526	-1140
975.610	-1438
975.694	-1544
975.778	512
975.862	-1127
975.946	-3084
976.030	127
976.114	-1190
976.198	-1546
976.281	-1009
976.365	-947
976.449	-708
976.533	-674
976.617	-1199
976.700	-1033
976.784	-1288
976.868	-1736
976.951	-587
977.035	-894
977.119	-501
977.202	-1018
977.286	-2170
977.369	-1351
977.453	-1610
977.536	-1431
977.620	-1756
977.703	-644
977.787	-1784
977.870	-716
977.953	57
978.037	-2345
978.120	-530
978.203	-1722
978.287	-112
978.370	-936
978.453	-1300
978.536	-1754
978.620	236
978.703	-570
978.786	-826
978.869	-991
978.952	-2837
979.035	-612
979.118	-1714
979.201	-1753
979.284	-948
979.367	-1518
979.450	-1513
979.533	-1527
979.616	-1329
979.699	-1583
979.782	-1081
979.865	-1296
979.948	-772
980.030	-1864
980.113	-1011
980.196	-1691
980.279	-572
980.361	-1281
980.444	-1806
980.526	-1989
980.609	-526
980.692	-1616
980.774	-559
980.857	-1785
980.939	-987
981.022	-1593
981.104	-1140
981.187	-773
981.269	-1322
981.352	-1934
981.434	-2741
981.516	-2815
981.599	-154
981.681	-1502
981.763	-675
981.846	-1622
981.928	-1521
982.010	-870
982.092	-1494
982.174	-965
982.256	-961
982.339	-1714
982.421	-1597
982.503	-1563
982.585	-2260
982.667	-928
982.749	-1477
982.831	-1227
982.913	-1625
982.995	-209
983.077	-1655
983.158	-337
983.240	-2724
983.322	-832
983.404	-868
983.486	-2422
983.568	-1626
983.649	-1395
983.731	-681
983.813	-1836
983.894	-1076
983.976	-2099
984.058	-1227
984.139	-519
984.221	-2154
984.302	-1293
984.384	-1394
984.465	-1692
984.547	-376
984.628	-1620
984.710	-199
984.791	-1161
984.872	-564
984.954	-2375
985.035	-371
985.116	-1856
985.198	-1209
985.279	-239
985.360	-1414
985.441	-1628
985.522	-1303
985.604	-2197
985.685	-3297
985.766	-1019
985.847	79
985.928	-2568
986.009	-1263
986.090	-979
986.171	-783
986.252	-871
986.333	-1327
986.414	-1731
986.495	-675
986.576	-1910
986.656	-1326
986.737	-469
986.818	-1288
986.899	-1521
986.980	-1042
987.060	-1495
987.141	-1162
987.222	-686
987.302	-1470
987.383	-1456
987.464	-2285
987.544	-1041
987.625	-1308
987.705	-482
987.786	-1992
987.866	-1845
987.947	-1853
988.027	-921
988.108	-1698
988.188	-1169
988.268	-980
988.349	-1116
988.429	-1485
988.509	-1827
988.589	-1474
988.670	-3390
988.750	-917
988.830	-1040
988.910	-1711
988.990	-1797
989.070	-1901
989.151	-1579
989.231	-2253
989.311	-936
989.391	-1472
989.471	-1922
989.551	-1671
989.631	-1780
989.711	-1045
989.791	-2088
989.870	-1425
989.950	-433
990.030	-1623
990.110	-1921
990.190	-1202
990.269	-1208
990.349	-1306
990.429	-1666
990.509	-934
990.588	-2025
990.668	-667
990.747	-1325
990.827	-1481
990.907	-863
990.986	-1202
991.066	-926
991.145	-793
991.225	-1386
991.304	-2521
991.383	-1551
991.463	-1159
991.542	-980
991.622	-1649
991.701	-1583
991.780	-1941
991.859	-1739
991.939	-1955
992.018	-1458
992.097	-1303
992.176	-1869
992.256	-1090
992.335	-2210
992.414	-41
992.493	-1648
992.572	-1182
992.651	539
992.730	-1481
992.809	-1646
992.888	-1966
992.967	-1671
993.046	-1861
993.125	-2375
993.203	-1415
993.282	-1222
993.361	-1604
993.440	-997
993.519	-1261
993.597	-1739
993.676	-1666
993.755	-1696
993.834	-1844
993.912	-1445
993.991	-200
994.069	-2310
994.148	-1408
994.226	-1409
994.305	-1862
994.384	-2259
994.462	-149
994.540	-2417
994.619	-2041
994.697	-1499
994.776	-1733
994.854	-1926
994.932	-2092
995.011	-1528
995.089	-2341
995.167	-1899
995.245	-1473
995.324	-2412
995.402	-1769
995.480	-1856
995.558	-1225
995.636	-2656
995.714	-1874
995.792	-1075
995.870	-1875
995.948	-1036
996.026	-2062
996.104	-2486
996.182	-968
996.260	-2128
996.338	-1654
996.416	-2645
996.494	-1634
996.572	-724
996.649	-2421
996.727	-2510
996.805	-1395
996.883	-2118
996.960	-2117
997.038	-962
997.116	-1750
997.193	-2008
997.271	-1035
997.348	-1674
997.426	-1182
997.504	-2543
997.581	-1319
997.658	-723
997.736	-1805
997.813	-2442
997.891	-1020
997.968	-1883
998.046	-1564
998.123	-2150
998.200	-1340
998.277	-1771
998.355	-952
998.432	-2107
998.509	-1623
998.586	-1124
998.663	-1403
998.741	-1818
998.818	-1150
998.895	-1970
998.972	-1539
999.049	-1647
999.126	-2028
999.203	-865
999.280	-1899
999.357	-2458
999.434	-2092
999.511	-874
999.587	-1689
999.664	-2623
999.741	-1606
999.818	-1029
999.895	-1895
999.971	-2050
1000.048	-1512
1000.125	-1302
1000.202	-1864
1000.278	-2177
1000.355	-1864
1000.431	-2012
1000.508	-2290
1000.584	-1408
1000.661	-1237
1000.738	-2280
1000.814	-1692
1000.890	-987
1000.967	-1564
1001.043	-1211
1001.120	-2057
1001.196	-1592
1001.272	-2419
1001.349	-1602
1001.425	-670
1001.501	-2033
1001.577	-1900
1001.654	-2047
1001.730	-2239
1001.806	-1916
1001.882	-2988
1001.958	-1698
1002.034	-2094
1002.110	-1635
1002.186	-1511
1002.262	-1589
1002.338	-2355
1002.414	-1811
1002.490	-1704
1002.566	-2767
1002.642	-2124
1002.718	-1846
1002.794	-1606
1002.870	-2257
1002.945	-2464
1003.021	-1910
1003.097	-2204
1003.173	-1499
1003.248	-2514
1003.324	-2426
1003.400	-1348
1003.475	-2123
1003.551	-1001
1003.626	-1682
1003.702	-3214
1003.777	-2398
1003.853	-1461
1003.928	-3226
1004.004	-2204
1004.079	-2151
1004.155	-1989
1004.230	-3271
1004.305	-1311
1004.381	-3223
1004.456	-1671
1004.531	-2094
1004.607	-1910
1004.682	-2081
1004.757	-2257
1004.832	-1474
1004.907	-2426
1004.982	-1967
1005.057	-1301
1005.133	-2302
1005.208	-2121
1005.283	-2275
1005.358	-1655
1005.433	-2246
1005.508	-1803
1005.583	-2307
1005.657	-1682
1005.732	-1971
1005.807	-2545
1005.882	-1860
1005.957	-1708
1006.032	-1907
1006.106	-2098
1006.181	-3378
1006.256	-1717
1006.331	-2357
1006.405	-2141
1006.480	-2091
1006.554	-1941
1006.629	-2115
1006.704	-1841
1006.778	-1587
1006.853	-1334
1006.927	-2253
1007.002	-2427
1007.076	-1858
1007.150	-2348
1007.225	-2395
1007.299	-858
1007.373	-3055
1007.448	-2108
1007.522	-1517
1007.596	-1471
1007.671	-1749
1007.745	-1836
1007.819	-2903
1007.893	-2182
1007.967	-1660
1008.041	-3255
1008.115	-2017
1008.190	-2020
1008.264	-2157
1008.338	-2416
1008.412	-1967
1008.486	-2501
1008.560	-1333
1008.633	-2392
1008.707	-1995
1008.781	-1515
1008.855	-2933
1008.929	-2040
1009.003	-2316
1009.076	-2099
1009.150	-950
1009.224	-1712
1009.298	-2490
1009.371	-2435
1009.445	-2051
1009.519	-1563
1009.592	-2945
1009.666	-1954
1009.739	-2176
1009.813	-2110
1009.886	-1469
1009.960	-2005
1010.033	-1654
1010.107	-1562
1010.180	-2572
1010.253	-2089
1010.327	-2141
1010.400	-1902
1010.473	-1644
1010.547	-1047
1010.620	-2300
1010.693	-1736
1010.766	-2565
1010.840	-2114
1010.913	-2310
1010.986	-2089
1011.059	-2746
1011.132	-1969
1011.205	-1075
1011.278	-1717
1011.351	-2310
1011.424	-2003
1011.497	-2650
1011.570	-2829
1011.643	-2279
1011.716	-2081
1011.789	-3008
1011.862	-2543
1011.934	-1366
1012.007	-2612
1012.080	-1932
1012.153	-1928
1012.225	-1971
1012.298	-2374
1012.371	-3477
1012.443	-864
1012.516	-2423
1012.588	-1510
1012.661	-2099
1012.733	-2331
1012.806	-1505
1012.879	-2393
1012.951	-2782
1013.023	-1246
1013.096	-2766
1013.168	-2339
1013.241	-2037
1013.313	-2047
1013.385	-2450
1013.458	-2098
1013.530	-1874
1013.602	-2066
1013.674	-1532
1013.746	-2192
1013.819	-2576
1013.891	-1854
1013.963	-2816
1014.035	-1643
1014.107	-2032
1014.179	-873
1014.251	-2734
1014.323	-2190
1014.395	-2070
1014.467	-1944
1014.539	-2136
1014.611	-2203
1014.683	-1880
1014.754	-1931
1014.826	-2022
1014.898	-2011
1014.970	-2816
1015.042	-1289
1015.113	-1966
1015.185	-1626
1015.257	-3047
1015.328	-2164
1015.400	-2997
1015.471	-1438
1015.543	-2705
1015.615	-2629
1015.686	-2591
1015.757	-2041
1015.829	-2190
1015.901	-2406
1015.972	-2176
1016.043	-1936
1016.115	-2501
1016.186	-2113
1016.257	-2531
1016.328	-1711
1016.400	-1824
1016.471	-2047
1016.542	-2432
1016.613	-1395
1016.685	-2112
1016.756	-2006
1016.827	-2777
1016.898	-1826
1016.969	-864
1017.040	-2923
1017.111	-2214
1017.182	-2556
1017.253	-2536
1017.324	-1796
1017.395	-2774
1017.466	-1817
1017.537	-2006
1017.608	-2398
1017.678	-1434
1017.749	-2317
1017.820	-2136
1017.891	-2156
1017.961	-2628
1018.032	-2084
1018.103	-2068
1018.173	-1437
1018.244	-2636
1018.315	-3150
1018.385	-1525
1018.456	-1664
1018.526	-2741
1018.597	-1628
1018.667	-1905
1018.738	-2550
1018.808	-1834
1018.878	-2046
1018.949	-1971
1019.019	-1801
1019.089	-2241
1019.160	-1514
1019.230	-2938
1019.300	-957
1019.371	-2731
1019.441	-1306
1019.511	-1910
1019.581	-2652
1019.651	-1821
1019.721	-1867
1019.791	-2913
1019.861	-1892
1019.931	-1649
1020.001	-2050
1020.071	-2650
1020.141	-1987
1020.211	-2398
1020.281	-2491
1020.351	-2889
1020.421	-1013
1020.491	-1806
1020.560	-2537
1020.630	-2474
1020.700	-2377
1020.770	-2638
1020.839	-2760
1020.909	-1974
1020.979	-1620
1021.048	-2168
1021.118	-2279
1021.187	-2376
1021.257	-1873
1021.326	-1838
1021.396	-1859
1021.465	-2617
1021.535	-1875
1021.604	-3039
1021.674	-2304
1021.743	-1875
1021.812	-2101
1021.882	-1975
1021.951	-3003
1022.020	-2142
1022.089	-1248
1022.159	-2274
1022.228	-1801
1022.297	-1976
1022.366	-2372
1022.435	-1860
1022.504	-1638
1022.573	-3045
1022.642	-1505
1022.711	-2267
1022.781	-1743
1022.849	-1652
1022.918	-2575
1022.987	-1957
1023.056	-2401
1023.125	-1729
1023.194	-1391
1023.263	-1827
1023.331	-1854
1023.400	-2202
1023.469	-1908
1023.538	-2032
1023.606	-2401
1023.675	-1546
1023.744	-2591
1023.812	-2891
1023.881	-1742
1023.949	-2160
1024.018	-2264
1024.086	-2540
1024.155	-1471
1024.223	-2028
1024.292	-1700
1024.360	-1644
1024.429	-2068
1024.497	-1899
1024.565	-2387
1024.634	-2247
1024.702	-1448
1024.770	-2123
1024.838	-2233
1024.907	-1576
1024.975	-2029
1025.043	-1463
1025.111	-2961
1025.179	-1315
1025.247	-2337
1025.315	-2263
1025.383	-2382
1025.451	-1850
1025.519	-1887
1025.587	-2339
1025.655	-1877
1025.723	-2485
1025.791	-2196
1025.859	-2686
1025.927	-2026
1025.995	-2092
1026.062	-1997
1026.130	-2284
1026.198	-2737
1026.266	-2885
1026.333	-1816
1026.401	-1873
1026.469	-1718
1026.536	-1633
1026.604	-1007
1026.671	-2191
1026.739	-2516
1026.806	-2017
1026.874	-1699
1026.941	-2266
1027.009	-2058
1027.076	-1796
1027.144	-919
1027.211	-2903
1027.278	-2267
1027.345	-1724
1027.413	-1677
1027.480	-2481
1027.547	-1319
1027.614	-1953
1027.682	-2147
1027.749	-1993
1027.816	-2606
1027.883	-2829
1027.950	-2121
1028.017	-2540
1028.084	-1626
1028.151	-2286
1028.218	-1743
1028.285	-2503
1028.352	-1700
1028.419	-2549
1028.486	-2001
1028.553	-2924
1028.619	-2077
1028.686	-2698
1028.753	-1713
1028.820	-1630
1028.886	-2504
1028.953	-2305
1029.020	-1597
1029.086	-2289
1029.153	-2408
1029.220	-2129
1029.286	-2067
1029.353	-2335
1029.419	-2314
1029.486	-1645
1029.552	-1963
1029.619	-2180
1029.685	-2417
1029.751	-2068
1029.818	-2116
1029.884	-2801
1029.951	-2014
1030.017	-2135
1030.083	-2240
1030.149	-2582
1030.216	-2677
1030.282	-2294
1030.348	-2400
1030.414	-2607
1030.480	-3003
1030.546	-2334
1030.612	-1729
1030.678	-2427
1030.744	-2390
1030.810	-2476
1030.876	-2255
1030.942	-2747
1031.008	-1322
1031.074	-3245
1031.140	-2204
1031.206	-1480
1031.272	-2344
1031.337	-2933
1031.403	-1606
1031.469	-1982
1031.534	-2529
1031.600	-1505
1031.666	-1414
1031.731	-2701
1031.797	-2032
1031.863	-2369
1031.928	-2463
1031.994	-2815
1032.059	-1950
1032.125	-1839
1032.190	-2498
1032.256	-2800
1032.321	-2730
1032.386	-2012
1032.452	-2742
1032.517	-2455
1032.582	-2223
1032.647	-2531
1032.713	-2481
1032.778	-2324
1032.843	-1902
1032.908	-3327
1032.974	-1758
1033.039	-2648
1033.104	-1148
1033.169	-2437
1033.234	-2135
1033.299	-2244
1033.364	-1496
1033.429	-2276
1033.494	-2403
1033.559	-3235
1033.624	-1569
1033.688	-2097
1033.753	-1989
1033.818	-2137
1033.883	-1324
1033.948	-2544
1034.013	-2229
1034.077	-2332
1034.142	-2938
1034.207	-2312
1034.271	-1285
1034.336	-1683
1034.400	-2122
1034.465	-2235
1034.530	-1813
1034.594	-1794
1034.658	-2049
1034.723	-2613
1034.787	-2277
1034.852	-1948
1034.916	-2733
1034.981	-2250
1035.045	-1507
1035.109	-2323
1035.173	-1728
1035.238	-2323
1035.302	-1891
1035.366	-2128
1035.430	-2216
1035.495	-2133
1035.559	-1830
1035.623	-2524
1035.687	-2247
1035.751	-1592
1035.815	-2220
1035.879	-2399
1035.943	-1878
1036.007	-2169
1036.071	-1826
1036.135	-3033
1036.198	-1827
1036.262	-1834
1036.326	-1974
1036.390	-1682
1036.454	-1795
1036.517	-2463
1036.581	-2852
1036.645	-2341
1036.709	-2126
1036.772	-2527
1036.836	-1987
1036.900	-1963
1036.963	-2104
1037.026	-2211
1037.090	-3034
1037.154	-2241
1037.217	-1830
1037.280	-1893
1037.344	-1684
1037.407	-3094
1037.471	-1767
1037.534	-2030
1037.597	-2056
1037.661	-2905
1037.724	-1717
1037.787	-3316
1037.850	-2099
1037.913	-1734
1037.977	-1262
1038.040	-1987
1038.103	-2341
1038.166	-2748
1038.229	-1214
1038.292	-2090
1038.355	-1349
1038.418	-1931
1038.481	-1479
1038.544	-2352
1038.607	-2327
1038.670	-2484
1038.732	-1505
1038.795	-1933
1038.858	-2706
1038.921	-2939
1038.984	-1534
1039.046	-2647
1039.109	-1697
1039.172	-2779
1039.234	-1800
1039.297	-3074
1039.360	-1544
1039.422	-2387
1039.485	-1903
1039.547	-3353
1039.610	-2219
1039.672	-2292
1039.734	-2401
1039.797	-2350
1039.859	-2121
1039.922	-2046
1039.984	-1848
1040.046	-2180
1040.109	-1619
1040.171	-2611
1040.233	-2334
1040.295	-2405
1040.358	-2113
1040.420	-2680
1040.482	-1360
1040.544	-3214
1040.606	-893
1040.668	-2362
1040.730	-2059
1040.792	-2060
1040.854	-2543
1040.916	-2798
1040.978	-2854
1041.040	-1696
1041.102	-1314
1041.164	-1980
1041.225	-2615
1041.287	-2202
1041.349	-2346
1041.411	-2378
1041.472	-2483
1041.534	-1840
1041.596	-2070
1041.657	-2389
1041.719	-1924
1041.781	-1807
1041.842	-2191
1041.904	-1962
1041.965	-2077
1042.027	-2265
1042.088	-1759
1042.150	-2112
1042.211	-1863
1042.272	-2120
1042.334	-1792
1042.395	-1842
1042.456	-1472
1042.518	-2151
1042.579	-2229
1042.640	-1929
1042.701	-1338
1042.763	-2884
1042.824	-2509
1042.885	-2481
1042.946	-1992
1043.007	-2355
1043.068	-2304
1043.129	-2494
1043.190	-1958
1043.251	-1945
1043.312	-2178
1043.373	-1683
1043.434	-1453
1043.495	-2182
1043.556	-1692
1043.616	-2408
1043.677	-2408
1043.738	-1392
1043.799	-2122
1043.859	-2216
1043.920	-2455
1043.981	-2852
1044.041	-2039
1044.102	-2560
1044.162	-1470
1044.223	-2552
1044.284	-2312
1044.344	-2353
1044.405	-1927
1044.465	-2433
1044.525	-2219
1044.586	-1236
1044.646	-1604
1044.707	-1796
1044.767	-2374
1044.827	-2155
1044.887	-1277
1044.948	-1818
1045.008	-2296
1045.068	-1223
1045.128	-1442
1045.188	-2143
1045.249	-1771
1045.309	-2079
1045.369	-1601
1045.429	-2324
1045.489	-2602
1045.549	-1202
1045.609	-1688
1045.669	-2158
1045.729	-1717
1045.789	-1874
1045.848	-1714
1045.908	-1070
1045.968	-1543
1046.028	-2734
1046.088	-1696
1046.147	-1660
1046.207	-2263
1046.267	-1917
1046.326	-1413
1046.386	-2151
1046.446	-1082
1046.505	-292
1046.565	-356
1046.624	-1654
1046.684	-822
1046.743	-1088
1046.803	-1091
1046.862	-1072
1046.922	0
