'Start Wavelength	183.907
'End Wavelength	1046.922
'Gate Delay	5.000
'Gate Width (ms)	1.050
'Laser Output Level	0.000
'X Position	0.000
'Y Position	0.000
'Z Position	0.000
'Grid Point Number	1.000
'Shot Number	100.000
183.907	543.000
183.977	-35.000
184.047	407
184.116	827
184.186	1021
184.256	943
184.325	643
184.395	72
184.465	830
184.534	568
184.604	-617
184.674	496
184.743	-62
184.813	1050
184.883	300
184.952	-7
185.022	-51
185.092	848
185.161	-19
185.231	1086
185.301	934
185.370	1551
185.440	329
185.509	176
185.579	58
185.649	1274
185.718	572
185.788	716
185.857	84
185.927	943
185.996	-577
186.066	415
186.136	185
186.205	776
186.275	512
186.344	473
186.414	560
186.483	49
186.553	1883
186.622	3822
186.692	1040
186.761	809
186.831	1444
186.900	514
186.970	677
187.039	1532
187.109	1733
187.178	1887
187.248	1016
187.317	1786
187.387	1144
187.456	1607
187.526	2705
187.595	2227
187.664	946
187.734	1675
187.803	1645
187.873	1930
187.942	1976
188.012	2263
188.081	586
188.150	1000
188.220	3131
188.289	3788
188.358	1980
188.428	1696
188.497	1130
188.567	2334
188.636	1551
188.705	1988
188.775	970
188.844	1045
188.913	2515
188.983	1847
189.052	1807
189.121	1909
189.191	1881
189.260	2706
189.329	2680
189.399	2294
189.468	1473
189.537	992
189.606	1500
189.676	2506
189.745	2342
189.814	2890
189.883	2044
189.953	2531
190.022	3510
190.091	8424
190.161	11727
190.230	4102
190.299	2332
190.368	2458
190.437	1823
190.507	2481
190.576	2844
190.645	1916
190.714	1192
190.783	2203
190.853	2603
190.922	3085
190.991	2199
191.060	3766
191.129	1242
191.198	2691
191.268	1618
191.337	1918
191.406	2592
191.475	2061
191.544	1252
191.613	1578
191.682	1006
191.752	1714
191.821	1740
191.890	2771
191.959	2397
192.028	2219
192.097	2018
192.166	1825
192.235	1341
192.304	2451
192.373	1709
192.442	2425
192.511	1260
192.580	1981
192.650	1813
192.719	1838
192.788	2140
192.857	2870
192.926	1743
192.995	2977
193.064	3646
193.133	6452
193.202	7279
193.271	7414
193.340	6218
193.409	6335
193.478	7087
193.547	8997
193.615	11813
193.684	10776
193.753	6554
193.822	5397
193.891	3110
193.960	4472
194.029	3745
194.098	4342
194.167	2450
194.236	3492
194.305	1815
194.374	2691
194.443	2055
194.512	3829
194.580	2442
194.649	4399
194.718	4916
194.787	2908
194.856	2310
194.925	3322
194.994	3603
195.062	4425
195.131	3472
195.200	5739
195.269	6095
195.338	4218
195.407	1842
195.475	4084
195.544	4250
195.613	5048
195.682	3736
195.751	5625
195.819	6831
195.888	4923
195.957	5205
196.026	6790
196.094	5933
196.163	6178
196.232	5859
196.301	5652
196.369	4983
196.438	3938
196.507	4145
196.576	4207
196.644	3350
196.713	2554
196.782	2646
196.850	2410
196.919	2847
196.988	3913
197.056	2896
197.125	3622
197.194	3260
197.262	3201
197.331	2291
197.400	3653
197.468	3772
197.537	4073
197.606	4940
197.674	6739
197.743	12521
197.812	7445
197.880	11149
197.949	9731
198.017	9889
198.086	9188
198.155	4862
198.223	5645
198.292	12203
198.360	8294
198.429	4845
198.497	4747
198.566	8010
198.635	12997
198.703	6193
198.772	6999
198.840	13921
198.909	16705
198.977	6155
199.046	5406
199.114	5399
199.183	5325
199.251	3478
199.320	4229
199.388	4118
199.457	3612
199.525	4024
199.594	4673
199.662	3645
199.731	4728
199.799	3963
199.867	4862
199.936	4172
200.004	4382
200.073	3844
200.141	3952
200.210	3192
200.278	3815
200.346	4522
200.415	5680
200.483	6340
200.552	4993
200.620	3144
200.688	4474
200.757	4296
200.825	4282
200.893	4129
200.962	5262
201.030	3727
201.098	4155
201.167	4787
201.235	4578
201.303	4308
201.372	5433
201.440	5416
201.508	7225
201.577	5634
201.645	5898
201.713	4600
201.781	5623
201.850	7942
201.918	5370
201.986	4921
202.055	5881
202.123	4268
202.191	5290
202.259	4177
202.327	5274
202.396	4817
202.464	6624
202.532	8291
202.600	22398
202.669	16557
202.737	7615
202.805	5579
202.873	5560
202.941	5332
203.009	5431
203.078	4961
203.146	6058
203.214	4205
203.282	4185
203.350	5462
203.418	5876
203.487	6032
203.555	4789
203.623	4658
203.691	5943
203.759	5032
203.827	4652
203.895	6295
203.963	6763
204.031	5571
204.099	6353
204.168	5173
204.236	7184
204.304	5241
204.372	6129
204.440	5199
204.508	5958
204.576	5349
204.644	5482
204.712	4844
204.780	6040
204.848	5612
204.916	5175
204.984	5261
205.052	7175
205.120	6040
205.188	6293
205.256	5987
205.324	6148
205.392	6060
205.460	7341
205.528	6039
205.596	5978
205.664	5526
205.732	6245
205.799	16238
205.867	28660
205.935	10127
206.003	8219
206.071	6980
206.139	7117
206.207	6412
206.275	7035
206.343	5874
206.411	6247
206.478	5461
206.546	7605
206.614	6533
206.682	5362
206.750	5808
206.818	8448
206.885	8539
206.953	5942
207.021	6483
207.089	6232
207.157	5203
207.225	6636
207.292	6004
207.360	6362
207.428	7208
207.496	7657
207.563	6040
207.631	6742
207.699	5313
207.767	6799
207.834	6019
207.902	7871
207.970	6186
208.038	6545
208.105	6578
208.173	8279
208.241	10535
208.309	10233
208.376	9109
208.444	16296
208.512	10571
208.579	7057
208.647	9055
208.715	9717
208.782	7720
208.850	6591
208.918	7152
208.985	7927
209.053	7404
209.120	8592
209.188	6758
209.256	7765
209.323	8035
209.391	11750
209.459	9247
209.526	8038
209.594	7045
209.661	8081
209.729	7464
209.796	8209
209.864	8260
209.932	7455
209.999	8836
210.067	9584
210.134	9797
210.202	9244
210.269	12667
210.337	12358
210.404	9171
210.472	8315
210.539	7741
210.607	9854
210.674	11317
210.742	9359
210.809	9251
210.877	11564
210.944	11644
211.012	9791
211.079	12037
211.146	9454
211.214	8986
211.281	12954
211.349	12039
211.416	10221
211.484	11177
211.551	10132
211.618	8784
211.686	9894
211.753	8279
211.821	9113
211.888	8357
211.955	10056
212.023	9973
212.090	10723
212.157	10474
212.225	11722
212.292	18971
212.359	34063
212.427	67729
212.494	39756
212.561	17903
212.629	12754
212.696	11745
212.763	10779
212.831	10713
212.898	10775
212.965	9819
213.032	10055
213.100	11353
213.167	11835
213.234	12785
213.301	9977
213.369	9751
213.436	9453
213.503	9206
213.570	11620
213.638	11084
213.705	9953
213.772	8676
213.839	11639
213.906	13917
213.973	12305
214.041	10392
214.108	10373
214.175	10547
214.242	10796
214.309	9707
214.376	11378
214.444	11124
214.511	12922
214.578	11672
214.645	11786
214.712	12284
214.779	12872
214.846	10564
214.913	13156
214.980	12605
215.048	14539
215.115	16833
215.182	16017
215.249	13706
215.316	12547
215.383	10960
215.450	11737
215.517	11121
215.584	11638
215.651	9380
215.718	10026
215.785	13336
215.852	13825
215.919	14548
215.986	13835
216.053	11980
216.120	9832
216.187	12970
216.254	13542
216.321	11166
216.388	13016
216.455	13453
216.522	12353
216.589	15101
216.656	23944
216.722	25441
216.789	17670
216.856	17753
216.923	15707
216.990	15432
217.057	15324
217.124	18787
217.191	18599
217.258	20630
217.324	22989
217.391	21918
217.458	17459
217.525	15103
217.592	14252
217.659	12771
217.725	15374
217.792	19440
217.859	19242
217.926	11407
217.993	10581
218.059	10765
218.126	10621
218.193	9752
218.260	9001
218.327	8401
218.393	10874
218.460	8816
218.527	8393
218.594	10022
218.660	19875
218.727	21888
218.794	12076
218.860	10129
218.927	8655
218.994	8180
219.061	8646
219.127	12860
219.194	18837
219.261	11280
219.327	8297
219.394	8471
219.461	6953
219.527	7985
219.594	13996
219.661	11673
219.727	7862
219.794	8694
219.860	8690
219.927	10375
219.994	15432
220.060	25842
220.127	20823
220.193	15239
220.260	14870
220.326	20914
220.393	29731
220.460	34444
220.526	26589
220.593	19729
220.659	20727
220.726	21302
220.792	41263
220.859	41172
220.925	46575
220.992	55094
221.058	54003
221.125	55064
221.191	44651
221.258	22418
221.324	17769
221.391	16075
221.457	12752
221.524	12828
221.590	16268
221.657	43845
221.723	38478
221.789	29967
221.856	29656
221.922	18774
221.989	13105
222.055	11710
222.121	9833
222.188	14519
222.254	12824
222.321	10777
222.387	9283
222.453	8979
222.520	9757
222.586	7941
222.652	10317
222.719	9399
222.785	9955
222.851	8448
222.918	8008
222.984	8941
223.050	11359
223.116	10103
223.183	10498
223.249	6751
223.315	7231
223.382	8332
223.448	7210
223.514	6668
223.580	6777
223.647	7396
223.713	6426
223.779	6966
223.845	8120
223.911	8513
223.978	6490
224.044	7858
224.110	7396
224.176	7218
224.242	7134
224.309	5937
224.375	7125
224.441	7092
224.507	6611
224.573	7001
224.639	7267
224.705	5750
224.772	7010
224.838	6666
224.904	9827
224.970	7863
225.036	7765
225.102	9442
225.168	9140
225.234	7379
225.300	8398
225.366	8293
225.432	8606
225.499	8042
225.565	9529
225.631	11064
225.697	10754
225.763	10887
225.829	13633
225.895	14416
225.961	22848
226.027	20686
226.093	19977
226.159	22499
226.225	32843
226.291	62979
226.357	92569
226.423	59173
226.489	37111
226.554	25973
226.620	23349
226.686	30252
226.752	47242
226.818	67079
226.884	119935
226.950	106788
227.016	54394
227.082	33524
227.148	26690
227.214	24292
227.279	23235
227.345	19524
227.411	18059
227.477	18445
227.543	31871
227.609	37231
227.674	25411
227.740	16998
227.806	14942
227.872	13876
227.938	13684
228.003	23052
228.069	14342
228.135	10167
228.201	10653
228.267	10358
228.332	13219
228.398	18290
228.464	13705
228.530	8163
228.595	9000
228.661	9190
228.727	18849
228.792	16526
228.858	10723
228.924	12132
228.990	15425
229.055	14010
229.121	17930
229.187	11731
229.252	13687
229.318	9993
229.384	11106
229.449	14640
229.515	8860
229.581	7325
229.646	9805
229.712	12082
229.777	26068
229.843	29783
229.909	21049
229.974	21892
230.040	20578
230.105	14429
230.171	18086
230.236	21294
230.302	32371
230.368	26797
230.433	14723
230.499	14373
230.564	17872
230.630	13452
230.695	11521
230.761	10889
230.826	9629
230.892	18701
230.957	13221
231.023	9829
231.088	11275
231.154	11284
231.219	11119
231.284	16654
231.350	19673
231.415	11274
231.481	10291
231.546	8870
231.612	8746
231.677	7886
231.742	8618
231.808	10707
231.873	9713
231.939	8370
232.004	18051
232.069	20415
232.135	12362
232.200	10151
232.265	9469
232.331	7428
232.396	7088
232.461	8292
232.527	7922
232.592	8477
232.657	9046
232.723	18995
232.788	17121
232.853	9537
232.918	8595
232.984	7961
233.049	9476
233.114	18175
233.179	19554
233.245	22747
233.310	31081
233.375	10604
233.440	10644
233.506	9088
233.571	8848
233.636	9588
233.701	10194
233.766	19032
233.832	27279
233.897	13933
233.962	14010
234.027	16879
234.092	14558
234.157	13599
234.222	15894
234.288	19779
234.353	56094
234.418	53806
234.483	32521
234.548	23654
234.613	18799
234.678	18067
234.743	21106
234.808	57612
234.873	44127
234.938	19539
235.004	15106
235.069	15382
235.134	14366
235.199	13220
235.264	12621
235.329	10443
235.394	13058
235.459	17740
235.524	17687
235.589	13793
235.654	11797
235.719	10851
235.784	13075
235.849	14930
235.913	34030
235.978	37158
236.043	45059
236.108	19546
236.173	18516
236.238	20417
236.303	15054
236.368	14967
236.433	22860
236.498	43947
236.563	31517
236.627	54166
236.692	154773
236.757	148541
236.822	68768
236.887	51267
236.952	40292
237.017	33479
237.081	35703
237.146	43690
237.211	82458
237.276	156103
237.341	245217
237.405	148769
237.470	67207
237.535	48872
237.600	31042
237.664	24722
237.729	21848
237.794	27397
237.859	49031
237.923	42027
237.988	26862
238.053	32134
238.118	35706
238.182	71164
238.247	71204
238.312	39792
238.376	29979
238.441	24639
238.506	22810
238.570	13752
238.635	14535
238.700	12520
238.764	15847
238.829	33157
238.893	47020
238.958	23201
239.023	24033
239.087	14221
239.152	17408
239.216	13797
239.281	12673
239.346	12865
239.410	12891
239.475	18269
239.539	67075
239.604	62978
239.668	21978
239.733	16258
239.797	22139
239.862	52145
239.926	69368
239.991	32021
240.055	18278
240.120	15508
240.184	15759
240.249	13628
240.313	13640
240.378	15086
240.442	43186
240.507	71489
240.571	27173
240.635	33742
240.700	48436
240.764	20569
240.829	15222
240.893	10910
240.957	15210
241.022	38293
241.086	73891
241.151	40159
241.215	17385
241.279	21935
241.344	43184
241.408	22628
241.472	17879
241.537	18402
241.601	17036
241.665	14972
241.730	14608
241.794	17285
241.858	17260
241.922	16079
241.987	16069
242.051	13874
242.115	14701
242.179	14646
242.244	13736
242.308	15078
242.372	16819
242.436	23549
242.501	18783
242.565	14031
242.629	14454
242.693	14762
242.757	13111
242.822	16005
242.886	17172
242.950	16592
243.014	18742
243.078	19735
243.142	21392
243.206	18831
243.271	21104
243.335	21389
243.399	31854
243.463	95572
243.527	241834
243.591	90957
243.655	38800
243.719	25321
243.783	25529
243.847	38275
243.911	51549
243.975	63104
244.040	50711
244.104	24937
244.168	18684
244.232	30919
244.296	44960
244.360	45223
244.424	30249
244.488	23989
244.552	22272
244.615	17205
244.679	16527
244.743	21523
244.807	26311
244.871	15922
244.935	14613
244.999	14337
245.063	17918
245.127	19591
245.191	30870
245.255	33079
245.319	26948
245.383	27387
245.446	19806
245.510	16402
245.574	19044
245.638	19648
245.702	20191
245.766	47023
245.829	31452
245.893	24399
245.957	20541
246.021	21532
246.085	22442
246.149	28181
246.212	60236
246.276	93753
246.340	45664
246.404	32948
246.467	31004
246.531	51474
246.595	32213
246.659	27243
246.722	26875
246.786	33895
246.850	33721
246.913	46550
246.977	24213
247.041	22570
247.104	26591
247.168	24257
247.232	56390
247.295	117024
247.359	65896
247.423	31866
247.486	53911
247.550	35096
247.614	27204
247.677	36479
247.741	26465
247.804	21656
247.868	26893
247.932	50362
247.995	113099
248.059	50167
248.122	27751
248.186	32306
248.249	55382
248.313	171725
248.376	193386
248.440	127681
248.503	53933
248.567	40626
248.630	58778
248.694	80333
248.757	94687
248.821	190024
248.884	124779
248.948	105828
249.011	150384
249.075	218740
249.138	199283
249.202	82888
249.265	53810
249.328	67281
249.392	50463
249.455	38870
249.519	32231
249.582	39721
249.645	62071
249.709	49986
249.772	36626
249.835	33183
249.899	40294
249.962	31778
250.025	30915
250.089	68496
250.152	102241
250.215	53622
250.279	40810
250.342	39667
250.405	38966
250.468	35207
250.532	48155
250.595	71100
250.658	207872
250.721	350506
250.785	150901
250.848	78356
250.911	50300
250.974	43636
251.038	57775
251.101	118137
251.164	69725
251.227	67436
251.290	62216
251.354	87278
251.417	282274
251.480	313242
251.543	226509
251.606	487003
251.669	419182
251.732	188878
251.795	176116
251.859	175029
251.922	336514
251.985	225484
252.048	93403
252.111	71487
252.174	68025
252.237	109518
252.300	233470
252.363	246103
252.426	421081
252.489	219493
252.552	124775
252.615	88337
252.678	83197
252.741	170953
252.804	224864
252.867	429660
252.930	300497
252.993	174293
253.056	103590
253.119	85143
253.182	65443
253.245	97777
253.308	81178
253.371	77318
253.434	74960
253.497	69291
253.559	111065
253.622	90355
253.685	106731
253.748	113262
253.811	57927
253.874	70507
253.937	71746
254.000	52354
254.062	78426
254.125	125130
254.188	109875
254.251	106065
254.314	52368
254.376	88121
254.439	101402
254.502	83248
254.565	85416
254.628	143727
254.690	96947
254.753	55405
254.816	47245
254.878	52181
254.941	84723
255.004	93929
255.067	46382
255.129	48129
255.192	29546
255.255	27008
255.317	34898
255.380	25765
255.443	20743
255.505	20824
255.568	22955
255.631	24017
255.693	25044
255.756	20458
255.819	20297
255.881	19140
255.944	19095
256.006	19245
256.069	20491
256.132	18895
256.194	27700
256.257	71408
256.319	55430
256.382	53978
256.444	29771
256.507	23794
256.569	22767
256.632	25116
256.694	45177
256.757	89585
256.819	253711
256.882	127438
256.944	55922
257.007	41102
257.069	48432
257.132	36067
257.194	27082
257.257	27306
257.319	29441
257.381	34290
257.444	74717
257.506	271874
257.569	343697
257.631	195077
257.693	103083
257.756	54114
257.818	51493
257.880	32034
257.943	28755
258.005	26203
258.067	25537
258.130	24216
258.192	28953
258.254	63783
258.317	43545
258.379	27383
258.441	66844
258.503	66651
258.566	74672
258.628	105268
258.690	33574
258.753	30330
258.815	55269
258.877	37921
258.939	23587
259.001	23002
259.064	22677
259.126	29203
259.188	42782
259.250	28673
259.312	37599
259.375	89754
259.437	64567
259.499	26187
259.561	23752
259.623	27112
259.685	27681
259.747	27544
259.809	70297
259.872	138934
259.934	186817
259.996	191750
260.058	61613
260.120	29996
260.182	25131
260.244	22067
260.306	20165
260.368	21891
260.430	23302
260.492	48172
260.554	93202
260.616	76324
260.678	103842
260.740	151234
260.802	46316
260.864	34142
260.926	30652
260.988	29275
261.050	30358
261.112	67870
261.174	152435
261.236	119267
261.298	43399
261.359	65123
261.421	95747
261.483	34181
261.545	27685
261.607	20908
261.669	22359
261.731	42590
261.793	103825
261.854	52835
261.916	33903
261.978	30576
262.040	36092
262.102	26378
262.164	44234
262.225	38812
262.287	24064
262.349	58347
262.411	51818
262.472	26146
262.534	44594
262.596	98601
262.658	35757
262.719	24070
262.781	31822
262.843	91566
262.904	47520
262.966	34265
263.028	44904
263.090	153861
263.151	396217
263.213	147828
263.275	83775
263.336	40407
263.398	30187
263.459	23777
263.521	24746
263.583	53714
263.644	43986
263.706	22077
263.767	17970
263.829	16636
263.891	15943
263.952	15237
264.014	16427
264.075	30938
264.137	78507
264.198	40269
264.260	18844
264.321	19099
264.383	46000
264.444	117001
264.506	42086
264.567	27066
264.629	44068
264.690	99346
264.752	41867
264.813	25968
264.875	20719
264.936	20225
264.998	19087
265.059	17349
265.120	19916
265.182	32578
265.243	121276
265.305	146179
265.366	42731
265.427	25593
265.489	22256
265.550	18118
265.611	23562
265.673	24218
265.734	21751
265.795	16755
265.857	16999
265.918	20770
265.979	42559
266.040	196206
266.102	199655
266.163	62492
266.224	52233
266.286	31382
266.347	23587
266.408	22674
266.469	26231
266.530	21373
266.592	19361
266.653	36899
266.714	66727
266.775	26301
266.836	20663
266.898	17679
266.959	32291
267.020	26522
267.081	18333
267.142	16497
267.203	16103
267.264	15673
267.326	20234
267.387	17479
267.448	16279
267.509	17221
267.570	17235
267.631	15933
267.692	14625
267.753	15943
267.814	17249
267.875	33334
267.936	78053
267.997	44904
268.058	38190
268.119	24320
268.180	23200
268.241	19582
268.302	17342
268.363	16453
268.424	19016
268.485	20550
268.546	17641
268.607	13308
268.668	13779
268.729	13148
268.790	16806
268.851	20843
268.912	48834
268.972	61070
269.033	33816
269.094	18376
269.155	15734
269.216	14923
269.277	20174
269.338	16413
269.398	15756
269.459	20421
269.520	28278
269.581	35976
269.642	41696
269.702	32401
269.763	24202
269.824	19754
269.885	25750
269.945	40146
270.006	20371
270.067	15171
270.128	14636
270.188	15142
270.249	16822
270.310	14496
270.370	15087
270.431	17538
270.492	14638
270.553	17507
270.613	39632
270.674	73171
270.734	37717
270.795	21589
270.856	29469
270.916	28548
270.977	19665
271.038	22295
271.098	25880
271.159	36146
271.219	42413
271.280	19328
271.340	17415
271.401	22707
271.462	59108
271.522	34907
271.583	21785
271.643	23148
271.704	22825
271.764	26736
271.825	55460
271.885	159750
271.946	227696
272.006	84597
272.066	98732
272.127	171009
272.187	62668
272.248	38059
272.308	39424
272.369	110742
272.429	72190
272.489	56055
272.550	64922
272.610	58222
272.671	50745
272.731	44506
272.791	79922
272.852	46188
272.912	39130
272.972	24568
273.033	24484
273.093	41539
273.153	41192
273.214	29723
273.274	34774
273.334	94749
273.394	184368
273.455	85019
273.515	76187
273.575	162931
273.635	77407
273.696	88308
273.756	170199
273.816	78729
273.876	49182
273.936	88762
273.997	162336
274.057	53658
274.117	40952
274.177	55045
274.237	200856
274.297	187544
274.358	140130
274.418	136587
274.478	111962
274.538	51225
274.598	44889
274.658	127127
274.718	173513
274.778	73755
274.838	43378
274.898	78715
274.958	234360
275.018	179649
275.078	118788
275.138	56018
275.198	34518
275.258	28709
275.318	35579
275.378	59356
275.438	63584
275.498	44385
275.558	95704
275.618	197730
275.678	129093
275.738	79829
275.798	68938
275.858	43189
275.918	25670
275.978	29801
276.038	29804
276.098	24238
276.157	45115
276.217	125284
276.277	64169
276.337	45783
276.397	28143
276.457	33744
276.517	28483
276.576	20583
276.636	20623
276.696	35524
276.756	77701
276.815	65206
276.875	32484
276.935	37340
276.995	33586
277.055	21659
277.114	24548
277.174	33256
277.234	96623
277.293	50303
277.353	32297
277.413	24250
277.472	27098
277.532	28774
277.592	34123
277.651	95920
277.711	192947
277.771	75017
277.830	204360
277.890	186316
277.950	126959
278.009	320623
278.069	145182
278.128	129491
278.188	199734
278.248	95457
278.307	207130
278.367	141409
278.426	51626
278.486	36308
278.545	30540
278.605	26103
278.664	26839
278.724	30491
278.783	64065
278.843	160977
278.902	60921
278.962	42026
279.021	47541
279.081	70704
279.140	75420
279.199	53023
279.259	50104
279.318	53733
279.378	72582
279.437	127624
279.496	356819
279.556	833675
279.615	758469
279.675	278457
279.734	158147
279.793	201914
279.853	286215
279.912	120357
279.971	73323
280.031	67807
280.090	101924
280.149	181094
280.208	179272
280.268	579283
280.327	651462
280.386	216099
280.445	136218
280.505	120554
280.564	69236
280.623	56021
280.682	66837
280.742	95530
280.801	41540
280.860	33047
280.919	30659
280.978	29522
281.037	30412
281.097	27177
281.156	27506
281.215	27254
281.274	33103
281.333	103358
281.392	91121
281.451	29517
281.510	24839
281.569	25187
281.628	23220
281.688	22619
281.747	24709
281.806	27580
281.865	21185
281.924	20791
281.983	21645
282.042	17720
282.101	17883
282.160	17896
282.219	17791
282.278	21772
282.337	64417
282.396	50962
282.454	24846
282.513	29638
282.572	93274
282.631	63834
282.690	26057
282.749	22830
282.808	29123
282.867	30004
282.926	29317
282.985	19202
283.043	17860
283.102	20400
283.161	26710
283.220	53632
283.279	110931
283.338	41489
283.396	27792
283.455	26917
283.514	26985
283.573	40093
283.631	34401
283.690	25415
283.749	25660
283.808	47015
283.866	58898
283.925	28886
283.984	25799
284.043	36498
284.101	40143
284.160	31675
284.219	46345
284.277	39387
284.336	49796
284.395	128517
284.453	120096
284.512	55474
284.570	67131
284.629	65255
284.688	62506
284.746	70382
284.805	81860
284.863	102339
284.922	129678
284.981	159198
285.039	225867
285.098	372242
285.156	694121
285.215	861848
285.273	847496
285.332	749128
285.390	465157
285.449	298232
285.507	209965
285.566	156350
285.624	121167
285.683	95514
285.741	77017
285.799	66292
285.858	60930
285.916	54073
285.975	43996
286.033	38721
286.091	34819
286.150	32437
286.208	33822
286.267	39596
286.325	35918
286.383	48452
286.442	42477
286.500	27043
286.558	25226
286.616	23663
286.675	31723
286.733	30032
286.791	27819
286.850	31257
286.908	39221
286.966	58181
287.024	30909
287.083	23961
287.141	21040
287.199	22168
287.257	33730
287.315	26343
287.374	29348
287.432	57555
287.490	43965
287.548	29553
287.606	26163
287.664	23634
287.723	35825
287.781	48899
287.839	29876
287.897	32264
287.955	41244
288.013	62876
288.071	133076
288.129	395520
288.187	925865
288.245	531444
288.303	192822
288.361	109406
288.419	89067
288.477	66411
288.535	45887
288.593	36211
288.651	31114
288.709	24333
288.767	24154
288.825	23771
288.883	20570
288.941	20039
288.999	19624
289.057	19380
289.115	20656
289.173	21245
289.231	20967
289.289	22358
289.346	19556
289.404	21736
289.462	36111
289.520	37614
289.578	21972
289.636	15037
289.694	14255
289.751	14395
289.809	14711
289.867	16134
289.925	20597
289.983	25414
290.040	16237
290.098	14527
290.156	19935
290.214	22387
290.271	17373
290.329	13772
290.387	13627
290.444	12877
290.502	11443
290.560	12456
290.617	15457
290.675	15463
290.733	15511
290.790	18274
290.848	15420
290.906	18316
290.963	17935
291.021	16595
291.078	17520
291.136	20019
291.194	51894
291.251	118173
291.309	40441
291.366	19134
291.424	18249
291.481	19382
291.539	20838
291.596	22003
291.654	14944
291.711	13430
291.769	18657
291.826	39105
291.884	28438
291.941	15536
291.999	16741
292.056	19843
292.114	23269
292.171	14397
292.228	17269
292.286	22553
292.343	40802
292.401	51254
292.458	36167
292.515	23981
292.573	27454
292.630	26136
292.687	28044
292.745	23487
292.802	33038
292.859	76424
292.917	119002
292.974	74482
293.031	30268
293.089	21857
293.146	19426
293.203	17693
293.260	16996
293.318	26029
293.375	37009
293.432	23380
293.489	17380
293.546	18700
293.604	31103
293.661	74453
293.718	173440
293.775	100495
293.832	51322
293.889	44941
293.947	49115
294.004	36545
294.061	34168
294.118	55720
294.175	112797
294.232	142284
294.289	68820
294.346	35135
294.403	31476
294.460	29729
294.517	25505
294.574	22091
294.631	21882
294.688	27624
294.745	57297
294.802	181783
294.859	217945
294.916	97711
294.973	62590
295.030	44474
295.087	37917
295.144	28687
295.201	24764
295.258	22869
295.315	29457
295.372	70031
295.429	139620
295.486	67692
295.542	43632
295.599	86420
295.656	157338
295.713	105535
295.770	133552
295.827	59519
295.883	33717
295.940	30751
295.997	49202
296.054	50953
296.111	27981
296.167	20170
296.224	18695
296.281	17241
296.338	17666
296.394	18125
296.451	25406
296.508	59930
296.564	120074
296.621	86529
296.678	138213
296.734	215531
296.791	90659
296.848	47848
296.904	49878
296.961	97771
297.018	145740
297.074	119927
297.131	49028
297.187	37309
297.244	51887
297.301	129258
297.357	243874
297.414	97274
297.470	41752
297.527	31048
297.583	27168
297.640	28572
297.696	23721
297.753	19480
297.809	17505
297.866	15105
297.922	16045
297.979	17289
298.035	20930
298.092	34211
298.148	82615
298.204	88210
298.261	47904
298.317	66955
298.374	171855
298.430	114861
298.486	57326
298.543	46674
298.599	38401
298.656	39887
298.712	62338
298.768	147440
298.824	118606
298.881	43680
298.937	27693
298.993	25726
299.050	33707
299.106	30664
299.162	25715
299.218	25464
299.275	21811
299.331	26842
299.387	44888
299.443	141318
299.500	170045
299.556	73586
299.612	38349
299.668	36337
299.724	44363
299.780	49623
299.837	35220
299.893	45357
299.949	130460
300.005	171287
300.061	129935
300.117	215574
300.173	118165
300.229	56714
300.285	63453
300.341	75871
300.397	43219
300.453	28221
300.510	25947
300.566	28807
300.622	36250
300.678	80645
300.734	153827
300.790	133894
300.845	157635
300.901	106010
300.957	143491
301.013	119566
301.069	50147
301.125	36870
301.181	41407
301.237	32267
301.293	23382
301.349	20028
301.405	19672
301.461	18413
301.516	21475
301.572	26072
301.628	47519
301.684	47584
301.740	60350
301.796	97554
301.851	67529
301.907	105664
301.963	116730
302.019	154766
302.074	388514
302.130	407505
302.186	187261
302.242	82343
302.297	57367
302.353	54743
302.409	94769
302.464	90402
302.520	71802
302.576	150941
302.631	183461
302.687	110803
302.743	52147
302.798	31524
302.854	26778
302.910	28449
302.965	37798
303.021	63199
303.076	61287
303.132	70154
303.187	85374
303.243	47903
303.299	27428
303.354	22431
303.410	22391
303.465	20601
303.521	20510
303.576	22786
303.632	28604
303.687	45743
303.743	123575
303.798	119172
303.853	50939
303.909	31141
303.964	28660
304.020	39955
304.075	65371
304.130	56060
304.186	97436
304.241	102043
304.297	82986
304.352	48060
304.358	46326
304.407	32272
304.449	31043
304.463	30651
304.518	33505
304.539	32039
304.573	29764
304.629	30883
304.630	31179
304.684	45818
304.720	80009
304.739	96909
304.794	153440
304.811	132174
304.850	81605
304.902	42458
304.905	39968
304.960	29649
304.992	30396
305.015	30892
305.071	30513
305.083	29278
305.126	24798
305.173	20109
305.181	19378
305.236	16803
305.264	18686
305.292	20685
305.347	25551
305.354	25865
305.402	27828
305.445	29931
305.457	30511
305.512	38108
305.535	38719
305.567	39780
305.622	41068
305.626	42252
305.678	69910
305.716	127436
305.733	147450
305.788	178461
305.807	154822
305.843	114227
305.897	131135
305.898	131221
305.953	138162
305.988	95691
306.008	72747
306.063	46199
306.078	42245
306.118	33212
306.168	25759
306.173	25135
306.228	21647
306.259	20485
306.283	19897
306.338	20309
306.349	20743
306.393	22448
306.440	26819
306.448	27745
306.503	31028
306.530	34430
306.558	46663
306.613	102974
306.620	110837
306.668	145857
306.711	156898
306.723	155567
306.778	123610
306.801	94410
306.833	62244
306.888	34747
306.892	33765
306.943	26506
306.982	24576
306.997	24227
307.052	25454
307.072	25890
307.107	30666
307.162	45815
307.163	46065
307.217	74492
307.253	90031
307.272	91279
307.327	96370
307.343	87314
307.381	69384
307.434	58286
307.436	59529
307.491	111120
307.524	161061
307.546	169655
307.600	147854
307.614	128772
307.655	80606
307.704	47045
307.710	46190
307.765	58901
307.795	74604
307.819	89618
307.874	147726
307.885	148800
307.929	115910
307.975	73223
307.984	71818
308.038	88681
308.065	108353
308.093	175067
308.148	345769
308.156	383569
308.202	544815
308.246	651618
308.257	643017
308.312	381462
308.336	278866
308.366	210672
308.421	139480
308.426	133039
308.475	88115
308.517	66142
308.530	62004
308.585	53562
308.607	51719
308.639	54404
308.694	64980
308.697	65942
308.748	120564
308.787	181604
308.803	180645
308.857	138940
308.877	114770
308.912	93507
308.967	84265
308.967	84298
309.021	110098
309.058	134783
309.076	164667
309.130	277895
309.148	321976
309.185	508864
309.238	816540
309.239	818094
309.293	864611
309.328	804044
309.348	714581
309.402	386665
309.418	304017
309.457	220579
309.508	147741
309.511	145931
309.566	145232
309.598	151181
309.620	176823
309.674	257524
309.688	280136
309.729	265230
309.778	217208
309.783	212390
309.837	149610
309.868	118305
309.892	128536
309.946	166014
309.959	179991
310.001	212483
310.049	239165
310.055	231873
310.109	141744
310.139	89866
310.163	72147
310.218	48066
310.229	44555
310.272	39018
310.319	34745
310.326	34385
310.381	34334
310.409	34163
310.435	33534
310.489	31828
310.499	31843
310.543	34603
310.589	37279
310.598	36885
310.652	35648
310.679	33925
310.706	29227
310.760	19563
310.769	18220
310.814	16247
310.859	14778
310.868	14911
310.923	16085
310.948	16789
310.977	19421
311.031	24863
311.038	25683
311.085	24413
311.128	22042
311.139	21788
311.193	20889
311.218	20572
311.247	18859
311.301	15591
311.308	15202
311.356	16953
311.398	19012
311.410	18555
311.464	16077
311.488	14913
311.518	15527
311.572	16885
311.578	17084
311.626	22982
311.668	28276
311.680	29436
311.734	34270
311.758	36397
311.788	35170
311.842	32840
311.847	32582
311.896	43476
311.937	53212
311.950	51893
312.004	45738
312.027	42819
312.058	34717
312.112	20455
312.117	19058
312.165	19127
312.207	19253
312.297	34419
312.386	25709
312.476	23765
312.566	44764
312.656	21056
312.745	16186
312.835	20097
312.925	23123
313.015	25594
313.104	29142
313.194	15405
313.284	16388
313.374	23658
313.463	20353
313.553	15934
313.643	15155
313.732	12465
313.822	14473
313.912	18236
314.001	20841
314.091	26151
314.180	37473
314.270	28751
314.360	39587
314.449	28145
314.539	17829
314.628	16354
314.718	24483
314.808	35724
314.897	16913
314.987	16753
315.076	24071
315.166	35029
315.255	36836
315.345	31649
315.434	38694
315.524	33655
315.613	37095
315.703	41399
315.792	72037
315.881	183368
315.971	65426
316.060	74277
316.150	139367
316.239	142415
316.328	44968
316.418	18899
316.507	20340
316.597	26582
316.686	27622
316.775	63590
316.865	144903
316.954	26075
317.043	15413
317.133	16785
317.222	15313
317.311	16125
317.400	15331
317.490	26086
317.579	29556
317.668	25802
317.757	43770
317.847	114616
317.936	317113
318.025	113629
318.114	71325
318.203	42682
318.293	52663
318.382	85485
318.471	68525
318.560	103727
318.649	204995
318.738	44103
318.828	35975
318.917	38152
319.006	58721
319.095	155877
319.184	262500
319.273	133749
319.362	64236
319.451	28024
319.540	28235
319.629	63722
319.718	90326
319.807	48197
319.896	99739
319.985	305298
320.074	101581
320.163	43762
320.252	92192
320.341	59045
320.430	46043
320.519	52277
320.608	30788
320.697	27137
320.786	27470
320.875	34014
320.964	44710
321.053	67093
321.142	99180
321.230	94629
321.319	88307
321.408	178237
321.497	82240
321.586	77711
321.675	132380
321.764	110741
321.852	74383
321.941	103119
322.030	66760
322.119	89962
322.207	195810
322.296	187843
322.385	93435
322.474	94554
322.562	214207
322.651	113507
322.740	94537
322.829	144515
322.917	200649
323.006	86132
323.095	64232
323.183	66226
323.272	93522
323.361	156772
323.449	436635
323.538	153141
323.626	347327
323.715	187954
323.804	96386
323.892	327740
323.981	159705
324.069	59156
324.158	193069
324.246	155534
324.335	48489
324.424	61251
324.512	23776
324.601	30947
324.689	49089
324.778	84933
324.866	137966
324.954	36660
325.043	35537
325.131	89110
325.220	161336
325.308	182203
325.397	124499
325.485	63450
325.574	20137
325.662	17998
325.750	20569
325.839	16648
325.927	18443
326.015	31891
326.104	74557
326.192	96868
326.280	21853
326.369	22157
326.457	30822
326.545	48731
326.634	21248
326.722	14214
326.810	16975
326.898	16038
326.987	22204
327.075	54911
327.163	72516
327.251	38571
327.340	28903
327.428	30929
327.516	17180
327.604	21158
327.692	27411
327.781	40292
327.869	76533
327.957	39683
328.045	26899
328.133	17064
328.221	36904
328.309	20761
328.397	17190
328.485	23573
328.574	39725
328.662	111897
328.750	85532
328.838	39805
328.926	18316
329.014	15729
329.102	29742
329.190	77924
329.278	42942
329.366	12356
329.454	14375
329.542	15486
329.630	14174
329.718	15957
329.806	20331
329.893	20811
329.981	23753
330.069	33786
330.157	114491
330.245	239459
330.333	107666
330.421	28268
330.509	43098
330.597	135256
330.684	83675
330.772	39207
330.860	67713
330.948	77698
331.036	29541
331.123	13311
331.211	17345
331.299	26461
331.387	68291
331.475	106839
331.562	36750
331.650	17461
331.738	29199
331.825	44744
331.913	16728
332.001	16406
332.089	33380
332.176	82933
332.264	201696
332.352	130106
332.439	34539
332.527	24423
332.614	26945
332.702	40608
332.790	28165
332.877	90522
332.965	182388
333.052	44317
333.140	54359
333.228	114603
333.315	31078
333.403	34361
333.490	125889
333.578	100279
333.665	119206
333.753	50277
333.840	23719
333.928	36608
334.015	127344
334.103	155914
334.190	367786
334.278	86825
334.365	52172
334.452	31828
334.540	22601
334.627	41690
334.715	62560
334.802	131032
334.889	608448
334.977	460309
335.064	62125
335.151	29288
335.239	29933
335.326	47363
335.413	174490
335.501	190846
335.588	33287
335.675	24779
335.762	37790
335.850	61611
335.937	49769
336.024	149704
336.111	533232
336.199	189702
336.286	39978
336.373	21829
336.460	17334
336.547	18529
336.635	26970
336.722	21404
336.809	23174
336.896	40366
336.983	120591
337.070	265945
337.157	335508
337.245	363367
337.332	227082
337.419	35854
337.506	23062
337.593	30698
337.680	102148
337.767	249755
337.854	78250
337.941	98911
338.028	151795
338.115	46622
338.202	53330
338.289	120678
338.376	369238
338.463	105384
338.550	163483
338.637	146165
338.724	91829
338.811	136273
338.898	28295
338.984	18380
339.071	26246
339.158	33309
339.245	74707
339.332	45815
339.419	100485
339.506	81803
339.593	14346
339.679	14676
339.766	15526
339.853	25736
339.940	46084
340.027	18339
340.113	18679
340.200	27848
340.287	21772
340.374	28533
340.460	40789
340.547	21408
340.634	39901
340.720	128267
340.807	61274
340.894	15300
340.980	19935
341.067	16131
341.154	19179
341.240	33526
341.327	57206
341.414	21041
341.500	22519
341.587	17296
341.674	17845
341.760	44557
341.847	46244
341.933	16484
342.020	9305
342.106	9439
342.193	19357
342.279	31787
342.366	27305
342.452	41095
342.539	25824
342.625	64673
342.712	128666
342.798	50926
342.885	21744
342.971	9788
343.058	9687
343.144	11484
343.230	11957
343.317	13293
343.403	11089
343.490	9485
343.576	9026
343.662	13267
343.749	18888
343.835	28300
343.921	51780
344.008	251314
344.094	433763
344.180	94181
344.267	51994
344.353	164379
344.439	175811
344.525	66147
344.612	24917
344.698	22559
344.784	15687
344.870	11719
344.957	15135
345.043	23241
345.129	21839
345.215	39071
345.301	23641
345.387	15379
345.474	11297
345.560	14529
345.646	25061
345.732	17119
345.818	19049
345.904	17239
345.990	21533
346.076	31340
346.162	66750
346.249	21107
346.335	13458
346.421	18978
346.507	77080
346.593	188613
346.679	43622
346.765	17871
346.851	15984
346.937	15397
347.023	12622
347.108	17753
347.194	14510
347.280	14921
347.366	22938
347.452	78511
347.538	237668
347.624	174171
347.710	151302
347.796	31551
347.882	17368
347.967	16166
348.053	28115
348.139	18817
348.225	14304
348.311	12763
348.397	12955
348.482	17366
348.568	21776
348.654	12052
348.740	18245
348.825	18676
348.911	34973
348.997	133646
349.083	208003
349.168	42356
349.254	18159
349.340	16164
349.425	12611
349.511	21696
349.597	29203
349.682	56214
349.768	140519
349.854	57545
349.939	16796
350.025	13420
350.110	11248
350.196	10309
350.282	9894
350.367	13019
350.453	48589
350.538	44894
350.624	25053
350.709	21307
350.795	13271
350.880	15060
350.966	19737
351.051	43246
351.137	30869
351.222	18794
351.308	57225
351.393	117102
351.479	29587
351.564	12960
351.649	15239
351.735	11735
351.820	10698
351.906	14304
351.991	31539
352.076	97094
352.162	108594
352.247	24470
352.332	19882
352.418	37547
352.503	54144
352.588	186839
352.673	131141
352.759	32706
352.844	17052
352.929	22442
353.014	28615
353.100	19788
353.185	37299
353.270	54980
353.355	45141
353.441	17582
353.526	29967
353.611	52355
353.696	49230
353.781	28580
353.866	13970
353.952	18019
354.037	51866
354.122	99270
354.207	86284
354.292	30414
354.377	14836
354.462	13982
354.547	20948
354.632	21377
354.717	36481
354.802	40382
354.887	15257
354.972	11347
355.057	10077
355.142	11234
355.227	17619
355.312	33268
355.397	74521
355.482	155959
355.567	70446
355.652	57648
355.737	65009
355.822	177298
355.907	115240
355.991	21361
356.076	14127
356.161	13639
356.246	12366
356.331	17401
356.416	56104
356.501	280152
356.585	230485
356.670	39003
356.755	27454
356.840	50781
356.924	236219
357.009	614722
357.094	200356
357.179	54926
357.263	37195
357.348	40151
357.433	39810
357.517	34240
357.602	26252
357.687	21883
357.771	30388
357.856	41857
357.941	42649
358.025	174954
358.110	562151
358.195	220529
358.279	41907
358.364	39263
358.448	141684
358.533	318514
358.617	222712
358.702	216829
358.787	76210
358.871	49203
358.956	36837
359.040	14222
359.125	11427
359.209	13788
359.294	23874
359.378	31482
359.462	36671
359.547	27368
359.631	25720
359.716	13506
359.800	17512
359.885	30543
359.969	19236
360.053	15607
360.138	18143
360.222	27583
360.306	48715
360.391	35730
360.475	54109
360.559	101884
360.644	128264
360.728	90180
360.812	178246
360.896	370167
360.981	167282
361.065	91386
361.149	26588
361.233	26920
361.318	23211
361.402	25509
361.486	22050
361.570	17752
361.654	27546
361.739	77284
361.823	288484
361.907	338020
361.991	62664
362.075	49872
362.159	97630
362.243	64128
362.327	66976
362.411	72016
362.495	46976
362.580	23934
362.664	16888
362.748	16928
362.832	22552
362.916	42933
363.000	133839
363.084	360585
363.168	413863
363.252	96548
363.336	44586
363.420	70976
363.503	243493
363.587	228673
363.671	44548
363.755	36879
363.839	46696
363.923	24123
364.007	56248
364.091	67179
364.175	115742
364.258	349389
364.342	231166
364.426	229277
364.510	116160
364.594	68223
364.677	103820
364.761	352254
364.845	199023
364.929	84544
365.013	65890
365.096	60992
365.180	68735
365.264	115740
365.347	338169
365.431	136046
365.515	44888
365.598	22385
365.682	21059
365.766	49326
365.849	54667
365.933	31030
366.017	41213
366.100	31906
366.184	17575
366.267	20118
366.351	15837
366.435	14062
366.518	10557
366.602	11813
366.685	15466
366.769	19649
366.852	44392
366.936	66180
367.019	34113
367.103	36189
367.186	62295
367.270	18748
367.353	12212
367.436	15399
367.520	13939
367.603	21189
367.687	35936
367.770	57332
367.853	36431
367.937	115646
368.020	154001
368.104	41248
368.187	47069
368.270	60132
368.353	55539
368.437	115791
368.520	292450
368.603	137753
368.687	149589
368.770	209849
368.853	54172
368.936	65468
369.020	60853
369.103	22542
369.186	17391
369.269	19371
369.352	42913
369.436	57590
369.519	35175
369.602	16974
369.685	20978
369.768	23857
369.851	20223
369.934	14358
370.018	25939
370.101	51260
370.184	37395
370.267	31313
370.350	52056
370.433	85043
370.516	204186
370.599	226374
370.682	88783
370.765	133224
370.848	168284
370.931	275041
371.014	98183
371.097	25451
371.180	17561
371.263	12126
371.346	11010
371.429	13804
371.511	18036
371.594	36095
371.677	56671
371.760	66263
371.843	56812
371.926	241728
372.009	428865
372.091	132361
372.174	134538
372.257	245435
372.340	90823
372.423	100159
372.505	107322
372.588	48549
372.671	109326
372.754	275829
372.836	119025
372.919	129300
373.002	213774
373.085	62954
373.167	56373
373.250	136140
373.332	255286
373.415	357654
373.498	609761
373.580	224718
373.663	377051
373.746	387738
373.828	91804
373.911	47678
373.993	65050
374.076	228901
374.159	197616
374.241	103802
374.324	242345
374.406	140969
374.489	228781
374.571	506440
374.654	186738
374.736	129679
374.819	349069
374.901	476104
374.983	411321
375.066	72655
375.148	45902
375.231	191056
375.313	306179
375.395	112361
375.478	28789
375.560	22668
375.643	35398
375.725	141606
375.807	451338
375.890	392324
375.972	237620
376.054	133251
376.136	240802
376.219	94232
376.301	159131
376.383	354462
376.465	123013
376.548	97995
376.630	133231
376.712	312567
376.794	117818
376.877	19727
376.959	15382
377.041	22386
377.123	57806
377.205	58912
377.287	14279
377.369	13416
377.452	16289
377.534	14696
377.616	16232
377.698	15487
377.780	13196
377.862	16852
377.944	15152
378.026	11185
378.108	12694
378.190	12219
378.272	11251
378.354	9807
378.436	12289
378.518	37681
378.600	113619
378.682	88195
378.764	170899
378.846	110245
378.928	44217
379.010	52831
379.091	26507
379.173	15393
379.255	16577
379.337	27604
379.419	98994
379.501	224673
379.583	79394
379.664	31319
379.746	73593
379.828	171482
379.910	221424
379.991	163944
380.073	33256
380.155	25134
380.237	17924
380.318	13555
380.400	19224
380.482	45811
380.564	62804
380.645	64451
380.727	53344
380.809	30235
380.890	24360
380.972	19315
381.053	18926
381.135	26054
381.217	72425
381.298	167673
381.380	78084
381.461	94114
381.543	351080
381.624	334601
381.706	64169
381.787	43790
381.869	50370
381.951	172449
382.032	499366
382.113	265050
382.195	73998
382.276	58236
382.358	132245
382.439	290190
382.521	328931
382.602	450510
382.684	239951
382.765	474310
382.846	596885
382.928	894119
383.009	456680
383.090	428656
383.172	1349282
383.253	1601136
383.334	557895
383.416	483878
383.497	235591
383.578	174231
383.659	375501
383.741	1242591
383.822	2310333
383.903	1069107
383.984	431641
384.066	562805
384.147	308109
384.228	81061
384.309	67295
384.390	49392
384.471	39727
384.553	44368
384.634	60527
384.715	54145
384.796	32752
384.877	51550
384.958	165701
385.039	170319
385.120	60279
385.201	34823
385.282	49417
385.363	55505
385.444	46563
385.525	81449
385.606	230855
385.687	161447
385.768	55890
385.849	79308
385.930	259878
386.011	348905
386.092	87540
386.173	31074
386.254	28882
386.335	31408
386.416	38761
386.496	115179
386.577	157434
386.658	67750
386.739	46320
386.820	46566
386.901	40615
386.981	31347
387.062	22636
387.143	53561
387.224	170148
387.304	137795
387.385	56608
387.466	44473
387.547	52697
387.627	35190
387.708	83543
387.789	301002
387.869	302618
387.950	72525
388.031	22425
388.111	30005
388.192	81881
388.273	113984
388.353	59542
388.434	31988
388.514	73669
388.595	265153
388.676	298349
388.756	149042
388.837	154742
388.917	80853
388.998	25055
389.078	22654
389.159	21583
389.239	20612
389.320	32768
389.400	32699
389.480	81450
389.561	172024
389.641	70856
389.722	36259
389.802	55341
389.883	87718
389.963	204218
390.043	139464
390.124	61673
390.204	77414
390.284	189531
390.365	116784
390.445	201615
390.525	415422
390.605	281377
390.686	85353
390.766	31129
390.846	19279
390.927	16112
391.007	20172
391.087	25462
391.167	26011
391.247	24910
391.328	58115
391.408	70811
391.488	41962
391.568	18895
391.648	29239
391.728	36209
391.808	36166
391.888	44209
391.969	103335
392.049	140873
392.129	71332
392.209	94449
392.289	185664
392.369	101207
392.449	113955
392.529	67861
392.609	53151
392.689	78255
392.769	197128
392.849	149943
392.929	146708
393.009	301130
393.089	219930
393.169	254384
393.248	815801
393.328	2181041
393.408	1954947
393.488	566253
393.568	183402
393.648	96138
393.728	64233
393.807	47789
393.887	41466
393.967	37352
394.047	43920
394.127	52041
394.206	89013
394.286	326777
394.366	1102623
394.446	961430
394.525	215490
394.605	65770
394.685	69374
394.764	158498
394.844	252636
394.924	153318
395.003	48366
395.083	35008
395.163	30318
395.242	30854
395.322	30215
395.402	23875
395.481	35709
395.561	119831
395.640	272815
395.720	197777
395.799	285538
395.879	199239
395.958	132366
396.038	470197
396.117	1431885
396.197	1307031
396.276	399734
396.356	160419
396.435	129325
396.515	90962
396.594	112917
396.673	232690
396.753	826935
396.832	1917496
396.912	1251383
396.991	315608
397.070	99280
397.150	58233
397.229	43920
397.308	60382
397.388	81229
397.467	40182
397.546	24126
397.625	22156
397.705	29540
397.784	31711
397.863	18655
397.942	15689
398.022	23100
398.101	101588
398.180	245331
398.259	119138
398.338	34119
398.417	25017
398.497	19972
398.576	21049
398.655	14704
398.734	13661
398.813	18717
398.892	95064
398.971	259487
399.050	108190
399.129	17593
399.208	11890
399.287	11759
399.366	10461
399.445	12859
399.524	13247
399.603	13946
399.682	34553
399.761	99434
399.840	279033
399.919	177361
399.998	26934
400.077	10704
400.156	10512
400.235	16743
400.313	16330
400.392	27668
400.471	101181
400.550	129291
400.629	36108
400.708	20689
400.786	27733
400.865	72674
400.944	70143
401.023	26446
401.102	9082
401.180	10410
401.259	14842
401.338	20444
401.416	23408
401.495	20686
401.574	18213
401.652	16739
401.731	23470
401.810	22130
401.888	11329
401.967	8158
402.046	11242
402.124	21693
402.203	30166
402.281	15554
402.360	29964
402.438	84611
402.517	56772
402.596	22577
402.674	22872
402.753	14398
402.831	13110
402.910	20314
402.988	88238
403.066	215459
403.145	96468
403.223	79625
403.302	168541
403.380	117824
403.459	114982
403.537	44472
403.615	20290
403.694	7613
403.772	7894
403.850	6873
403.929	7628
404.007	11951
404.085	28797
404.164	28442
404.242	11362
404.320	15454
404.398	31109
404.477	112955
404.555	415749
404.633	281579
404.711	40314
404.789	15782
404.868	14092
404.946	9246
405.024	6784
405.102	7877
405.180	6685
405.258	7718
405.336	10050
405.415	14162
405.493	33112
405.571	25344
405.649	10247
405.727	11852
405.805	20592
405.883	18635
405.961	22149
406.039	27934
406.117	12859
406.195	26488
406.273	127331
406.351	355231
406.429	170989
406.507	38598
406.585	15759
406.663	15897
406.740	20788
406.818	18686
406.896	11965
406.974	14221
407.052	48057
407.130	233970
407.208	254692
407.285	44551
407.363	13025
407.441	12529
407.519	10326
407.596	15045
407.674	33021
407.752	71047
407.830	84702
407.907	45646
407.985	17809
408.063	9543
408.141	9723
408.218	25750
408.296	24878
408.373	16531
408.451	16462
408.529	14374
408.606	7244
408.684	6044
408.762	5395
408.839	4254
408.917	5091
408.994	6413
409.072	7355
409.149	7954
409.227	14331
409.304	18171
409.382	14406
409.459	17790
409.537	23733
409.614	20488
409.692	14386
409.769	16508
409.846	27183
409.924	33424
410.001	24243
410.079	15467
410.156	13450
410.233	12253
410.311	10703
410.388	9799
410.465	12159
410.543	11523
410.620	9123
410.697	12169
410.775	14825
410.852	8662
410.929	15658
411.006	18583
411.083	13528
411.161	29156
411.238	30998
411.315	19147
411.392	10116
411.469	14940
411.547	14791
411.624	9027
411.701	9385
411.778	14973
411.855	31048
411.932	15983
412.009	9158
412.086	9382
412.163	14710
412.240	16751
412.317	20942
412.394	17855
412.471	6706
412.548	6940
412.625	9345
412.702	17331
412.779	28614
412.856	15099
412.933	8037
413.010	7432
413.087	22402
413.164	93865
413.241	104242
413.318	25708
413.395	20313
413.471	27021
413.548	11479
413.625	9921
413.702	17193
413.779	11507
413.855	4813
413.932	3976
414.009	5566
414.086	5308
414.162	7385
414.239	22123
414.316	100634
414.393	169090
414.469	49740
414.546	7949
414.623	6618
414.699	7395
414.776	11203
414.853	8033
414.929	9566
415.006	10913
415.082	16114
415.159	10632
415.236	8029
415.312	10015
415.389	23138
415.465	28605
415.542	12954
415.618	10644
415.695	19419
415.771	13652
415.848	12981
415.924	11842
416.000	11176
416.077	6796
416.153	3777
416.230	3312
416.306	5874
416.383	9886
416.459	6278
416.535	4886
416.612	6647
416.688	7025
416.764	7739
416.841	7371
416.917	8982
416.993	8406
417.069	13334
417.146	17985
417.222	20537
417.298	11613
417.374	9106
417.451	10219
417.527	15273
417.603	13648
417.679	10856
417.755	8404
417.831	4183
417.908	4881
417.984	5226
418.060	8134
418.136	27810
418.212	29681
418.288	11139
418.364	7244
418.440	9977
418.516	16561
418.592	30801
418.668	48034
418.744	59715
418.820	38304
418.896	10951
418.972	5550
419.048	10375
419.124	28253
419.200	18794
419.276	6017
419.352	3869
419.428	5556
419.504	9697
419.579	12062
419.655	9502
419.731	12566
419.807	44229
419.883	71400
419.959	42317
420.034	14943
420.110	38334
420.186	118675
420.262	70781
420.337	17490
420.413	14046
420.489	6942
420.565	6987
420.640	7608
420.716	8781
420.792	5563
420.867	7850
420.943	8871
421.019	18966
421.094	13417
421.170	6902
421.245	6268
421.321	8264
421.397	9884
421.472	16653
421.548	33891
421.623	26129
421.699	13889
421.774	15810
421.850	16177
421.925	27194
422.001	22513
422.076	18487
422.152	22834
422.227	36821
422.302	39799
422.378	59815
422.453	114745
422.529	291480
422.604	738923
422.679	999801
422.755	626258
422.830	224003
422.905	89961
422.981	52113
423.056	34603
423.131	26333
423.207	21336
423.282	26413
423.357	43237
423.432	27351
423.508	32993
423.583	65123
423.658	39906
423.733	18676
423.808	22335
423.883	22810
423.959	20635
424.034	16269
424.109	13077
424.184	8555
424.259	6949
424.334	6770
424.409	5417
424.484	8456
424.559	10173
424.634	9159
424.709	14651
424.784	17042
424.859	11504
424.934	26482
425.009	91365
425.084	123813
425.159	38481
425.234	9494
425.309	5232
425.384	10597
425.459	10875
425.534	9108
425.609	11030
425.683	8060
425.758	6404
425.833	9096
425.908	15855
425.983	63573
426.058	135787
426.132	50105
426.207	16528
426.282	28060
426.357	23578
426.431	9179
426.506	8644
426.581	10223
426.655	8548
426.730	7901
426.805	7504
426.879	9053
426.954	10678
427.029	32792
427.103	153702
427.178	296270
427.253	104600
427.327	18855
427.402	24671
427.476	40398
427.551	16252
427.625	14705
427.700	13736
427.774	9752
427.849	13430
427.923	8755
427.998	9316
428.072	13367
428.147	32495
428.221	128053
428.296	259840
428.370	100485
428.444	23404
428.519	37497
428.593	69764
428.667	55826
428.742	72196
428.816	72328
428.890	211169
428.965	231057
429.039	84934
429.113	77698
429.188	26160
429.262	10960
429.336	26039
429.410	69770
429.485	42354
429.559	58385
429.633	40977
429.707	17153
429.781	56577
429.855	253439
429.930	289482
430.004	196580
430.078	298658
430.152	245845
430.226	356712
430.300	257668
430.374	41282
430.448	26650
430.522	107914
430.596	261585
430.670	156565
430.744	349561
430.818	379138
430.892	71304
430.966	17338
431.040	9532
431.114	7037
431.188	8262
431.262	9944
431.336	11875
431.410	36793
431.484	88144
431.557	44258
431.631	10103
431.705	14222
431.779	69515
431.853	228163
431.927	118568
432.000	15406
432.074	9426
432.148	16725
432.222	13161
432.295	6800
432.369	7365
432.443	25906
432.516	153469
432.590	290082
432.664	89194
432.737	13824
432.811	5976
432.885	3729
432.958	3744
433.032	4954
433.106	3312
433.179	2684
433.253	3062
433.326	2707
433.400	2997
433.473	4027
433.547	3248
433.620	6024
433.694	17227
433.767	17266
433.841	9837
433.914	3283
433.988	3512
434.061	4718
434.134	4917
434.208	3426
434.281	2192
434.355	3662
434.428	4692
434.501	3436
434.575	5566
434.648	6347
434.721	4129
434.795	3381
434.868	2728
434.941	2890
435.014	3479
435.088	4570
435.161	10103
435.234	19126
435.307	21176
435.381	11789
435.454	11333
435.527	14355
435.600	13268
435.673	9996
435.746	6384
435.819	5643
435.892	5746
435.966	4622
436.039	6214
436.112	5887
436.185	3700
436.258	2666
436.331	2531
436.404	2142
436.477	1729
436.550	2084
436.623	3476
436.696	3171
436.769	5769
436.842	5792
436.915	8632
436.987	13211
437.060	5765
437.133	2532
437.206	3879
437.279	4672
437.352	4009
437.425	3882
437.498	6888
437.570	17715
437.643	13885
437.716	4370
437.789	4514
437.861	15331
437.934	34436
438.007	12773
438.080	5105
438.152	7892
438.225	28080
438.298	187751
438.370	383765
438.443	128587
438.516	30417
438.588	8567
438.661	5743
438.734	5909
438.806	9660
438.879	9262
438.951	12103
439.024	17646
439.096	7336
439.169	3915
439.241	4555
439.314	5597
439.386	16187
439.459	28079
439.531	37408
439.604	11862
439.676	4634
439.749	3377
439.821	3661
439.893	4325
439.966	7531
440.038	9892
440.110	9444
440.183	6115
440.255	5694
440.327	14663
440.400	90191
440.472	274316
440.544	135906
440.617	20511
440.689	14766
440.761	21705
440.833	30377
440.905	16100
440.978	5268
441.050	3439
441.122	4507
441.194	3422
441.266	4387
441.338	5272
441.411	18571
441.483	95584
441.555	107794
441.627	24324
441.699	20697
441.771	22629
441.843	8384
441.915	4310
441.987	4358
442.059	4671
442.131	10823
442.203	18199
442.275	20132
442.347	15232
442.419	26738
442.491	127013
442.563	230781
442.635	93923
442.706	84599
442.778	53087
442.850	10780
442.922	6520
442.994	12595
443.066	17820
443.137	13374
443.209	10838
443.281	17869
443.353	44508
443.425	175336
443.496	466274
443.568	364911
443.640	118166
443.711	28177
443.783	12944
443.855	8847
443.926	6298
443.998	10445
444.070	14338
444.141	12973
444.213	18294
444.285	20952
444.356	25573
444.428	23241
444.499	8780
444.571	5112
444.642	5413
444.714	9020
444.785	16954
444.857	26881
444.928	61691
445.000	34034
445.071	45086
445.143	46291
445.214	26071
445.285	50035
445.357	142026
445.428	378557
445.500	643770
445.571	385537
445.642	178994
445.714	98373
445.785	91000
445.856	29010
445.928	22167
445.999	17777
446.070	13323
446.141	16293
446.213	19031
446.284	11764
446.355	14807
446.426	10064
446.497	10500
446.569	22358
446.640	29106
446.711	17556
446.782	10322
446.853	23019
446.924	18848
446.995	10372
447.066	12690
447.138	23911
447.209	11718
447.280	3677
447.351	3172
447.422	4280
447.493	10351
447.564	14315
447.635	16218
447.706	6556
447.777	3327
447.847	3427
447.918	5345
447.989	12035
448.060	19337
448.131	45223
448.202	33069
448.273	20866
448.344	9297
448.414	5997
448.485	5291
448.556	4820
448.627	2432
448.698	3729
448.768	3631
448.839	7765
448.910	21070
448.981	16940
449.051	6357
449.122	3783
449.193	3355
449.263	5245
449.334	4469
449.405	9521
449.475	23300
449.546	16702
449.616	24885
449.687	18392
449.758	6601
449.828	5387
449.899	4505
449.969	3672
450.040	5132
450.110	14109
450.181	15880
450.251	5604
450.322	4998
450.392	6137
450.463	5336
450.533	5165
450.604	5105
450.674	5245
450.744	5994
450.815	5288
450.885	4845
450.955	3856
451.026	4110
451.096	6941
451.166	9629
451.237	30652
451.307	60236
451.377	20968
451.447	5726
451.518	4759
451.588	5100
451.658	6292
451.728	16801
451.799	70456
451.869	64830
451.939	14455
452.009	5807
452.079	4759
452.149	5741
452.219	21005
452.289	77662
452.360	47273
452.430	10649
452.500	10252
452.570	12145
452.640	19218
452.710	59380
452.780	74306
452.850	47060
452.920	37713
452.990	13733
453.060	9835
453.129	14707
453.199	22916
453.269	92551
453.339	157812
453.409	223135
453.479	263388
453.549	362038
453.619	370353
453.688	126275
453.758	23276
453.828	9930
453.898	8288
453.968	6777
454.037	6448
454.087	5995
454.107	5771
454.168	5363
454.177	5258
454.247	4928
454.249	4994
454.316	5859
454.330	7048
454.386	11174
454.411	22694
454.456	40718
454.492	45849
454.525	50466
454.574	25539
454.595	14841
454.655	8111
454.665	7184
454.734	11719
454.736	12269
454.804	26908
454.817	36732
454.873	73089
454.898	75813
454.943	78696
454.979	56793
455.013	37953
455.060	21034
455.082	14802
455.141	19014
455.152	19018
455.221	55241
455.222	55917
455.291	81354
455.303	73057
455.360	36915
455.384	34384
455.430	30919
455.465	33829
455.499	34698
455.546	57072
455.569	65499
455.627	38849
455.638	34492
455.707	9814
455.708	9844
455.777	7541
455.789	7657
455.846	7843
455.869	7104
455.916	5820
455.950	6873
455.985	7610
456.031	7234
456.054	6953
456.112	5291
456.124	5074
456.193	6188
456.193	6140
456.262	9789
456.274	10955
456.332	15240
456.355	17429
456.401	19578
456.436	15282
456.470	11169
456.516	7022
456.540	5395
456.597	4899
456.609	4808
456.678	5284
456.678	5250
456.747	4420
456.759	4442
456.817	4797
456.840	4828
456.886	4814
456.920	5290
456.955	6132
457.001	7065
457.024	8610
457.082	14160
457.093	14939
457.162	23934
457.163	24064
457.232	30688
457.243	28411
457.301	14483
457.324	10572
457.370	6723
457.405	6504
457.439	6514
457.485	7339
457.508	7804
457.566	8756
457.577	9032
457.646	11827
457.647	11906
457.715	20833
457.727	22838
457.784	35251
457.808	44092
457.853	55094
457.889	60409
457.922	55820
457.969	38181
457.991	39746
458.050	54701
458.060	57235
458.129	92133
458.130	93013
458.198	82178
458.211	74294
458.267	38792
458.292	26928
458.336	20717
458.372	20272
458.405	28288
458.453	42342
458.474	53828
458.533	96862
458.543	100451
458.611	149115
458.614	149701
458.680	80654
458.694	63398
458.749	30751
458.775	21858
458.818	15659
458.855	13397
458.887	12329
458.936	11151
458.955	10802
459.016	11530
459.024	11622
459.093	11901
459.097	11910
459.162	12205
459.177	12644
459.230	14350
459.257	15434
459.299	15950
459.338	15577
459.368	15736
459.418	16854
459.437	16222
459.499	12979
459.505	12851
459.574	11390
459.579	11337
459.643	10985
459.659	10973
459.711	11186
459.740	11763
459.780	13416
459.820	14962
459.849	15227
459.900	15734
459.917	15606
459.981	15156
459.986	15058
460.054	12339
460.061	12221
460.123	14093
460.141	14743
460.191	18274
460.222	21011
460.260	23896
460.302	27635
460.328	25366
460.382	17457
460.397	16901
460.462	14930
460.465	14942
460.534	17250
460.543	17553
460.602	33065
460.623	39267
460.671	55731
460.703	70916
460.739	66520
460.783	52637
460.808	43151
460.864	15755
460.876	14241
460.944	13999
460.945	13977
461.013	13756
461.024	13761
461.081	15005
461.104	15834
461.150	15109
461.184	14252
461.218	14055
461.264	13082
461.286	13084
461.345	13830
461.355	13783
461.423	13672
461.425	13670
461.491	14941
461.505	15252
461.559	33829
461.585	42955
461.628	69666
461.665	96952
461.696	107819
461.745	133505
461.764	117779
461.825	35442
461.832	33396
461.901	19063
461.905	18840
461.969	16373
461.985	15609
462.037	14233
462.065	13794
462.105	17454
462.145	21463
462.173	32165
462.225	52734
462.241	58368
462.305	87812
462.310	85589
462.378	45260
462.385	39295
462.446	21618
462.465	18175
462.514	16848
462.545	17080
462.582	16099
462.625	14815
462.650	14463
462.705	13867
462.718	14532
462.785	18107
462.786	18314
462.854	30031
462.865	32356
462.922	41309
462.945	44818
462.990	32662
463.025	20012
463.058	16801
463.104	14006
463.126	13683
463.184	13674
463.194	13924
463.262	15582
463.264	15656
463.330	16508
463.344	16546
463.398	18727
463.424	19843
463.466	20134
463.504	20775
463.533	21472
463.583	21937
463.601	22763
463.663	25459
463.669	26235
463.737	35543
463.743	36490
463.805	59696
463.823	66097
463.873	98677
463.903	120271
463.940	127616
463.982	137768
464.008	111000
464.062	42485
464.076	38235
464.142	17777
464.144	17590
464.211	16000
464.221	15915
464.279	18074
464.301	18904
464.347	21567
464.381	23694
464.414	27224
464.461	32000
464.482	32961
464.540	36246
464.550	35001
464.617	24004
464.620	23595
464.685	26247
464.699	27041
464.753	29713
464.779	31036
464.820	31787
464.859	32183
464.888	33173
464.938	34661
464.956	35218
465.018	37969
465.023	37222
465.091	25589
465.098	24365
465.158	23632
465.177	23488
465.226	25153
465.257	26179
465.293	28196
465.336	30461
465.361	33653
465.416	40919
465.428	44253
465.495	62135
465.496	62492
465.563	103521
465.575	110820
465.631	133340
465.654	143272
465.698	89388
465.734	40758
465.765	34053
465.813	25135
465.833	24695
465.893	25059
465.900	25089
465.968	25148
465.972	25121
466.035	25802
466.052	25895
466.102	26517
466.131	26819
466.170	27266
466.210	27725
466.237	28589
466.290	30034
466.304	30449
466.369	32064
466.372	32201
466.439	34592
466.449	34874
466.506	39057
466.528	40571
466.573	59263
466.607	73181
466.641	109794
466.687	160593
466.708	177548
466.766	224782
466.775	207993
466.842	77379
466.845	71042
466.909	48687
466.925	43592
466.977	40544
467.004	39011
467.044	39341
467.083	39546
467.111	42175
467.163	46932
467.178	48035
467.242	52186
467.245	52156
467.312	49510
467.321	49067
467.379	47832
467.400	47240
467.446	51408
467.480	54251
467.559	47633
467.638	39509
467.717	42483
467.796	49470
467.875	57123
467.955	49999
468.034	75156
468.113	181307
468.192	262415
468.271	71695
468.350	44073
468.429	50009
468.508	52196
468.588	43405
468.667	42091
468.746	46393
468.825	43438
468.904	35080
468.983	44556
469.062	74587
469.141	91778
469.220	35915
469.299	33381
469.378	35994
469.456	37355
469.535	36864
469.614	37513
469.693	41097
469.772	58383
469.851	83603
469.930	60201
470.009	40466
470.088	42365
470.166	57879
470.245	96736
470.324	125575
470.403	90431
470.482	57820
470.560	45518
470.639	46274
470.718	53380
470.797	42318
470.875	50219
470.954	74056
471.033	80089
471.111	30173
471.190	27491
471.269	25350
471.347	28294
471.426	30395
471.505	33498
471.583	34455
471.662	30911
471.740	29072
471.819	28947
471.898	27739
471.976	28399
472.055	28807
472.133	33715
472.212	48675
472.290	52680
472.369	32618
472.447	26597
472.526	25159
472.604	28086
472.683	33057
472.761	39078
472.839	32965
472.918	30434
472.996	31566
473.075	39160
473.153	37567
473.231	31027
473.310	39084
473.388	37319
473.466	33953
473.545	38029
473.623	56363
473.701	57848
473.780	32581
473.858	31983
473.936	36165
474.014	31294
474.093	37616
474.171	62983
474.249	90046
474.327	59459
474.405	28609
474.484	28208
474.562	31038
474.640	29674
474.718	33215
474.796	33584
474.874	29086
474.952	26798
475.030	28183
475.108	30591
475.187	35733
475.265	41290
475.343	68471
475.421	79248
475.499	34305
475.577	34109
475.655	48212
475.733	111654
475.811	206574
475.889	181579
475.966	121413
476.044	35826
476.122	51011
476.200	70725
476.278	52298
476.356	29082
476.434	32942
476.512	45799
476.590	67537
476.667	53910
476.745	28050
476.823	29972
476.901	29124
476.979	31152
477.056	29621
477.134	31764
477.212	33016
477.290	29861
477.367	24543
477.445	24534
477.523	25112
477.601	26584
477.678	27276
477.756	37851
477.834	44053
477.911	27869
477.989	28437
478.066	28580
478.144	34392
478.222	48286
478.299	85732
478.377	76681
478.454	26556
478.532	24726
478.609	28701
478.687	31401
478.764	25692
478.842	29349
478.919	35127
478.997	31621
479.074	26174
479.152	35569
479.229	49232
479.307	31370
479.384	21097
479.461	21772
479.539	26980
479.616	36486
479.694	28953
479.771	31924
479.848	36496
479.926	54658
480.003	59177
480.080	26652
480.157	24173
480.235	24545
480.312	26685
480.389	31938
480.467	62975
480.544	80621
480.621	36529
480.698	30924
480.775	37312
480.853	38669
480.930	28736
481.007	28745
481.084	35015
481.161	37493
481.238	35701
481.315	23940
481.392	24598
481.470	25977
481.547	28103
481.624	26814
481.701	25586
481.778	27891
481.855	35018
481.932	58851
482.009	103490
482.086	74774
482.163	33547
482.240	58405
482.317	113822
482.393	87348
482.470	32464
482.547	32209
482.624	28735
482.701	30404
482.778	30211
482.855	24288
482.932	22845
483.009	23816
483.085	28718
483.162	35137
483.239	35296
483.316	29177
483.393	27908
483.469	27573
483.546	35991
483.623	39280
483.699	28506
483.776	29423
483.853	36315
483.930	54034
484.006	157707
484.083	262844
484.160	105934
484.236	105104
484.313	87276
484.389	68135
484.466	60455
484.543	58010
484.619	61758
484.696	67498
484.772	72453
484.849	77001
484.925	57369
485.002	52462
485.078	59220
485.155	63252
485.231	51249
485.308	51355
485.384	56836
485.461	76613
485.537	158934
485.614	197319
485.690	64719
485.766	53936
485.843	60029
485.919	98040
485.995	108283
486.072	50178
486.148	46890
486.224	48259
486.301	52664
486.377	66014
486.453	67342
486.530	58198
486.606	70422
486.682	82598
486.758	125594
486.835	159122
486.911	119346
486.987	209010
487.063	236179
487.139	291677
487.215	190382
487.292	79704
487.368	63561
487.444	72905
487.520	91145
487.596	91358
487.672	139086
487.748	373202
487.824	576039
487.900	220989
487.976	89475
488.052	80311
488.128	91996
488.204	76155
488.280	62521
488.356	75601
488.432	192599
488.508	311265
488.584	101323
488.660	57371
488.736	56538
488.812	61482
488.888	79511
488.964	112456
489.039	277707
489.115	449958
489.191	262824
489.267	63728
489.343	54824
489.418	44080
489.494	41698
489.570	39344
489.646	44702
489.722	45507
489.797	49306
489.873	89107
489.949	224087
490.024	198082
490.100	49709
490.176	44889
490.251	63973
490.327	90373
490.403	50938
490.478	38874
490.554	34059
490.629	36819
490.705	37098
490.781	42902
490.856	44457
490.932	53164
491.007	56343
491.083	52493
491.158	48059
491.234	65449
491.309	168865
491.385	186748
491.460	53831
491.536	53336
491.611	47187
491.686	54079
491.762	79239
491.837	181607
491.913	317560
491.988	450613
492.063	573458
492.139	160102
492.214	87357
492.289	38828
492.365	39229
492.440	48286
492.515	51591
492.590	47255
492.666	37122
492.741	59163
492.816	99558
492.891	53499
492.967	33325
493.042	30860
493.117	29867
493.192	31606
493.267	42976
493.342	81659
493.418	95280
493.493	37727
493.568	29102
493.643	32099
493.718	48772
493.793	86403
493.868	97557
493.943	55535
494.018	36070
494.093	34328
494.168	35338
494.243	29535
494.318	28151
494.393	27161
494.468	27746
494.543	29366
494.618	39379
494.693	33025
494.768	33631
494.842	34360
494.917	27531
494.992	32433
495.067	29181
495.142	28826
495.217	34284
495.292	35546
495.366	44764
495.441	56490
495.516	71287
495.591	104390
495.665	392626
495.740	967460
495.815	418240
495.890	64190
495.964	43486
496.039	42876
496.114	38638
496.188	41960
496.263	43905
496.338	39752
496.412	48884
496.487	59802
496.561	65457
496.636	66999
496.710	47834
496.785	57560
496.860	66808
496.934	50622
497.009	51689
497.083	49407
497.158	51532
497.232	66337
497.307	85427
497.381	66460
497.455	82551
497.530	114793
497.604	78427
497.679	81221
497.753	130447
497.827	175447
497.902	150908
497.976	161761
498.050	349819
498.125	1323774
498.199	1425606
498.273	260048
498.348	182985
498.422	143814
498.496	137180
498.570	124393
498.645	93782
498.719	91696
498.793	106929
498.867	161335
498.941	210489
499.016	541857
499.090	1462873
499.164	582475
499.238	73124
499.312	60353
499.386	73169
499.460	68543
499.534	64644
499.609	78479
499.683	117225
499.757	113061
499.831	233204
499.905	965702
499.979	979518
500.053	164955
500.127	163987
500.201	118273
500.275	68193
500.349	62267
500.422	73601
500.496	112234
500.570	240134
500.644	572907
500.718	1052935
500.792	269057
500.866	64050
500.940	78153
501.013	69625
501.087	66852
501.161	115872
501.235	155491
501.309	330061
501.382	925518
501.456	861614
501.530	194726
501.603	311352
501.677	132164
501.751	51814
501.825	62096
501.898	122617
501.972	378291
502.046	261971
502.119	67632
502.193	163614
502.266	414379
502.340	220210
502.413	172554
502.487	369358
502.561	230929
502.634	75031
502.708	52347
502.781	45684
502.855	35531
502.928	31228
503.002	31199
503.075	32174
503.149	38020
503.222	39337
503.295	44021
503.369	55759
503.442	79481
503.516	280452
503.589	765800
503.662	526690
503.736	153512
503.809	336248
503.882	297161
503.956	364153
504.029	372983
504.102	249570
504.175	311282
504.249	129638
504.322	73910
504.395	60760
504.468	39543
504.542	39554
504.615	29866
504.688	27494
504.761	27897
504.834	39383
504.907	51426
504.980	86730
505.053	42507
505.127	51076
505.200	58350
505.273	63136
505.346	39937
505.419	28487
505.492	25642
505.565	20144
505.638	21470
505.711	22270
505.784	23108
505.857	21594
505.930	25465
506.003	24567
506.076	29050
506.149	43255
506.221	59759
506.294	48768
506.367	134804
506.440	482314
506.513	287921
506.586	64846
506.659	36983
506.731	28671
506.804	40549
506.877	64662
506.950	41688
507.022	27014
507.095	41095
507.168	54766
507.241	33048
507.313	25321
507.386	33573
507.459	50621
507.531	31962
507.604	25310
507.677	23029
507.749	20183
507.822	33601
507.894	63157
507.967	66334
508.040	35920
508.112	30226
508.185	30289
508.257	30478
508.330	49983
508.402	31882
508.475	30448
508.547	35130
508.620	34480
508.692	63330
508.765	38277
508.837	22437
508.909	22307
508.982	24722
509.054	31926
509.127	26612
509.199	22322
509.271	21273
509.344	20316
509.416	20594
509.488	21885
509.560	24398
509.633	28440
509.705	35336
509.777	33760
509.849	51101
509.922	34836
509.994	22434
510.066	23719
510.138	24184
510.210	43619
510.283	41899
510.355	34954
510.427	30570
510.499	29562
510.571	28628
510.643	29952
510.715	55264
510.787	52139
510.859	33532
510.931	42705
511.003	56107
511.076	49857
511.148	28695
511.219	29515
511.291	57052
511.363	76049
511.435	29592
511.507	23993
511.579	25147
511.651	25629
511.723	24407
511.795	26580
511.867	27425
511.939	38957
512.010	102292
512.082	83914
512.154	34037
512.226	31341
512.298	40349
512.369	63010
512.441	52765
512.513	54876
512.585	41811
512.656	41610
512.728	48711
512.800	33505
512.871	32242
512.943	35053
513.015	28430
513.086	33358
513.158	38897
513.230	42418
513.301	70375
513.373	80388
513.444	42509
513.516	31347
513.588	32743
513.659	40048
513.731	52539
513.802	47366
513.874	100218
513.945	200314
514.016	67053
514.088	34118
514.159	39848
514.231	54118
514.302	63204
514.374	43021
514.445	45017
514.516	104345
514.588	84224
514.659	46555
514.730	94523
514.802	74671
514.873	54222
514.944	51408
515.016	45922
515.087	52287
515.158	67146
515.229	96692
515.301	56159
515.372	69288
515.443	53197
515.514	41106
515.585	33906
515.656	34631
515.728	32843
515.799	32956
515.870	36771
515.941	39060
516.012	40836
516.083	50100
516.154	61798
516.225	87699
516.296	87675
516.367	80728
516.438	98468
516.509	126682
516.580	181370
516.651	583690
516.722	2146585
516.793	1007103
516.864	193839
516.935	172005
517.006	195646
517.077	261756
517.148	580003
517.219	2272273
517.289	3616053
517.360	983261
517.431	297005
517.502	92038
517.573	76545
517.643	69356
517.714	74627
517.785	80782
517.856	92872
517.926	118339
517.997	149018
518.068	195726
518.138	258393
518.209	394977
518.280	1445586
518.350	4521973
518.421	2269220
518.492	307559
518.562	148786
518.633	127110
518.703	116497
518.774	173708
518.845	380235
518.915	374615
518.986	148535
519.056	108275
519.127	174177
519.197	255858
519.268	553592
519.338	372130
519.408	91931
519.479	106181
519.549	78313
519.620	48833
519.690	38051
519.760	35972
519.831	40431
519.901	40490
519.971	32434
520.042	36990
520.112	49771
520.182	52085
520.253	59673
520.323	37373
520.393	40848
520.463	51781
520.534	43512
520.604	77157
520.674	50219
520.744	54686
520.814	91138
520.885	93600
520.955	155098
521.025	609332
521.095	268894
521.165	45811
521.235	42299
521.305	35164
521.375	32017
521.445	37734
521.515	56797
521.585	62972
521.655	60858
521.725	49502
521.795	42840
521.865	32353
521.935	53928
522.005	52815
522.075	31694
522.145	35048
522.215	44343
522.285	67371
522.355	93046
522.424	194920
522.494	174703
522.564	78329
522.634	145783
522.704	427724
522.774	169592
522.843	44455
522.913	41853
522.983	56748
523.053	43466
523.122	40176
523.192	61143
523.262	244972
523.331	251903
523.401	49080
523.471	29035
523.540	32924
523.610	24846
523.680	24291
523.749	24879
523.819	36852
523.888	40331
523.958	25514
524.027	26365
524.097	29482
524.166	27004
524.236	35870
524.305	33202
524.375	26267
524.444	23896
524.514	28201
524.583	29556
524.653	42282
524.722	47538
524.791	31897
524.861	28202
524.930	25466
524.999	30478
525.069	45442
525.138	37941
525.207	47261
525.277	31258
525.346	32265
525.415	29561
525.484	32190
525.554	43848
525.623	43292
525.692	35359
525.761	43386
525.830	46361
525.900	55586
525.969	86387
526.038	131630
526.107	250048
526.176	722385
526.245	620534
526.314	221378
526.383	387797
526.452	523881
526.522	830640
526.591	913479
526.660	318178
526.729	157502
526.797	144671
526.867	276359
526.935	1150671
527.004	1979275
527.073	1115060
527.142	132122
527.211	59570
527.280	53717
527.349	55850
527.418	30928
527.487	28934
527.555	25898
527.624	22677
527.693	22243
527.762	23931
527.831	21905
527.899	24721
527.968	24964
528.037	25637
528.106	34729
528.174	72344
528.243	60475
528.312	87315
528.380	126308
528.449	39428
528.518	23673
528.586	17670
528.655	20030
528.723	18182
528.792	20372
528.861	24191
528.929	21561
528.998	19068
529.066	17419
529.135	17202
529.203	16966
529.272	17764
529.340	19041
529.409	21625
529.477	20538
529.545	29797
529.614	36005
529.682	37015
529.751	49019
529.819	42607
529.887	33691
529.956	20884
530.024	22727
530.092	19521
530.161	27579
530.229	53674
530.297	29383
530.365	19578
530.434	18154
530.502	16203
530.570	17803
530.638	15936
530.707	21021
530.775	22798
530.843	18060
530.911	17802
530.979	16961
531.047	16317
531.115	19259
531.183	18308
531.252	19107
531.320	19615
531.388	17803
531.456	19028
531.524	17063
531.592	19427
531.660	23612
531.728	19618
531.796	18873
531.864	19310
531.932	20469
532.000	20907
532.067	23502
532.135	26091
532.203	30891
532.271	33514
532.339	62721
532.407	195914
532.475	118066
532.542	47884
532.610	47034
532.678	63814
532.746	270487
532.814	730361
532.881	194596
532.949	36786
533.017	28417
533.084	23497
533.152	20883
533.220	21964
533.287	28697
533.355	20449
533.423	19416
533.490	18307
533.558	20763
533.625	23585
533.693	26747
533.761	24851
533.828	26369
533.896	26698
533.963	58399
534.031	76488
534.098	105313
534.166	49681
534.233	23944
534.300	25216
534.368	25557
534.435	25376
534.503	26663
534.570	27974
534.637	31098
534.705	36242
534.772	40753
534.840	70467
534.907	325149
534.974	435845
535.041	67513
535.109	47180
535.176	30273
535.243	22495
535.310	26013
535.378	25224
535.445	19613
535.512	20482
535.579	21508
535.646	20661
535.714	21937
535.781	26180
535.848	24793
535.915	25337
535.982	23012
536.049	23556
536.116	26605
536.183	26268
536.250	28184
536.317	29828
536.384	37818
536.451	61203
536.518	63971
536.585	43234
536.652	54889
536.719	83809
536.786	67872
536.853	49282
536.920	72475
536.987	123286
537.053	104951
537.120	362243
537.187	323000
537.254	41779
537.321	29895
537.388	30397
537.454	24265
537.521	23652
537.588	22765
537.654	27441
537.721	31929
537.788	32140
537.855	26163
537.921	28654
537.988	29724
538.055	28017
538.121	30407
538.188	34121
538.254	61237
538.321	131206
538.388	77577
538.454	34957
538.521	29366
538.587	25033
538.654	24595
538.720	24855
538.787	26167
538.853	28940
538.920	40963
538.986	42752
539.053	33135
539.119	34913
539.185	33604
539.252	39430
539.318	69943
539.385	47216
539.451	39735
539.517	37445
539.583	43420
539.650	102048
539.716	285587
539.782	85426
539.849	34393
539.915	33749
539.981	37117
540.047	45473
540.114	41021
540.180	39820
540.246	40933
540.312	60814
540.378	127075
540.444	120374
540.510	111514
540.576	312717
540.643	106195
540.709	34088
540.775	31625
540.841	31499
540.907	44116
540.973	68527
541.039	65687
541.105	72542
541.171	38995
541.237	33203
541.303	35768
541.369	41887
541.435	60554
541.500	110153
541.566	68177
541.632	31522
541.698	28615
541.764	28100
541.830	28158
541.896	28898
541.961	29925
542.027	32837
542.093	33228
542.159	34757
542.224	41169
542.290	59853
542.356	107901
542.421	124707
542.487	52295
542.553	35861
542.618	40815
542.684	34573
542.750	35219
542.815	41171
542.881	73702
542.947	272568
543.012	201019
543.078	35873
543.143	29837
543.209	32600
543.274	35057
543.340	39244
543.405	97186
543.471	164236
543.536	41055
543.602	31423
543.667	28825
543.732	27388
543.798	25933
543.863	28807
543.928	25619
543.994	24341
544.059	26235
544.124	27015
544.190	28637
544.255	29167
544.320	31760
544.386	35476
544.451	50857
544.516	59932
544.581	56650
544.646	163488
544.712	269241
544.777	56742
544.842	40009
544.907	42772
544.972	35874
545.037	34002
545.102	36728
545.168	38610
545.233	41117
545.298	41579
545.363	51864
545.428	57613
545.493	101361
545.558	227313
545.623	94885
545.688	42433
545.753	37996
545.818	36414
545.883	37581
545.947	36603
546.012	42625
546.077	46562
546.142	41312
546.207	43663
546.272	60686
546.337	64930
546.401	49161
546.466	42064
546.531	41939
546.596	47247
546.661	48222
546.725	44428
546.790	41795
546.855	42833
546.919	44733
546.984	50300
547.049	55639
547.113	68369
547.178	62174
547.243	68880
547.307	79321
547.372	94468
547.436	105482
547.501	81484
547.565	86338
547.630	99509
547.695	98349
547.759	104749
547.823	95263
547.888	77821
547.952	77552
548.017	81493
548.081	94473
548.146	119848
548.210	107931
548.274	88206
548.339	85006
548.403	77122
548.468	74165
548.532	74279
548.596	76791
548.660	77040
548.725	87203
548.789	105157
548.853	106901
548.917	89958
548.982	109945
549.046	111802
549.110	73344
549.174	72262
549.238	77359
549.303	81333
549.367	85272
549.431	83429
549.495	78391
549.559	79325
549.623	87417
549.687	101462
549.751	123309
549.815	115452
549.879	108686
549.943	103712
550.007	110756
550.071	111960
550.135	119261
550.199	105891
550.263	98372
550.327	99962
550.391	129873
550.455	110314
550.519	106621
550.582	114674
550.646	146378
550.710	150946
550.774	127567
550.838	127115
550.901	132067
550.965	140524
551.029	151101
551.093	169012
551.156	203399
551.220	320942
551.284	376325
551.347	217272
551.411	301901
551.475	334291
551.538	149544
551.602	126290
551.666	117347
551.729	109680
551.793	108059
551.856	105299
551.920	102406
551.983	102820
552.047	102315
552.110	101448
552.174	102346
552.237	106404
552.301	101420
552.364	96636
552.428	95835
552.491	101954
552.554	105856
552.618	105554
552.681	115944
552.745	126262
552.808	193228
552.871	275387
552.934	175721
552.998	123104
553.061	113645
553.124	100999
553.187	94952
553.251	99055
553.314	98791
553.377	95200
553.440	103729
553.503	120693
553.567	135275
553.630	102998
553.693	99483
553.756	101289
553.819	95932
553.882	93273
553.945	93893
554.008	90760
554.071	93259
554.134	94043
554.197	90647
554.260	86990
554.323	93988
554.386	93701
554.449	94841
554.512	92225
554.575	91227
554.638	92803
554.701	92881
554.764	87189
554.827	84515
554.889	81011
554.952	76578
555.015	75514
555.078	78375
555.141	79269
555.203	77109
555.266	77201
555.329	79515
555.391	75621
555.454	79411
555.517	77965
555.580	72312
555.642	68522
555.705	68726
555.768	70119
555.830	69428
555.893	63512
555.955	64103
556.018	63103
556.080	65371
556.143	65343
556.206	65907
556.268	68557
556.330	71006
556.393	68054
556.455	66849
556.518	94350
556.580	99922
556.643	60483
556.705	59511
556.767	57119
556.830	61463
556.892	66569
556.955	102936
557.017	77678
557.079	58434
557.142	57332
557.204	68017
557.266	129797
557.328	111233
557.391	54350
557.453	49888
557.515	51363
557.577	65493
557.639	70125
557.701	54210
557.764	53082
557.826	56677
557.888	62333
557.950	65143
558.012	69149
558.074	86232
558.136	201284
558.198	518183
558.260	196653
558.322	82504
558.384	83772
558.446	93668
558.508	110389
558.570	137012
558.632	209446
558.694	300846
558.756	305484
558.818	906080
558.880	2272253
558.942	762140
559.003	563250
559.065	286774
559.127	116370
559.189	113747
559.251	123394
559.312	169774
559.374	424975
559.436	1486336
559.498	752038
559.559	139559
559.621	112146
559.683	124047
559.744	204342
559.806	690944
559.868	1062258
559.929	216273
559.991	119281
560.052	174016
560.114	493621
560.176	323145
560.237	282042
560.299	485165
560.360	117487
560.422	53164
560.483	47311
560.545	43536
560.606	40895
560.667	40121
560.729	38895
560.790	36645
560.852	37819
560.913	37717
560.974	36843
561.036	37160
561.097	37762
561.158	39039
561.220	40704
561.281	41098
561.342	42056
561.403	49461
561.465	63753
561.526	160159
561.587	219963
561.648	64109
561.709	40735
561.771	39365
561.832	37217
561.893	36268
561.954	34274
562.015	34491
562.076	35084
562.137	35205
562.198	35183
562.259	34601
562.320	38017
562.381	42666
562.442	64942
562.503	50829
562.564	35945
562.625	34303
562.686	34506
562.747	39622
562.808	36008
562.869	35742
562.930	42107
562.991	40871
563.051	37863
563.112	34961
563.173	36067
563.234	33064
563.294	33412
563.355	35569
563.416	37657
563.477	35288
563.537	36351
563.598	40350
563.659	37513
563.720	38138
563.780	38908
563.841	42053
563.901	36790
563.962	35030
564.023	34976
564.083	37626
564.144	39090
564.204	37563
564.265	38544
564.325	47568
564.386	103034
564.446	95837
564.507	38023
564.567	36562
564.628	34432
564.688	33971
564.749	34234
564.809	43585
564.869	54567
564.930	40546
564.990	34990
565.050	34666
565.111	34703
565.171	33651
565.231	33489
565.292	34971
565.352	33556
565.412	35543
565.472	38883
565.532	40456
565.593	38449
565.653	36323
565.713	36224
565.773	41424
565.833	50862
565.893	64509
565.953	42828
566.013	38411
566.074	41781
566.134	54598
566.194	94431
566.254	103383
566.314	63544
566.374	43458
566.434	43340
566.494	43236
566.554	42426
566.614	43851
566.673	44676
566.733	47881
566.793	49853
566.853	51469
566.913	50227
566.973	52617
567.033	53781
567.092	54678
567.152	52008
567.212	54158
567.272	55469
567.331	60168
567.391	58423
567.451	64351
567.511	85207
567.570	87557
567.630	56269
567.690	52676
567.749	54770
567.809	56719
567.868	64957
567.928	72272
567.988	85373
568.047	92554
568.107	107123
568.166	140344
568.226	213333
568.285	293451
568.345	263033
568.404	217368
568.464	187958
568.523	173490
568.582	175442
568.642	190631
568.701	225928
568.761	318971
568.820	483648
568.879	491119
568.939	391631
568.998	292216
569.057	219394
569.116	177007
569.176	143880
569.235	120613
569.294	103539
569.353	92858
569.413	82732
569.472	76900
569.531	68514
569.590	63663
569.649	58148
569.708	54876
569.767	54926
569.827	61460
569.886	54705
569.945	44698
570.004	45853
570.063	44818
570.122	47534
570.181	49834
570.240	53579
570.299	53285
570.358	49868
570.417	41801
570.475	39117
570.534	41220
570.593	42879
570.652	42945
570.711	44310
570.770	41548
570.829	47625
570.887	45290
570.946	48573
571.005	38077
571.064	39148
571.122	45983
571.181	51138
571.240	40095
571.299	33614
571.357	38358
571.416	40377
571.475	45702
571.533	49322
571.592	36814
571.650	41633
571.709	34373
571.768	34705
571.826	33877
571.885	31301
571.943	30151
572.002	32095
572.060	34084
572.119	28677
572.177	28767
572.236	28008
572.294	28127
572.352	27841
572.411	28705
572.469	27790
572.528	27718
572.586	27318
572.644	32755
572.703	42137
572.761	32997
572.819	29095
572.877	27138
572.936	26060
572.994	26234
573.052	28198
573.110	30769
573.169	29331
573.227	26161
573.285	27473
573.343	26102
573.401	27735
573.459	27707
573.517	26781
573.576	28089
573.634	27963
573.692	30420
573.750	28340
573.808	28294
573.866	29094
573.924	42524
573.982	41364
574.040	29002
574.098	26473
574.155	26962
574.213	25246
574.271	25668
574.329	27287
574.387	25012
574.445	24322
574.503	23678
574.560	22829
574.618	22882
574.676	23145
574.734	24535
574.792	23194
574.849	24537
574.907	21729
574.965	23164
575.022	22434
575.080	22504
575.138	24205
575.195	26239
575.253	27785
575.311	30741
575.368	23646
575.426	23337
575.483	23047
575.541	23110
575.598	23334
575.656	26243
575.713	26133
575.771	25138
575.828	24138
575.886	23363
575.943	25400
576.001	26743
576.058	26855
576.115	28639
576.173	33871
576.230	39893
576.287	45742
576.345	36124
576.402	28126
576.459	27838
576.517	29438
576.574	33557
576.631	35518
576.688	29507
576.746	26303
576.803	25981
576.860	23992
576.917	24331
576.974	25066
577.031	25653
577.089	26346
577.146	25909
577.203	25859
577.260	28094
577.317	31755
577.374	37252
577.431	32971
577.488	29411
577.545	25284
577.602	24434
577.659	24552
577.716	23793
577.773	23521
577.830	22132
577.886	23687
577.943	22836
578.000	24807
578.057	27208
578.114	25632
578.171	24301
578.227	24004
578.284	24128
578.341	25322
578.398	26740
578.454	29417
578.511	34891
578.568	39153
578.625	33220
578.681	26018
578.738	23275
578.794	24059
578.851	24960
578.908	23884
578.964	26576
579.021	25230
579.077	25649
579.134	23457
579.190	23812
579.247	23880
579.303	25522
579.360	23715
579.416	24595
579.473	22553
579.529	22361
579.586	22738
579.642	24521
579.698	25224
579.755	26292
579.811	23830
579.867	25116
579.924	23536
579.980	23969
580.036	24182
580.093	24663
580.149	25994
580.205	27306
580.261	25875
580.317	27756
580.374	31172
580.430	35687
580.486	34532
580.542	29388
580.598	28048
580.619	28326
580.654	28835
580.692	27473
580.710	26840
580.765	26936
580.767	26964
580.823	26943
580.838	26864
580.879	26746
580.911	26594
580.935	26523
580.984	25485
580.991	25376
581.047	25690
581.057	25648
581.103	25517
581.130	25908
581.159	26350
581.203	26324
581.215	26343
581.270	27462
581.276	27347
581.326	26403
581.349	26541
581.382	26831
581.422	27389
581.438	27631
581.494	27497
581.494	27479
581.550	27245
581.567	27743
581.606	28756
581.640	28650
581.661	28611
581.713	26996
581.717	26896
581.773	25518
581.786	25667
581.829	26118
581.859	26452
581.885	26775
581.932	26200
581.940	26096
581.996	27046
582.004	27020
582.052	26908
582.077	26732
582.107	26581
582.150	26750
582.163	26829
582.219	26811
582.223	26858
582.274	27556
582.296	28063
582.330	28800
582.368	30093
582.386	30657
582.441	26670
582.441	26669
582.497	27160
582.514	27146
582.552	27180
582.587	26456
582.608	26049
582.659	26557
582.663	26590
582.719	27476
582.732	27444
582.774	27524
582.805	28161
582.830	28624
582.877	28039
582.885	27953
582.941	27554
582.950	27694
582.996	28374
583.023	29098
583.052	29981
583.095	28937
583.107	28643
583.162	29762
583.168	29812
583.218	30048
583.240	29800
583.273	29491
583.313	28985
583.328	28839
583.384	29363
583.385	29383
583.439	29680
583.458	29487
583.494	29235
583.531	28808
583.549	28627
583.603	29220
583.605	29240
583.660	29308
583.676	29363
583.715	29338
583.748	30332
583.770	31182
583.820	31316
583.825	31276
583.881	31432
583.893	31326
583.936	31074
583.965	30803
583.991	30654
584.038	31216
584.046	31341
584.101	32508
584.110	32487
584.156	31750
584.183	31654
584.211	31841
584.255	30885
584.266	30579
584.321	30610
584.328	30723
584.376	32254
584.400	32377
584.431	32271
584.472	32190
584.486	32065
584.541	32670
584.545	32658
584.596	33149
584.617	33582
584.651	34577
584.689	36054
584.706	36452
584.761	36774
584.762	36771
584.816	36598
584.834	36425
584.871	36217
584.906	37390
584.926	38102
584.978	38931
584.980	38976
585.035	40533
585.051	41284
585.090	43267
585.123	44522
585.145	45313
585.195	48039
585.200	48326
585.254	51477
585.267	52607
585.309	56289
585.340	59461
585.364	62194
585.412	65815
585.419	66401
585.473	74810
585.484	77220
585.528	89878
585.556	104225
585.583	128542
585.628	195118
585.637	217267
585.692	439327
585.700	480132
585.747	633166
585.772	515536
585.801	323671
585.845	133278
585.856	105120
585.910	73145
585.917	70547
585.965	62044
585.989	59244
586.019	56649
586.061	54941
586.074	54619
586.128	55169
586.133	55316
586.183	58118
586.205	58846
586.237	59298
586.277	59404
586.292	59239
586.346	58553
586.349	58534
586.401	58990
586.421	59732
586.455	62691
586.493	67491
586.509	72624
586.564	93503
586.565	94421
586.618	143180
586.637	145414
586.672	119264
586.709	86323
586.727	76827
586.781	70956
586.781	70963
586.835	66736
586.853	65836
586.889	64748
586.925	64138
586.944	64511
586.996	67093
586.998	67165
587.052	68720
587.068	69099
587.106	70606
587.140	71808
587.161	72627
587.212	74833
587.215	75001
587.269	78706
587.284	79455
587.323	80654
587.356	82741
587.377	84426
587.427	87500
587.431	87750
587.485	91002
587.499	91795
587.539	95223
587.571	98419
587.593	100526
587.643	105412
587.648	105966
587.702	111330
587.715	113174
587.755	119476
587.786	123391
587.810	126068
587.858	131939
587.864	132947
587.917	144659
587.930	147567
587.971	159598
588.001	169055
588.025	175412
588.073	186221
588.079	188136
588.133	208517
588.145	213472
588.187	233411
588.217	248512
588.241	263365
588.288	295197
588.295	299955
588.348	344088
588.360	354067
588.402	396580
588.431	429414
588.456	462020
588.503	529884
588.510	541612
588.564	646931
588.575	671629
588.617	790680
588.646	881821
588.671	991768
588.718	1226768
588.725	1281402
588.778	1747404
588.789	1851471
588.832	2389157
588.861	2755019
588.886	2988266
588.932	3267302
588.939	3253895
588.993	2990635
589.004	2994957
589.047	2995563
589.075	2846779
589.100	2523968
589.147	1856635
589.154	1795026
589.207	1383408
589.218	1309836
589.261	1206530
589.290	1159868
589.314	1191154
589.361	1287570
589.368	1331521
589.421	1746162
589.433	1845639
589.475	2395574
589.504	2768186
589.528	2901836
589.576	2975065
589.582	2934385
589.635	2647424
589.647	2545554
589.689	1883734
589.718	1407544
589.742	1185154
589.790	797127
589.795	774236
589.849	597112
589.861	560946
589.902	491379
589.932	441223
589.955	400628
590.004	317763
590.009	312939
590.062	271313
590.075	261742
590.115	238672
590.146	221684
590.168	213847
590.218	197984
590.222	196805
590.275	182506
590.289	178857
590.328	170632
590.360	163483
590.381	158366
590.431	147232
590.435	146849
590.488	140495
590.503	138727
590.541	134408
590.574	130413
590.594	128070
590.645	122010
590.647	121885
590.700	117054
590.716	115659
590.753	112700
590.787	109562
590.806	108459
590.859	105763
590.859	105791
590.912	102545
590.930	101396
590.965	100934
591.001	100574
591.018	99874
591.071	96976
591.072	96859
591.124	95792
591.143	95166
591.177	94871
591.214	94667
591.230	94878
591.283	95291
591.285	95197
591.336	94913
591.356	94754
591.389	93720
591.427	91607
591.442	90525
591.495	86368
591.498	85980
591.547	84867
591.569	84232
591.600	84490
591.640	84588
591.653	84856
591.706	85427
591.711	85397
591.759	87999
591.782	89222
591.811	92320
591.853	96394
591.864	94740
591.917	85054
591.924	83584
591.969	82882
591.995	82327
592.022	82851
592.066	83448
592.075	84952
592.127	93496
592.137	95000
592.180	101846
592.208	105666
592.233	98383
592.279	83860
592.285	83548
592.338	80152
592.350	79252
592.390	78784
592.421	78174
592.443	78874
592.491	80035
592.495	80093
592.548	78979
592.562	78543
592.600	78505
592.633	78220
592.653	78053
592.704	76851
592.705	77292
592.775	77294
592.846	78324
592.916	79890
592.987	82041
593.058	80137
593.128	75813
593.199	74891
593.270	73818
593.341	74340
593.411	75618
593.482	75779
593.553	74601
593.623	73893
593.694	78467
593.764	82232
593.835	75952
593.906	75500
593.976	76238
594.047	80040
594.117	91808
594.188	90803
594.258	75818
594.329	75805
594.399	75121
594.470	74783
594.540	75928
594.611	77966
594.681	76876
594.751	79167
594.822	82778
594.892	83064
594.963	85802
595.033	86632
595.103	87862
595.174	95112
595.244	126295
595.314	143024
595.384	91658
595.455	88448
595.525	90733
595.595	93135
595.665	93251
595.736	90402
595.806	91349
595.876	89530
595.946	89953
596.016	90844
596.087	94264
596.157	93206
596.227	94378
596.297	100112
596.367	103599
596.437	112589
596.507	134626
596.577	152195
596.647	111423
596.717	108455
596.787	108584
596.857	107471
596.927	109645
596.997	108022
597.067	108396
597.137	111820
597.207	111394
597.277	111254
597.347	108539
597.417	106392
597.487	106812
597.557	110808
597.626	111227
597.696	119666
597.766	132825
597.836	151105
597.906	111688
597.975	101710
598.045	101901
598.115	103983
598.185	109253
598.254	119462
598.324	128270
598.394	127207
598.464	124829
598.533	120713
598.603	113782
598.672	114816
598.742	115381
598.812	114817
598.881	116444
598.951	113495
599.020	115207
599.090	115124
599.159	118928
599.229	114229
599.299	110564
599.368	113981
599.437	113481
599.507	108854
599.576	108505
599.646	106410
599.715	103450
599.785	104890
599.854	109736
599.924	112493
599.993	106730
600.062	103388
600.132	104286
600.201	109842
600.270	123593
600.340	125310
600.409	119787
600.478	119469
600.547	122379
600.617	114331
600.686	100468
600.755	94501
600.824	93133
600.894	90104
600.963	87753
601.032	86223
601.101	85703
601.170	83438
601.239	83783
601.308	86014
601.378	83447
601.447	81378
601.516	81521
601.585	83903
601.654	88918
601.723	85979
601.792	85760
601.861	86963
601.930	91752
601.999	95781
602.068	90046
602.137	94733
602.206	93796
602.275	92993
602.343	101633
602.412	98791
602.481	92713
602.550	91247
602.619	93684
602.688	95342
602.756	94175
602.825	94174
602.894	96406
602.963	97234
603.032	99316
603.100	98179
603.169	97961
603.238	98187
603.307	97574
603.375	97788
603.444	100256
603.513	100746
603.581	100782
603.650	102786
603.719	100402
603.787	101588
603.856	106175
603.924	106044
603.993	108669
604.061	110757
604.130	115534
604.198	117850
604.267	117601
604.335	118707
604.404	119009
604.472	121360
604.541	123613
604.609	123418
604.678	123634
604.746	122866
604.815	127664
604.883	128658
604.951	128670
605.020	129979
605.088	131019
605.156	132605
605.225	136013
605.293	135041
605.361	137034
605.429	137077
605.498	141016
605.566	144809
605.634	150287
605.702	152908
605.771	155595
605.839	155466
605.907	151824
605.975	147464
606.043	145883
606.111	144140
606.180	144947
606.248	144062
606.316	144611
606.384	148877
606.452	158791
606.520	163622
606.588	153364
606.656	146346
606.724	144645
606.792	136699
606.860	125902
606.928	115837
606.996	114084
607.064	109940
607.132	114329
607.200	119039
607.267	124187
607.335	125140
607.403	126603
607.471	123434
607.539	120870
607.607	121225
607.674	109392
607.742	110458
607.810	112576
607.878	109987
607.946	110712
608.013	115050
608.081	118546
608.149	118570
608.216	119856
608.284	124298
608.352	124057
608.419	126615
608.487	145102
608.555	125101
608.622	121187
608.690	129278
608.757	139460
608.825	141986
608.893	140689
608.960	140470
609.028	145393
609.095	155427
609.163	131775
609.230	117443
609.298	109972
609.365	111318
609.432	120267
609.500	130509
609.567	147292
609.635	164377
609.702	172473
609.769	167065
609.837	143356
609.904	124594
609.971	129173
610.039	146897
610.106	194821
610.173	355067
610.241	776242
610.308	534930
610.375	272340
610.442	143347
610.509	125308
610.577	121279
610.644	121984
610.711	123987
610.778	127036
610.845	132602
610.912	139963
610.980	141836
611.047	142403
611.114	141463
611.181	135809
611.248	133084
611.315	142770
611.382	143314
611.449	149309
611.516	151674
611.583	150346
611.650	151777
611.717	156008
611.784	160552
611.851	170484
611.918	189506
611.984	226389
612.051	323994
612.118	636620
612.185	1505334
612.252	793822
612.319	229331
612.386	195515
612.452	181227
612.519	178884
612.586	196965
612.653	180140
612.719	175048
612.786	167210
612.853	154676
612.919	150942
612.986	153525
613.053	144871
613.120	137183
613.186	133983
613.253	136595
613.319	134942
613.386	136409
613.453	140308
613.519	145159
613.586	155271
613.652	170960
613.719	158649
613.785	152856
613.852	140854
613.918	138166
613.985	141460
614.051	147173
614.118	150806
614.184	145133
614.250	138686
614.317	139731
614.383	139207
614.449	141240
614.516	140648
614.582	144760
614.648	139507
614.715	138665
614.781	136808
614.847	138913
614.914	139020
614.980	134670
615.046	134635
615.112	138365
615.179	139391
615.245	144466
615.311	153775
615.377	182758
615.443	183773
615.509	155472
615.575	153563
615.642	150070
615.708	159352
615.774	171380
615.840	189247
615.906	219745
615.972	291576
616.038	469414
616.104	850916
616.170	1880944
616.236	1346143
616.302	325897
616.368	249542
616.434	190973
616.500	183399
616.565	199596
616.631	235348
616.697	195326
616.763	208671
616.829	299298
616.895	492142
616.961	426270
617.026	198782
617.092	156008
617.158	150093
617.224	147728
617.289	139220
617.355	136640
617.421	136329
617.487	135084
617.552	129228
617.618	125131
617.684	126668
617.749	128126
617.815	121385
617.880	120413
617.946	120135
618.012	123137
618.077	124234
618.143	120766
618.208	121250
618.274	130249
618.339	132043
618.405	112694
618.470	115993
618.536	116315
618.601	122852
618.667	111953
618.732	106677
618.798	104618
618.863	104936
618.928	103839
618.994	108267
619.059	112217
619.124	129203
619.190	110907
619.255	104515
619.320	105874
619.386	104668
619.451	101901
619.516	100524
619.581	101748
619.647	104934
619.712	103492
619.777	100728
619.842	102323
619.907	102929
619.972	105485
620.038	104265
620.103	99677
620.168	98695
620.233	100441
620.298	101038
620.363	100573
620.428	102988
620.493	106156
620.558	104185
620.623	105335
620.688	105957
620.753	105024
620.818	107400
620.883	106823
620.948	107809
621.013	106565
621.078	108354
621.143	108299
621.207	113331
621.272	112118
621.337	113116
621.402	118534
621.467	133641
621.532	132153
621.596	115881
621.661	110073
621.726	107810
621.791	109575
621.855	112536
621.920	115857
621.985	120639
622.049	128088
622.114	123076
622.179	115564
622.243	120420
622.308	120433
622.373	125576
622.437	120032
622.502	114116
622.566	114757
622.631	116035
622.695	116709
622.760	116642
622.824	115474
622.889	117384
622.953	123126
623.018	146742
623.082	140495
623.147	120050
623.211	116569
623.276	118172
623.340	111628
623.404	108133
623.469	109289
623.533	109912
623.597	107006
623.662	107957
623.726	102404
623.790	98763
623.854	98715
623.919	98950
623.983	100078
624.047	102890
624.111	100346
624.176	101528
624.240	105904
624.304	110390
624.368	102891
624.432	102157
624.496	105352
624.560	110497
624.625	114604
624.689	105210
624.753	108891
624.817	104761
624.881	100636
624.945	95847
625.009	95696
625.073	97497
625.137	101397
625.201	113270
625.265	110721
625.329	97903
625.393	103040
625.456	101272
625.520	105867
625.584	113749
625.648	129407
625.712	173947
625.776	315688
625.839	331002
625.903	147205
625.967	104827
626.031	150536
626.095	208069
626.158	106503
626.222	79384
626.286	76045
626.349	74607
626.413	69876
626.477	74942
626.540	71349
626.604	70777
626.668	69611
626.731	69817
626.795	72385
626.858	72290
626.922	68215
626.986	68780
627.049	66964
627.113	70345
627.176	65664
627.240	66284
627.303	67269
627.366	66214
627.430	67333
627.493	66789
627.557	68305
627.620	68217
627.684	68217
627.747	67213
627.810	63945
627.874	61274
627.937	58663
628.000	63090
628.064	61030
628.127	54893
628.190	56871
628.253	56466
628.317	53561
628.380	53102
628.443	52419
628.506	52957
628.569	49855
628.632	48509
628.696	48831
628.759	49177
628.822	46730
628.885	46713
628.948	46414
629.011	47265
629.074	47639
629.137	44929
629.200	44021
629.263	47932
629.326	43461
629.389	43846
629.452	45447
629.515	45707
629.578	43834
629.641	46163
629.704	45123
629.767	46662
629.830	41996
629.892	42147
629.955	41698
630.018	45121
630.081	47115
630.144	53133
630.207	44594
630.269	47271
630.332	48338
630.395	43628
630.458	39293
630.520	38878
630.583	38733
630.646	38236
630.708	38337
630.771	39740
630.834	39206
630.896	39357
630.959	38305
631.021	37779
631.084	38885
631.146	43611
631.209	48064
631.272	39423
631.334	38477
631.397	38586
631.459	37721
631.522	40526
631.584	40646
631.646	41977
631.709	43900
631.771	52267
631.834	43547
631.896	40269
631.958	36450
632.021	37586
632.083	35966
632.145	37634
632.208	36837
632.270	38319
632.332	35594
632.395	35818
632.457	37041
632.519	35357
632.581	35778
632.643	34397
632.706	34797
632.768	34275
632.830	34657
632.892	34702
632.954	35153
633.016	37043
633.078	34739
633.141	34234
633.203	33973
633.265	35670
633.327	34174
633.389	35448
633.451	39254
633.513	44171
633.575	43432
633.637	41818
633.698	39079
633.760	36094
633.822	36497
633.884	36750
633.946	36095
634.008	36727
634.070	36133
634.132	38786
634.193	40641
634.255	42164
634.317	41769
634.379	42701
634.441	39408
634.502	37538
634.564	35705
634.626	34192
634.687	33923
634.749	33752
634.811	32897
634.873	29004
634.934	31729
634.996	33531
635.057	31665
635.119	31293
635.181	33490
635.242	32962
635.304	30710
635.365	35941
635.427	32736
635.488	33236
635.550	32099
635.611	33364
635.673	31662
635.734	35993
635.796	35361
635.857	38986
635.918	37025
635.980	40963
636.041	40772
636.102	44174
636.164	42654
636.225	42938
636.286	37124
636.348	35555
636.409	32726
636.470	30991
636.531	32696
636.593	37088
636.654	34024
636.715	29342
636.776	29093
636.838	28455
636.899	30151
636.960	29077
637.021	26697
637.082	27837
637.143	28586
637.204	27103
637.265	26895
637.326	27821
637.387	27603
637.448	27088
637.509	28352
637.570	27945
637.631	27965
637.692	25694
637.753	25127
637.814	25824
637.875	25156
637.936	27145
637.997	25914
638.058	27785
638.119	27748
638.179	27304
638.240	26008
638.301	27453
638.362	25883
638.423	26873
638.483	26976
638.544	23861
638.605	24965
638.666	24392
638.726	24947
638.787	25986
638.848	24370
638.908	24227
638.969	25042
639.030	25509
639.090	23055
639.151	25554
639.211	26687
639.272	32107
639.332	45203
639.393	30482
639.453	25060
639.514	25819
639.574	23674
639.635	23272
639.695	24698
639.756	23818
639.816	24892
639.877	28947
639.937	41405
639.997	47787
640.058	25247
640.118	23526
640.178	23127
640.239	21687
640.299	21951
640.359	22506
640.420	22569
640.480	25529
640.540	26427
640.600	26055
640.661	24390
640.721	25942
640.781	29086
640.841	22135
640.901	24231
640.961	24531
641.021	25216
641.082	28585
641.142	33987
641.202	26954
641.262	19894
641.322	23500
641.382	21141
641.442	22184
641.502	21657
641.562	22303
641.622	22504
641.682	23576
641.742	24285
641.802	24173
641.861	24772
641.921	24313
641.981	25732
642.041	26144
642.101	29008
642.161	21908
642.221	21202
642.280	20974
642.340	20410
642.400	19551
642.460	21883
642.519	21927
642.579	21462
642.639	22754
642.698	19826
642.758	23581
642.818	21332
642.877	21127
642.937	23075
642.997	25934
643.056	32145
643.116	24052
643.175	23865
643.235	21601
643.294	22600
643.354	24733
643.414	26728
643.473	32099
643.532	39863
643.592	53339
643.651	79591
643.711	128436
643.770	239902
643.830	564566
643.889	1123588
643.948	243894
644.008	50034
644.067	35538
644.126	28063
644.186	25658
644.245	22961
644.304	20627
644.363	24227
644.423	20400
644.482	22678
644.541	23235
644.600	22339
644.659	28533
644.719	33260
644.778	44886
644.837	66843
644.896	127834
644.955	264257
645.014	88460
645.073	27976
645.132	25048
645.191	23389
645.250	21959
645.309	23209
645.368	23915
645.427	28230
645.486	39681
645.545	58668
645.604	26371
645.663	22424
645.722	23172
645.781	24696
645.840	29831
645.898	35538
645.957	49402
646.016	69996
646.075	118130
646.134	215985
646.192	573685
646.251	774028
646.310	114288
646.369	37347
646.427	31824
646.486	25324
646.545	23660
646.603	21050
646.662	20475
646.721	20582
646.779	20081
646.838	21216
646.896	25346
646.955	29730
647.014	42129
647.072	69438
647.131	171302
647.189	81717
647.248	20915
647.306	19274
647.365	18725
647.423	14960
647.481	17632
647.540	14917
647.598	17316
647.657	15869
647.715	16539
647.773	15851
647.832	16318
647.890	15237
647.948	16046
648.007	15259
648.065	14806
648.123	15442
648.181	17179
648.240	14370
648.298	14604
648.356	15183
648.414	16651
648.472	16949
648.531	16876
648.589	15687
648.647	16223
648.705	15564
648.763	16089
648.821	17105
648.879	18079
648.937	19844
648.995	23839
649.053	27586
649.111	40272
649.169	57379
649.227	90600
649.285	178704
649.343	479094
649.401	223529
649.459	64773
649.516	39205
649.574	23085
649.632	25783
649.690	26962
649.748	28452
649.806	32736
649.863	50145
649.921	120845
649.979	79809
650.037	19379
650.094	15269
650.152	16254
650.210	13968
650.268	14133
650.325	13862
650.383	14175
650.440	12867
650.498	14683
650.556	13563
650.613	12342
650.671	13170
650.728	14386
650.786	16728
650.843	14843
650.901	13027
650.958	12492
651.016	12602
651.073	12666
651.131	11070
651.188	12188
651.246	13472
651.303	11387
651.360	12203
651.418	11502
651.475	12584
651.532	10933
651.590	11881
651.647	11660
651.704	12849
651.762	12970
651.819	12413
651.876	11920
651.933	11662
651.990	12690
652.048	10123
652.105	10824
652.162	12120
652.219	10869
652.276	10320
652.333	11328
652.390	9899
652.448	11423
652.505	12043
652.562	10668
652.619	10272
652.676	11103
652.733	12032
652.790	11027
652.847	8830
652.904	11543
652.961	9419
653.017	9964
653.074	10598
653.131	11354
653.188	9075
653.245	10824
653.302	10432
653.359	10735
653.415	11363
653.472	10107
653.529	10855
653.586	9503
653.642	10101
653.699	10148
653.756	9386
653.813	9882
653.869	10368
653.926	10343
653.983	9383
654.039	10682
654.096	10048
654.152	11364
654.209	10335
654.266	12761
654.322	10540
654.379	13586
654.435	13472
654.492	14025
654.548	19617
654.605	26229
654.661	15010
654.717	11296
654.774	12343
654.830	11459
654.887	10611
654.943	11372
655.000	11710
655.056	11668
655.112	12647
655.168	11616
655.225	12640
655.281	14441
655.337	18702
655.394	28962
655.450	20772
655.506	19162
655.562	30099
655.618	23972
655.675	10600
655.731	12000
655.787	10870
655.843	12208
655.899	9854
655.955	11366
656.011	11749
656.067	10776
656.123	11378
656.179	11912
656.235	13058
656.291	10304
656.347	13404
656.403	12713
656.459	12181
656.515	13323
656.571	13735
656.627	12635
656.683	11616
656.739	11923
656.795	11114
656.850	11757
656.906	13563
656.962	12532
657.018	10127
657.074	11743
657.129	12323
657.185	15087
657.241	21680
657.297	17163
657.352	11363
657.408	10022
657.464	12667
657.519	11831
657.575	9159
657.630	10520
657.686	9062
657.742	9868
657.797	9585
657.853	11083
657.908	11540
657.964	9349
658.019	9914
658.075	11140
658.130	9995
658.186	8353
658.241	9439
658.297	8599
658.352	9968
658.407	10141
658.463	9722
658.518	10109
658.573	9499
658.629	9417
658.684	8975
658.739	9789
658.795	8452
658.850	9518
658.905	9562
658.960	9792
659.016	9964
659.071	10186
659.126	11681
659.181	10599
659.236	16452
659.291	18807
659.346	11999
659.401	11784
659.457	10250
659.512	9629
659.567	10596
659.622	10043
659.677	10026
659.732	9678
659.787	10061
659.842	12362
659.897	15795
659.952	10909
660.007	9398
660.061	10920
660.116	9130
660.171	9311
660.226	9805
660.281	10345
660.336	8012
660.391	9656
660.445	9023
660.500	9613
660.555	10225
660.610	9381
660.664	9420
660.719	8579
660.774	10171
660.828	10038
660.883	9786
660.938	10193
660.992	8529
661.047	9919
661.101	9202
661.156	9809
661.211	8763
661.265	9304
661.320	9590
661.374	8784
661.429	9164
661.483	9446
661.538	9224
661.592	10232
661.647	9145
661.701	10024
661.755	10358
661.810	9939
661.864	9420
661.919	8671
661.973	9039
662.027	9479
662.081	8562
662.136	9791
662.190	11122
662.244	11004
662.299	10288
662.353	9879
662.407	9361
662.461	10557
662.515	10444
662.569	10718
662.624	11185
662.678	9853
662.732	9715
662.786	9837
662.840	11370
662.894	10609
662.948	9487
663.002	8867
663.056	9617
663.110	8604
663.164	9337
663.218	9094
663.272	10342
663.326	11683
663.380	10856
663.434	10979
663.488	10086
663.542	10712
663.595	10138
663.649	10174
663.703	11004
663.757	10420
663.811	9127
663.864	9526
663.918	10000
663.972	10017
664.026	9108
664.079	9497
664.133	11129
664.187	9008
664.240	8807
664.294	9572
664.348	9517
664.401	10286
664.455	9537
664.508	9207
664.562	9477
664.615	9792
664.669	8980
664.722	9681
664.776	9136
664.829	10019
664.883	9469
664.936	10227
664.990	11200
665.043	11769
665.097	10927
665.150	12661
665.203	11127
665.257	11356
665.310	10813
665.363	11155
665.417	11293
665.470	11348
665.523	11054
665.576	11508
665.630	10434
665.683	11151
665.736	11534
665.789	11470
665.842	9900
665.895	11005
665.949	10573
666.002	10652
666.055	10845
666.108	11570
666.161	10882
666.214	11949
666.267	11989
666.320	12822
666.373	11319
666.426	12278
666.479	11595
666.532	13781
666.585	15486
666.638	16168
666.691	13918
666.744	15572
666.796	14819
666.849	13526
666.902	11175
666.955	11133
667.008	10018
667.060	10066
667.113	8718
667.166	10267
667.219	10267
667.271	11538
667.324	10077
667.377	10845
667.430	9752
667.482	12131
667.535	11275
667.587	12482
667.640	12282
667.693	15827
667.745	19453
667.798	20160
667.850	12584
667.903	11889
667.955	11772
668.008	11235
668.060	13218
668.113	13289
668.165	12773
668.218	13772
668.270	12718
668.322	12426
668.375	11776
668.427	11383
668.479	11515
668.532	12805
668.584	12821
668.636	12021
668.689	11661
668.741	11153
668.793	11444
668.845	11713
668.898	11900
668.950	12259
669.002	12532
669.054	12535
669.106	11719
669.158	13382
669.211	11960
669.263	11658
669.315	13139
669.367	12667
669.419	13378
669.471	15408
669.523	14105
669.575	17116
669.627	15038
669.679	12990
669.731	13293
669.783	14141
669.835	14727
669.886	13671
669.938	14278
669.990	13647
670.042	12342
670.094	15174
670.146	14914
670.197	17720
670.249	20525
670.301	24817
670.353	33140
670.404	45154
670.456	62324
670.508	92956
670.560	143005
670.611	230006
670.663	395341
670.715	916091
670.766	1342249
670.818	456426
670.869	92024
670.921	48052
670.972	34998
671.024	27151
671.075	22706
671.127	20795
671.178	18588
671.230	17813
671.281	17408
671.333	16393
671.384	18022
671.436	18468
671.487	20525
671.538	24198
671.590	27498
671.641	36777
671.692	56046
671.744	96655
671.795	66780
671.846	27989
671.897	18732
671.949	17214
672.000	14576
672.051	14434
672.102	15287
672.153	13668
672.204	13947
672.256	13328
672.307	12458
672.358	13272
672.409	12436
672.460	12228
672.511	10930
672.562	12819
672.613	11723
672.664	12159
672.715	11819
672.766	12561
672.817	11573
672.868	11470
672.919	11820
672.970	11754
673.021	10972
673.071	10731
673.122	10124
673.173	11903
673.224	11540
673.275	11359
673.326	10814
673.376	10960
673.427	10751
673.478	10676
673.528	11209
673.579	10771
673.630	9637
673.680	11846
673.731	10284
673.782	10070
673.832	10685
673.883	11715
673.934	10865
673.984	10636
674.035	11194
674.085	10754
674.136	11601
674.186	12946
674.237	15355
674.287	20926
674.338	14218
674.388	11406
674.438	11372
674.489	11817
674.539	12531
674.589	12611
674.640	10820
674.690	11269
674.740	12286
674.791	12666
674.841	11474
674.891	12288
674.942	11122
674.992	11866
675.042	9898
675.092	10386
675.142	10312
675.193	10340
675.243	10006
675.293	11181
675.343	10402
675.393	10960
675.443	10023
675.493	10130
675.543	9785
675.593	11244
675.643	10194
675.693	10420
675.743	10208
675.793	10457
675.843	10176
675.893	9803
675.943	9536
675.993	9621
676.043	10337
676.093	9981
676.142	10233
676.192	10139
676.242	10339
676.292	9447
676.341	11727
676.391	11050
676.441	9189
676.491	9813
676.540	9195
676.590	9569
676.640	9174
676.689	9336
676.739	8499
676.789	9352
676.838	8835
676.888	9968
676.937	8717
676.987	8432
677.037	8754
677.086	8498
677.136	9581
677.185	8140
677.235	8227
677.284	9221
677.333	9081
677.383	8877
677.432	8439
677.482	8566
677.531	8821
677.580	8249
677.630	7128
677.679	7709
677.728	8676
677.778	9164
677.827	7969
677.876	8487
677.925	8460
677.975	8546
678.024	9254
678.073	8482
678.122	9845
678.171	10054
678.220	9272
678.269	11107
678.319	10350
678.368	11017
678.417	10672
678.466	9949
678.515	9545
678.564	10660
678.613	9655
678.662	9157
678.711	9167
678.760	9367
678.809	8794
678.857	9533
678.906	9859
678.955	9590
679.004	9793
679.053	9352
679.102	9094
679.151	8699
679.199	8626
679.248	8385
679.297	9203
679.346	9633
679.394	9097
679.443	9838
679.492	9080
679.540	8894
679.589	9535
679.638	9299
679.686	8287
679.735	8963
679.784	9168
679.832	9401
679.881	8694
679.929	8661
679.978	7079
680.026	8117
680.075	8303
680.123	7176
680.172	7483
680.220	7857
680.268	8137
680.317	7774
680.365	7799
680.414	7804
680.462	7141
680.510	9264
680.559	6340
680.607	8268
680.655	8040
680.703	8102
680.752	6776
680.800	7657
680.848	7844
680.896	8361
680.945	7316
680.993	7682
681.041	7615
681.089	7908
681.137	7121
681.185	6368
681.233	7053
681.258	7662
681.281	8190
681.329	6676
681.377	7921
681.380	7976
681.425	8056
681.473	9362
681.502	8881
681.521	8450
681.569	9412
681.617	8283
681.624	8201
681.665	7276
681.713	8639
681.745	8210
681.761	7942
681.809	8137
681.857	8754
681.867	8807
681.904	8779
681.952	9369
681.989	8994
682.000	8817
682.048	9140
682.096	8865
682.111	9087
682.143	9390
682.191	9015
682.233	9748
682.239	9812
682.286	9794
682.334	9384
682.354	9543
682.382	9631
682.430	9795
682.476	9179
682.477	9121
682.525	9835
682.572	9532
682.598	9602
682.620	9616
682.667	9074
682.715	10361
682.720	10464
682.763	10900
682.810	11129
682.841	10629
682.857	10284
682.905	10421
682.952	10427
682.963	10473
683.000	10541
683.047	10595
683.085	11800
683.095	12058
683.142	9920
683.190	10596
683.206	10472
683.237	10208
683.284	11136
683.328	11064
683.332	11013
683.379	11324
683.426	10283
683.449	10840
683.473	11403
683.521	11133
683.568	12178
683.571	12133
683.615	10890
683.662	11936
683.693	11554
683.709	11337
683.757	10930
683.804	11615
683.814	11645
683.851	11595
683.898	11840
683.936	12353
683.945	12456
683.992	12447
684.039	13428
684.057	13520
684.086	13592
684.133	13249
684.179	13361
684.180	13323
684.227	13449
684.274	12294
684.300	13048
684.321	13599
684.368	12970
684.415	13671
684.422	13477
684.462	12121
684.509	12525
684.543	12212
684.556	12108
684.603	12256
684.649	13208
684.665	13373
684.696	13679
684.743	13653
684.786	14742
684.790	14822
684.837	14406
684.883	16052
684.908	16391
684.930	16534
684.977	17487
685.023	15817
685.029	15816
685.070	15233
685.117	14246
685.150	15027
685.164	15533
685.210	16873
685.257	16917
685.272	17035
685.303	16732
685.350	16159
685.393	16852
685.396	16931
685.443	17284
685.490	18285
685.514	18746
685.536	18711
685.583	17211
685.629	17381
685.636	17194
685.675	16479
685.722	17211
685.757	17988
685.768	18206
685.815	17845
685.861	17781
685.878	17764
685.908	17798
685.954	18578
686.000	19485
686.000	19497
686.047	21157
686.093	23311
686.121	23330
686.139	22440
686.185	20123
686.232	18590
686.242	18403
686.278	18231
686.324	17925
686.363	17021
686.370	16942
686.416	17017
686.463	17808
686.484	17852
686.509	17796
686.555	16778
686.601	17222
686.606	17314
686.647	18004
686.693	17199
686.727	16975
686.739	16986
686.785	17509
686.831	17816
686.848	17882
686.877	17775
686.923	17909
686.969	17218
686.969	17213
687.015	17763
687.061	17320
687.090	18137
687.107	18501
687.153	18048
687.199	18356
687.211	18096
687.245	17773
687.291	19147
687.332	19543
687.336	19555
687.382	20498
687.428	19762
687.453	20002
687.474	19890
687.520	18998
687.565	18227
687.574	18028
687.611	17835
687.657	18687
687.695	18303
687.702	18234
687.748	19123
687.794	19107
687.816	19188
687.839	19104
687.885	18366
687.931	18196
687.937	18243
687.976	19001
688.022	19137
688.058	19371
688.067	19369
688.113	19741
688.158	19139
688.179	19220
688.204	19449
688.249	19211
688.295	19938
688.300	20004
688.340	20815
688.386	21349
688.421	21289
688.431	21142
688.477	20863
688.522	21200
688.542	21136
688.567	21157
688.613	20555
688.658	20437
688.663	20421
688.703	20544
688.749	20748
688.784	20662
688.794	20618
688.839	20847
688.884	20805
688.905	20551
688.930	20209
688.975	20013
689.020	19860
689.026	19846
689.065	20229
689.110	20410
689.146	20332
689.155	20245
689.201	19754
689.246	19931
689.267	19921
689.291	20309
689.336	20409
689.381	21056
689.388	21082
689.426	20811
689.471	20954
689.509	20490
689.516	20452
689.561	20361
689.606	20094
689.630	20438
689.651	20736
689.696	19902
689.741	20299
689.750	20320
689.785	20871
689.830	21056
689.871	21214
689.875	21172
689.920	20502
689.965	19828
689.992	19556
690.010	19771
690.054	20089
690.099	20376
690.112	20517
690.144	20620
690.189	20522
690.233	20072
690.233	20094
690.278	20509
690.323	20436
690.354	20572
690.367	20676
690.412	20673
690.457	20748
690.474	20872
690.501	20974
690.546	20608
690.590	19984
690.595	19944
690.635	20053
690.680	20446
690.716	20236
690.724	20238
690.769	20626
690.813	21045
690.836	20771
690.857	20639
690.902	21135
690.946	21572
690.957	21565
690.991	22011
691.035	22632
691.077	23748
691.080	23827
691.124	23815
691.168	24937
691.198	25003
691.213	24916
691.257	25185
691.301	24572
691.318	24441
691.346	23849
691.390	22899
691.434	21913
691.439	21790
691.478	22308
691.522	23218
691.559	23628
691.567	23718
691.611	23769
691.655	24048
691.680	24187
691.699	24133
691.743	23733
691.787	23307
691.800	23207
691.831	23671
691.875	24389
691.919	25271
691.921	25238
691.964	25223
692.008	25707
692.041	25836
692.052	25782
692.096	25572
692.139	25598
692.162	25098
692.183	24741
692.227	24651
692.271	24109
692.282	24134
692.315	24628
692.359	24408
692.402	24483
692.403	24526
692.447	24629
692.490	24758
692.523	24532
692.534	24607
692.578	25286
692.622	25500
692.643	25722
692.666	25590
692.709	24731
692.753	24133
692.763	23965
692.797	24002
692.840	24346
692.884	24173
692.884	24220
692.928	24609
692.971	25167
693.004	25405
693.015	25348
693.059	24959
693.102	24784
693.124	24501
693.146	24806
693.189	25795
693.233	26216
693.245	26446
693.276	26631
693.320	26290
693.363	26461
693.365	26394
693.407	26448
693.450	26830
693.485	27052
693.493	27121
693.537	27322
693.580	27170
693.605	27201
693.624	27108
693.667	26692
693.710	26325
693.725	26157
693.753	27103
693.797	28629
693.840	29954
693.845	30051
693.883	28991
693.926	27657
693.966	26380
693.970	26339
694.013	25490
694.056	24498
694.086	23881
694.099	24256
694.142	25657
694.185	26448
694.206	26920
694.229	27332
694.272	27905
694.315	28794
694.326	28837
694.358	28660
694.401	28455
694.444	28566
694.446	28500
694.487	28259
694.530	27759
694.566	27621
694.573	27535
694.616	26091
694.659	25201
694.686	24346
694.702	24332
694.745	24433
694.787	24329
694.806	24267
694.830	24439
694.873	24625
694.916	24860
694.926	24847
694.959	24801
695.002	24877
695.044	24573
695.046	24523
695.087	25313
695.130	25646
695.166	26228
695.172	26327
695.215	26373
695.258	26528
695.286	26467
695.301	26521
695.343	26700
695.386	26801
695.406	26692
695.428	26357
695.471	25894
695.514	25178
695.526	25003
695.556	25552
695.599	26126
695.641	26615
695.646	26625
695.684	26372
695.726	25822
695.766	25350
695.769	25429
695.811	25673
695.854	26156
695.886	26282
695.896	26236
695.938	25912
695.981	25413
696.005	25174
696.023	25565
696.065	26256
696.108	27103
696.125	27371
696.150	27415
696.192	27383
696.235	27055
696.245	27012
696.277	26938
696.319	26450
696.361	26214
696.365	26119
696.404	26133
696.446	26197
696.485	26126
696.488	26244
696.530	26973
696.572	27682
696.604	28164
696.614	28053
696.656	27347
696.698	26591
696.724	26077
696.740	26226
696.783	26502
696.825	26733
696.844	26806
696.867	26852
696.909	26622
696.951	26528
696.964	26439
696.992	26599
697.034	26703
697.076	26706
697.083	26680
697.118	26956
697.160	27056
697.202	27217
697.203	27151
697.244	27162
697.286	27392
697.323	27268
697.327	27270
697.369	26954
697.411	26377
697.442	26021
697.453	26291
697.494	27035
697.536	27814
697.562	28252
697.578	28296
697.620	28183
697.661	28010
697.682	27892
697.703	28444
697.744	29366
697.786	30379
697.801	30659
697.828	30691
697.869	30575
697.911	30426
697.921	30318
697.952	29757
697.994	28959
698.035	28143
698.040	27973
698.077	27656
698.118	27253
698.160	26778
698.160	26708
698.201	27021
698.243	27263
698.279	27442
698.284	27543
698.325	27845
698.367	28145
698.399	28213
698.408	28188
698.449	27853
698.491	27476
698.518	27171
698.532	27372
698.573	27770
698.614	28158
698.638	28307
698.656	28471
698.697	28683
698.738	28902
698.757	28944
698.779	29352
698.820	29952
698.862	30573
698.877	30720
698.903	31082
698.944	31554
698.985	32016
698.996	32064
699.026	31348
699.067	30248
699.116	28861
699.235	29719
699.354	28083
699.474	29749
699.593	33072
699.713	30530
699.832	29301
699.951	30439
700.070	29257
700.190	27547
700.309	30009
700.428	31573
700.547	27389
700.667	28976
700.786	31182
700.905	27156
701.024	30375
701.143	27187
701.262	24599
701.381	26814
701.500	28146
701.619	28662
701.738	24635
701.857	25410
701.976	24474
702.095	25059
702.214	28144
702.333	27388
702.452	25965
702.571	24948
702.690	25310
702.809	24579
702.928	23301
703.047	24683
703.165	23919
703.284	24324
703.403	24098
703.522	28344
703.640	27568
703.759	35360
703.878	41554
703.997	26138
704.115	24336
704.234	24828
704.353	23110
704.471	22573
704.590	22787
704.708	21993
704.827	22053
704.946	24391
705.064	25643
705.183	24135
705.301	29659
705.420	42435
705.538	35502
705.656	29180
705.775	27717
705.893	31104
706.012	33302
706.130	32424
706.249	31817
706.367	32601
706.485	33925
706.604	31969
706.722	33499
706.840	40261
706.958	34213
707.077	29600
707.195	29950
707.313	28634
707.431	27913
707.549	28779
707.668	27529
707.786	29291
707.904	27277
708.022	27157
708.140	26686
708.258	26648
708.376	28365
708.494	28561
708.612	32995
708.730	46206
708.848	40362
708.966	39284
709.084	35348
709.202	35111
709.320	36111
709.438	36757
709.556	35771
709.674	35418
709.791	35674
709.909	33950
710.027	35172
710.145	34394
710.263	36352
710.380	35823
710.498	32321
710.616	34399
710.733	33594
710.851	36934
710.969	35565
711.086	34376
711.204	32240
711.322	33940
711.439	34240
711.557	34324
711.674	32897
711.792	32986
711.909	30286
712.027	30906
712.144	30587
712.262	31612
712.379	36698
712.497	51716
712.614	48845
712.732	42125
712.849	40117
712.966	44854
713.084	50148
713.201	44222
713.318	42430
713.436	41238
713.553	41209
713.670	42371
713.787	46973
713.905	45786
714.022	39461
714.139	41429
714.256	44182
714.373	52893
714.490	73961
714.608	171588
714.725	649416
714.842	431803
714.959	52585
715.076	40218
715.193	37798
715.310	36696
715.427	35026
715.544	34588
715.661	34690
715.778	35734
715.895	39235
716.011	37451
716.128	34886
716.245	35332
716.362	39612
716.479	38820
716.596	32643
716.713	34233
716.829	32607
716.946	33231
717.063	30541
717.180	31751
717.296	30216
717.413	31075
717.530	31528
717.646	29699
717.763	29346
717.880	29496
717.996	29411
718.113	30349
718.229	29987
718.346	28309
718.462	29100
718.579	37816
718.695	52375
718.812	43268
718.928	44282
719.045	30373
719.161	27760
719.277	26548
719.394	26500
719.510	29259
719.626	29525
719.743	37325
719.859	37818
719.975	62187
720.092	202082
720.208	303892
720.324	47412
720.440	31873
720.557	34619
720.673	49620
720.789	73052
720.905	138631
721.021	41470
721.137	26368
721.253	28735
721.369	29265
721.486	34583
721.602	44049
721.718	26117
721.834	24163
721.950	25222
722.066	24376
722.181	24114
722.297	26566
722.413	23066
722.529	23675
722.645	23064
722.761	23303
722.877	21984
722.993	22278
723.108	24712
723.224	22619
723.340	23480
723.456	22151
723.571	22753
723.687	21669
723.803	21463
723.918	22042
724.034	22046
724.150	22827
724.265	28061
724.381	61963
724.497	56524
724.612	21846
724.728	19598
724.843	21623
724.959	27667
725.074	58546
725.190	49905
725.305	24424
725.421	20446
725.536	19479
725.651	18876
725.767	19528
725.882	17809
725.997	18924
726.113	19589
726.228	18304
726.343	17839
726.459	17934
726.574	19050
726.689	17853
726.804	18368
726.920	18700
727.035	19102
727.150	19444
727.265	18140
727.380	19962
727.495	17826
727.610	16411
727.725	16983
727.841	17146
727.956	17499
728.071	21817
728.186	16087
728.301	16339
728.416	17517
728.531	16927
728.645	15288
728.760	18922
728.875	18520
728.990	16732
729.105	16759
729.220	17775
729.335	16837
729.449	15419
729.564	13964
729.679	14647
729.794	14699
729.908	18773
730.023	15647
730.138	13818
730.253	14858
730.367	13789
730.482	14541
730.596	15013
730.711	15930
730.826	15713
730.940	14535
731.055	15669
731.169	13474
731.284	13996
731.398	14934
731.513	18487
731.627	16446
731.742	21740
731.856	20078
731.970	15993
732.085	17046
732.199	21365
732.313	31645
732.428	76946
732.542	200805
732.656	81530
732.771	22620
732.885	17931
732.999	17668
733.113	19446
733.227	16686
733.342	15635
733.456	15337
733.570	15132
733.684	14818
733.798	15380
733.912	14434
734.026	13962
734.140	14977
734.254	19887
734.368	35668
734.482	32020
734.596	14189
734.710	14846
734.824	13773
734.938	14407
735.052	14687
735.166	17506
735.280	14745
735.393	13817
735.507	15081
735.621	22753
735.735	37980
735.849	16782
735.962	12772
736.076	15995
736.190	16020
736.303	25118
736.417	24193
736.531	15003
736.644	14638
736.758	12452
736.872	12747
736.985	12616
737.099	10707
737.212	11849
737.326	12060
737.439	12425
737.553	12950
737.666	12776
737.780	10817
737.893	12057
738.007	11880
738.120	12409
738.233	11318
738.347	11970
738.460	12742
738.573	12916
738.687	12181
738.800	13817
738.913	16373
739.026	11822
739.140	12225
739.253	10794
739.366	10879
739.479	10969
739.592	10606
739.705	11035
739.818	11573
739.932	11075
740.045	10824
740.158	11457
740.271	11139
740.384	10574
740.497	11805
740.610	12193
740.723	11106
740.836	11297
740.949	12688
741.062	16359
741.174	13310
741.287	11808
741.400	10212
741.513	11530
741.626	12489
741.739	11508
741.851	11144
741.964	10693
742.077	11115
742.189	12561
742.302	12363
742.415	11936
742.527	10480
742.640	10069
742.753	9601
742.865	9497
742.978	9885
743.090	10361
743.203	10203
743.316	9447
743.428	8320
743.541	9458
743.653	9078
743.766	9725
743.878	10222
743.990	16939
744.103	13640
744.215	11177
744.327	9393
744.440	13255
744.552	17690
744.664	10112
744.777	8431
744.889	8566
745.001	8458
745.113	9045
745.226	8246
745.338	8866
745.450	9057
745.562	8861
745.674	8117
745.786	8139
745.898	7780
746.010	7282
746.122	7918
746.234	8610
746.347	8571
746.459	8708
746.570	7936
746.682	9472
746.794	11061
746.906	8858
747.018	8388
747.130	8486
747.242	7887
747.354	8421
747.466	8801
747.577	7513
747.689	7317
747.801	8501
747.913	6807
748.024	7270
748.136	7304
748.248	7879
748.359	7268
748.471	8162
748.583	7292
748.694	8589
748.806	9740
748.918	12189
749.029	9423
749.141	9780
749.252	8438
749.364	11523
749.475	20485
749.587	12208
749.698	7590
749.809	7594
749.921	7336
750.032	6965
750.144	7127
750.255	7027
750.366	7065
750.478	6866
750.589	7044
750.700	7871
750.811	8381
750.923	11741
751.034	24148
751.145	18390
751.256	7331
751.367	6596
751.479	7221
751.590	6691
751.701	5952
751.812	6327
751.923	6658
752.034	6545
752.145	6936
752.256	6804
752.367	6529
752.478	7152
752.589	5648
752.700	7120
752.811	6483
752.922	6626
753.032	7846
753.143	8745
753.254	6328
753.365	6952
753.476	6690
753.586	6908
753.697	6229
753.808	6639
753.919	5820
754.029	6499
754.140	6161
754.251	6691
754.361	6986
754.472	6082
754.582	7396
754.693	6661
754.804	5599
754.914	4887
755.025	5901
755.135	6284
755.246	5792
755.356	5967
755.466	6025
755.577	6721
755.687	6949
755.798	5873
755.908	6582
756.018	6191
756.129	5884
756.239	6840
756.349	6825
756.460	6469
756.570	7055
756.680	6774
756.790	6802
756.900	7116
757.011	6052
757.121	5582
757.231	5514
757.341	6348
757.451	5641
757.561	6264
757.671	5814
757.781	5511
757.891	6282
758.001	6778
758.111	6477
758.221	6457
758.331	9014
758.441	7791
758.551	11090
758.661	9065
758.771	7537
758.880	7464
758.990	7120
759.100	7006
759.210	6702
759.320	7054
759.429	7373
759.539	8465
759.649	7429
759.758	7907
759.868	7828
759.978	8329
760.087	8213
760.197	8347
760.307	8267
760.416	8081
760.526	7047
760.635	8736
760.745	7513
760.854	8687
760.964	8954
761.073	9080
761.182	8067
761.292	8393
761.401	9100
761.511	7530
761.620	7289
761.729	8243
761.839	7706
761.948	7768
762.057	7632
762.166	7495
762.276	5702
762.385	7029
762.494	6561
762.603	6870
762.712	6653
762.822	7605
762.931	7525
763.040	6898
763.149	6155
763.258	6833
763.367	7099
763.476	7470
763.585	6217
763.694	6654
763.803	7529
763.912	7640
764.021	7337
764.130	7918
764.238	6871
764.347	7700
764.456	7190
764.565	7882
764.674	7305
764.783	8436
764.891	7191
765.000	8585
765.109	8263
765.217	8557
765.326	10614
765.435	12114
765.543	10701
765.652	11461
765.761	11956
765.869	17248
765.978	23991
766.086	41648
766.195	81310
766.303	239214
766.412	692240
766.520	436824
766.629	85234
766.737	35278
766.846	23645
766.954	17308
767.062	16344
767.171	13793
767.279	12356
767.387	9875
767.496	9766
767.604	10029
767.712	8064
767.820	9584
767.928	9415
768.037	8420
768.145	9025
768.253	9686
768.361	8271
768.469	9217
768.577	8287
768.685	9628
768.793	9155
768.901	9571
769.009	9739
769.117	9603
769.225	11126
769.333	14957
769.441	19949
769.549	34931
769.657	83715
769.765	299138
769.873	525050
769.981	118132
770.088	27748
770.196	18273
770.304	14745
770.412	13165
770.519	11804
770.627	10154
770.735	9496
770.842	9919
770.950	8990
771.058	9754
771.165	9187
771.273	8909
771.380	8270
771.488	9861
771.595	9548
771.703	9049
771.810	9447
771.918	8584
772.025	9681
772.133	9656
772.240	8694
772.348	10698
772.455	9543
772.562	9436
772.670	8548
772.777	9566
772.884	8272
772.991	8738
773.099	9230
773.206	8234
773.313	8169
773.420	8569
773.528	7431
773.635	8116
773.742	8413
773.849	8659
773.956	8072
774.063	8770
774.170	8681
774.277	10141
774.384	7779
774.491	8566
774.598	8923
774.705	9996
774.812	11306
774.919	10017
775.026	10325
775.133	9002
775.239	8407
775.346	8473
775.453	8635
775.560	8113
775.667	9084
775.773	8202
775.880	8882
775.987	9172
776.093	8121
776.200	7835
776.307	7835
776.413	8632
776.520	8381
776.627	9258
776.733	7940
776.840	7698
776.946	9861
777.053	11306
777.159	14893
777.266	10005
777.372	14232
777.478	12143
777.585	9081
777.691	7407
777.798	8196
777.904	8709
778.010	11796
778.117	10448
778.223	8452
778.329	8693
778.435	7106
778.542	7996
778.648	7828
778.754	7514
778.860	7649
778.966	8894
779.072	7661
779.178	8136
779.284	7076
779.391	6865
779.497	6444
779.603	7855
779.708	5895
779.815	9713
779.920	15097
780.026	18242
780.132	7388
780.238	6501
780.344	7192
780.450	8177
780.556	6822
780.661	6796
780.767	7825
780.873	6245
780.979	7190
781.085	6861
781.190	6332
781.296	6203
781.402	6868
781.507	6432
781.613	5365
781.719	6299
781.824	6229
781.930	7510
782.035	6495
782.141	6744
782.246	5859
782.352	7090
782.457	6796
782.563	6227
782.668	6391
782.773	7486
782.879	5508
782.984	7445
783.090	9347
783.195	12296
783.300	8661
783.405	8329
783.511	7350
783.616	8134
783.721	7406
783.826	6519
783.932	7539
784.037	7354
784.142	7164
784.247	6546
784.352	5897
784.457	7614
784.562	6244
784.667	7036
784.772	5505
784.877	6373
784.982	5478
785.087	6099
785.192	7514
785.297	6399
785.402	5906
785.507	6059
785.611	6281
785.716	5769
785.821	5777
785.926	5158
786.031	5824
786.135	5486
786.240	5068
786.345	4645
786.450	5182
786.554	6000
786.659	4322
786.763	5115
786.868	6293
786.973	6890
787.077	4868
787.182	4812
787.286	6097
787.391	5635
787.495	3784
787.600	4738
787.704	5308
787.809	5836
787.913	5219
788.017	5810
788.122	4807
788.226	5726
788.330	4940
788.435	4876
788.539	4993
788.643	4796
788.747	4529
788.852	4803
788.956	4062
789.060	6108
789.164	4546
789.268	4775
789.372	4828
789.476	5398
789.580	3550
789.684	3790
789.788	5395
789.892	5470
789.996	5246
790.100	5399
790.204	4798
790.308	5571
790.412	4450
790.516	4576
790.620	4859
790.724	4836
790.828	4410
790.931	4131
791.035	6744
791.139	4901
791.242	4299
791.346	6010
791.450	4368
791.554	4488
791.657	3459
791.761	5763
791.864	4290
791.968	5491
792.072	4880
792.175	4787
792.279	4881
792.382	5395
792.486	4583
792.589	5614
792.693	5572
792.796	4771
792.899	4823
793.003	4763
793.106	2497
793.209	4873
793.313	5577
793.416	3148
793.519	6521
793.623	8769
793.726	10102
793.829	5276
793.932	4576
794.035	4356
794.138	5909
794.242	6681
794.345	5834
794.448	8354
794.551	9295
794.654	11858
794.757	11255
794.860	8188
794.963	5556
795.066	3427
795.169	4810
795.272	3114
795.375	4775
795.477	3411
795.580	4581
795.683	3262
795.786	4443
795.889	3403
795.991	5799
796.094	6784
796.197	3634
796.300	5307
796.402	3284
796.505	3614
796.608	3121
796.710	4730
796.813	3841
796.915	3231
797.018	4578
797.120	3708
797.223	2133
797.326	4259
797.428	3153
797.530	3751
797.633	3385
797.735	6768
797.838	12228
797.940	7370
798.042	2639
798.145	3477
798.247	3908
798.349	1282
798.452	3508
798.554	3277
798.656	2543
798.758	5117
798.860	3295
798.962	3553
799.065	2948
799.167	3487
799.269	4313
799.371	5034
799.473	5709
799.575	7556
799.677	7190
799.779	7375
799.881	7971
799.983	5326
800.085	3204
800.187	3386
800.289	3276
800.390	3126
800.492	4559
800.594	4588
800.696	2980
800.798	3978
800.899	3252
801.001	3416
801.103	2625
801.205	3097
801.306	3310
801.408	2131
801.509	2783
801.611	3201
801.713	3217
801.814	2490
801.916	3533
802.017	3243
802.119	2288
802.220	3205
802.322	2040
802.423	7890
802.525	3723
802.626	3573
802.727	3108
802.829	3105
802.930	1825
803.031	5030
803.133	2783
803.234	2949
803.335	2630
803.436	1594
803.538	2447
803.639	2067
803.740	3105
803.841	2802
803.942	3625
804.043	3896
804.144	1417
804.245	2857
804.346	2857
804.447	3173
804.548	5790
804.649	6049
804.750	2495
804.851	2820
804.952	1613
805.053	3203
805.154	1289
805.255	3741
805.355	2389
805.456	2019
805.557	1395
805.658	1774
805.758	2903
805.859	2176
805.960	2272
806.061	1976
806.161	1581
806.262	2702
806.362	2242
806.463	2151
806.564	3042
806.664	3323
806.765	4172
806.865	3997
806.966	3495
807.066	1969
807.166	2599
807.267	3147
807.367	1858
807.468	2593
807.568	1277
807.668	2855
807.769	2551
807.869	1636
807.969	2519
808.069	2694
808.170	2133
808.270	2508
808.370	3502
808.470	4947
808.570	2605
808.670	2091
808.770	2057
808.870	1912
808.970	2746
809.070	2212
809.170	1713
809.271	2692
809.370	1931
809.470	3059
809.570	1912
809.670	1323
809.770	2031
809.870	2622
809.970	1937
810.070	2232
810.169	1875
810.269	546
810.369	1840
810.469	1526
810.568	1821
810.668	2605
810.768	1632
810.867	3248
810.967	1353
811.066	2838
811.166	1732
811.265	2964
811.365	2090
811.464	2673
811.564	2274
811.663	2293
811.763	883
811.862	2841
811.962	2689
812.061	1949
812.160	1487
812.260	3244
812.359	3506
812.458	5942
812.557	13717
812.657	14918
812.756	4512
812.855	2974
812.954	1433
813.053	3164
813.153	2235
813.252	2071
813.351	2883
813.450	2822
813.549	1965
813.648	2262
813.747	2231
813.846	2360
813.945	1881
814.044	2518
814.143	2233
814.242	2609
814.341	1483
814.439	2744
814.538	2774
814.637	2936
814.736	1764
814.835	2841
814.933	2211
815.032	3908
815.131	3046
815.229	4051
815.328	4688
815.427	3733
815.525	4224
815.624	4878
815.722	4201
815.821	3982
815.919	3690
816.018	3786
816.116	4986
816.215	4626
816.313	4724
816.412	4525
816.510	5254
816.609	7402
816.707	5668
816.805	5192
816.904	5133
817.002	6822
817.100	7112
817.198	8449
817.296	7538
817.395	8363
817.493	10559
817.591	10832
817.689	13948
817.787	18911
817.885	30951
817.983	58109
818.081	126161
818.179	300396
818.277	642195
818.375	404193
818.473	115717
818.571	50720
818.669	36097
818.767	33399
818.865	32988
818.963	41131
819.061	62550
819.158	110191
819.256	237963
819.354	551043
819.452	941761
819.549	481692
819.647	152099
819.745	70459
819.842	44776
819.940	32061
820.038	23662
820.135	18242
820.233	15211
820.330	11796
820.428	10599
820.525	11027
820.623	8970
820.720	8426
820.818	7117
820.915	7683
821.012	6943
821.110	5381
821.207	6274
821.304	5962
821.402	5825
821.499	7182
821.596	7701
821.693	6400
821.791	6725
821.888	8491
821.985	12891
822.082	9245
822.179	6322
822.276	5501
822.373	3597
822.470	4131
822.567	3950
822.664	3475
822.761	4489
822.858	3194
822.955	4139
823.052	3880
823.149	3652
823.246	4549
823.343	3474
823.440	4176
823.536	3453
823.633	2431
823.730	2466
823.827	4278
823.923	3142
824.020	4083
824.117	3930
824.213	3059
824.310	3500
824.407	3481
824.503	3591
824.600	3018
824.696	2982
824.793	4203
824.889	2879
824.986	3155
825.082	2579
825.179	2412
825.275	3465
825.371	2809
825.468	2407
825.564	2147
825.660	3357
825.757	3108
825.853	3099
825.949	1216
826.045	1938
826.142	1958
826.238	1913
826.334	2966
826.430	1490
826.526	3324
826.622	851
826.718	2937
826.814	2330
826.910	2935
827.006	1792
827.102	1612
827.198	2843
827.294	2054
827.390	2949
827.486	2457
827.582	1988
827.678	2117
827.774	3161
827.869	1744
827.965	3045
828.061	1326
828.157	2173
828.252	1994
828.348	2038
828.444	2927
828.539	643
828.635	2408
828.731	2720
828.826	1692
828.922	2621
829.017	1561
829.113	2996
829.208	2473
829.304	1599
829.399	2469
829.495	2092
829.590	2443
829.685	1123
829.781	3069
829.876	1507
829.971	1657
830.066	1009
830.162	2594
830.257	1502
830.352	1962
830.447	2387
830.543	3123
830.638	1720
830.733	3363
830.828	2446
830.923	2670
831.018	1726
831.113	3292
831.208	1639
831.303	2765
831.398	1711
831.493	2218
831.588	2978
831.683	849
831.778	1741
831.873	2376
831.967	2187
832.062	2523
832.157	927
832.252	2636
832.346	1910
832.441	4316
832.536	4672
832.631	11570
832.725	7085
832.820	2293
832.914	1516
833.009	1557
833.104	2908
833.198	3591
833.293	2076
833.387	2798
833.482	1666
833.576	882
833.670	2484
833.765	1765
833.859	2350
833.954	2499
834.048	1419
834.142	1843
834.237	1514
834.331	2250
834.425	1334
834.519	1402
834.613	2801
834.708	1481
834.802	2062
834.896	764
834.990	1003
835.084	1747
835.178	1228
835.272	2416
835.366	1942
835.460	3051
835.554	1670
835.648	1461
835.742	1307
835.836	2324
835.930	1435
836.024	2652
836.117	3397
836.211	3700
836.305	4648
836.399	6550
836.493	1406
836.586	2035
836.680	1242
836.774	1824
836.867	2611
836.961	1200
837.055	2065
837.148	1512
837.242	2033
837.335	1506
837.429	1764
837.522	2044
837.616	3927
837.709	8310
837.803	3977
837.896	3763
837.989	1987
838.083	4958
838.176	11526
838.269	7224
838.363	3509
838.456	1980
838.549	4403
838.642	6106
838.735	11529
838.829	5001
838.922	1209
839.015	1775
839.108	156
839.201	1344
839.294	3246
839.387	2446
839.480	2339
839.573	5110
839.666	5408
839.759	2475
839.852	-6
839.945	1769
840.038	1504
840.131	574
840.223	1612
840.316	1788
840.409	1834
840.502	311
840.594	1958
840.687	872
840.780	1582
840.873	1951
840.965	2568
841.058	4979
841.150	9346
841.243	6038
841.336	2838
841.428	1613
841.521	1682
841.613	1945
841.706	2389
841.798	1199
841.890	1863
841.983	788
842.075	1862
842.167	2037
842.260	2584
842.352	5563
842.444	4837
842.537	11992
842.629	13273
842.721	2909
842.813	1488
842.905	1900
842.997	1909
843.090	2834
843.182	6740
843.274	12679
843.366	28668
843.458	46032
843.550	22677
843.642	3428
843.734	3393
843.826	4282
843.918	3591
844.009	2010
844.101	338
844.193	2185
844.285	1399
844.377	2282
844.469	2609
844.560	3723
844.652	2735
844.744	2021
844.835	2765
844.927	2110
845.019	3959
845.110	2917
845.202	2025
845.293	1225
845.385	325
845.476	1095
845.568	1551
845.659	2231
845.751	1960
845.842	1184
845.934	994
846.025	766
846.116	1635
846.208	1243
846.299	1468
846.390	1949
846.482	1143
846.573	3479
846.664	4152
846.755	5441
846.846	3781
846.937	332
847.029	775
847.120	1173
847.211	732
847.302	1501
847.393	287
847.484	2595
847.575	755
847.666	853
847.757	940
847.847	1354
847.938	1274
848.029	997
848.120	610
848.211	2152
848.302	675
848.392	841
848.483	2055
848.574	982
848.664	1214
848.755	1397
848.846	803
848.936	305
849.027	511
849.118	1387
849.208	559
849.299	3687
849.389	6313
849.480	13044
849.570	23813
849.661	47677
849.751	59876
849.841	15874
849.932	3682
850.022	1252
850.112	1811
850.203	1007
850.293	1339
850.383	1570
850.474	1480
850.564	1538
850.654	1008
850.744	1367
850.834	1586
850.924	1458
851.014	1773
851.104	2117
851.194	1501
851.284	2917
851.374	2515
851.464	2602
851.554	1761
851.644	3113
851.734	4689
851.824	3026
851.914	180
852.004	1213
852.094	656
852.183	974
852.273	1352
852.363	662
852.452	1392
852.542	1496
852.632	765
852.721	1346
852.811	2017
852.901	1999
852.990	1373
853.080	1744
853.169	1214
853.259	2047
853.348	2485
853.438	3850
853.527	5185
853.617	8587
853.706	17734
853.795	34228
853.885	73718
853.974	133253
854.063	259495
854.152	316343
854.242	88352
854.331	17013
854.420	7513
854.509	6741
854.598	5532
854.687	4701
854.777	4946
854.866	3281
854.955	1918
855.044	2222
855.133	2010
855.222	1817
855.311	1138
855.400	1957
855.488	1377
855.577	1627
855.666	1929
855.755	1598
855.844	1618
855.933	1522
856.021	2096
856.110	1678
856.199	82
856.288	877
856.376	1455
856.465	1110
856.554	1132
856.642	1769
856.731	924
856.819	1472
856.908	790
856.996	779
857.085	764
857.173	1492
857.262	743
857.350	1620
857.438	913
857.527	1380
857.615	1039
857.703	1150
857.792	396
857.880	696
857.968	691
858.056	939
858.145	1309
858.233	1108
858.321	-148
858.409	1783
858.497	864
858.585	477
858.673	753
858.761	1003
858.849	328
858.937	1008
859.025	1771
859.113	1699
859.201	389
859.289	2221
859.377	1230
859.465	1278
859.552	1066
859.640	1314
859.728	1047
859.816	2190
859.903	1572
859.991	1396
860.079	972
860.166	1660
860.254	504
860.342	533
860.429	151
860.517	832
860.604	633
860.692	2286
860.779	54
860.867	1334
860.954	721
861.042	1560
861.129	1278
861.216	1703
861.304	572
861.391	1464
861.478	1108
861.565	1291
861.653	2072
861.740	313
861.827	1107
861.914	1136
862.001	883
862.089	875
862.176	-137
862.263	398
862.350	1262
862.437	239
862.524	589
862.611	1896
862.698	1411
862.785	1904
862.871	1788
862.958	833
863.045	969
863.132	853
863.219	567
863.306	137
863.392	1538
863.479	1096
863.566	1371
863.652	1532
863.739	461
863.826	1291
863.912	1507
863.999	991
864.086	752
864.172	1154
864.259	720
864.345	677
864.432	1406
864.518	1453
864.604	805
864.691	2028
864.777	1053
864.863	3057
864.950	2534
865.036	2468
865.122	4001
865.209	4025
865.295	3828
865.381	4562
865.467	4827
865.553	7133
865.639	10538
865.726	18767
865.812	38494
865.898	70059
865.984	100638
866.070	198410
866.156	156470
866.242	33746
866.328	9687
866.414	4654
866.499	5143
866.585	3439
866.671	3493
866.757	3579
866.843	2613
866.928	2496
867.014	2261
867.100	3384
867.186	3743
867.271	4472
867.357	5875
867.442	6210
867.528	2903
867.614	3279
867.699	2530
867.785	3516
867.870	3360
867.956	3899
868.041	4120
868.127	4437
868.212	5020
868.297	3887
868.383	3290
868.468	4509
868.553	7788
868.639	8587
868.724	14729
868.809	12244
868.894	2999
868.979	3514
869.065	2966
869.150	2434
869.235	1390
869.320	910
869.405	1840
869.490	2307
869.575	1827
869.660	1394
869.745	2032
869.830	1868
869.915	1049
870.000	1500
870.085	1706
870.169	2852
870.254	1962
870.339	858
870.424	1068
870.509	1750
870.593	1861
870.678	1533
870.763	2057
870.847	2460
870.932	1275
871.016	2360
871.101	1967
871.186	2477
871.270	769
871.355	1134
871.439	2118
871.523	1671
871.608	1394
871.692	1024
871.777	2226
871.861	1791
871.945	1571
872.030	2178
872.114	725
872.198	1869
872.282	1855
872.367	981
872.451	1240
872.535	1890
872.619	1124
872.703	1566
872.787	713
872.871	2162
872.955	756
873.039	1319
873.123	1424
873.207	2246
873.291	746
873.375	1717
873.459	1605
873.543	1015
873.627	1438
873.711	1506
873.794	1476
873.878	851
873.962	485
874.045	1367
874.129	2326
874.137	2257
874.213	1565
874.245	1336
874.296	962
874.352	1321
874.380	1495
874.460	1373
874.464	1368
874.547	1488
874.568	1540
874.631	1656
874.676	1650
874.714	1661
874.784	1812
874.798	1844
874.881	2431
874.892	2251
874.965	992
874.999	1566
875.048	2352
875.107	1583
875.131	1265
875.215	1635
875.215	1635
875.298	798
875.323	965
875.381	1346
875.430	1504
875.465	1616
875.538	1809
875.548	1834
875.631	628
875.646	692
875.714	920
875.753	974
875.798	1153
875.861	1556
875.881	1641
875.964	1406
875.968	1414
876.047	1758
876.076	1812
876.130	1728
876.183	1719
876.213	1779
876.291	1923
876.296	1928
876.379	1865
876.398	1743
876.462	1443
876.506	1450
876.545	1341
876.613	1581
876.628	1683
876.711	2119
876.721	2064
876.794	1608
876.828	1651
876.877	1585
876.935	1699
876.960	1817
877.043	2495
877.043	2492
877.125	1929
877.150	2273
877.208	2924
877.258	2753
877.291	2630
877.365	2379
877.374	2371
877.456	3040
877.472	2965
877.539	2615
877.579	2895
877.622	3234
877.687	2884
877.704	2734
877.787	2368
877.794	2386
877.869	2727
877.901	2560
877.952	2278
878.008	2073
878.034	1934
878.115	1577
878.117	1577
878.199	2173
878.222	2155
878.282	2064
878.329	2625
878.364	3048
878.437	2439
878.447	2338
878.529	1874
878.544	1840
878.611	1823
878.651	1942
878.694	2057
878.758	1613
878.776	1539
878.858	2300
878.865	2305
878.941	1992
878.972	1908
879.023	2032
879.078	1974
879.105	1929
879.185	3005
879.187	3030
879.269	3490
879.292	3263
879.351	2262
879.399	2036
879.433	2198
879.506	2124
879.516	2089
879.598	2392
879.613	2318
879.680	2027
879.720	2347
879.762	2803
879.827	2508
879.844	2339
879.926	2615
879.933	2676
880.007	3777
880.040	3750
880.089	3876
880.147	5947
880.171	6779
880.253	9752
880.254	9771
880.335	15270
880.360	16702
880.417	24556
880.467	37669
880.499	45780
880.574	51488
880.580	49887
880.662	18133
880.680	13182
880.744	5859
880.787	3100
880.825	2910
880.893	2151
880.907	2022
880.989	2499
881.000	2465
881.070	2364
881.106	2302
881.152	2216
881.213	2042
881.233	2029
881.315	1790
881.319	1785
881.396	1900
881.426	1976
881.478	2033
881.532	2168
881.559	2132
881.639	1486
881.641	1484
881.722	1826
881.745	1812
881.803	1970
881.852	2043
881.885	2073
881.958	2884
881.966	2949
882.047	3275
882.064	3239
882.129	3396
882.171	3993
882.210	5406
882.277	7368
882.291	7164
882.372	4152
882.383	3918
882.454	3332
882.489	2780
882.535	2112
882.596	2062
882.616	2197
882.697	2167
882.702	2153
882.778	2111
882.808	2181
882.859	2082
882.914	1917
882.940	1880
883.020	1760
883.021	1768
883.102	2006
883.127	2081
883.183	2076
883.233	2070
883.264	2012
883.339	1790
883.345	1777
883.426	1992
883.445	1845
883.507	1780
883.551	2415
883.587	2721
883.657	2208
883.668	2219
883.749	2555
883.763	2597
883.830	1760
883.869	1196
883.910	1062
883.975	1393
883.991	1498
884.072	1947
884.081	1943
884.152	2156
884.187	2102
884.233	1801
884.292	2033
884.314	2172
884.394	1816
884.398	1836
884.475	1779
884.504	1567
884.555	1739
884.610	1776
884.636	1712
884.716	2019
884.716	2028
884.797	2267
884.821	2407
884.877	2342
884.927	2219
884.958	2118
885.033	1595
885.038	1585
885.118	1873
885.139	1793
885.199	1631
885.244	1656
885.279	1766
885.350	2160
885.359	2278
885.439	3055
885.456	3141
885.520	2316
885.561	2025
885.600	2292
885.667	2567
885.680	2576
885.760	2526
885.773	2557
885.840	2529
885.878	2313
885.920	2305
885.984	2288
886.000	2381
886.080	3120
886.089	3175
886.160	3186
886.195	3145
886.240	2946
886.300	2552
886.320	2602
886.400	3177
886.406	3203
886.480	3844
886.511	3944
886.560	4577
886.616	5485
886.640	5185
886.720	3916
886.722	3872
886.800	2749
886.827	2365
886.879	2374
886.932	2483
886.959	2798
887.038	3575
887.039	3577
887.119	2763
887.143	2524
887.198	2695
887.248	2850
887.278	2734
887.354	2334
887.358	2321
887.437	2062
887.459	1923
887.517	2580
887.564	3188
887.596	3150
887.669	2841
887.676	2812
887.755	2618
887.774	2480
887.835	2777
887.880	3212
887.914	3112
887.985	2611
887.994	2643
888.073	3012
888.090	3041
888.153	3226
888.195	3403
888.232	3054
888.300	2348
888.311	2339
888.391	2227
888.405	2209
888.470	2358
888.510	2415
888.549	2421
888.615	2409
888.628	2576
888.708	3553
888.720	3697
888.787	3205
888.825	2890
888.866	2765
888.930	2539
888.945	2598
889.024	2928
889.035	2956
889.103	3818
889.140	4270
889.182	3736
889.245	2919
889.261	2963
889.340	3177
889.349	3188
889.419	3146
889.454	3118
889.498	2870
889.559	2532
889.577	2735
889.656	3592
889.664	3668
889.735	3759
889.768	3787
889.814	3603
889.873	3332
889.978	2837
890.083	3646
890.187	3465
890.292	2646
890.397	2752
890.501	2318
890.606	2196
890.710	3880
890.815	3798
890.919	3786
891.024	3450
891.128	4188
891.233	3410
891.337	3526
891.442	2877
891.546	3835
891.650	2468
891.755	3256
891.859	4316
891.963	4301
892.068	2762
892.172	2592
892.276	1883
892.380	3452
892.484	2994
892.589	5106
892.693	4497
892.797	2480
892.901	2163
893.005	2527
893.109	3377
893.213	4051
893.317	3247
893.421	2895
893.525	2469
893.629	3765
893.733	3142
893.837	2558
893.941	2957
894.045	3400
894.148	2624
894.252	2762
894.356	2721
894.460	3745
894.564	2741
894.667	2019
894.771	2435
894.875	2772
894.978	2740
895.082	2561
895.186	2476
895.289	3391
895.393	1798
895.496	3285
895.600	2207
895.703	2199
895.807	2695
895.910	2481
896.014	2776
896.117	2128
896.221	2753
896.324	1317
896.427	3169
896.531	3136
896.634	2252
896.737	2834
896.840	2204
896.944	2701
897.047	2831
897.150	2678
897.253	2366
897.356	2519
897.460	2797
897.563	2994
897.666	2376
897.769	2844
897.872	2003
897.975	1454
898.078	2247
898.181	2059
898.284	1968
898.387	3118
898.490	3629
898.593	3476
898.695	2504
898.798	3376
898.901	4460
899.004	3000
899.107	2281
899.209	3882
899.312	3050
899.415	2331
899.518	2288
899.620	1501
899.723	2654
899.826	6707
899.928	7800
900.031	2810
900.133	2730
900.236	1939
900.338	1648
900.441	1803
900.543	1791
900.646	2716
900.748	2137
900.851	3299
900.953	2293
901.055	3178
901.158	3293
901.260	2779
901.362	1666
901.465	1739
901.567	2369
901.669	3253
901.771	1979
901.873	3228
901.976	2670
902.078	1960
902.180	2832
902.282	2833
902.384	2874
902.486	3194
902.588	3019
902.690	3596
902.792	2531
902.894	3693
902.996	2049
903.098	3517
903.200	2190
903.302	2630
903.404	2105
903.505	1831
903.607	2435
903.709	3093
903.811	2037
903.913	2014
904.014	1677
904.116	1720
904.218	2216
904.319	2862
904.421	3221
904.523	2730
904.624	1641
904.726	2067
904.827	1733
904.929	2741
905.030	2872
905.132	2919
905.233	2958
905.335	1249
905.436	2040
905.537	3080
905.639	2151
905.740	2602
905.841	1894
905.943	3229
906.044	2949
906.145	2464
906.247	1579
906.348	2080
906.449	1659
906.550	2982
906.651	2584
906.752	3311
906.854	3150
906.955	2211
907.056	2364
907.157	2723
907.258	2674
907.359	1831
907.460	1690
907.561	1616
907.662	2424
907.762	2883
907.863	2625
907.964	2937
908.065	2295
908.166	1337
908.267	1528
908.367	2319
908.468	2869
908.569	2214
908.670	3718
908.770	5486
908.871	3973
908.971	4773
909.072	3217
909.173	2284
909.273	1756
909.374	1722
909.474	2048
909.575	3198
909.675	2494
909.776	2625
909.876	2054
909.977	2166
910.077	2564
910.177	2182
910.278	1903
910.378	2093
910.478	2648
910.579	2753
910.679	2627
910.779	3093
910.879	2070
910.980	2446
911.080	2262
911.180	2418
911.280	1170
911.380	2572
911.480	1164
911.580	2370
911.680	2205
911.780	3611
911.880	3457
911.980	2112
912.080	2365
912.180	2691
912.280	2310
912.380	2299
912.480	1862
912.580	2806
912.679	1515
912.779	2045
912.879	2011
912.979	2436
913.078	1816
913.178	2438
913.278	2046
913.377	1849
913.477	1631
913.577	2329
913.676	2829
913.776	1923
913.875	2094
913.975	2142
914.074	1528
914.174	2144
914.273	1465
914.373	2645
914.472	2657
914.572	2009
914.671	1888
914.770	1693
914.870	1815
914.969	1678
915.068	1768
915.167	2718
915.267	1938
915.366	1632
915.465	2413
915.564	2968
915.663	1862
915.763	2412
915.862	2223
915.961	2469
916.060	1076
916.159	1956
916.258	1550
916.357	1793
916.456	2470
916.555	2572
916.654	2158
916.752	2935
916.851	1510
916.950	2987
917.049	2547
917.148	2375
917.247	2020
917.345	2126
917.444	1275
917.543	2041
917.642	1120
917.740	1925
917.839	3009
917.937	2772
918.036	3354
918.135	2342
918.233	1907
918.332	2370
918.430	2230
918.529	2628
918.627	2221
918.726	2509
918.824	3032
918.923	1392
919.021	1791
919.119	1974
919.218	2175
919.316	2476
919.414	1706
919.512	2088
919.611	2055
919.709	2298
919.807	2651
919.905	2499
920.003	2869
920.102	2297
920.200	2768
920.298	2344
920.396	2188
920.494	2297
920.592	2245
920.690	2434
920.788	2218
920.886	2606
920.984	3101
921.082	2516
921.180	2977
921.277	3149
921.375	2996
921.473	4186
921.571	3249
921.669	4032
921.766	2668
921.864	3431
921.962	3174
922.060	3469
922.157	2718
922.255	3147
922.352	3182
922.450	3888
922.548	2794
922.645	3884
922.743	4994
922.840	6249
922.938	6380
923.035	5544
923.133	5516
923.230	6847
923.327	7226
923.425	6577
923.522	6757
923.619	6810
923.717	5643
923.814	6053
923.911	5697
924.008	6679
924.106	5919
924.203	5360
924.300	5886
924.397	5914
924.494	6704
924.591	7383
924.688	4626
924.786	5403
924.883	6085
924.979	6516
925.077	4949
925.173	5571
925.270	5620
925.367	6536
925.464	6177
925.561	6816
925.658	7441
925.755	7629
925.852	8491
925.948	7543
926.045	6840
926.142	6727
926.239	6981
926.335	6406
926.432	6812
926.529	6246
926.625	7005
926.722	5142
926.818	6213
926.915	6336
927.011	5409
927.108	5687
927.204	5251
927.301	5163
927.397	5485
927.494	5938
927.590	4519
927.687	4305
927.783	5706
927.879	6069
927.976	5358
928.072	4865
928.168	4334
928.264	5415
928.361	4699
928.457	5943
928.553	4962
928.649	5144
928.745	4992
928.841	5261
928.937	4400
929.033	4568
929.129	5170
929.225	5803
929.321	4154
929.417	4515
929.513	5373
929.609	4292
929.705	4407
929.801	5083
929.897	4021
929.993	4361
930.089	5280
930.184	4284
930.280	4736
930.376	5590
930.471	4069
930.567	3424
930.663	4538
930.758	4098
930.854	4416
930.950	4868
931.045	3865
931.141	5031
931.236	5548
931.332	4266
931.427	3987
931.523	5752
931.618	4585
931.714	4211
931.809	3817
931.905	5033
932.000	3440
932.095	4917
932.191	4418
932.286	4924
932.381	3790
932.476	3797
932.572	3720
932.667	4095
932.762	3637
932.857	4022
932.952	4787
933.047	4087
933.142	3294
933.237	3920
933.332	4405
933.427	4834
933.522	4059
933.617	3593
933.712	4166
933.807	3629
933.902	4652
933.997	4691
934.092	4126
934.187	4409
934.282	3602
934.376	4219
934.471	4742
934.566	4222
934.661	4659
934.755	4694
934.850	4603
934.945	4109
935.039	3409
935.134	3837
935.228	3463
935.323	5102
935.417	4277
935.512	3023
935.606	3174
935.701	3945
935.795	4679
935.890	3443
935.984	2890
936.079	3092
936.173	4718
936.267	4598
936.362	3174
936.456	4288
936.550	4370
936.644	3059
936.738	3751
936.833	3075
936.927	3260
937.021	3733
937.115	3602
937.209	3807
937.303	4361
937.397	3368
937.491	3239
937.585	5413
937.679	3077
937.773	4145
937.867	2653
937.961	3652
938.055	4488
938.149	4220
938.243	2972
938.337	3551
938.430	3151
938.524	5111
938.618	4421
938.712	4732
938.805	3772
938.899	3778
938.993	4160
939.086	3435
939.180	3916
939.274	5114
939.367	4451
939.461	4373
939.554	3019
939.648	3745
939.741	2960
939.835	4453
939.928	4797
940.022	4488
940.115	3498
940.208	4812
940.302	4179
940.395	4522
940.488	3090
940.582	4450
940.675	3191
940.768	3596
940.861	3448
940.954	4876
941.048	3063
941.141	4842
941.234	4513
941.327	8467
941.420	8723
941.513	6724
941.606	4578
941.699	4609
941.792	4284
941.885	3649
941.978	4343
942.071	4067
942.164	2254
942.257	2872
942.349	3702
942.442	4759
942.535	2791
942.628	3080
942.721	3562
942.813	3023
942.906	4231
942.999	3478
943.091	3322
943.184	3701
943.277	2636
943.369	3587
943.462	2102
943.554	3658
943.647	1816
943.739	3631
943.832	3355
943.924	2358
944.017	3535
944.109	2182
944.201	3124
944.294	2930
944.386	3380
944.478	2852
944.571	2602
944.663	3219
944.755	3338
944.847	3529
944.940	2944
945.032	1689
945.124	2764
945.216	3187
945.308	2789
945.400	3186
945.492	2992
945.584	2799
945.676	4264
945.768	3688
945.860	3370
945.952	2803
946.044	3835
946.136	2442
946.228	3129
946.320	2738
946.412	3271
946.503	3223
946.595	3939
946.687	1948
946.779	2319
946.870	2498
946.962	2706
947.054	3018
947.145	3406
947.237	2510
947.329	3353
947.420	3611
947.512	2052
947.603	2543
947.695	3127
947.786	2107
947.878	1886
947.969	3102
948.061	2408
948.152	2523
948.243	1665
948.335	2250
948.426	2066
948.517	3113
948.609	2778
948.700	2794
948.791	2943
948.882	2326
948.973	2339
949.065	2950
949.156	1941
949.247	1793
949.338	1884
949.429	3066
949.520	2177
949.611	1705
949.702	2717
949.793	3096
949.884	2666
949.975	2000
950.066	1986
950.157	2162
950.247	2436
950.338	1855
950.429	2126
950.520	3473
950.611	2731
950.701	4249
950.792	2955
950.883	3481
950.973	2854
951.064	3360
951.155	3224
951.245	3133
951.336	3425
951.427	2956
951.517	3573
951.608	2336
951.698	1788
951.788	3336
951.879	1752
951.969	2700
952.060	2009
952.150	2495
952.240	3069
952.331	1758
952.421	3215
952.511	1882
952.602	1969
952.692	1798
952.782	2721
952.872	1919
952.962	1858
953.052	3102
953.143	1642
953.233	2276
953.323	2012
953.413	2933
953.503	2681
953.593	2884
953.683	1811
953.773	1982
953.863	1943
953.953	2479
954.042	2474
954.132	2180
954.222	3452
954.312	1934
954.402	2575
954.492	4218
954.581	5810
954.671	2666
954.761	1280
954.850	3139
954.940	893
955.030	2892
955.119	916
955.209	2443
955.298	1997
955.388	1814
955.477	2022
955.567	1545
955.656	2585
955.746	2940
955.835	548
955.925	1469
956.014	1569
956.103	2456
956.193	1712
956.282	2311
956.371	2004
956.461	1955
956.550	2313
956.639	2034
956.728	1883
956.817	1860
956.906	2752
956.995	2551
957.085	1894
957.174	2715
957.263	1558
957.352	2513
957.441	1790
957.530	1447
957.619	1616
957.708	1091
957.796	1780
957.885	1923
957.974	1250
958.063	1821
958.152	796
958.241	1631
958.329	1457
958.418	756
958.507	1223
958.596	2493
958.684	1019
958.773	1984
958.861	1131
958.950	1965
959.039	1789
959.127	1718
959.216	2046
959.304	2344
959.393	2172
959.481	1864
959.570	1798
959.658	1548
959.746	2354
959.835	4304
959.923	6218
960.011	2846
960.100	1938
960.188	2182
960.276	1581
960.365	1277
960.453	1113
960.541	1841
960.629	1678
960.717	1684
960.805	667
960.893	1581
960.981	1448
961.069	2696
961.158	1928
961.245	2454
961.333	2107
961.421	943
961.509	2171
961.597	2129
961.685	1863
961.773	1091
961.861	1695
961.949	1993
962.036	475
962.124	1925
962.212	1150
962.299	1118
962.387	562
962.475	1903
962.562	1530
962.650	1782
962.738	2033
962.825	832
962.913	1521
963.000	2162
963.088	1174
963.175	2029
963.263	666
963.350	2914
963.438	2670
963.525	3593
963.612	7033
963.700	17911
963.787	28593
963.874	11087
963.962	1973
964.049	1529
964.136	1150
964.223	936
964.310	1394
964.398	1524
964.485	2219
964.572	3487
964.659	5543
964.746	3793
964.833	830
964.920	1134
965.007	1257
965.094	1473
965.181	1503
965.268	1497
965.355	2016
965.441	1128
965.528	-50
965.615	2072
965.702	1881
965.789	1817
965.875	1733
965.962	2169
966.049	690
966.136	2144
966.222	1598
966.309	2929
966.395	1482
966.482	1658
966.569	1194
966.655	1205
966.742	718
966.828	1592
966.915	679
967.001	1640
967.087	818
967.174	1629
967.260	3302
967.347	6208
967.433	12542
967.519	18745
967.605	5896
967.692	2066
967.778	1082
967.864	1855
967.950	1274
968.036	400
968.123	1196
968.209	1086
968.295	271
968.381	2845
968.467	2532
968.553	920
968.639	2783
968.725	2899
968.811	4933
968.897	4277
968.983	693
969.069	643
969.154	1429
969.240	1087
969.326	1114
969.412	1152
969.497	969
969.583	911
969.669	1578
969.755	1638
969.840	1301
969.926	2455
970.012	2654
970.097	6093
970.183	3070
970.268	2776
970.354	4027
970.439	7146
970.525	11875
970.610	3642
970.696	3036
970.781	1155
970.866	165
970.952	2051
971.037	57
971.122	531
971.208	642
971.293	1544
971.378	495
971.463	956
971.549	2433
971.634	1708
971.719	2201
971.804	2602
971.889	3361
971.974	1347
972.059	688
972.144	1999
972.229	1325
972.314	837
972.399	1292
972.484	1722
972.569	2495
972.654	2769
972.739	6762
972.824	6258
972.908	1095
972.993	1185
973.078	784
973.163	700
973.247	505
973.332	-249
973.417	2198
973.501	654
973.586	830
973.671	2590
973.755	1830
973.840	2339
973.924	2559
974.009	2819
974.093	1359
974.178	3460
974.262	5886
974.346	4852
974.431	2217
974.515	1868
974.600	1359
974.684	2186
974.768	167
974.852	1894
974.937	449
975.021	1738
975.105	983
975.189	1488
975.273	1789
975.358	1348
975.442	-346
975.526	873
975.610	221
975.694	552
975.778	1500
975.862	708
975.946	-591
976.030	2128
976.114	384
976.198	1050
976.281	1346
976.365	1989
976.449	550
976.533	860
976.617	838
976.700	1438
976.784	1562
976.868	2050
976.951	3266
977.035	2126
977.119	1422
977.202	984
977.286	985
977.369	1681
977.453	1474
977.536	1585
977.620	596
977.703	832
977.787	-308
977.870	2321
977.953	1799
978.037	328
978.120	2905
978.203	4520
978.287	6499
978.370	3157
978.453	1222
978.536	2121
978.620	3405
978.703	3997
978.786	1829
978.869	481
978.952	3
979.035	2255
979.118	1278
979.201	90
979.284	1641
979.367	701
979.450	2162
979.533	173
979.616	670
979.699	1240
979.782	1038
979.865	867
979.948	1207
980.030	554
980.113	1328
980.196	663
980.279	573
980.361	1279
980.444	793
980.526	2526
980.609	909
980.692	1793
980.774	793
980.857	651
980.939	1966
981.022	1196
981.104	1319
981.187	594
981.269	1077
981.352	1157
981.434	264
981.516	-99
981.599	1520
981.681	1184
981.763	1406
981.846	777
981.928	98
982.010	323
982.092	562
982.174	1438
982.256	1501
982.339	726
982.421	415
982.503	941
982.585	372
982.667	1125
982.749	60
982.831	1302
982.913	-347
982.995	1799
983.077	1158
983.158	2825
983.240	409
983.322	1749
983.404	2500
983.486	1225
983.568	1702
983.649	340
983.731	2053
983.813	1168
983.894	1194
983.976	841
984.058	283
984.139	1733
984.221	658
984.302	1733
984.384	459
984.465	747
984.547	1154
984.628	-43
984.710	757
984.791	654
984.872	201
984.954	541
985.035	1215
985.116	572
985.198	126
985.279	1701
985.360	280
985.441	501
985.522	1643
985.604	1383
985.685	-31
985.766	1269
985.847	1402
985.928	-130
986.009	836
986.090	1357
986.171	1511
986.252	712
986.333	634
986.414	1159
986.495	687
986.576	1431
986.656	1065
986.737	1413
986.818	76
986.899	990
986.980	260
987.060	2073
987.141	787
987.222	1738
987.302	1285
987.383	1238
987.464	889
987.544	1265
987.625	1060
987.705	2036
987.786	1344
987.866	1528
987.947	1302
988.027	1173
988.108	322
988.188	1891
988.268	1588
988.349	1440
988.429	-63
988.509	1861
988.589	672
988.670	-52
988.750	1790
988.830	1300
988.910	1320
988.990	1227
989.070	841
989.151	1226
989.231	114
989.311	595
989.391	675
989.471	670
989.551	1138
989.631	773
989.711	799
989.791	812
989.870	427
989.950	2042
990.030	620
990.110	873
990.190	1017
990.269	668
990.349	-269
990.429	946
990.509	510
990.588	795
990.668	1447
990.747	1590
990.827	-278
990.907	1159
990.986	556
991.066	1355
991.145	480
991.225	1477
991.304	-214
991.383	1141
991.463	-190
991.542	351
991.622	-195
991.701	440
991.780	-113
991.859	-119
991.939	658
992.018	659
992.097	-17
992.176	1232
992.256	1031
992.335	-505
992.414	506
992.493	-25
992.572	1026
992.651	2269
992.730	-419
992.809	450
992.888	-814
992.967	360
993.046	828
993.125	-106
993.203	-502
993.282	926
993.361	407
993.440	133
993.519	257
993.597	1253
993.676	69
993.755	521
993.834	161
993.912	-211
993.991	1479
994.069	567
994.148	421
994.226	-267
994.305	852
994.384	-254
994.462	1457
994.540	-185
994.619	-80
994.697	22
994.776	-987
994.854	1125
994.932	-163
995.011	1129
995.089	-832
995.167	-66
995.245	44
995.324	-679
995.402	797
995.480	125
995.558	655
995.636	15
995.714	-221
995.792	1133
995.870	-227
995.948	573
996.026	634
996.104	-734
996.182	939
996.260	-124
996.338	681
996.416	98
996.494	223
996.572	114
996.649	-90
996.727	-179
996.805	820
996.883	202
996.960	272
997.038	360
997.116	-430
997.193	52
997.271	-123
997.348	-1063
997.426	-225
997.504	-723
997.581	-21
997.658	139
997.736	-1010
997.813	-516
997.891	57
997.968	-579
998.046	858
998.123	-30
998.200	238
998.277	-158
998.355	1109
998.432	-1187
998.509	327
998.586	221
998.663	-340
998.741	-839
998.818	-219
998.895	35
998.972	-176
999.049	496
999.126	-318
999.203	775
999.280	-571
999.357	57
999.434	-800
999.511	-236
999.587	-299
999.664	-1082
999.741	975
999.818	452
999.895	-1100
999.971	-753
1000.048	-184
1000.125	576
1000.202	-10
1000.278	621
1000.355	-738
1000.431	-233
1000.508	-1193
1000.584	-142
1000.661	-442
1000.738	-624
1000.814	220
1000.890	-270
1000.967	-164
1001.043	-670
1001.120	-1598
1001.196	248
1001.272	-1009
1001.349	-521
1001.425	-316
1001.501	130
1001.577	-1231
1001.654	-619
1001.730	-459
1001.806	-181
1001.882	-1756
1001.958	274
1002.034	-1161
1002.110	-1066
1002.186	-1223
1002.262	-979
1002.338	-1356
1002.414	434
1002.490	59
1002.566	-677
1002.642	-661
1002.718	721
1002.794	-365
1002.870	-451
1002.945	-918
1003.021	-506
1003.097	131
1003.173	-414
1003.248	-717
1003.324	-4
1003.400	-1396
1003.475	-979
1003.551	-544
1003.626	-1010
1003.702	-841
1003.777	-367
1003.853	-724
1003.928	-829
1004.004	-623
1004.079	-24
1004.155	-755
1004.230	-1056
1004.305	68
1004.381	-503
1004.456	-229
1004.531	-13
1004.607	-36
1004.682	164
1004.757	-355
1004.832	-579
1004.907	-306
1004.982	36
1005.057	-851
1005.133	-49
1005.208	-407
1005.283	-765
1005.358	-625
1005.433	-1010
1005.508	-643
1005.583	-1019
1005.657	-431
1005.732	63
1005.807	-1097
1005.882	-398
1005.957	-691
1006.032	-523
1006.106	-776
1006.181	-172
1006.256	-66
1006.331	-528
1006.405	-805
1006.480	-578
1006.554	-879
1006.629	-802
1006.704	-1401
1006.778	-350
1006.853	520
1006.927	-1381
1007.002	-1321
1007.076	-286
1007.150	-925
1007.225	-311
1007.299	-492
1007.373	-1023
1007.448	-1665
1007.522	-284
1007.596	-1391
1007.671	-1347
1007.745	-529
1007.819	-1264
1007.893	-860
1007.967	283
1008.041	-1338
1008.115	425
1008.190	-918
1008.264	-604
1008.338	-2032
1008.412	-1058
1008.486	-675
1008.560	-1405
1008.633	-884
1008.707	-1273
1008.781	-485
1008.855	-293
1008.929	-1697
1009.003	-2051
1009.076	-977
1009.150	-591
1009.224	-1525
1009.298	-1581
1009.371	-1580
1009.445	-1018
1009.519	-394
1009.592	-683
1009.666	-1421
1009.739	-16
1009.813	-1226
1009.886	359
1009.960	-2062
1010.033	-295
1010.107	-402
1010.180	-1124
1010.253	-447
1010.327	-2123
1010.400	-997
1010.473	-1068
1010.547	-85
1010.620	-1279
1010.693	-851
1010.766	-967
1010.840	-467
1010.913	-881
1010.986	-1258
1011.059	-868
1011.132	-1588
1011.205	152
1011.278	-610
1011.351	-1035
1011.424	-568
1011.497	-1443
1011.570	-779
1011.643	-562
1011.716	-1868
1011.789	-965
1011.862	-1259
1011.934	-372
1012.007	-1074
1012.080	-1148
1012.153	-1335
1012.225	-361
1012.298	-2100
1012.371	-1607
1012.443	-727
1012.516	-1607
1012.588	-1072
1012.661	-774
1012.733	-636
1012.806	-145
1012.879	-1107
1012.951	-770
1013.023	-687
1013.096	-1030
1013.168	-2121
1013.241	331
1013.313	-1002
1013.385	-1375
1013.458	-702
1013.530	-63
1013.602	-1680
1013.674	-16
1013.746	-1574
1013.819	-1138
1013.891	-1093
1013.963	-965
1014.035	-779
1014.107	-384
1014.179	-412
1014.251	-1160
1014.323	-254
1014.395	-1410
1014.467	-502
1014.539	-1061
1014.611	-1917
1014.683	88
1014.754	-1176
1014.826	-1101
1014.898	-1139
1014.970	-1919
1015.042	-1018
1015.113	-516
1015.185	-1034
1015.257	-1093
1015.328	-640
1015.400	-307
1015.471	-934
1015.543	-1278
1015.615	-1230
1015.686	-1494
1015.757	-1310
1015.829	-550
1015.901	-1149
1015.972	-1405
1016.043	-713
1016.115	-1440
1016.186	-604
1016.257	-1793
1016.328	-1068
1016.400	-355
1016.471	-1358
1016.542	-994
1016.613	-1992
1016.685	-1414
1016.756	-1164
1016.827	-1152
1016.898	-1823
1016.969	-746
1017.040	-1950
1017.111	-1241
1017.182	-1412
1017.253	-855
1017.324	-1109
1017.395	-607
1017.466	-1066
1017.537	-504
1017.608	-828
1017.678	-876
1017.749	-1376
1017.820	-1219
1017.891	-1759
1017.961	-1372
1018.032	-1536
1018.103	-591
1018.173	-1446
1018.244	-887
1018.315	-1591
1018.385	-785
1018.456	-816
1018.526	-1257
1018.597	-1753
1018.667	-1427
1018.738	-1683
1018.808	-1414
1018.878	-1985
1018.949	-1236
1019.019	-1000
1019.089	-1280
1019.160	-550
1019.230	-2185
1019.300	-985
1019.371	-1752
1019.441	-920
1019.511	-993
1019.581	-378
1019.651	-1253
1019.721	-1399
1019.791	-780
1019.861	-1593
1019.931	-826
1020.001	-1636
1020.071	-743
1020.141	-1399
1020.211	-1244
1020.281	-1217
1020.351	-1014
1020.421	-2013
1020.491	-452
1020.560	-1497
1020.630	-1052
1020.700	-1925
1020.770	-1862
1020.839	-1802
1020.909	-451
1020.979	-1968
1021.048	-835
1021.118	-1729
1021.187	-1050
1021.257	-1013
1021.326	-381
1021.396	-1613
1021.465	-1522
1021.535	-1505
1021.604	-1539
1021.674	-1270
1021.743	-1141
1021.812	-1597
1021.882	-1490
1021.951	-982
1022.020	-1074
1022.089	-410
1022.159	-1644
1022.228	-1898
1022.297	-1926
1022.366	-1479
1022.435	-1499
1022.504	-2253
1022.573	-2036
1022.642	-1205
1022.711	-1651
1022.781	-1921
1022.849	-907
1022.918	-1098
1022.987	-1706
1023.056	-1443
1023.125	-1061
1023.194	-1227
1023.263	-1421
1023.331	-515
1023.400	-2259
1023.469	-1416
1023.538	-914
1023.606	-2307
1023.675	-1071
1023.744	-1621
1023.812	-1425
1023.881	-1634
1023.949	-1606
1024.018	-1310
1024.086	-2262
1024.155	-1909
1024.223	-1401
1024.292	-1758
1024.360	-1863
1024.429	-1352
1024.497	-1974
1024.565	-1543
1024.634	-1272
1024.702	-1600
1024.770	-1079
1024.838	-2653
1024.907	-911
1024.975	-1360
1025.043	-746
1025.111	-1299
1025.179	-1376
1025.247	-950
1025.315	-1005
1025.383	-1644
1025.451	-1916
1025.519	-1548
1025.587	-1703
1025.655	-1394
1025.723	-2006
1025.791	-1989
1025.859	-933
1025.927	-1378
1025.995	-1679
1026.062	-2039
1026.130	-1111
1026.198	-1943
1026.266	-1167
1026.333	-1552
1026.401	-1102
1026.469	-1602
1026.536	-856
1026.604	-1627
1026.671	-2021
1026.739	-1365
1026.806	-2045
1026.874	-1391
1026.941	-1235
1027.009	-1230
1027.076	-1154
1027.144	-1115
1027.211	-1417
1027.278	-1871
1027.345	-1274
1027.413	-1691
1027.480	-2033
1027.547	-1911
1027.614	-1186
1027.682	-2165
1027.749	-1649
1027.816	-1572
1027.883	-1330
1027.950	-1234
1028.017	-1519
1028.084	-1432
1028.151	-2186
1028.218	-662
1028.285	-1455
1028.352	-1237
1028.419	-1645
1028.486	-2300
1028.553	-2206
1028.619	-2365
1028.686	-752
1028.753	-2028
1028.820	-1894
1028.886	-1517
1028.953	-1681
1029.020	-2006
1029.086	-1750
1029.153	-2925
1029.220	-995
1029.286	-1325
1029.353	-380
1029.419	-1826
1029.486	-1926
1029.552	-1989
1029.619	-2173
1029.685	-1876
1029.751	-1430
1029.818	-1252
1029.884	-1938
1029.951	-1258
1030.017	-1012
1030.083	-1409
1030.149	-607
1030.216	-2057
1030.282	-966
1030.348	-1052
1030.414	-2116
1030.480	-1329
1030.546	-1462
1030.612	-643
1030.678	-2772
1030.744	-1960
1030.810	-1422
1030.876	-1918
1030.942	-1062
1031.008	-1614
1031.074	-2356
1031.140	-1711
1031.206	-670
1031.272	-2224
1031.337	-1441
1031.403	-1897
1031.469	-2063
1031.534	-1972
1031.600	-2036
1031.666	-1470
1031.731	-1406
1031.797	-1484
1031.863	-1166
1031.928	-2582
1031.994	-1187
1032.059	-2236
1032.125	-1256
1032.190	-2211
1032.256	-1330
1032.321	-1673
1032.386	-1899
1032.452	-843
1032.517	-1325
1032.582	-1590
1032.647	-1815
1032.713	-1703
1032.778	-1255
1032.843	-2090
1032.908	-1502
1032.974	-1420
1033.039	-1272
1033.104	-1486
1033.169	-859
1033.234	-1763
1033.299	-167
1033.364	251
1033.429	62
1033.494	-961
1033.559	-1885
1033.624	-1733
1033.688	-783
1033.753	-2708
1033.818	-1511
1033.883	-1724
1033.948	-61
1034.013	-832
1034.077	-9
1034.142	677
1034.207	1172
1034.271	3360
1034.336	4148
1034.400	2794
1034.465	2387
1034.530	1119
1034.594	616
1034.658	-1680
1034.723	-1422
1034.787	-1717
1034.852	-1408
1034.916	-2067
1034.981	-1923
1035.045	-1724
1035.109	-1519
1035.173	-1126
1035.238	-1805
1035.302	-1050
1035.366	-1730
1035.430	-1828
1035.495	-1594
1035.559	-1491
1035.623	-215
1035.687	-2086
1035.751	-1242
1035.815	-1817
1035.879	-828
1035.943	-1438
1036.007	-1547
1036.071	-1628
1036.135	-1532
1036.198	-1614
1036.262	-1071
1036.326	-1336
1036.390	-577
1036.454	-411
1036.517	111
1036.581	1220
1036.645	2672
1036.709	1774
1036.772	-329
1036.836	-1274
1036.900	-1527
1036.963	-1598
1037.026	-1576
1037.090	-1159
1037.154	-1504
1037.217	-1435
1037.280	-1775
1037.344	-1769
1037.407	-2063
1037.471	-2471
1037.534	-1313
1037.597	-2384
1037.661	-1480
1037.724	-2623
1037.787	-2116
1037.850	-1815
1037.913	-954
1037.977	-1408
1038.040	-1510
1038.103	-1330
1038.166	-1470
1038.229	-1917
1038.292	-1842
1038.355	-1264
1038.418	-603
1038.481	-1289
1038.544	-1135
1038.607	-1608
1038.670	-2071
1038.732	-1948
1038.795	-1599
1038.858	-1317
1038.921	-1169
1038.984	-1132
1039.046	-1446
1039.109	-2233
1039.172	-1643
1039.234	-1770
1039.297	-1600
1039.360	-1051
1039.422	-1438
1039.485	-975
1039.547	-1737
1039.610	-1234
1039.672	-1663
1039.734	-1423
1039.797	-1019
1039.859	-1078
1039.922	-2114
1039.984	-1658
1040.046	-1545
1040.109	-1414
1040.171	-1424
1040.233	-2255
1040.295	-1370
1040.358	-2108
1040.420	-914
1040.482	-2805
1040.544	-1396
1040.606	-1979
1040.668	-1312
1040.730	-1661
1040.792	-871
1040.854	-1290
1040.916	-1349
1040.978	-2521
1041.040	-1399
1041.102	-1229
1041.164	-1778
1041.225	-2302
1041.287	-888
1041.349	-2124
1041.411	-1822
1041.472	-1857
1041.534	-1695
1041.596	-2555
1041.657	-565
1041.719	-2253
1041.781	-2090
1041.842	-1596
1041.904	-1729
1041.965	-2042
1042.027	-1182
1042.088	-1274
1042.150	-1589
1042.211	-1257
1042.272	-975
1042.334	-1667
1042.395	-886
1042.456	-2333
1042.518	-1120
1042.579	-1738
1042.640	-1218
1042.701	-2281
1042.763	-1303
1042.824	-1880
1042.885	-2366
1042.946	-1488
1043.007	-1741
1043.068	-1871
1043.129	-1716
1043.190	-1758
1043.251	-981
1043.312	-2225
1043.373	-813
1043.434	-1738
1043.495	-1246
1043.556	-1626
1043.616	-1202
1043.677	-2369
1043.738	-1872
1043.799	-1799
1043.859	-1302
1043.920	-1519
1043.981	-1704
1044.041	-1868
1044.102	-2014
1044.162	-1335
1044.223	-1688
1044.284	-1826
1044.344	-1066
1044.405	-1212
1044.465	-1445
1044.525	-1934
1044.586	-973
1044.646	-2010
1044.707	-828
1044.767	-1144
1044.827	-1890
1044.887	-1260
1044.948	-1659
1045.008	-1236
1045.068	-1573
1045.128	-2078
1045.188	-944
1045.249	-1280
1045.309	-1880
1045.369	-1203
1045.429	-1446
1045.489	-1312
1045.549	-1359
1045.609	-1097
1045.669	-1460
1045.729	-1659
1045.789	-364
1045.848	-1109
1045.908	-220
1045.968	-1216
1046.028	-1171
1046.088	-980
1046.147	-633
1046.207	-623
1046.267	-854
1046.326	-1021
1046.386	-362
1046.446	-806
1046.505	17
1046.565	-420
1046.624	-1143
1046.684	-86
1046.743	-419
1046.803	-255
1046.862	197
1046.922	0
