'Start Wavelength	183.907
'End Wavelength	1046.922
'Gate Delay	5.000
'Gate Width (ms)	1.050
'Laser Output Level	0.000
'X Position	0.000
'Y Position	0.000
'Z Position	0.000
'Grid Point Number	1.000
'Shot Number	100.000
183.907	-146.000
183.977	-460.000
184.047	155
184.116	586
184.186	692
184.256	-320
184.325	118
184.395	-1327
184.465	902
184.534	-812
184.604	-186
184.674	-1300
184.743	-37
184.813	-394
184.883	289
184.952	-307
185.022	138
185.092	432
185.161	-10
185.231	-742
185.301	444
185.370	411
185.440	470
185.509	-522
185.579	306
185.649	-694
185.718	504
185.788	-127
185.857	-124
185.927	-27
185.996	214
186.066	-536
186.136	-907
186.205	-698
186.275	-323
186.344	128
186.414	357
186.483	-932
186.553	1894
186.622	1791
186.692	1393
186.761	288
186.831	-186
186.900	-823
186.970	1162
187.039	-872
187.109	679
187.178	128
187.248	36
187.317	325
187.387	114
187.456	775
187.526	607
187.595	602
187.664	374
187.734	-208
187.803	723
187.873	421
187.942	945
188.012	41
188.081	682
188.150	128
188.220	1343
188.289	1292
188.358	347
188.428	276
188.497	180
188.567	-614
188.636	-392
188.705	-18
188.775	354
188.844	-148
188.913	386
188.983	405
189.052	1046
189.121	-236
189.191	581
189.260	875
189.329	1191
189.399	1311
189.468	575
189.537	-340
189.606	325
189.676	591
189.745	346
189.814	240
189.883	177
189.953	195
190.022	1532
190.091	2897
190.161	5968
190.230	2138
190.299	326
190.368	170
190.437	1218
190.507	943
190.576	422
190.645	164
190.714	-22
190.783	-357
190.853	185
190.922	444
190.991	636
191.060	69
191.129	-294
191.198	-508
191.268	-138
191.337	-35
191.406	904
191.475	-65
191.544	600
191.613	22
191.682	387
191.752	-466
191.821	911
191.890	16
191.959	166
192.028	107
192.097	658
192.166	-108
192.235	179
192.304	601
192.373	559
192.442	-154
192.511	45
192.580	-358
192.650	214
192.719	260
192.788	793
192.857	439
192.926	402
192.995	-371
193.064	2435
193.133	1430
193.202	934
193.271	362
193.340	699
193.409	645
193.478	1264
193.547	536
193.615	1848
193.684	674
193.753	216
193.822	771
193.891	283
193.960	609
194.029	178
194.098	279
194.167	-600
194.236	-325
194.305	325
194.374	705
194.443	-38
194.512	162
194.580	650
194.649	-124
194.718	409
194.787	103
194.856	41
194.925	547
194.994	646
195.062	-627
195.131	-263
195.200	-104
195.269	388
195.338	285
195.407	1247
195.475	-45
195.544	679
195.613	508
195.682	639
195.751	217
195.819	442
195.888	-67
195.957	819
196.026	-79
196.094	473
196.163	174
196.232	817
196.301	167
196.369	1029
196.438	692
196.507	957
196.576	330
196.644	526
196.713	264
196.782	687
196.850	336
196.919	837
196.988	171
197.056	-350
197.125	67
197.194	850
197.262	224
197.331	-84
197.400	242
197.468	382
197.537	25
197.606	1798
197.674	953
197.743	4850
197.812	1686
197.880	4575
197.949	2837
198.017	3404
198.086	2525
198.155	1030
198.223	441
198.292	5353
198.360	2378
198.429	1141
198.497	966
198.566	2682
198.635	4812
198.703	1703
198.772	1810
198.840	5869
198.909	5446
198.977	1910
199.046	757
199.114	988
199.183	743
199.251	1483
199.320	-198
199.388	556
199.457	-139
199.525	898
199.594	-120
199.662	585
199.731	593
199.799	1276
199.867	872
199.936	1238
200.004	605
200.073	716
200.141	43
200.210	531
200.278	-432
200.346	1773
200.415	491
200.483	1510
200.552	1364
200.620	706
200.688	223
200.757	172
200.825	458
200.893	-167
200.962	110
201.030	620
201.098	1152
201.167	704
201.235	169
201.303	-526
201.372	-415
201.440	521
201.508	41
201.577	456
201.645	565
201.713	1102
201.781	-170
201.850	552
201.918	26
201.986	418
202.055	17
202.123	35
202.191	65
202.259	620
202.327	264
202.396	594
202.464	216
202.532	522
202.600	1841
202.669	460
202.737	-411
202.805	374
202.873	135
202.941	98
203.009	615
203.078	937
203.146	192
203.214	-15
203.282	-424
203.350	783
203.418	124
203.487	1316
203.555	331
203.623	631
203.691	481
203.759	547
203.827	109
203.895	797
203.963	52
204.031	720
204.099	627
204.168	252
204.236	373
204.304	841
204.372	389
204.440	719
204.508	273
204.576	686
204.644	616
204.712	390
204.780	689
204.848	775
204.916	499
204.984	602
205.052	348
205.120	621
205.188	315
205.256	158
205.324	920
205.392	826
205.460	1261
205.528	1433
205.596	996
205.664	1736
205.732	977
205.799	6648
205.867	10155
205.935	2200
206.003	2238
206.071	181
206.139	1143
206.207	1149
206.275	1123
206.343	207
206.411	837
206.478	1439
206.546	675
206.614	1432
206.682	393
206.750	1584
206.818	2685
206.885	2333
206.953	347
207.021	1407
207.089	952
207.157	899
207.225	282
207.292	1564
207.360	1695
207.428	487
207.496	368
207.563	1050
207.631	41
207.699	557
207.767	1458
207.834	830
207.902	-282
207.970	852
208.038	970
208.105	1111
208.173	1262
208.241	2999
208.309	1917
208.376	1018
208.444	3637
208.512	3074
208.579	-499
208.647	2256
208.715	2465
208.782	926
208.850	540
208.918	307
208.985	460
209.053	893
209.120	1272
209.188	1105
209.256	1172
209.323	699
209.391	215
209.459	2096
209.526	422
209.594	1049
209.661	1540
209.729	1991
209.796	712
209.864	1468
209.932	732
209.999	1913
210.067	931
210.134	1241
210.202	247
210.269	2105
210.337	4188
210.404	3096
210.472	1436
210.539	2123
210.607	657
210.674	1267
210.742	1047
210.809	1261
210.877	718
210.944	1700
211.012	417
211.079	2826
211.146	1300
211.214	2393
211.281	4567
211.349	4136
211.416	1237
211.484	2071
211.551	615
211.618	1451
211.686	1600
211.753	436
211.821	1253
211.888	1963
211.955	1875
212.023	2553
212.090	2011
212.157	2517
212.225	3044
212.292	6512
212.359	11861
212.427	29591
212.494	13556
212.561	4910
212.629	2506
212.696	1704
212.763	1789
212.831	1494
212.898	1888
212.965	1256
213.032	1417
213.100	1588
213.167	1295
213.234	1893
213.301	1064
213.369	2363
213.436	1541
213.503	714
213.570	720
213.638	780
213.705	753
213.772	1075
213.839	742
213.906	2371
213.973	1486
214.041	1249
214.108	2135
214.175	862
214.242	627
214.309	1810
214.376	1348
214.444	1557
214.511	1187
214.578	1662
214.645	1375
214.712	2012
214.779	848
214.846	1484
214.913	2654
214.980	2830
215.048	3263
215.115	3721
215.182	2123
215.249	1801
215.316	1058
215.383	1828
215.450	1401
215.517	1597
215.584	1460
215.651	1440
215.718	938
215.785	1807
215.852	624
215.919	1950
215.986	1017
216.053	1292
216.120	1014
216.187	953
216.254	984
216.321	1461
216.388	1520
216.455	1646
216.522	1715
216.589	2411
216.656	1913
216.722	2880
216.789	1699
216.856	1773
216.923	1518
216.990	1263
217.057	1538
217.124	1753
217.191	1079
217.258	2739
217.324	1960
217.391	3080
217.458	1442
217.525	1404
217.592	2180
217.659	1468
217.725	3286
217.792	2431
217.859	3147
217.926	1114
217.993	1256
218.059	3043
218.126	1537
218.193	2529
218.260	1798
218.327	1670
218.393	1238
218.460	2342
218.527	1071
218.594	1461
218.660	2028
218.727	2761
218.794	613
218.860	1997
218.927	1251
218.994	922
219.061	1064
219.127	1302
219.194	2200
219.261	1759
219.327	1947
219.394	1750
219.461	957
219.527	1904
219.594	1571
219.661	1739
219.727	1381
219.794	3165
219.860	1531
219.927	3332
219.994	3193
220.060	7321
220.127	6680
220.193	4708
220.260	2460
220.326	2873
220.393	2398
220.460	4225
220.526	2983
220.593	1855
220.659	3278
220.726	3415
220.792	11895
220.859	9118
220.925	5824
220.992	7391
221.058	11839
221.125	16472
221.191	12999
221.258	4808
221.324	3312
221.391	3275
221.457	2056
221.524	3170
221.590	4796
221.657	18181
221.723	12457
221.789	10817
221.856	10092
221.922	6513
221.989	3850
222.055	2533
222.121	1847
222.188	4522
222.254	2848
222.321	3500
222.387	2041
222.453	1778
222.520	971
222.586	1338
222.652	2160
222.719	1153
222.785	1926
222.851	1556
222.918	1228
222.984	1634
223.050	817
223.116	697
223.183	1447
223.249	1415
223.315	623
223.382	2036
223.448	967
223.514	1135
223.580	1676
223.647	1270
223.713	863
223.779	1245
223.845	1347
223.911	2222
223.978	1051
224.044	2259
224.110	328
224.176	1400
224.242	1194
224.309	656
224.375	1897
224.441	2250
224.507	1349
224.573	1063
224.639	1717
224.705	770
224.772	826
224.838	1749
224.904	836
224.970	1658
225.036	716
225.102	791
225.168	1478
225.234	2663
225.300	1061
225.366	2179
225.432	1434
225.499	2402
225.565	2276
225.631	1365
225.697	2335
225.763	2592
225.829	2201
225.895	2546
225.961	4335
226.027	4490
226.093	2177
226.159	4275
226.225	4101
226.291	6506
226.357	9982
226.423	5708
226.489	2861
226.554	3703
226.620	2690
226.686	2805
226.752	3486
226.818	5217
226.884	13897
226.950	12977
227.016	4955
227.082	3829
227.148	2433
227.214	2824
227.279	2266
227.345	2447
227.411	2569
227.477	6547
227.543	13397
227.609	13460
227.674	6969
227.740	3751
227.806	2817
227.872	4243
227.938	2283
228.003	3111
228.069	1674
228.135	2486
228.201	1463
228.267	1931
228.332	1896
228.398	245
228.464	1986
228.530	1488
228.595	1434
228.661	891
228.727	1755
228.792	2688
228.858	1803
228.924	1287
228.990	4542
229.055	1909
229.121	3346
229.187	1640
229.252	667
229.318	1320
229.384	1156
229.449	1542
229.515	-501
229.581	579
229.646	1992
229.712	1737
229.777	2488
229.843	1978
229.909	3147
229.974	4032
230.040	2587
230.105	3397
230.171	3085
230.236	6748
230.302	11200
230.368	6306
230.433	3290
230.499	3498
230.564	3787
230.630	2266
230.695	3464
230.761	4036
230.826	980
230.892	3547
230.957	1377
231.023	2259
231.088	2026
231.154	3232
231.219	2563
231.284	2778
231.350	2328
231.415	2204
231.481	1995
231.546	2116
231.612	1839
231.677	2645
231.742	403
231.808	2997
231.873	538
231.939	624
232.004	2335
232.069	2426
232.135	1604
232.200	2173
232.265	3112
232.331	1617
232.396	1919
232.461	1443
232.527	1461
232.592	1855
232.657	2446
232.723	2784
232.788	1634
232.853	2285
232.918	1987
232.984	762
233.049	2031
233.114	1570
233.179	3521
233.245	4448
233.310	2649
233.375	1489
233.440	2236
233.506	938
233.571	1172
233.636	1492
233.701	1268
233.766	1927
233.832	1934
233.897	1053
233.962	400
234.027	2056
234.092	885
234.157	1391
234.222	1897
234.288	2929
234.353	5687
234.418	5296
234.483	3720
234.548	3389
234.613	2265
234.678	3617
234.743	2483
234.808	5336
234.873	3096
234.938	3849
235.004	2299
235.069	3124
235.134	2584
235.199	3489
235.264	2230
235.329	1175
235.394	2619
235.459	3088
235.524	1444
235.589	3233
235.654	1811
235.719	1218
235.784	2706
235.849	1863
235.913	2707
235.978	3348
236.043	3767
236.108	2505
236.173	1416
236.238	2003
236.303	1627
236.368	1574
236.433	2889
236.498	3384
236.563	3701
236.627	5608
236.692	21560
236.757	16449
236.822	5960
236.887	4376
236.952	4385
237.017	2216
237.081	4519
237.146	4742
237.211	6847
237.276	19226
237.341	35069
237.405	12768
237.470	4856
237.535	4122
237.600	3434
237.664	3828
237.729	2602
237.794	2436
237.859	4520
237.923	3729
237.988	2209
238.053	3931
238.118	3394
238.182	8532
238.247	8504
238.312	2418
238.376	3260
238.441	1162
238.506	3097
238.570	1183
238.635	3067
238.700	2793
238.764	819
238.829	3903
238.893	3440
238.958	3427
239.023	2332
239.087	2348
239.152	3038
239.216	2510
239.281	2440
239.346	3001
239.410	2425
239.475	2713
239.539	7657
239.604	6735
239.668	4415
239.733	4220
239.797	10232
239.862	26170
239.926	17739
239.991	7449
240.055	4405
240.120	2830
240.184	2600
240.249	3054
240.313	1979
240.378	2254
240.442	3749
240.507	7302
240.571	2957
240.635	3604
240.700	3610
240.764	2359
240.829	1661
240.893	1125
240.957	2286
241.022	3610
241.086	5778
241.151	1957
241.215	629
241.279	2657
241.344	2729
241.408	3701
241.472	2819
241.537	4313
241.601	4377
241.665	2545
241.730	2959
241.794	4490
241.858	2485
241.922	3537
241.987	3205
242.051	2505
242.115	2178
242.179	4002
242.244	2541
242.308	4107
242.372	3093
242.436	3511
242.501	2587
242.565	2125
242.629	2391
242.693	2895
242.757	1608
242.822	3248
242.886	2736
242.950	3790
243.014	2132
243.078	3452
243.142	3550
243.206	4299
243.271	4696
243.335	5076
243.399	9851
243.463	35774
243.527	95255
243.591	31283
243.655	9776
243.719	5849
243.783	6313
243.847	11136
243.911	15854
243.975	6794
244.040	2906
244.104	4764
244.168	3707
244.232	3017
244.296	7055
244.360	14166
244.424	3728
244.488	3482
244.552	3202
244.615	1253
244.679	2770
244.743	1794
244.807	1760
244.871	1882
244.935	2627
244.999	440
245.063	1574
245.127	3736
245.191	9304
245.255	9114
245.319	3447
245.383	819
245.446	2628
245.510	1496
245.574	2305
245.638	2809
245.702	811
245.766	3335
245.829	3583
245.893	1659
245.957	1434
246.021	2747
246.085	2732
246.149	2202
246.212	4849
246.276	7908
246.340	3297
246.404	2980
246.467	3788
246.531	1957
246.595	3420
246.659	2662
246.722	1621
246.786	2271
246.850	2980
246.913	2775
246.977	784
247.041	2253
247.104	2363
247.168	2738
247.232	3922
247.295	9528
247.359	3805
247.423	3136
247.486	2657
247.550	3006
247.614	1764
247.677	2648
247.741	2513
247.804	3091
247.868	7070
247.932	4686
247.995	10040
248.059	3768
248.122	2062
248.186	3701
248.249	3272
248.313	14890
248.376	14557
248.440	9001
248.503	2584
248.567	5200
248.630	3755
248.694	5105
248.757	8769
248.821	19300
248.884	10529
248.948	9919
249.011	12714
249.075	21201
249.138	18403
249.202	7615
249.265	4530
249.328	7823
249.392	5051
249.455	5882
249.519	5820
249.582	5591
249.645	6196
249.709	6726
249.772	5440
249.835	5581
249.899	5894
249.962	6635
250.025	4818
250.089	9583
250.152	10587
250.215	6883
250.279	5902
250.342	7702
250.405	7324
250.468	8886
250.532	11214
250.595	20109
250.658	82581
250.721	139282
250.785	43678
250.848	19724
250.911	11195
250.974	11348
251.038	11342
251.101	18168
251.164	12897
251.227	13603
251.290	15928
251.354	28463
251.417	119557
251.480	120255
251.543	85118
251.606	211879
251.669	163431
251.732	59891
251.795	37959
251.859	46478
251.922	132438
251.985	76477
252.048	27009
252.111	17948
252.174	14047
252.237	18849
252.300	31411
252.363	59278
252.426	155150
252.489	61957
252.552	24141
252.615	15369
252.678	16324
252.741	29322
252.804	64068
252.867	166351
252.930	71767
252.993	25906
253.056	15580
253.119	11509
253.182	11856
253.245	34723
253.308	19999
253.371	9132
253.434	7503
253.497	6042
253.559	9636
253.622	7452
253.685	4739
253.748	5599
253.811	3795
253.874	5420
253.937	3865
254.000	3821
254.062	5291
254.125	9223
254.188	5945
254.251	5023
254.314	2909
254.376	4092
254.439	4265
254.502	4140
254.565	5426
254.628	9069
254.690	4050
254.753	2830
254.816	1854
254.878	2725
254.941	5428
255.004	5681
255.067	3073
255.129	1539
255.192	2109
255.255	1329
255.317	1206
255.380	1968
255.443	1945
255.505	1590
255.568	624
255.631	2472
255.693	1896
255.756	1779
255.819	3144
255.881	2045
255.944	2254
256.006	2010
256.069	934
256.132	1712
256.194	1463
256.257	4541
256.319	3512
256.382	4249
256.444	6516
256.507	4823
256.569	3994
256.632	3662
256.694	3039
256.757	10123
256.819	29334
256.882	14150
256.944	5362
257.007	4311
257.069	3350
257.132	2915
257.194	4002
257.257	3353
257.319	2819
257.381	3756
257.444	6787
257.506	35276
257.569	31097
257.631	9941
257.693	6734
257.756	5420
257.818	2749
257.880	3523
257.943	2599
258.005	2792
258.067	1476
258.130	2375
258.192	3620
258.254	3385
258.317	2659
258.379	4319
258.441	3518
258.503	5523
258.566	6327
258.628	8609
258.690	3002
258.753	4134
258.815	3520
258.877	4265
258.939	2723
259.001	3484
259.064	2872
259.126	2783
259.188	4000
259.250	3971
259.312	3359
259.375	5071
259.437	4367
259.499	3200
259.561	2500
259.623	2957
259.685	2602
259.747	3705
259.809	6153
259.872	11450
259.934	19130
259.996	16139
260.058	4339
260.120	2549
260.182	2887
260.244	2723
260.306	1709
260.368	3176
260.430	1197
260.492	2814
260.554	3888
260.616	2803
260.678	6132
260.740	9711
260.802	2190
260.864	3537
260.926	2455
260.988	3744
261.050	3096
261.112	2271
261.174	10294
261.236	10030
261.298	2727
261.359	4802
261.421	6871
261.483	2211
261.545	3722
261.607	1838
261.669	2624
261.731	3255
261.793	5828
261.854	2701
261.916	3188
261.978	2284
262.040	1994
262.102	2789
262.164	2759
262.225	2507
262.287	1790
262.349	2038
262.411	2961
262.472	2782
262.534	2754
262.596	6108
262.658	3350
262.719	1062
262.781	3081
262.843	5554
262.904	4672
262.966	4429
263.028	7443
263.090	39685
263.151	123606
263.213	34983
263.275	9729
263.336	6466
263.398	4713
263.459	2851
263.521	3365
263.583	4253
263.644	1833
263.706	2067
263.767	1480
263.829	2622
263.891	1318
263.952	1729
264.014	516
264.075	530
264.137	1109
264.198	2522
264.260	868
264.321	1600
264.383	975
264.444	2449
264.506	1625
264.567	2992
264.629	2490
264.690	2328
264.752	1504
264.813	2000
264.875	1361
264.936	2756
264.998	1830
265.059	2580
265.120	2781
265.182	2537
265.243	10841
265.305	11537
265.366	3880
265.427	2104
265.489	2980
265.550	790
265.611	1274
265.673	1163
265.734	1703
265.795	2491
265.857	1431
265.918	1541
265.979	3385
266.040	20757
266.102	16454
266.163	4256
266.224	2661
266.286	1776
266.347	1116
266.408	2057
266.469	1359
266.530	1911
266.592	1263
266.653	3226
266.714	1819
266.775	1439
266.836	1613
266.898	1162
266.959	1746
267.020	2001
267.081	2881
267.142	1625
267.203	1214
267.264	1174
267.326	2462
267.387	1646
267.448	1167
267.509	2609
267.570	1310
267.631	1544
267.692	912
267.753	2274
267.814	725
267.875	3071
267.936	2988
267.997	1483
268.058	1588
268.119	1280
268.180	673
268.241	773
268.302	1903
268.363	886
268.424	1289
268.485	1429
268.546	873
268.607	1331
268.668	1653
268.729	792
268.790	1317
268.851	2175
268.912	2246
268.972	1749
269.033	1237
269.094	1468
269.155	2107
269.216	1171
269.277	2104
269.338	1788
269.398	1773
269.459	1808
269.520	1968
269.581	1961
269.642	1867
269.702	2359
269.763	1642
269.824	1264
269.885	1951
269.945	2104
270.006	1658
270.067	1679
270.128	1352
270.188	1602
270.249	1604
270.310	1604
270.370	1872
270.431	2138
270.492	1336
270.553	1596
270.613	1716
270.674	3187
270.734	1588
270.795	1934
270.856	1576
270.916	2082
270.977	1421
271.038	1973
271.098	1577
271.159	2225
271.219	1982
271.280	1984
271.340	1420
271.401	2362
271.462	2694
271.522	1784
271.583	1257
271.643	2198
271.704	1474
271.764	2712
271.825	3050
271.885	13400
271.946	20078
272.006	5909
272.066	8582
272.127	17148
272.187	11815
272.248	4796
272.308	3391
272.369	9197
272.429	5215
272.489	2020
272.550	2491
272.610	2351
272.671	2363
272.731	2372
272.791	2714
272.852	2206
272.912	2445
272.972	2126
273.033	1328
273.093	2391
273.153	2302
273.214	1862
273.274	1872
273.334	3993
273.394	9460
273.455	3100
273.515	3366
273.575	5842
273.635	3639
273.696	5006
273.756	11133
273.816	4899
273.876	3066
273.936	5210
273.997	8343
274.057	3457
274.117	1609
274.177	2795
274.237	10861
274.297	11998
274.358	6408
274.418	7284
274.478	4826
274.538	2282
274.598	1933
274.658	6689
274.718	8028
274.778	3196
274.838	2489
274.898	4550
274.958	12677
275.018	13062
275.078	8161
275.138	3166
275.198	1872
275.258	2195
275.318	1574
275.378	2619
275.438	3147
275.498	2792
275.558	5906
275.618	12181
275.678	5819
275.738	4295
275.798	2800
275.858	1888
275.918	2151
275.978	2653
276.038	2038
276.098	2515
276.157	2454
276.217	4752
276.277	3039
276.337	2331
276.397	1961
276.457	2453
276.517	2072
276.576	1468
276.636	2172
276.696	2505
276.756	2778
276.815	3124
276.875	2013
276.935	2202
276.995	1949
277.055	2861
277.114	2701
277.174	2619
277.234	3106
277.293	1715
277.353	1098
277.413	1268
277.472	1151
277.532	1668
277.592	2426
277.651	4195
277.711	7983
277.771	4202
277.830	8741
277.890	7779
277.950	6019
278.009	25729
278.069	8878
278.128	7346
278.188	8648
278.248	4586
278.307	9201
278.367	6780
278.426	3165
278.486	2266
278.545	2351
278.605	2542
278.664	1787
278.724	2830
278.783	5772
278.843	12584
278.902	4840
278.962	2514
279.021	2727
279.081	4462
279.140	3506
279.199	3062
279.259	3173
279.318	4608
279.378	4857
279.437	8455
279.496	25427
279.556	129224
279.615	103507
279.675	19790
279.734	10789
279.793	11373
279.853	15939
279.912	7293
279.971	5967
280.031	6073
280.090	7268
280.149	11865
280.208	12800
280.268	84950
280.327	96051
280.386	17120
280.445	8616
280.505	6987
280.564	4321
280.623	3422
280.682	3947
280.742	4146
280.801	3185
280.860	3079
280.919	2066
280.978	2877
281.037	1893
281.097	2176
281.156	3079
281.215	2808
281.274	2150
281.333	6516
281.392	5153
281.451	3014
281.510	2207
281.569	2136
281.628	2474
281.688	2570
281.747	1970
281.806	2488
281.865	1829
281.924	2060
281.983	1628
282.042	2193
282.101	2149
282.160	2490
282.219	2234
282.278	2544
282.337	2630
282.396	3184
282.454	2312
282.513	1857
282.572	3696
282.631	2729
282.690	1471
282.749	1538
282.808	1999
282.867	1971
282.926	2074
282.985	1637
283.043	1626
283.102	2474
283.161	1137
283.220	3106
283.279	4958
283.338	2774
283.396	1411
283.455	1868
283.514	2349
283.573	2477
283.631	3018
283.690	1974
283.749	1468
283.808	2809
283.866	2794
283.925	2165
283.984	2510
284.043	2188
284.101	2342
284.160	2426
284.219	3482
284.277	2770
284.336	2435
284.395	6026
284.453	5138
284.512	3444
284.570	3054
284.629	3075
284.688	2675
284.746	2678
284.805	3137
284.863	4112
284.922	4748
284.981	5881
285.039	7069
285.098	11015
285.156	27666
285.215	127155
285.273	122421
285.332	34954
285.390	16341
285.449	10018
285.507	6754
285.566	6358
285.624	5699
285.683	4778
285.741	3624
285.799	3835
285.858	3350
285.916	3413
285.975	3073
286.033	2746
286.091	2944
286.150	2427
286.208	3482
286.267	3434
286.325	2853
286.383	3057
286.442	2853
286.500	3306
286.558	3066
286.616	2874
286.675	2636
286.733	3121
286.791	2438
286.850	3333
286.908	2235
286.966	4472
287.024	3052
287.083	2900
287.141	2868
287.199	3345
287.257	3088
287.315	4276
287.374	3377
287.432	4546
287.490	3770
287.548	4322
287.606	4622
287.664	5115
287.723	5461
287.781	7331
287.839	8327
287.897	10803
287.955	16210
288.013	23799
288.071	46716
288.129	174777
288.187	449808
288.245	225022
288.303	73805
288.361	39559
288.419	24428
288.477	17679
288.535	13408
288.593	11458
288.651	8624
288.709	7112
288.767	6008
288.825	5499
288.883	4952
288.941	5211
288.999	3843
289.057	4241
289.115	4030
289.173	4122
289.231	4153
289.289	3618
289.346	2931
289.404	4141
289.462	3315
289.520	3474
289.578	3062
289.636	3837
289.694	2432
289.751	1970
289.809	2415
289.867	2732
289.925	3569
289.983	3286
290.040	1858
290.098	3425
290.156	2858
290.214	2461
290.271	2756
290.329	4003
290.387	3165
290.444	3199
290.502	2006
290.560	2860
290.617	1747
290.675	2196
290.733	1669
290.790	2435
290.848	2851
290.906	2598
290.963	2106
291.021	2688
291.078	2628
291.136	1588
291.194	2359
291.251	4385
291.309	1484
291.366	2154
291.424	2778
291.481	1831
291.539	2077
291.596	2479
291.654	1178
291.711	2129
291.769	2127
291.826	2435
291.884	2716
291.941	3160
291.999	1831
292.056	1742
292.114	1817
292.171	1809
292.228	3243
292.286	2469
292.343	2014
292.401	3050
292.458	2311
292.515	2253
292.573	3130
292.630	3175
292.687	2415
292.745	2885
292.802	1583
292.859	3145
292.917	4809
292.974	3536
293.031	2122
293.089	2045
293.146	2425
293.203	1761
293.260	1506
293.318	2470
293.375	2549
293.432	2408
293.489	2919
293.546	2840
293.604	1907
293.661	5637
293.718	13846
293.775	5691
293.832	3670
293.889	3802
293.947	3314
294.004	2363
294.061	2468
294.118	2980
294.175	4006
294.232	5357
294.289	2085
294.346	2708
294.403	2101
294.460	3095
294.517	2661
294.574	2263
294.631	2722
294.688	3542
294.745	4377
294.802	12197
294.859	9931
294.916	4548
294.973	2246
295.030	2642
295.087	2831
295.144	2692
295.201	1907
295.258	2503
295.315	2686
295.372	5162
295.429	9055
295.486	4521
295.542	2739
295.599	4246
295.656	5376
295.713	4204
295.770	7065
295.827	4318
295.883	2741
295.940	2407
295.997	1944
296.054	3261
296.111	2357
296.167	2983
296.224	1685
296.281	2111
296.338	2477
296.394	2254
296.451	2471
296.508	3458
296.564	5102
296.621	5403
296.678	13730
296.734	21573
296.791	7377
296.848	4467
296.904	3477
296.961	4771
297.018	9561
297.074	9390
297.131	4401
297.187	4108
297.244	3680
297.301	11954
297.357	23362
297.414	8751
297.470	3874
297.527	3058
297.583	2544
297.640	3073
297.696	1654
297.753	1885
297.809	1482
297.866	2490
297.922	2616
297.979	2173
298.035	1696
298.092	2759
298.148	4902
298.204	5646
298.261	3192
298.317	6221
298.374	18240
298.430	11785
298.486	4896
298.543	4721
298.599	4864
298.656	5503
298.712	11654
298.768	53154
298.824	47499
298.881	14189
298.937	7018
298.993	5477
299.050	3597
299.106	4278
299.162	2975
299.218	4171
299.275	3958
299.331	4249
299.387	5783
299.443	20504
299.500	39081
299.556	29101
299.612	11368
299.668	9869
299.724	28369
299.780	34843
299.837	13201
299.893	10195
299.949	22919
300.005	34688
300.061	27990
300.117	49377
300.173	23288
300.229	9790
300.285	6218
300.341	7312
300.397	4794
300.453	5380
300.510	5192
300.566	6830
300.622	12048
300.678	46862
300.734	60124
300.790	28412
300.845	21086
300.901	26130
300.957	41116
301.013	18679
301.069	8050
301.125	6120
301.181	4014
301.237	4349
301.293	3325
301.349	3554
301.405	3040
301.461	2940
301.516	2713
301.572	2814
301.628	3326
301.684	2872
301.740	3400
301.796	5862
301.851	4414
301.907	5880
301.963	7022
302.019	14834
302.074	45226
302.130	47310
302.186	19488
302.242	8491
302.297	6378
302.353	3486
302.409	5337
302.464	5177
302.520	3559
302.576	9594
302.631	11705
302.687	6315
302.743	3149
302.798	3168
302.854	2556
302.910	2611
302.965	2598
303.021	3456
303.076	3730
303.132	3984
303.187	3304
303.243	3352
303.299	2018
303.354	2272
303.410	2964
303.465	2363
303.521	1458
303.576	3288
303.632	2754
303.687	4121
303.743	13033
303.798	11471
303.853	4432
303.909	3436
303.964	2347
304.020	2683
304.075	2927
304.130	3172
304.186	3354
304.241	4274
304.297	3171
304.352	3068
304.358	3007
304.407	2508
304.449	2974
304.463	3136
304.518	2664
304.539	2815
304.573	3038
304.629	2260
304.630	2282
304.684	3407
304.720	7746
304.739	9874
304.794	16214
304.811	13844
304.850	8285
304.902	4116
304.905	3846
304.960	3104
304.992	2740
305.015	2467
305.071	3005
305.083	2877
305.126	2431
305.173	1625
305.181	1503
305.236	1854
305.264	1924
305.292	1946
305.347	3150
305.354	3143
305.402	3202
305.445	2859
305.457	2719
305.512	2813
305.535	2659
305.567	2558
305.622	2829
305.626	2939
305.678	5153
305.716	8102
305.733	9058
305.788	10086
305.807	8747
305.843	6963
305.897	12725
305.898	12788
305.953	12274
305.988	8427
306.008	6401
306.063	3282
306.078	2997
306.118	2508
306.168	2598
306.173	2600
306.228	2471
306.259	2012
306.283	1709
306.338	2321
306.349	2334
306.393	2269
306.440	2529
306.448	2601
306.503	3055
306.530	2778
306.558	2666
306.613	4348
306.620	4386
306.668	4673
306.711	6689
306.723	6945
306.778	5865
306.801	4732
306.833	3663
306.888	3079
306.892	3000
306.943	2130
306.982	2258
306.997	2346
307.052	2291
307.072	2394
307.107	2620
307.162	2566
307.163	2573
307.217	3675
307.253	3801
307.272	3635
307.327	3404
307.343	3185
307.381	2975
307.434	2878
307.436	2921
307.491	5140
307.524	6495
307.546	6724
307.600	6121
307.614	5633
307.655	4317
307.704	3729
307.710	3772
307.765	4081
307.795	4594
307.819	4966
307.874	6624
307.885	6759
307.929	6906
307.975	7362
307.984	7825
308.038	10951
308.065	13226
308.093	26822
308.148	60634
308.156	69821
308.202	109971
308.246	131607
308.257	127966
308.312	57724
308.336	33358
308.366	21399
308.421	11908
308.426	11242
308.475	7940
308.517	6788
308.530	6370
308.585	4728
308.607	4600
308.639	4928
308.694	4994
308.697	5050
308.748	7217
308.787	8933
308.803	8775
308.857	7423
308.877	6666
308.912	6244
308.967	6738
308.967	6742
309.021	9083
309.058	11628
309.076	15429
309.130	28218
309.148	33477
309.185	86850
309.238	184745
309.239	184957
309.293	190078
309.328	150881
309.348	124209
309.402	48686
309.418	31464
309.457	19647
309.508	12354
309.511	12095
309.566	9584
309.598	8963
309.620	8931
309.674	9477
309.688	9769
309.729	9395
309.778	7937
309.783	7790
309.837	6058
309.868	5231
309.892	5655
309.946	7370
309.959	7843
310.001	8303
310.049	8580
310.055	8437
310.109	6363
310.139	5350
310.163	4835
310.218	3784
310.229	3587
310.272	3819
310.319	4216
310.326	4145
310.381	3491
310.409	3199
310.435	3283
310.489	3592
310.499	3638
310.543	3321
310.589	2859
310.598	2925
310.652	3396
310.679	3714
310.706	3775
310.760	3472
310.769	3478
310.814	3738
310.859	3801
310.868	3759
310.923	3711
310.948	3520
310.977	3758
311.031	4490
311.038	4566
311.085	4287
311.128	3982
311.139	3995
311.193	4073
311.218	4134
311.247	4158
311.301	3941
311.308	3931
311.356	3972
311.398	3870
311.410	3838
311.464	3817
311.488	3726
311.518	3680
311.572	3735
311.578	3720
311.626	3466
311.668	3334
311.680	3479
311.734	3969
311.758	4209
311.788	3978
311.842	3579
311.847	3532
311.896	4251
311.937	4852
311.950	4715
312.004	4072
312.027	3794
312.058	3625
312.112	3316
312.117	3283
312.165	2936
312.207	2646
312.297	4048
312.386	3989
312.476	3433
312.566	3698
312.656	3748
312.745	3371
312.835	4190
312.925	4120
313.015	4467
313.104	3937
313.194	4885
313.284	4460
313.374	5105
313.463	4870
313.553	5935
313.643	5425
313.732	6371
313.822	5958
313.912	7216
314.001	7115
314.091	8141
314.180	6873
314.270	7588
314.360	6966
314.449	6697
314.539	6101
314.628	7499
314.718	7161
314.808	9240
314.897	8449
314.987	10006
315.076	10390
315.166	9651
315.255	10216
315.345	9496
315.434	9264
315.524	11769
315.613	14591
315.703	26533
315.792	100826
315.881	395881
315.971	92615
316.060	20259
316.150	12310
316.239	9595
316.328	8786
316.418	8202
316.507	9378
316.597	9301
316.686	9819
316.775	9877
316.865	11067
316.954	8697
317.043	8821
317.133	7742
317.222	7405
317.311	7982
317.400	7884
317.490	12211
317.579	12906
317.668	21145
317.757	42060
317.847	183730
317.936	564223
318.025	135725
318.114	138410
318.203	45824
318.293	13308
318.382	15264
318.471	13848
318.560	13029
318.649	13050
318.738	8017
318.828	5959
318.917	5676
319.006	5993
319.095	7787
319.184	13205
319.273	7783
319.362	5647
319.451	4896
319.540	4689
319.629	5939
319.718	5996
319.807	5272
319.896	6757
319.985	14903
320.074	6657
320.163	4819
320.252	6464
320.341	6064
320.430	5693
320.519	6945
320.608	5501
320.697	8131
320.786	7527
320.875	10466
320.964	11503
321.053	12424
321.142	12880
321.230	14256
321.319	15589
321.408	20147
321.497	18225
321.586	15438
321.675	12725
321.764	12703
321.852	11367
321.941	12769
322.030	10712
322.119	12632
322.207	19058
322.296	19309
322.385	20535
322.474	25413
322.562	28186
322.651	20132
322.740	14303
322.829	14079
322.917	13131
323.006	10565
323.095	8701
323.183	9123
323.272	7616
323.361	10913
323.449	22766
323.538	9661
323.626	14919
323.715	10434
323.804	6672
323.892	12960
323.981	6888
324.069	6587
324.158	9796
324.246	7945
324.335	5974
324.424	6375
324.512	4616
324.601	4781
324.689	5813
324.778	7365
324.866	6284
324.954	4972
325.043	5033
325.131	5730
325.220	7558
325.308	7840
325.397	6680
325.485	5859
325.574	4703
325.662	4968
325.750	3594
325.839	4873
325.927	3757
326.015	4105
326.104	4675
326.192	5331
326.280	4638
326.369	4589
326.457	4594
326.545	5417
326.634	4285
326.722	4599
326.810	4632
326.898	5927
326.987	5981
327.075	5908
327.163	5735
327.251	5669
327.340	5349
327.428	9027
327.516	9130
327.604	6442
327.692	5718
327.781	5536
327.869	4412
327.957	4539
328.045	4025
328.133	4424
328.221	3862
328.309	4590
328.397	3974
328.485	5877
328.574	9263
328.662	14569
328.750	7340
328.838	5678
328.926	3989
329.014	5062
329.102	4469
329.190	5306
329.278	4086
329.366	4468
329.454	3248
329.542	4149
329.630	3798
329.718	4480
329.806	3361
329.893	4465
329.981	3788
330.069	3970
330.157	4648
330.245	6243
330.333	4297
330.421	3597
330.509	4182
330.597	6647
330.684	5280
330.772	4387
330.860	4319
330.948	4552
331.036	4234
331.123	4217
331.211	3865
331.299	4079
331.387	4393
331.475	4689
331.562	4483
331.650	4760
331.738	3193
331.825	4613
331.913	3893
332.001	3769
332.089	4280
332.176	5071
332.264	7250
332.352	6021
332.439	4594
332.527	4810
332.614	4198
332.702	5563
332.790	3781
332.877	6248
332.965	7816
333.052	5196
333.140	5456
333.228	6461
333.315	4497
333.403	5754
333.490	7319
333.578	5923
333.665	7685
333.753	6612
333.840	6260
333.928	7280
334.015	9200
334.103	12482
334.190	23500
334.278	17827
334.365	26082
334.452	26086
334.540	16776
334.627	15675
334.715	18622
334.802	29764
334.889	64708
334.977	83295
335.064	42751
335.151	19287
335.239	13086
335.326	11576
335.413	15585
335.501	16384
335.588	12264
335.675	13313
335.762	16126
335.850	22217
335.937	31955
336.024	57910
336.111	109503
336.199	89357
336.286	35053
336.373	20202
336.460	13372
336.547	10167
336.635	8911
336.722	8786
336.809	7014
336.896	7187
336.983	9506
337.070	12743
337.157	17848
337.245	17281
337.332	13235
337.419	7170
337.506	5783
337.593	6066
337.680	7241
337.767	11259
337.854	6335
337.941	6628
338.028	7761
338.115	5310
338.202	6490
338.289	7589
338.376	14190
338.463	6992
338.550	7624
338.637	7424
338.724	5756
338.811	6662
338.898	4763
338.984	4637
339.071	3866
339.158	4801
339.245	4917
339.332	5806
339.419	6271
339.506	6101
339.593	3430
339.679	4196
339.766	4004
339.853	4873
339.940	4215
340.027	4247
340.113	4501
340.200	4388
340.287	4313
340.374	4382
340.460	4820
340.547	3518
340.634	5001
340.720	7544
340.807	4048
340.894	4377
340.980	3537
341.067	3806
341.154	4881
341.240	4412
341.327	5789
341.414	4694
341.500	3601
341.587	4711
341.674	4190
341.760	4375
341.847	4808
341.933	4373
342.020	3179
342.106	4381
342.193	4951
342.279	5075
342.366	3491
342.452	4571
342.539	3970
342.625	5310
342.712	5899
342.798	4974
342.885	3786
342.971	3072
343.058	3159
343.144	4175
343.230	4386
343.317	4869
343.403	3116
343.490	4720
343.576	3479
343.662	3750
343.749	3172
343.835	5059
343.921	5717
344.008	25395
344.094	40717
344.180	10000
344.267	4565
344.353	9408
344.439	8268
344.525	5633
344.612	5667
344.698	5890
344.784	4169
344.870	4787
344.957	3300
345.043	5583
345.129	3093
345.215	5044
345.301	3560
345.387	4100
345.474	3509
345.560	3504
345.646	3387
345.732	4626
345.818	4386
345.904	4555
345.990	4531
346.076	4147
346.162	4391
346.249	4035
346.335	3415
346.421	5706
346.507	6310
346.593	12066
346.679	3801
346.765	7718
346.851	8779
346.937	7308
347.023	4979
347.108	4964
347.194	3150
347.280	4519
347.366	6604
347.452	20254
347.538	27774
347.624	14231
347.710	8767
347.796	5794
347.882	4696
347.967	5105
348.053	4531
348.139	4072
348.225	3695
348.311	4109
348.397	3586
348.482	4865
348.568	5196
348.654	8314
348.740	26240
348.825	23011
348.911	10218
348.997	12073
349.083	15521
349.168	6088
349.254	3947
349.340	4944
349.425	3812
349.511	5409
349.597	3980
349.682	5608
349.768	8898
349.854	5948
349.939	4204
350.025	4212
350.110	5027
350.196	5144
350.282	3769
350.367	4934
350.453	4500
350.538	4258
350.624	3790
350.709	4371
350.795	4087
350.880	3689
350.966	5129
351.051	5400
351.137	3989
351.222	4671
351.308	5073
351.393	6522
351.479	4567
351.564	4020
351.649	4014
351.735	4276
351.820	3987
351.906	4558
351.991	4304
352.076	6312
352.162	6442
352.247	4831
352.332	4329
352.418	4217
352.503	4061
352.588	8545
352.673	6270
352.759	4215
352.844	3003
352.929	4655
353.014	4013
353.100	4516
353.185	4660
353.270	4695
353.355	5291
353.441	5421
353.526	3419
353.611	5263
353.696	3796
353.781	5100
353.866	3557
353.952	5693
354.037	4113
354.122	6275
354.207	5442
354.292	4955
354.377	3837
354.462	4912
354.547	4188
354.632	5280
354.717	4909
354.802	3843
354.887	3903
354.972	4053
355.057	3560
355.142	3998
355.227	4226
355.312	4081
355.397	5551
355.482	7820
355.567	4920
355.652	5375
355.737	4957
355.822	9777
355.907	6770
355.991	5998
356.076	3816
356.161	5588
356.246	4075
356.331	5232
356.416	6468
356.501	21201
356.585	16400
356.670	6199
356.755	6416
356.840	6448
356.924	17416
357.009	47039
357.094	16646
357.179	5751
357.263	4252
357.348	5774
357.433	4722
357.517	5976
357.602	5012
357.687	4985
357.771	5558
357.856	8521
357.941	7400
358.025	19382
358.110	67266
358.195	25534
358.279	7149
358.364	6826
358.448	8513
358.533	14129
358.617	10392
358.702	12366
358.787	7042
358.871	6275
358.956	5781
359.040	5929
359.125	5044
359.209	5326
359.294	6792
359.378	11524
359.462	8495
359.547	5839
359.631	4911
359.716	4129
359.800	4138
359.885	6476
359.969	3628
360.053	6150
360.138	4434
360.222	5654
360.306	5006
360.391	5872
360.475	6421
360.559	7491
360.644	7420
360.728	6469
360.812	14016
360.896	26251
360.981	9674
361.065	6481
361.149	5596
361.233	5448
361.318	5198
361.402	6067
361.486	6954
361.570	6322
361.654	6060
361.739	8111
361.823	22738
361.907	30046
361.991	10903
362.075	11308
362.159	13509
362.243	27090
362.327	65712
362.411	99595
362.495	37125
362.580	17410
362.664	15788
362.748	18865
362.832	27776
362.916	58851
363.000	176516
363.084	256708
363.168	105138
363.252	30009
363.336	16929
363.420	13814
363.503	17406
363.587	17835
363.671	11095
363.755	10254
363.839	12489
363.923	12120
364.007	15920
364.091	22163
364.175	33377
364.258	83362
364.342	200716
364.426	372558
364.510	187328
364.594	50156
364.677	26099
364.761	33293
364.845	23284
364.929	10958
365.013	8880
365.096	8827
365.180	8088
365.264	9676
365.347	20252
365.431	10332
365.515	5628
365.598	5986
365.682	7051
365.766	6073
365.849	5591
365.933	6570
366.017	7182
366.100	5730
366.184	4698
366.267	8233
366.351	6015
366.435	5904
366.518	4700
366.602	5901
366.685	6075
366.769	6473
366.852	5942
366.936	6775
367.019	6129
367.103	6238
367.186	8094
367.270	6620
367.353	5903
367.436	8100
367.520	7276
367.603	7505
367.687	6420
367.770	7947
367.853	8190
367.937	10977
368.020	11267
368.104	6781
368.187	6646
368.270	6552
368.353	5704
368.437	7442
368.520	10656
368.603	7123
368.687	6640
368.770	11792
368.853	5217
368.936	6904
369.020	6070
369.103	4987
369.186	3718
369.269	4374
369.352	5087
369.436	5464
369.519	4721
369.602	3369
369.685	6120
369.768	3833
369.851	4847
369.934	4221
370.018	4632
370.101	4639
370.184	7170
370.267	5692
370.350	5981
370.433	11123
370.516	51683
370.599	159232
370.682	70013
370.765	14856
370.848	11875
370.931	13554
371.014	8739
371.097	3988
371.180	5727
371.263	6032
371.346	2950
371.429	5898
371.511	4051
371.594	4506
371.677	5569
371.760	6755
371.843	6038
371.926	28344
372.009	52702
372.091	16376
372.174	8359
372.257	15785
372.340	7652
372.423	5999
372.505	6465
372.588	5687
372.671	8654
372.754	12841
372.836	8650
372.919	8141
373.002	9760
373.085	6295
373.167	7099
373.250	10015
373.332	16338
373.415	36834
373.498	70650
373.580	61714
373.663	241863
373.746	225619
373.828	31410
373.911	12908
373.993	9320
374.076	12273
374.159	10947
374.241	9438
374.324	12919
374.406	11951
374.489	21230
374.571	41920
374.654	16442
374.736	13061
374.819	27330
374.901	45737
374.983	44613
375.066	13833
375.148	8524
375.231	14027
375.313	17336
375.395	11332
375.478	10024
375.560	10437
375.643	9113
375.725	14429
375.807	33810
375.890	26155
375.972	10088
376.054	9010
376.136	11197
376.219	7926
376.301	12995
376.383	22443
376.465	11246
376.548	6919
376.630	8637
376.712	18565
376.794	10095
376.877	6053
376.959	3996
377.041	5538
377.123	5176
377.205	7110
377.287	3986
377.369	6199
377.452	5390
377.534	5619
377.616	5262
377.698	4978
377.780	4798
377.862	6084
377.944	5189
378.026	5072
378.108	5470
378.190	5394
378.272	5125
378.354	5578
378.436	4455
378.518	5339
378.600	5461
378.682	6828
378.764	8652
378.846	7997
378.928	5030
379.010	4820
379.091	6313
379.173	5487
379.255	4405
379.337	5445
379.419	6332
379.501	11930
379.583	6858
379.664	5986
379.746	3768
379.828	10100
379.910	10137
379.991	10509
380.073	4836
380.155	5888
380.237	5646
380.318	5556
380.400	4632
380.482	6999
380.564	5690
380.645	5722
380.727	5693
380.809	5326
380.890	4703
380.972	4865
381.053	4628
381.135	6166
381.217	5928
381.298	9017
381.380	5822
381.461	8630
381.543	19505
381.624	21402
381.706	7150
381.787	6985
381.869	7317
381.951	17337
382.032	46556
382.113	28732
382.195	6321
382.276	7417
382.358	9565
382.439	16472
382.521	25327
382.602	37040
382.684	16040
382.765	20218
382.846	20421
382.928	26725
383.009	15184
383.090	14185
383.172	42225
383.253	56522
383.334	23535
383.416	25702
383.497	15089
383.578	10172
383.659	13492
383.741	42655
383.822	93318
383.903	45113
383.984	18511
384.066	27211
384.147	16502
384.228	11879
384.309	11861
384.390	12117
384.471	10845
384.553	10591
384.634	8620
384.715	9989
384.796	8251
384.877	8866
384.958	12733
385.039	13278
385.120	9093
385.201	10385
385.282	8540
385.363	10579
385.444	10995
385.525	13286
385.606	21273
385.687	18301
385.768	11245
385.849	11927
385.930	30204
386.011	44858
386.092	17339
386.173	13245
386.254	11045
386.335	10986
386.416	9908
386.496	12326
386.577	13695
386.658	11250
386.739	9957
386.820	12293
386.901	11120
386.981	14566
387.062	17141
387.143	18308
387.224	20539
387.304	22610
387.385	20213
387.466	17602
387.547	19792
387.627	20648
387.708	21980
387.789	26091
387.869	26193
387.950	18865
388.031	14432
388.111	11795
388.192	15884
388.273	19055
388.353	15336
388.434	10394
388.514	11332
388.595	23558
388.676	22297
388.756	13505
388.837	12369
388.917	10768
388.998	7294
389.078	10485
389.159	9198
389.239	7133
389.320	10309
389.400	7453
389.480	10033
389.561	12259
389.641	10938
389.722	9559
389.802	9396
389.883	10964
389.963	15738
390.043	13479
390.124	8548
390.204	12124
390.284	13444
390.365	15292
390.445	46390
390.525	183161
390.605	153620
390.686	25721
390.766	12590
390.846	12092
390.927	9735
391.007	10397
391.087	11115
391.167	10919
391.247	9963
391.328	13248
391.408	12758
391.488	13724
391.568	11492
391.648	13786
391.728	14452
391.808	16915
391.888	15635
391.969	19240
392.049	20198
392.129	20640
392.209	22041
392.289	28745
392.369	27227
392.449	29023
392.529	30276
392.609	37496
392.689	42127
392.769	53307
392.849	63596
392.929	82292
393.009	115867
393.089	178127
393.169	346384
393.248	858929
393.328	1557267
393.408	1502086
393.488	770697
393.568	310867
393.648	160324
393.728	100226
393.807	70084
393.887	55767
393.967	43232
394.047	37905
394.127	31986
394.206	34120
394.286	72204
394.366	245171
394.446	237217
394.525	51441
394.605	24087
394.685	21853
394.764	22987
394.844	35869
394.924	39289
395.003	22400
395.083	16897
395.163	16804
395.242	15315
395.322	16388
395.402	14299
395.481	18725
395.561	21238
395.640	52619
395.720	87331
395.799	50153
395.879	28526
395.958	30892
396.038	86822
396.117	312999
396.197	310528
396.276	80539
396.356	45047
396.435	53766
396.515	72787
396.594	116780
396.673	262205
396.753	770065
396.832	1401026
396.912	1045855
396.991	359382
397.070	139865
397.150	79384
397.229	62620
397.308	91737
397.388	137352
397.467	67695
397.546	29565
397.625	21322
397.705	21677
397.784	17588
397.863	16559
397.942	15073
398.022	14343
398.101	14325
398.180	16878
398.259	12655
398.338	11807
398.417	9484
398.497	10560
398.576	10352
398.655	9074
398.734	9008
398.813	8840
398.892	9930
398.971	15502
399.050	9233
399.129	7468
399.208	7556
399.287	8056
399.366	6725
399.445	7352
399.524	7554
399.603	6063
399.682	6577
399.761	8287
399.840	12849
399.919	12397
399.998	6545
400.077	5562
400.156	4647
400.235	8265
400.313	4532
400.392	4672
400.471	7319
400.550	9206
400.629	4297
400.708	6184
400.786	4866
400.865	5758
400.944	4649
401.023	7297
401.102	4062
401.180	5256
401.259	4029
401.338	5224
401.416	5070
401.495	4655
401.574	5315
401.652	3578
401.731	5061
401.810	3403
401.888	4415
401.967	3832
402.046	3611
402.124	4837
402.203	3567
402.281	4128
402.360	3658
402.438	6047
402.517	3175
402.596	4361
402.674	3238
402.753	4801
402.831	4073
402.910	4575
402.988	4449
403.066	8702
403.145	6977
403.223	6546
403.302	6664
403.380	7904
403.459	7297
403.537	6050
403.615	5454
403.694	4443
403.772	5559
403.850	5468
403.929	4880
404.007	4865
404.085	5846
404.164	4988
404.242	5354
404.320	11825
404.398	23816
404.477	21112
404.555	25613
404.633	23777
404.711	17329
404.789	12333
404.868	4987
404.946	3335
405.024	4095
405.102	4025
405.180	2284
405.258	3068
405.336	3929
405.415	3114
405.493	4564
405.571	4506
405.649	3266
405.727	3432
405.805	4993
405.883	6032
405.961	5330
406.039	3927
406.117	3179
406.195	4302
406.273	5647
406.351	15689
406.429	10952
406.507	3506
406.585	2527
406.663	4958
406.740	3083
406.818	3998
406.896	2564
406.974	4529
407.052	2871
407.130	9582
407.208	11565
407.285	5261
407.363	3043
407.441	3364
407.519	3256
407.596	5204
407.674	20123
407.752	72326
407.830	51036
407.907	9156
407.985	3231
408.063	4350
408.141	2841
408.218	4487
408.296	2521
408.373	4350
408.451	3602
408.529	5345
408.606	3687
408.684	5176
408.762	5312
408.839	5912
408.917	6047
408.994	5934
409.072	5536
409.149	9265
409.227	16786
409.304	24637
409.382	24690
409.459	29516
409.537	37365
409.614	31495
409.692	23328
409.769	25456
409.846	39958
409.924	45628
410.001	29988
410.079	20241
410.156	15026
410.233	12416
410.311	11244
410.388	9104
410.465	8762
410.543	7885
410.620	7904
410.697	8198
410.775	6777
410.852	6992
410.929	9643
411.006	9765
411.083	7546
411.161	7774
411.238	7473
411.315	5883
411.392	4275
411.469	6585
411.547	5250
411.624	4756
411.701	4449
411.778	5299
411.855	5183
411.932	3914
412.009	3668
412.086	5088
412.163	4205
412.240	3945
412.317	3721
412.394	3642
412.471	4251
412.548	3214
412.625	3196
412.702	4264
412.779	3497
412.856	5007
412.933	2765
413.010	3881
413.087	3622
413.164	5236
413.241	5266
413.318	3563
413.395	3585
413.471	3625
413.548	3244
413.625	3905
413.702	1758
413.779	3689
413.855	3312
413.932	3443
414.009	2080
414.086	3425
414.162	3179
414.239	3363
414.316	4825
414.393	8065
414.469	3744
414.546	2625
414.623	2442
414.699	3304
414.776	2306
414.853	2523
414.929	2920
415.006	2299
415.082	2844
415.159	3419
415.236	3328
415.312	3444
415.389	3936
415.465	1769
415.542	1890
415.618	1901
415.695	3268
415.771	2667
415.848	2007
415.924	2917
416.000	2695
416.077	4088
416.153	1984
416.230	2360
416.306	2654
416.383	2906
416.459	3160
416.535	2447
416.612	2285
416.688	2039
416.764	2516
416.841	1555
416.917	2576
416.993	2716
417.069	2392
417.146	1977
417.222	2521
417.298	1847
417.374	2140
417.451	2303
417.527	2853
417.603	2139
417.679	2523
417.755	3055
417.831	2418
417.908	3045
417.984	2201
418.060	2256
418.136	3057
418.212	2771
418.288	1786
418.364	3457
418.440	1972
418.516	3788
418.592	2582
418.668	3274
418.744	3040
418.820	3295
418.896	3032
418.972	2423
419.048	1888
419.124	4454
419.200	2743
419.276	4243
419.352	3049
419.428	4018
419.504	3510
419.579	2976
419.655	3557
419.731	4078
419.807	4873
419.883	4684
419.959	4673
420.034	5240
420.110	4648
420.186	6534
420.262	7044
420.337	5262
420.413	5005
420.489	5581
420.565	6369
420.640	5535
420.716	6670
420.792	6026
420.867	7593
420.943	6693
421.019	8072
421.094	7883
421.170	7770
421.245	8139
421.321	10308
421.397	11888
421.472	24218
421.548	49393
421.623	33980
421.699	17373
421.774	17135
421.850	19673
421.925	23655
422.001	27124
422.076	31846
422.152	40741
422.227	54736
422.302	77496
422.378	115360
422.453	199233
422.529	357429
422.604	504999
422.679	473591
422.755	480298
422.830	357986
422.905	204107
422.981	126384
423.056	86826
423.131	63148
423.207	47491
423.282	37127
423.357	32295
423.432	26289
423.508	23417
423.583	19747
423.658	18509
423.733	16320
423.808	15374
423.883	15711
423.959	17844
424.034	20122
424.109	19267
424.184	12900
424.259	10795
424.334	9071
424.409	8289
424.484	8060
424.559	7516
424.634	6445
424.709	7140
424.784	6094
424.859	6777
424.934	5864
425.009	8035
425.084	6835
425.159	5572
425.234	4881
425.309	5526
425.384	5566
425.459	5619
425.534	4515
425.609	4256
425.683	4005
425.758	5268
425.833	3923
425.908	5373
425.983	3755
426.058	6555
426.132	5000
426.207	4047
426.282	5193
426.357	4024
426.431	3261
426.506	4738
426.581	3065
426.655	4219
426.730	2869
426.805	3274
426.879	4281
426.954	3507
427.029	2999
427.103	7858
427.178	11150
427.253	6528
427.327	3205
427.402	3933
427.476	4012
427.551	3592
427.625	3832
427.700	4168
427.774	2972
427.849	5020
427.923	2763
427.998	4422
428.072	6147
428.147	14203
428.221	68972
428.296	190432
428.370	105044
428.444	15969
428.519	6953
428.593	5940
428.667	6418
428.742	8999
428.816	26706
428.890	120027
428.965	173152
429.039	45109
429.113	9043
429.188	5939
429.262	4844
429.336	4612
429.410	4789
429.485	5202
429.559	5368
429.633	5882
429.707	7112
429.781	24658
429.855	114129
429.930	155115
430.004	43476
430.078	26275
430.152	79596
430.226	259438
430.300	244766
430.374	53782
430.448	15443
430.522	11547
430.596	15894
430.670	41003
430.744	151163
430.818	158875
430.892	30916
430.966	7033
431.040	4881
431.114	3496
431.188	3597
431.262	3969
431.336	2143
431.410	3672
431.484	3632
431.557	5193
431.631	5021
431.705	11222
431.779	57630
431.853	185208
431.927	124618
432.000	19544
432.074	5054
432.148	2881
432.222	2417
432.295	2762
432.369	1047
432.443	2445
432.516	5266
432.590	11754
432.664	4883
432.737	1202
432.811	779
432.885	1670
432.958	2214
433.032	1563
433.106	310
433.179	1620
433.253	1360
433.326	1818
433.400	1198
433.473	2271
433.547	799
433.620	1920
433.694	1135
433.767	2501
433.841	572
433.914	2404
433.988	1643
434.061	2282
434.134	1661
434.208	2273
434.281	857
434.355	1900
434.428	1598
434.501	2093
434.575	1313
434.648	2264
434.721	1187
434.795	1638
434.868	1650
434.941	2686
435.014	1843
435.088	2837
435.161	3598
435.234	4542
435.307	4403
435.381	6658
435.454	11241
435.527	21273
435.600	21481
435.673	17220
435.746	11696
435.819	8882
435.892	7066
435.966	5725
436.039	4226
436.112	4516
436.185	2626
436.258	3310
436.331	1683
436.404	2527
436.477	1497
436.550	2371
436.623	2836
436.696	1385
436.769	1223
436.842	1573
436.915	1103
436.987	2014
437.060	1246
437.133	1354
437.206	1540
437.279	1787
437.352	1090
437.425	1169
437.498	1817
437.570	1947
437.643	513
437.716	1792
437.789	1040
437.861	1560
437.934	1574
438.007	2265
438.080	596
438.152	1522
438.225	1992
438.298	8634
438.370	20211
438.443	8635
438.516	1597
438.588	1139
438.661	944
438.734	1639
438.806	1111
438.879	2035
438.951	1439
439.024	1273
439.096	1311
439.169	1391
439.241	601
439.314	1761
439.386	750
439.459	2099
439.531	1509
439.604	2087
439.676	985
439.749	1230
439.821	1282
439.893	2364
439.966	1270
440.038	1663
440.110	1498
440.183	1814
440.255	488
440.327	2758
440.400	4021
440.472	10249
440.544	6409
440.617	2420
440.689	3031
440.761	2406
440.833	1391
440.905	1956
440.978	1428
441.050	1846
441.122	2001
441.194	1719
441.266	1243
441.338	1465
441.411	2058
441.483	4021
441.555	4529
441.627	2981
441.699	2721
441.771	3102
441.843	3012
441.915	3266
441.987	3272
442.059	4595
442.131	4684
442.203	6629
442.275	8255
442.347	14545
442.419	36216
442.491	162377
442.563	326461
442.635	146419
442.706	32426
442.778	14317
442.850	9340
442.922	8624
442.994	8170
443.066	9714
443.137	10343
443.209	16417
443.281	24401
443.353	54189
443.425	189964
443.496	511035
443.568	524329
443.640	232789
443.711	58929
443.783	23793
443.855	14547
443.926	10423
443.998	8464
444.070	6824
444.141	6799
444.213	5455
444.285	5108
444.356	5488
444.428	4788
444.499	5500
444.571	5226
444.642	5696
444.714	5456
444.785	6659
444.857	7400
444.928	10244
445.000	10214
445.071	13130
445.143	15985
445.214	25289
445.285	42647
445.357	112104
445.428	359691
445.500	625844
445.571	497994
445.642	332405
445.714	122167
445.785	40949
445.856	20085
445.928	13289
445.999	10000
446.070	8190
446.141	6167
446.213	5948
446.284	4081
446.355	4459
446.426	3273
446.497	3572
446.569	3354
446.640	3798
446.711	2678
446.782	2795
446.853	2514
446.924	2969
446.995	2037
447.066	2369
447.138	2075
447.209	2424
447.280	1020
447.351	1643
447.422	1359
447.493	1228
447.564	1684
447.635	1719
447.706	1111
447.777	1590
447.847	782
447.918	602
447.989	1160
448.060	1911
448.131	790
448.202	1433
448.273	1187
448.344	1215
448.414	1041
448.485	435
448.556	879
448.627	1733
448.698	1341
448.768	1533
448.839	-44
448.910	1150
448.981	1640
449.051	982
449.122	276
449.193	926
449.263	602
449.334	1262
449.405	1376
449.475	1333
449.546	2129
449.616	2769
449.687	2389
449.758	2065
449.828	933
449.899	921
449.969	205
450.040	1076
450.110	1399
450.181	1682
450.251	585
450.322	1432
450.392	1040
450.463	1019
450.533	990
450.604	1728
450.674	1529
450.744	3198
450.815	2553
450.885	3502
450.955	3565
451.026	3377
451.096	2294
451.166	3501
451.237	3903
451.307	6056
451.377	4021
451.447	2890
451.518	3187
451.588	1431
451.658	2227
451.728	1265
451.799	2548
451.869	2739
451.939	963
452.009	1574
452.079	1503
452.149	2066
452.219	2259
452.289	3046
452.360	3458
452.430	3399
452.500	4640
452.570	9208
452.640	21701
452.710	53202
452.780	58897
452.850	35418
452.920	18453
452.990	10105
453.060	6930
453.129	4482
453.199	4420
453.269	5132
453.339	7228
453.409	9368
453.479	7491
453.549	10030
453.619	8721
453.688	4715
453.758	1998
453.828	1655
453.898	469
453.968	1730
454.037	651
454.087	1140
454.107	1327
454.168	1305
454.177	1289
454.247	1756
454.249	1741
454.316	952
454.330	1040
454.386	1319
454.411	1206
454.456	923
454.492	1528
454.525	2083
454.574	1910
454.595	1805
454.655	1116
454.665	990
454.734	1559
454.736	1594
454.804	2313
454.817	2373
454.873	2482
454.898	2540
454.943	2702
454.979	2240
455.013	1713
455.060	1809
455.082	1890
455.141	1597
455.152	1585
455.221	3601
455.222	3661
455.291	5400
455.303	6614
455.360	11107
455.384	15630
455.430	22781
455.465	16704
455.499	11499
455.546	6069
455.569	3553
455.627	2991
455.638	2867
455.707	1759
455.708	1775
455.777	2121
455.789	2066
455.846	1733
455.869	1978
455.916	2305
455.950	2195
455.985	2124
456.031	2257
456.054	2300
456.112	1716
456.124	1575
456.193	2913
456.193	2902
456.262	2473
456.274	2585
456.332	3060
456.355	2772
456.401	2084
456.436	2750
456.470	3360
456.516	2557
456.540	2199
456.597	2040
456.609	1967
456.678	2651
456.678	2634
456.747	2895
456.759	2774
456.817	2155
456.840	2348
456.886	2651
456.920	2662
456.955	2633
457.001	2804
457.024	2870
457.082	3612
457.093	3767
457.162	3961
457.163	3980
457.232	3981
457.243	4112
457.301	4761
457.324	4641
457.370	4454
457.405	5333
457.439	6178
457.485	5497
457.508	5347
457.566	7316
457.577	8190
457.646	13870
457.647	13982
457.715	31217
457.727	35364
457.784	57197
457.808	76331
457.853	96439
457.889	111274
457.922	120517
457.969	92600
457.991	91679
458.050	96708
458.060	97840
458.129	164547
458.130	166532
458.198	167880
458.211	150217
458.267	101772
458.292	76020
458.336	47957
458.372	44432
458.405	54939
458.453	81351
458.474	95789
458.533	160913
458.543	163748
458.611	247451
458.614	247954
458.680	178290
458.694	145799
458.749	75599
458.775	56121
458.818	29546
458.855	22345
458.887	17234
458.936	13903
458.955	12443
459.016	9676
459.024	9405
459.093	8848
459.097	8772
459.162	7456
459.177	7355
459.230	6660
459.257	6625
459.299	6709
459.338	6596
459.368	6411
459.418	5949
459.437	5712
459.499	5374
459.505	5405
459.574	5316
459.579	5377
459.643	5449
459.659	5268
459.711	4937
459.740	5081
459.780	5368
459.820	5561
459.849	5480
459.900	5352
459.917	5363
459.981	5360
459.986	5364
460.054	5147
460.061	5183
460.123	5042
460.141	5048
460.191	5442
460.222	5557
460.260	5670
460.302	5960
460.328	6039
460.382	5836
460.397	5959
460.462	7449
460.465	7882
460.534	17052
460.543	18350
460.602	37329
460.623	45249
460.671	69717
460.703	94501
460.739	82262
460.783	57847
460.808	53944
460.864	18383
460.876	13728
460.944	6404
460.945	6318
461.013	6022
461.024	5916
461.081	5604
461.104	5834
461.150	5588
461.184	5025
461.218	5198
461.264	5708
461.286	5654
461.345	5061
461.355	4959
461.423	5152
461.425	5136
461.491	4682
461.505	4809
461.559	5908
461.585	5930
461.628	5545
461.665	5962
461.696	6175
461.745	6197
461.764	6109
461.825	5396
461.832	5427
461.901	5246
461.905	5309
461.969	4896
461.985	4723
462.037	5829
462.065	6457
462.105	5887
462.145	5051
462.173	5085
462.225	5492
462.241	5641
462.305	5941
462.310	5940
462.378	6159
462.385	6184
462.446	5843
462.465	5689
462.514	5802
462.545	5846
462.582	5567
462.625	5346
462.650	5465
462.705	5297
462.718	5179
462.785	5289
462.786	5297
462.854	5492
462.865	5481
462.922	5997
462.945	6227
462.990	5813
463.025	5635
463.058	5933
463.104	5909
463.126	5542
463.184	5207
463.194	5284
463.262	4808
463.264	4823
463.330	5561
463.344	5588
463.398	5779
463.424	5918
463.466	5440
463.504	5202
463.533	5490
463.583	5535
463.601	5568
463.663	5867
463.669	5845
463.737	5800
463.743	5753
463.805	5855
463.823	5969
463.873	5933
463.903	5969
463.940	6479
463.982	6774
464.008	6518
464.062	6098
464.076	6081
464.142	5940
464.144	5936
464.211	5281
464.221	5238
464.279	5479
464.301	5542
464.347	5651
464.381	5655
464.414	5578
464.461	5679
464.482	5765
464.540	5814
464.550	5784
464.617	5333
464.620	5316
464.685	5996
464.699	6114
464.753	6222
464.779	6417
464.820	6600
464.859	6573
464.888	6188
464.938	5654
464.956	6102
465.018	7429
465.023	7395
465.091	7009
465.098	6952
465.158	6831
465.177	6784
465.226	6689
465.257	6656
465.293	6297
465.336	5802
465.361	6127
465.416	6813
465.428	6721
465.495	6378
465.496	6396
465.563	7702
465.575	7991
465.631	7475
465.654	7179
465.698	6534
465.734	6015
465.765	6263
465.813	6509
465.833	6487
465.893	6495
465.900	6544
465.968	6827
465.972	6841
466.035	6808
466.052	6758
466.102	5964
466.131	5554
466.170	5742
466.210	5870
466.237	6243
466.290	7039
466.304	7067
466.369	7006
466.372	6982
466.439	6071
466.449	5904
466.506	6620
466.528	6921
466.573	7143
466.607	7232
466.641	7652
466.687	8310
466.708	8645
466.766	9473
466.775	9278
466.842	7713
466.845	7625
466.909	7533
466.925	7519
466.977	7465
467.004	7399
467.044	7341
467.083	7294
467.111	7671
467.163	8329
467.178	8347
467.242	8367
467.245	8411
467.312	9102
467.321	9185
467.379	9079
467.400	9010
467.446	8613
467.480	8304
467.559	8182
467.638	8564
467.717	8205
467.796	8900
467.875	9173
467.955	10293
468.034	11368
468.113	13862
468.192	17349
468.271	19835
468.350	29727
468.429	42400
468.508	44072
468.588	24026
468.667	14866
468.746	11019
468.825	10357
468.904	9446
468.983	9361
469.062	9614
469.141	9583
469.220	7979
469.299	8614
469.378	7993
469.456	9117
469.535	8698
469.614	6871
469.693	8396
469.772	8610
469.851	8939
469.930	7978
470.009	8523
470.088	9065
470.166	8971
470.245	9533
470.324	9927
470.403	9126
470.482	8553
470.560	8529
470.639	7520
470.718	7574
470.797	7499
470.875	8351
470.954	7722
471.033	8002
471.111	6990
471.190	7418
471.269	8254
471.347	7412
471.426	7141
471.505	7892
471.583	7430
471.662	7620
471.740	8415
471.819	8928
471.898	7943
471.976	8022
472.055	7882
472.133	8809
472.212	9348
472.290	8144
472.369	7106
472.447	8099
472.526	7646
472.604	8437
472.683	8392
472.761	8679
472.839	8399
472.918	8230
472.996	8400
473.075	8098
473.153	8597
473.231	7906
473.310	8682
473.388	7991
473.466	8717
473.545	8400
473.623	9027
473.701	9477
473.780	9444
473.858	7594
473.936	9164
474.014	9240
474.093	9355
474.171	10665
474.249	9238
474.327	8987
474.405	8659
474.484	8497
474.562	8188
474.640	7542
474.718	7061
474.796	8021
474.874	7833
474.952	8730
475.030	8026
475.108	8602
475.187	8485
475.265	7934
475.343	8280
475.421	8956
475.499	7300
475.577	7875
475.655	8713
475.733	9318
475.811	9167
475.889	9055
475.966	8644
476.044	6818
476.122	7268
476.200	7947
476.278	6735
476.356	7045
476.434	7926
476.512	7477
476.590	7905
476.667	8135
476.745	7383
476.823	8261
476.901	7651
476.979	7340
477.056	7440
477.134	7541
477.212	7884
477.290	7733
477.367	7749
477.445	8424
477.523	6758
477.601	6936
477.678	8052
477.756	7731
477.834	7559
477.911	6773
477.989	7381
478.066	7237
478.144	7927
478.222	7706
478.299	9488
478.377	8517
478.454	9102
478.532	7460
478.609	6928
478.687	7641
478.764	7347
478.842	7566
478.919	7620
478.997	8195
479.074	6760
479.152	6514
479.229	8465
479.307	6839
479.384	7830
479.461	7737
479.539	6539
479.616	7597
479.694	7196
479.771	7576
479.848	7768
479.926	6021
480.003	8917
480.080	7480
480.157	8268
480.235	7166
480.312	7449
480.389	7377
480.467	8525
480.544	9770
480.621	9675
480.698	9426
480.775	8498
480.853	8506
480.930	8222
481.007	8559
481.084	10020
481.161	12200
481.238	9186
481.315	8211
481.392	7991
481.470	8423
481.547	8355
481.624	7739
481.701	8465
481.778	7920
481.855	8183
481.932	9919
482.009	12419
482.086	13153
482.163	13791
482.240	16793
482.317	15980
482.393	12581
482.470	12424
482.547	11853
482.624	10494
482.701	10423
482.778	10052
482.855	9892
482.932	10059
483.009	12027
483.085	13927
483.162	17249
483.239	17328
483.316	17414
483.393	17142
483.469	13063
483.546	12122
483.623	10190
483.699	9221
483.776	8362
483.853	9122
483.930	9370
484.006	9811
484.083	12482
484.160	13207
484.236	15969
484.313	12877
484.389	12559
484.466	15295
484.543	17218
484.619	24116
484.696	26733
484.772	16507
484.849	13478
484.925	12275
485.002	11933
485.078	11261
485.155	9931
485.231	9490
485.308	9850
485.384	10006
485.461	10880
485.537	10604
485.614	11187
485.690	8703
485.766	9904
485.843	9493
485.919	9384
485.995	9841
486.072	10072
486.148	9362
486.224	9951
486.301	9719
486.377	10482
486.453	9293
486.530	10174
486.606	12446
486.682	11640
486.758	11575
486.835	13036
486.911	12071
486.987	15645
487.063	16311
487.139	19894
487.215	21474
487.292	21743
487.368	22935
487.444	26176
487.520	37222
487.596	67085
487.672	200943
487.748	545341
487.824	674994
487.900	143582
487.976	44137
488.052	25764
488.128	20368
488.204	15543
488.280	14316
488.356	14013
488.432	14059
488.508	13204
488.584	11159
488.660	10760
488.736	10307
488.812	9159
488.888	10573
488.964	10356
489.039	12587
489.115	15244
489.191	11291
489.267	9998
489.343	9019
489.418	8661
489.494	8745
489.570	7025
489.646	9958
489.722	9924
489.797	8986
489.873	10714
489.949	12150
490.024	9683
490.100	9114
490.176	9666
490.251	9196
490.327	10407
490.403	8837
490.478	9440
490.554	8617
490.629	9617
490.705	8318
490.781	10291
490.856	8895
490.932	8713
491.007	8813
491.083	7544
491.158	7959
491.234	8788
491.309	9695
491.385	8669
491.460	7049
491.536	8758
491.611	7476
491.686	7875
491.762	8298
491.837	9514
491.913	11025
491.988	13595
492.063	13613
492.139	9026
492.214	7174
492.289	7502
492.365	6488
492.440	7538
492.515	7506
492.590	7523
492.666	6974
492.741	8361
492.816	7980
492.891	6831
492.967	7617
493.042	8212
493.117	6803
493.192	9037
493.267	17787
493.342	40856
493.418	44246
493.493	8320
493.568	6962
493.643	6985
493.718	7195
493.793	7203
493.868	7973
493.943	6933
494.018	7610
494.093	6156
494.168	7876
494.243	6081
494.318	6788
494.393	6593
494.468	6667
494.543	6397
494.618	6372
494.693	6258
494.768	5964
494.842	5990
494.917	5995
494.992	5881
495.067	5971
495.142	7015
495.217	5918
495.292	7043
495.366	6503
495.441	5841
495.516	7420
495.591	8026
495.665	14291
495.740	21453
495.815	9739
495.890	6383
495.964	4782
496.039	8695
496.114	7122
496.188	11637
496.263	8467
496.338	5231
496.412	5757
496.487	7282
496.561	7315
496.636	6087
496.710	7003
496.785	6938
496.860	6499
496.934	5162
497.009	6394
497.083	5641
497.158	5895
497.232	5555
497.307	5752
497.381	5861
497.455	6491
497.530	6746
497.604	6813
497.679	6882
497.753	6403
497.827	6847
497.902	6366
497.976	8373
498.050	15136
498.125	35789
498.199	25770
498.273	7134
498.348	6573
498.422	6607
498.496	6776
498.570	7075
498.645	6484
498.719	5070
498.793	7053
498.867	7567
498.941	9263
499.016	18926
499.090	31266
499.164	12350
499.238	7260
499.312	6893
499.386	7261
499.460	6048
499.534	6874
499.609	6232
499.683	6061
499.757	7411
499.831	11595
499.905	24000
499.979	16634
500.053	7815
500.127	7768
500.201	5804
500.275	7741
500.349	6672
500.422	6462
500.496	7861
500.570	10963
500.644	16869
500.718	21715
500.792	8709
500.866	8366
500.940	7185
501.013	7643
501.087	7578
501.161	8313
501.235	6155
501.309	13119
501.382	20017
501.456	15567
501.530	8227
501.603	8381
501.677	6748
501.751	4916
501.825	7746
501.898	8252
501.972	10758
502.046	8638
502.119	6468
502.193	8417
502.266	10341
502.340	8020
502.413	7850
502.487	9999
502.561	7148
502.634	6886
502.708	7846
502.781	6232
502.855	7414
502.928	6273
503.002	6468
503.075	5562
503.149	6448
503.222	6194
503.295	6879
503.369	8187
503.442	8531
503.516	13146
503.589	18884
503.662	16048
503.736	16328
503.809	22013
503.882	26111
503.956	45024
504.029	109261
504.102	308534
504.175	354688
504.249	95726
504.322	34579
504.395	20452
504.468	14208
504.542	11399
504.615	8696
504.688	9128
504.761	6613
504.834	8956
504.907	7445
504.980	7327
505.053	6199
505.127	4425
505.200	8151
505.273	5201
505.346	5972
505.419	5261
505.492	6839
505.565	5616
505.638	5632
505.711	5321
505.784	4642
505.857	4629
505.930	6201
506.003	4184
506.076	6750
506.149	5192
506.221	3542
506.294	6088
506.367	6320
506.440	11414
506.513	7467
506.586	5600
506.659	4015
506.731	4754
506.804	4348
506.877	4864
506.950	5339
507.022	5116
507.095	2952
507.168	6350
507.241	5625
507.313	4456
507.386	3502
507.459	6045
507.531	4402
507.604	3336
507.677	5111
507.749	3497
507.822	5902
507.894	6444
507.967	7096
508.040	5484
508.112	5921
508.185	5700
508.257	4071
508.330	7201
508.402	5166
508.475	4703
508.547	5555
508.620	5238
508.692	5074
508.765	5311
508.837	4523
508.909	5404
508.982	4400
509.054	4962
509.127	5342
509.199	4974
509.271	4034
509.344	4735
509.416	5504
509.488	4825
509.560	5635
509.633	4382
509.705	4565
509.777	6146
509.849	6375
509.922	4674
509.994	5304
510.066	5454
510.138	3884
510.210	8808
510.283	6163
510.355	6766
510.427	5499
510.499	5334
510.571	5129
510.643	4593
510.715	6314
510.787	4354
510.859	6548
510.931	5505
511.003	5530
511.076	7031
511.148	4946
511.219	5438
511.291	7540
511.363	6235
511.435	4759
511.507	4339
511.579	6058
511.651	6249
511.723	4502
511.795	4680
511.867	4545
511.939	5320
512.010	4943
512.082	5973
512.154	3767
512.226	4908
512.298	6752
512.369	6329
512.441	5763
512.513	6077
512.585	4248
512.656	5839
512.728	5327
512.800	4732
512.871	6125
512.943	5225
513.015	4391
513.086	5159
513.158	5927
513.230	4392
513.301	5229
513.373	6290
513.444	3240
513.516	5428
513.588	5397
513.659	5982
513.731	4745
513.802	4671
513.874	7643
513.945	6110
514.016	4595
514.088	5495
514.159	4057
514.231	6052
514.302	6430
514.374	5746
514.445	3850
514.516	7706
514.588	4097
514.659	5102
514.730	4958
514.802	6091
514.873	3060
514.944	7813
515.016	5966
515.087	4891
515.158	4889
515.229	6150
515.301	3375
515.372	6030
515.443	4399
515.514	4621
515.585	4190
515.656	6240
515.728	5609
515.799	4029
515.870	5593
515.941	4987
516.012	3744
516.083	6596
516.154	4721
516.225	7024
516.296	6682
516.367	5260
516.438	5114
516.509	6293
516.580	8821
516.651	21959
516.722	41174
516.793	14582
516.864	6988
516.935	7623
517.006	8365
517.077	9842
517.148	21366
517.219	72729
517.289	68560
517.360	13777
517.431	8717
517.502	5752
517.573	7367
517.643	7169
517.714	7042
517.785	7838
517.856	8664
517.926	10039
517.997	10560
518.068	10507
518.138	15845
518.209	21857
518.280	70651
518.350	161187
518.421	45611
518.492	25025
518.562	30443
518.633	42696
518.703	76491
518.774	216690
518.845	551658
518.915	365557
518.986	80988
519.056	35422
519.127	25128
519.197	20620
519.268	19950
519.338	13625
519.408	10373
519.479	9233
519.549	7754
519.620	8977
519.690	7098
519.760	6807
519.831	6362
519.901	5678
519.971	6426
520.042	5902
520.112	5596
520.182	5629
520.253	6264
520.323	5125
520.393	5264
520.463	8448
520.534	4060
520.604	8422
520.674	6733
520.744	5116
520.814	7574
520.885	7687
520.955	7597
521.025	12203
521.095	6881
521.165	6674
521.235	5133
521.305	4021
521.375	6477
521.445	6152
521.515	4551
521.585	6706
521.655	3322
521.725	6591
521.795	6068
521.865	3551
521.935	6987
522.005	4698
522.075	4999
522.145	6686
522.215	4421
522.285	6588
522.355	5982
522.424	7144
522.494	6571
522.564	6415
522.634	7524
522.704	12367
522.774	5974
522.843	6288
522.913	6007
522.983	5641
523.053	5054
523.122	6673
523.192	5496
523.262	9174
523.331	7614
523.401	6525
523.471	6208
523.540	6922
523.610	5890
523.680	6591
523.749	7653
523.819	7287
523.888	6850
523.958	7179
524.027	7131
524.097	5979
524.166	6352
524.236	5974
524.305	8691
524.375	5440
524.444	5242
524.514	8677
524.583	5982
524.653	6556
524.722	6995
524.791	6086
524.861	8285
524.930	6861
524.999	7738
525.069	9704
525.138	8453
525.207	8973
525.277	10453
525.346	10687
525.415	13901
525.484	15046
525.554	16128
525.623	20845
525.692	25731
525.761	28023
525.830	36616
525.900	48336
525.969	82876
526.038	160582
526.107	441182
526.176	974954
526.245	549604
526.314	196662
526.383	550071
526.452	589282
526.522	1059794
526.591	590717
526.660	87458
526.729	62935
526.797	74251
526.867	140318
526.935	521284
527.004	1514673
527.073	564287
527.142	66464
527.211	32095
527.280	24061
527.349	17759
527.418	13459
527.487	13751
527.555	10322
527.624	10052
527.693	8224
527.762	10242
527.831	7976
527.899	9389
527.968	7886
528.037	6320
528.106	8170
528.174	7840
528.243	7705
528.312	8250
528.380	6998
528.449	6175
528.518	8516
528.586	5401
528.655	7238
528.723	6060
528.792	6348
528.861	5565
528.929	5014
528.998	6476
529.066	6117
529.135	7467
529.203	6111
529.272	5442
529.340	7388
529.409	8385
529.477	6386
529.545	5948
529.614	9443
529.682	6634
529.751	8137
529.819	11904
529.887	8322
529.956	8150
530.024	8514
530.092	7223
530.161	8051
530.229	8696
530.297	7819
530.365	9429
530.434	8698
530.502	7656
530.570	8402
530.638	6151
530.707	8289
530.775	8857
530.843	7539
530.911	7982
530.979	8362
531.047	8154
531.115	8186
531.183	8750
531.252	8827
531.320	7279
531.388	8474
531.456	8149
531.524	6968
531.592	9819
531.660	11531
531.728	7680
531.796	8196
531.864	8550
531.932	8404
532.000	8329
532.067	9035
532.135	9809
532.203	11383
532.271	9919
532.339	12100
532.407	14145
532.475	11345
532.542	10881
532.610	11406
532.678	10188
532.746	19323
532.814	21749
532.881	12330
532.949	11300
533.017	10777
533.084	10179
533.152	9794
533.220	10200
533.287	9061
533.355	10355
533.423	11100
533.490	10445
533.558	10941
533.625	11069
533.693	9916
533.761	10994
533.828	11643
533.896	10794
533.963	14924
534.031	14957
534.098	18073
534.166	17375
534.233	16490
534.300	19899
534.368	19282
534.435	17971
534.503	19662
534.570	22607
534.637	24318
534.705	28859
534.772	41904
534.840	115795
534.907	515932
534.974	366196
535.041	37222
535.109	19793
535.176	16711
535.243	17499
535.310	15668
535.378	14110
535.445	15592
535.512	15468
535.579	14851
535.646	13663
535.714	15987
535.781	16598
535.848	16625
535.915	17973
535.982	16377
536.049	14829
536.116	16789
536.183	13121
536.250	13389
536.317	14253
536.384	15715
536.451	15710
536.518	15863
536.585	13837
536.652	16617
536.719	16977
536.786	13353
536.853	13953
536.920	16023
536.987	16600
537.053	14831
537.120	22791
537.187	19335
537.254	15997
537.321	16396
537.388	16996
537.454	15475
537.521	15292
537.588	16130
537.654	15962
537.721	17394
537.788	16992
537.855	15372
537.921	15709
537.988	15762
538.055	15028
538.121	14321
538.188	14114
538.254	14176
538.321	15232
538.388	16452
538.454	17577
538.521	17400
538.587	17636
538.654	15575
538.720	16176
538.787	15875
538.853	16361
538.920	16374
538.986	13510
539.053	14838
539.119	16173
539.185	14622
539.252	16796
539.318	16840
539.385	19341
539.451	16122
539.517	16150
539.583	17032
539.650	18112
539.716	18210
539.782	15349
539.849	13880
539.915	15477
539.981	14952
540.047	15566
540.114	14364
540.180	16290
540.246	16413
540.312	17846
540.378	18478
540.444	18161
540.510	19785
540.576	20309
540.643	15420
540.709	14792
540.775	15645
540.841	16085
540.907	16364
540.973	16578
541.039	16541
541.105	16728
541.171	17582
541.237	16927
541.303	17610
541.369	19033
541.435	17163
541.500	17210
541.566	14257
541.632	14430
541.698	16139
541.764	17178
541.830	16992
541.896	15916
541.961	16519
542.027	15635
542.093	18043
542.159	17675
542.224	15314
542.290	17717
542.356	16876
542.421	16883
542.487	16332
542.553	14460
542.618	15378
542.684	15370
542.750	15336
542.815	16803
542.881	17750
542.947	21142
543.012	18286
543.078	14997
543.143	14159
543.209	15727
543.274	15178
543.340	16881
543.405	17365
543.471	16211
543.536	16769
543.602	16254
543.667	15821
543.732	17504
543.798	15531
543.863	17255
543.928	16771
543.994	16390
544.059	16941
544.124	17686
544.190	17344
544.255	17111
544.320	17774
544.386	16258
544.451	18765
544.516	17441
544.581	17727
544.646	20687
544.712	21591
544.777	18502
544.842	18244
544.907	18019
544.972	18090
545.037	19379
545.102	20194
545.168	19889
545.233	20863
545.298	21490
545.363	20769
545.428	22357
545.493	23984
545.558	22995
545.623	21820
545.688	21674
545.753	23758
545.818	23298
545.883	26214
545.947	24899
546.012	27019
546.077	26860
546.142	28828
546.207	29349
546.272	31831
546.337	31750
546.401	34324
546.466	35235
546.531	34781
546.596	39979
546.661	40734
546.725	43548
546.790	44562
546.855	50204
546.919	55510
546.984	61308
547.049	66023
547.113	75326
547.178	84607
547.243	96358
547.307	113784
547.372	122357
547.436	119861
547.501	129828
547.565	136319
547.630	123226
547.695	121567
547.759	120574
547.823	123217
547.888	125714
547.952	127967
548.017	137123
548.081	137763
548.146	136099
548.210	140417
548.274	151800
548.339	142522
548.403	129570
548.468	122377
548.532	123302
548.596	126277
548.660	126349
548.725	142526
548.789	150646
548.853	142183
548.917	139614
548.982	132020
549.046	118435
549.110	108469
549.174	118437
549.238	138361
549.303	147885
549.367	149057
549.431	137534
549.495	131229
549.559	135128
549.623	161208
549.687	165815
549.751	172281
549.815	203741
549.879	198923
549.943	194806
550.007	203809
550.071	195702
550.135	174468
550.199	168153
550.263	162120
550.327	154316
550.391	163382
550.455	182142
550.519	191365
550.582	207419
550.646	233016
550.710	231240
550.774	225986
550.838	231767
550.901	238950
550.965	253895
551.029	268042
551.093	285558
551.156	321513
551.220	384605
551.284	411480
551.347	290819
551.411	244790
551.475	238981
551.538	246378
551.602	222526
551.666	212414
551.729	197870
551.793	194115
551.856	188620
551.920	187885
551.983	187929
552.047	182740
552.110	187287
552.174	191647
552.237	192425
552.301	175348
552.364	166691
552.428	163335
552.491	171358
552.554	172200
552.618	172401
552.681	176018
552.745	165852
552.808	178717
552.871	183911
552.934	178309
552.998	170918
553.061	169017
553.124	158558
553.187	162825
553.251	168370
553.314	165241
553.377	169238
553.440	183616
553.503	199552
553.567	195202
553.630	180197
553.693	176931
553.756	177890
553.819	171070
553.882	164694
553.945	166543
554.008	165220
554.071	168584
554.134	167480
554.197	154264
554.260	153619
554.323	157217
554.386	161657
554.449	169402
554.512	165193
554.575	158413
554.638	157677
554.701	156451
554.764	152689
554.827	146606
554.889	139497
554.952	131740
555.015	131717
555.078	135811
555.141	136358
555.203	132195
555.266	131993
555.329	131671
555.391	125608
555.454	123796
555.517	119105
555.580	116354
555.642	110839
555.705	109721
555.768	108419
555.830	104411
555.893	99066
555.955	97334
556.018	95023
556.080	96316
556.143	101268
556.206	97125
556.268	94674
556.330	92815
556.393	90057
556.455	87964
556.518	87002
556.580	84486
556.643	81540
556.705	79295
556.767	79143
556.830	77453
556.892	74902
556.955	74554
557.017	73795
557.079	73958
557.142	71749
557.204	71672
557.266	73435
557.328	66211
557.391	61902
557.453	63146
557.515	62136
557.577	63066
557.639	64376
557.701	65979
557.764	65006
557.826	67362
557.888	70057
557.950	75143
558.012	88378
558.074	136657
558.136	378413
558.198	586261
558.260	143609
558.322	80097
558.384	80700
558.446	86716
558.508	94017
558.570	106349
558.632	125081
558.694	181758
558.756	373704
558.818	1180177
558.880	1619349
558.942	575062
559.003	657314
559.065	210811
559.127	107826
559.189	105262
559.251	130384
559.312	228049
559.374	666050
559.436	1385278
559.498	408900
559.559	117255
559.621	104460
559.683	142234
559.744	286729
559.806	933257
559.868	800440
559.929	144759
559.991	133163
560.052	294603
560.114	652291
560.176	292898
560.237	460429
560.299	455648
560.360	74597
560.422	38928
560.483	34424
560.545	31464
560.606	31153
560.667	28855
560.729	26800
560.790	26626
560.852	25727
560.913	24519
560.974	23572
561.036	23844
561.097	22818
561.158	22677
561.220	23262
561.281	20736
561.342	21726
561.403	22323
561.465	21340
561.526	23837
561.587	22790
561.648	20231
561.709	20057
561.771	19075
561.832	18618
561.893	18111
561.954	19517
562.015	17727
562.076	17404
562.137	18211
562.198	18190
562.259	17903
562.320	17988
562.381	17747
562.442	17993
562.503	17433
562.564	16898
562.625	16780
562.686	16899
562.747	16819
562.808	15370
562.869	16853
562.930	15479
562.991	15783
563.051	15562
563.112	16293
563.173	14911
563.234	14316
563.294	15080
563.355	15377
563.416	14115
563.477	14790
563.537	14411
563.598	14751
563.659	14985
563.720	13935
563.780	14820
563.841	14349
563.901	14873
563.962	14939
564.023	13480
564.083	14169
564.144	13424
564.204	13898
564.265	13036
564.325	13539
564.386	14935
564.446	13456
564.507	14242
564.567	14546
564.628	12647
564.688	12678
564.749	12401
564.809	13580
564.869	14102
564.930	12834
564.990	12497
565.050	12732
565.111	12853
565.171	12134
565.231	12594
565.292	13673
565.352	12053
565.412	13524
565.472	12897
565.532	12832
565.593	12073
565.653	12777
565.713	12167
565.773	13692
565.833	13829
565.893	14277
565.953	12245
566.013	12486
566.074	12355
566.134	11975
566.194	12324
566.254	12469
566.314	12489
566.374	11646
566.434	11149
566.494	11851
566.554	13324
566.614	12746
566.673	12319
566.733	13478
566.793	13422
566.853	12817
566.913	12867
566.973	12734
567.033	13611
567.092	11505
567.152	13108
567.212	13480
567.272	14199
567.331	13845
567.391	13572
567.451	13552
567.511	13910
567.570	13050
567.630	12270
567.690	12522
567.749	12746
567.809	12656
567.868	13388
567.928	13113
567.988	12452
568.047	13534
568.107	14086
568.166	12934
568.226	13743
568.285	14904
568.345	14942
568.404	15380
568.464	14750
568.523	13881
568.582	13562
568.642	13093
568.701	12180
568.761	14019
568.820	12319
568.879	14098
568.939	14052
568.998	13732
569.057	12814
569.116	13568
569.176	12494
569.235	13259
569.294	12850
569.353	12192
569.413	12449
569.472	11316
569.531	11459
569.590	11806
569.649	11280
569.708	11989
569.767	13416
569.827	12875
569.886	11422
569.945	13195
570.004	12831
570.063	12833
570.122	13320
570.181	13254
570.240	13839
570.299	12979
570.358	13674
570.417	13498
570.475	13016
570.534	13271
570.593	13232
570.652	13790
570.711	14360
570.770	13202
570.829	15753
570.887	13977
570.946	14356
571.005	13196
571.064	12868
571.122	13941
571.181	13439
571.240	12559
571.299	13050
571.357	12085
571.416	12115
571.475	11847
571.533	13348
571.592	15359
571.650	14718
571.709	16833
571.768	18321
571.826	17609
571.885	15444
571.943	13656
572.002	12201
572.060	12678
572.119	12507
572.177	13109
572.236	13578
572.294	13593
572.352	15623
572.411	14437
572.469	13607
572.528	11663
572.586	12525
572.644	12390
572.703	12054
572.761	10977
572.819	12887
572.877	11128
572.936	11531
572.994	11001
573.052	12226
573.110	13263
573.169	13459
573.227	12131
573.285	12996
573.343	12868
573.401	11701
573.459	13340
573.517	13864
573.576	13926
573.634	14192
573.692	14881
573.750	14396
573.808	12060
573.866	11910
573.924	11389
573.982	12241
574.040	12032
574.098	12341
574.155	12040
574.213	12366
574.271	14362
574.329	15508
574.387	12610
574.445	11726
574.503	12085
574.560	11501
574.618	11467
574.676	12116
574.734	11832
574.792	11392
574.849	10689
574.907	9312
574.965	8845
575.022	9054
575.080	9178
575.138	10513
575.195	10081
575.253	8317
575.311	8774
575.368	8640
575.426	8803
575.483	9638
575.541	9761
575.598	9802
575.656	10172
575.713	11942
575.771	11277
575.828	10645
575.886	9561
575.943	8941
576.001	9147
576.058	8117
576.115	9425
576.173	9052
576.230	9911
576.287	9901
576.345	9972
576.402	10478
576.459	10287
576.517	9773
576.574	9479
576.631	9013
576.688	8246
576.746	7866
576.803	8757
576.860	8553
576.917	9258
576.974	9031
577.031	8737
577.089	7883
577.146	8727
577.203	7950
577.260	9012
577.317	8560
577.374	8428
577.431	8201
577.488	8192
577.545	6786
577.602	8788
577.659	7813
577.716	9094
577.773	8917
577.830	8685
577.886	9554
577.943	7991
578.000	8499
578.057	8672
578.114	8171
578.171	9730
578.227	11330
578.284	9562
578.341	9521
578.398	9298
578.454	9023
578.511	8409
578.568	9625
578.625	7244
578.681	8121
578.738	8194
578.794	7612
578.851	8779
578.908	7883
578.964	7802
579.021	8867
579.077	8524
579.134	7854
579.190	8410
579.247	8716
579.303	8792
579.360	7816
579.416	9593
579.473	7666
579.529	8409
579.586	9295
579.642	10094
579.698	10325
579.755	9422
579.811	9623
579.867	9383
579.924	9088
579.980	9725
580.036	11548
580.093	12698
580.149	15489
580.205	14994
580.261	12624
580.317	11035
580.374	10530
580.430	11671
580.486	10896
580.542	9936
580.598	10300
580.619	10432
580.654	10669
580.692	10186
580.710	9961
580.765	10124
580.767	10138
580.823	10089
580.838	10480
580.879	11520
580.911	11074
580.935	10772
580.984	10750
580.991	10759
581.047	11458
581.057	11210
581.103	10118
581.130	10544
581.159	11021
581.203	11304
581.215	11380
581.270	10505
581.276	10455
581.326	10061
581.349	10052
581.382	10033
581.422	9734
581.438	9622
581.494	8964
581.494	8968
581.550	9734
581.567	9767
581.606	9901
581.640	9519
581.661	9271
581.713	10500
581.717	10607
581.773	9733
581.786	9774
581.829	9841
581.859	9828
581.885	9897
581.932	10136
581.940	10167
581.996	10303
582.004	10351
582.052	10582
582.077	9789
582.107	8857
582.150	9381
582.163	9564
582.219	9079
582.223	9120
582.274	9628
582.296	9250
582.330	8690
582.368	9521
582.386	9871
582.441	10369
582.441	10370
582.497	9811
582.514	9800
582.552	9997
582.587	10331
582.608	10486
582.659	10478
582.663	10472
582.719	10761
582.732	10686
582.774	10577
582.805	10975
582.830	11257
582.877	11204
582.885	11201
582.941	11274
582.950	11303
582.996	11470
583.023	11808
583.052	12237
583.095	12848
583.107	13031
583.162	13583
583.168	13594
583.218	13259
583.240	12831
583.273	12218
583.313	11454
583.328	11237
583.384	11510
583.385	11494
583.439	10791
583.458	11063
583.494	11729
583.531	11154
583.549	10848
583.603	10339
583.605	10326
583.660	10747
583.676	10720
583.715	10495
583.748	10961
583.770	11391
583.820	11156
583.825	11101
583.881	11184
583.893	11117
583.936	11289
583.965	10906
583.991	10286
584.038	11027
584.046	11264
584.101	10991
584.110	11141
584.156	11527
584.183	11621
584.211	11713
584.255	11689
584.266	11723
584.321	11937
584.328	11971
584.376	12293
584.400	12495
584.431	12708
584.472	12748
584.486	12810
584.541	14031
584.545	14062
584.596	14437
584.617	14477
584.651	14533
584.689	15168
584.706	15492
584.761	16252
584.762	16251
584.816	16358
584.834	17225
584.871	18831
584.906	19005
584.926	19151
584.978	21181
584.980	21292
585.035	24682
585.051	25569
585.090	27411
585.123	29365
585.145	31096
585.195	34920
585.200	35390
585.254	42483
585.267	44415
585.309	51077
585.340	56864
585.364	61960
585.412	73088
585.419	74919
585.473	96669
585.484	104081
585.528	143451
585.556	186642
585.583	257750
585.628	432754
585.637	491212
585.692	1021828
585.700	1073864
585.747	1215518
585.772	1027375
585.801	615057
585.845	232562
585.856	189186
585.910	89273
585.917	79323
585.965	56431
585.989	48486
586.019	43101
586.061	36803
586.074	35494
586.128	31421
586.133	31150
586.183	28988
586.205	28330
586.237	27923
586.277	27038
586.292	26693
586.346	25656
586.349	25628
586.401	25826
586.421	25545
586.455	25238
586.493	25580
586.509	25935
586.564	26714
586.565	26762
586.618	30785
586.637	31884
586.672	35350
586.709	40886
586.727	43508
586.781	46682
586.781	46690
586.835	34777
586.853	31918
586.889	28003
586.925	25286
586.944	24842
586.996	24434
586.998	24449
587.052	23588
587.068	23447
587.106	24067
587.140	24883
587.161	25020
587.212	24914
587.215	24938
587.269	24500
587.284	24549
587.323	25131
587.356	25659
587.377	25995
587.427	26481
587.431	26556
587.485	27062
587.499	27215
587.539	27454
587.571	27773
587.593	28517
587.643	30341
587.648	30498
587.702	31132
587.715	31432
587.755	32017
587.786	31942
587.810	32175
587.858	33066
587.864	33141
587.917	32739
587.930	32666
587.971	32928
588.001	33318
588.025	33573
588.073	33805
588.079	33875
588.133	34123
588.145	34171
588.187	34512
588.217	34648
588.241	35442
588.288	37162
588.295	37398
588.348	39592
588.360	39722
588.402	40788
588.431	41905
588.456	42798
588.503	45178
588.510	45696
588.564	49113
588.575	49898
588.617	53161
588.646	55596
588.671	58274
588.718	64368
588.725	66006
588.778	83631
588.789	88871
588.832	139960
588.861	182920
588.886	275293
588.932	489331
588.939	512592
588.993	623306
589.004	619807
589.047	305553
589.075	141062
589.100	108175
589.147	62847
589.154	61947
589.207	55844
589.218	54696
589.261	56330
589.290	58026
589.314	60442
589.361	67591
589.368	70530
589.421	98240
589.433	106080
589.475	193154
589.504	267231
589.528	367876
589.576	554815
589.582	535966
589.635	254371
589.647	205091
589.689	110491
589.718	52542
589.742	49529
589.790	43312
589.795	43077
589.849	40731
589.861	40179
589.902	39426
589.932	38710
589.955	38352
590.004	37432
590.009	37490
590.062	37605
590.075	37515
590.115	36839
590.146	36459
590.168	36596
590.218	36463
590.222	36582
590.275	37406
590.289	37554
590.328	38889
590.360	39979
590.381	39888
590.431	38834
590.435	38934
590.488	39712
590.503	39954
590.541	40579
590.574	40748
590.594	41205
590.645	42400
590.647	42520
590.700	43399
590.716	43650
590.753	45101
590.787	46239
590.806	46790
590.859	47830
590.859	47927
590.912	48151
590.930	48140
590.965	49194
591.001	50027
591.018	49600
591.071	47958
591.072	47849
591.124	48166
591.143	48168
591.177	48237
591.214	48186
591.230	48691
591.283	49857
591.285	49808
591.336	49138
591.356	48655
591.389	49075
591.427	49386
591.442	49204
591.495	48287
591.498	48112
591.547	49085
591.569	49508
591.600	49980
591.640	50118
591.653	50534
591.706	52040
591.711	52094
591.759	53075
591.782	53412
591.811	55161
591.853	57489
591.864	57558
591.917	57129
591.924	56939
591.969	56981
591.995	56853
592.022	57528
592.066	58387
592.075	58772
592.127	60338
592.137	60489
592.180	61136
592.208	61367
592.233	62245
592.279	63588
592.285	63980
592.338	66084
592.350	66419
592.390	65750
592.421	65026
592.443	65635
592.491	66523
592.495	66797
592.548	68620
592.562	68971
592.600	68985
592.633	68730
592.653	68637
592.704	67629
592.705	68046
592.775	69499
592.846	72021
592.916	73735
592.987	73258
593.058	74260
593.128	74422
593.199	74593
593.270	74209
593.341	76890
593.411	79398
593.482	83009
593.553	85668
593.623	85722
593.694	89979
593.764	90671
593.835	90105
593.906	90950
593.976	93644
594.047	95826
594.117	102714
594.188	104226
594.258	103504
594.329	103835
594.399	106439
594.470	109592
594.540	113854
594.611	116998
594.681	116356
594.751	116236
594.822	123364
594.892	128421
594.963	131010
595.033	131425
595.103	136505
595.174	137099
595.244	141111
595.314	145686
595.384	149212
595.455	152006
595.525	159662
595.595	163824
595.665	164235
595.736	160609
595.806	164847
595.876	167430
595.946	166984
596.016	175321
596.087	181988
596.157	181264
596.227	183129
596.297	192217
596.367	205747
596.437	218012
596.507	215327
596.577	216340
596.647	223627
596.717	235256
596.787	239865
596.857	237344
596.927	241148
596.997	241738
597.067	243869
597.137	247757
597.207	250876
597.277	249596
597.347	241026
597.417	233904
597.487	233274
597.557	239151
597.626	246865
597.696	248397
597.766	246543
597.836	231458
597.906	219102
597.975	215650
598.045	219269
598.115	227510
598.185	246650
598.254	278070
598.324	305232
598.394	309074
598.464	298439
598.533	293750
598.603	275796
598.672	263590
598.742	270415
598.812	270436
598.881	280012
598.951	279081
599.020	283539
599.090	294488
599.159	298186
599.229	284426
599.299	277499
599.368	286410
599.437	283360
599.507	260028
599.576	248512
599.646	246693
599.715	243497
599.785	239164
599.854	231989
599.924	229541
599.993	226768
600.062	232807
600.132	239021
600.201	253792
600.270	298688
600.340	315503
600.409	309223
600.478	305437
600.547	314654
600.617	282339
600.686	223202
600.755	199962
600.824	187914
600.894	184169
600.963	185621
601.032	182776
601.101	174825
601.170	168126
601.239	162946
601.308	161697
601.378	160519
601.447	160355
601.516	163155
601.585	165825
601.654	166853
601.723	168227
601.792	173646
601.861	181387
601.930	188084
601.999	190206
602.068	188976
602.137	191653
602.206	192410
602.275	197999
602.343	198956
602.412	200764
602.481	201836
602.550	203675
602.619	210689
602.688	215300
602.756	216077
602.825	219061
602.894	225086
602.963	227098
603.032	232237
603.100	232023
603.169	233497
603.238	235959
603.307	236550
603.375	239611
603.444	244386
603.513	249691
603.581	253044
603.650	255766
603.719	249753
603.787	255958
603.856	265994
603.924	272031
603.993	281402
604.061	293244
604.130	308154
604.198	314001
604.267	319321
604.335	326075
604.404	329409
604.472	334356
604.541	338351
604.609	342246
604.678	342532
604.746	343773
604.815	358384
604.883	361791
604.951	359274
605.020	367874
605.088	373828
605.156	381413
605.225	388115
605.293	387569
605.361	390941
605.429	394185
605.498	403717
605.566	413207
605.634	432950
605.702	448120
605.771	461632
605.839	462236
605.907	455811
605.975	439234
606.043	429121
606.111	430908
606.180	428899
606.248	424445
606.316	419253
606.384	419586
606.452	417896
606.520	428343
606.588	445536
606.656	448932
606.724	440754
606.792	411030
606.860	371573
606.928	337645
606.996	323339
607.064	316667
607.132	325776
607.200	346480
607.267	360142
607.335	368811
607.403	375150
607.471	362641
607.539	350840
607.607	355234
607.674	307808
607.742	304715
607.810	304576
607.878	304218
607.946	312080
608.013	328243
608.081	334925
608.149	337763
608.216	351244
608.284	361919
608.352	365370
608.419	358974
608.487	349094
608.555	342855
608.622	355780
608.690	381656
608.757	420136
608.825	430064
608.893	418739
608.960	391248
609.028	372572
609.095	374995
609.163	372980
609.230	333214
609.298	301139
609.365	320701
609.432	346414
609.500	380724
609.567	435542
609.635	501638
609.702	528338
609.769	501547
609.837	386422
609.904	332173
609.971	343856
610.039	381474
610.106	490453
610.173	875287
610.241	1791308
610.308	1107607
610.375	444620
610.442	368807
610.509	345073
610.577	346127
610.644	349507
610.711	358003
610.778	369707
610.845	386064
610.912	413027
610.980	428302
611.047	426100
611.114	419481
611.181	405155
611.248	403114
611.315	428215
611.382	438244
611.449	456404
611.516	460863
611.583	456777
611.650	463046
611.717	466239
611.784	476973
611.851	497422
611.918	526494
611.984	606523
612.051	806972
612.118	1408159
612.185	2559867
612.252	1964711
612.319	779072
612.386	630195
612.452	564194
612.519	530201
612.586	515721
612.653	526990
612.719	542071
612.786	521299
612.853	483234
612.919	471463
612.986	479393
613.053	449274
613.120	421421
613.186	402611
613.253	407213
613.319	408375
613.386	410252
613.453	416951
613.519	417495
613.586	410266
613.652	417509
613.719	409984
613.785	418298
613.852	424401
613.918	422750
613.985	425640
614.051	449325
614.118	454863
614.184	435673
614.250	421007
614.317	430041
614.383	424791
614.449	433979
614.516	430647
614.582	431373
614.648	423637
614.715	421318
614.781	408947
614.847	407062
614.914	405519
614.980	395219
615.046	395981
615.112	408387
615.179	411586
615.245	415687
615.311	408751
615.377	417321
615.443	419095
615.509	425149
615.575	442552
615.642	437562
615.708	450607
615.774	469055
615.840	502673
615.906	531877
615.972	629877
616.038	896133
616.104	1645463
616.170	2735774
616.236	2499546
616.302	1089760
616.368	826582
616.434	608573
616.500	544760
616.565	603577
616.631	757380
616.697	632893
616.763	640387
616.829	937518
616.895	1615433
616.961	1543641
617.026	719922
617.092	491740
617.158	451167
617.224	433364
617.289	395978
617.355	374339
617.421	367861
617.487	367311
617.552	348195
617.618	340700
617.684	342489
617.749	343722
617.815	327649
617.880	318893
617.946	318949
618.012	325608
618.077	332814
618.143	317876
618.208	319573
618.274	346021
618.339	352563
618.405	284623
618.470	282967
618.536	281152
618.601	276317
618.667	253853
618.732	238553
618.798	235025
618.863	234810
618.928	231178
618.994	234619
619.059	231282
619.124	235149
619.190	233490
619.255	232222
619.320	232489
619.386	232348
619.451	231404
619.516	221008
619.581	225198
619.647	234314
619.712	232056
619.777	219620
619.842	221743
619.907	226625
619.972	231002
620.038	230081
620.103	223445
620.168	221772
620.233	226065
620.298	227686
620.363	231016
620.428	237279
620.493	243637
620.558	246040
620.623	251884
620.688	252249
620.753	247471
620.818	252801
620.883	256591
620.948	251834
621.013	249995
621.078	246781
621.143	250673
621.207	253387
621.272	246912
621.337	237590
621.402	236167
621.467	232017
621.532	232487
621.596	236717
621.661	224777
621.726	223468
621.791	228291
621.855	227413
621.920	223860
621.985	228039
622.049	233188
622.114	233711
622.179	239776
622.243	244652
622.308	254563
622.373	264786
622.437	256265
622.502	242177
622.566	240266
622.631	238323
622.695	246534
622.760	242914
622.824	243687
622.889	242964
622.953	243142
623.018	260049
623.082	264233
623.147	261782
623.211	252693
623.276	251467
623.340	242509
623.404	234463
623.469	232426
623.533	239662
623.597	229988
623.662	230279
623.726	212387
623.790	194307
623.854	188752
623.919	191613
623.983	198305
624.047	198903
624.111	203782
624.176	208217
624.240	209603
624.304	215311
624.368	207569
624.432	207719
624.496	215306
624.560	227595
624.625	229971
624.689	228409
624.753	241874
624.817	227423
624.881	221758
624.945	196458
625.009	190508
625.073	194894
625.137	201904
625.201	213452
625.265	213162
625.329	203953
625.393	207469
625.456	209850
625.520	217242
625.584	220633
625.648	227573
625.712	235498
625.776	234149
625.839	220713
625.903	183790
625.967	166277
626.031	182839
626.095	224000
626.158	202540
626.222	155139
626.286	144304
626.349	136645
626.413	127148
626.477	125855
626.540	129617
626.604	129261
626.668	126573
626.731	124544
626.795	125600
626.858	127055
626.922	124628
626.986	123825
627.049	123040
627.113	130235
627.176	126153
627.240	121027
627.303	123567
627.366	120799
627.430	123427
627.493	121197
627.557	119248
627.620	123493
627.684	128249
627.747	130406
627.810	118172
627.874	105462
627.937	101525
628.000	106596
628.064	102803
628.127	89554
628.190	90532
628.253	86603
628.317	83131
628.380	78686
628.443	76214
628.506	76890
628.569	72751
628.632	69190
628.696	70021
628.759	69105
628.822	65451
628.885	65367
628.948	62768
629.011	63789
629.074	60939
629.137	58691
629.200	57898
629.263	57392
629.326	55660
629.389	57051
629.452	56694
629.515	55348
629.578	54987
629.641	55905
629.704	56832
629.767	56061
629.830	54418
629.892	52466
629.955	53140
630.018	55083
630.081	52974
630.144	55051
630.207	52020
630.269	54625
630.332	51836
630.395	51863
630.458	51533
630.520	47870
630.583	49186
630.646	51294
630.708	51384
630.771	50966
630.834	55827
630.896	54879
630.959	54263
631.021	53218
631.084	52189
631.146	53929
631.209	53988
631.272	54073
631.334	55580
631.397	56998
631.459	56415
631.522	60208
631.584	64236
631.646	69872
631.709	72024
631.771	72340
631.834	70775
631.896	65339
631.958	58792
632.021	58466
632.083	53513
632.145	52409
632.208	52550
632.270	51748
632.332	50684
632.395	50106
632.457	52979
632.519	50167
632.581	51561
632.643	48501
632.706	51246
632.768	47735
632.830	50109
632.892	51609
632.954	50809
633.016	51894
633.078	50505
633.141	51093
633.203	49946
633.265	50916
633.327	50809
633.389	50828
633.451	51647
633.513	51032
633.575	52995
633.637	53118
633.698	53988
633.760	57151
633.822	60066
633.884	63414
633.946	64236
634.008	66477
634.070	69808
634.132	76755
634.193	84551
634.255	92890
634.317	96027
634.379	92866
634.441	81607
634.502	73353
634.564	67723
634.626	63258
634.687	61937
634.749	54509
634.811	53704
634.873	51602
634.934	51700
634.996	52202
635.057	51259
635.119	52187
635.181	56027
635.242	55473
635.304	52436
635.365	55904
635.427	53959
635.488	54202
635.550	54059
635.611	55079
635.673	54849
635.734	60802
635.796	65388
635.857	72829
635.918	77574
635.980	89002
636.041	95483
636.102	103031
636.164	104409
636.225	99872
636.286	83944
636.348	73263
636.409	64896
636.470	58884
636.531	56058
636.593	52877
636.654	50478
636.715	48602
636.776	47563
636.838	46237
636.899	44704
636.960	44341
637.021	44100
637.082	44464
637.143	43544
637.204	40083
637.265	39587
637.326	41935
637.387	42033
637.448	41766
637.509	41548
637.570	42206
637.631	40494
637.692	38137
637.753	37581
637.814	37353
637.875	36418
637.936	38128
637.997	36941
638.058	35871
638.119	37899
638.179	36746
638.240	37283
638.301	37371
638.362	35918
638.423	34355
638.483	35124
638.544	32678
638.605	34354
638.666	32844
638.726	34243
638.787	33944
638.848	33380
638.908	32944
638.969	32101
639.030	31384
639.090	30292
639.151	30528
639.211	33214
639.272	32272
639.332	33595
639.393	35048
639.453	36886
639.514	40644
639.574	33965
639.635	30341
639.695	31539
639.756	29997
639.816	29374
639.877	29655
639.937	31548
639.997	30181
640.058	28408
640.118	27875
640.178	30025
640.239	29786
640.299	28688
640.359	30309
640.420	34143
640.480	40344
640.540	46995
640.600	47973
640.661	40796
640.721	37193
640.781	39975
640.841	34596
640.901	31474
640.961	31158
641.021	33704
641.082	37279
641.142	32276
641.202	29439
641.262	26840
641.322	28840
641.382	25550
641.442	27828
641.502	27453
641.562	28181
641.622	29016
641.682	33249
641.742	39790
641.802	36163
641.861	29987
641.921	27039
641.981	26781
642.041	26331
642.101	25207
642.161	24443
642.221	24296
642.280	25808
642.340	24583
642.400	24440
642.460	26535
642.519	27290
642.579	26564
642.639	29061
642.698	25260
642.758	31019
642.818	28176
642.877	27080
642.937	27091
642.997	27935
643.056	27774
643.116	26704
643.175	29867
643.235	29542
643.294	29557
643.354	33189
643.414	36695
643.473	44205
643.532	55342
643.592	77390
643.651	120669
643.711	208707
643.770	402912
643.830	924058
643.889	1691276
643.948	526717
644.008	118319
644.067	67650
644.126	49598
644.186	42133
644.245	35735
644.304	31340
644.363	33873
644.423	29390
644.482	31393
644.541	33839
644.600	35204
644.659	45529
644.719	60796
644.778	93837
644.837	162484
644.896	336336
644.955	746403
645.014	252120
645.073	59563
645.132	41128
645.191	36895
645.250	35346
645.309	36942
645.368	41740
645.427	58750
645.486	107051
645.545	186252
645.604	55441
645.663	32137
645.722	32264
645.781	35544
645.840	40801
645.898	50013
645.957	72389
646.016	112016
646.075	199172
646.134	387288
646.192	967669
646.251	1321559
646.310	268753
646.369	81890
646.427	65522
646.486	47216
646.545	35748
646.603	31863
646.662	28620
646.721	28457
646.779	28596
646.838	30461
646.896	40188
646.955	57333
647.014	95789
647.072	189224
647.131	513295
647.189	243936
647.248	40012
647.306	27434
647.365	24750
647.423	20950
647.481	22476
647.540	18808
647.598	20996
647.657	20342
647.715	20144
647.773	19140
647.832	19303
647.890	16856
647.948	16977
648.007	16956
648.065	15520
648.123	15498
648.181	17624
648.240	17156
648.298	15855
648.356	15135
648.414	17199
648.472	15776
648.531	15123
648.589	15366
648.647	15713
648.705	15341
648.763	15969
648.821	17955
648.879	17987
648.937	20775
648.995	26821
649.053	35533
649.111	56916
649.169	93919
649.227	172472
649.285	362780
649.343	967393
649.401	475484
649.459	69075
649.516	38593
649.574	30380
649.632	37016
649.690	41538
649.748	46128
649.806	69835
649.863	130786
649.921	369846
649.979	245173
650.037	33572
650.094	17581
650.152	17215
650.210	14161
650.268	15085
650.325	14719
650.383	15912
650.440	10807
650.498	11980
650.556	12165
650.613	11753
650.671	11725
650.728	12618
650.786	13351
650.843	20099
650.901	14760
650.958	11592
651.016	10259
651.073	10786
651.131	9735
651.188	8801
651.246	9575
651.303	8479
651.360	10282
651.418	9367
651.475	9342
651.532	9497
651.590	10281
651.647	8764
651.704	9143
651.762	9716
651.819	8616
651.876	8431
651.933	8292
651.990	8980
652.048	7025
652.105	8111
652.162	9037
652.219	7920
652.276	8319
652.333	8769
652.390	7240
652.448	8887
652.505	7734
652.562	8467
652.619	8632
652.676	8767
652.733	9690
652.790	7280
652.847	5797
652.904	7993
652.961	5843
653.017	6812
653.074	8029
653.131	7353
653.188	6421
653.245	8355
653.302	7495
653.359	6546
653.415	7330
653.472	6774
653.529	7669
653.586	6525
653.642	6649
653.699	8647
653.756	6948
653.813	7084
653.869	8442
653.926	7198
653.983	7250
654.039	6853
654.096	7333
654.152	8346
654.209	6784
654.266	7020
654.322	5799
654.379	7365
654.435	7906
654.492	6229
654.548	6639
654.605	6976
654.661	7650
654.717	7228
654.774	6552
654.830	6596
654.887	6670
654.943	7363
655.000	7830
655.056	7570
655.112	6980
655.168	6187
655.225	7613
655.281	8864
655.337	7186
655.394	7727
655.450	6640
655.506	7528
655.562	7192
655.618	7586
655.675	6359
655.731	7377
655.787	7155
655.843	7869
655.899	6026
655.955	8798
656.011	8263
656.067	8237
656.123	9291
656.179	9376
656.235	10221
656.291	9089
656.347	9996
656.403	8438
656.459	8070
656.515	7403
656.571	6578
656.627	7731
656.683	7641
656.739	7565
656.795	6046
656.850	7103
656.906	7598
656.962	7806
657.018	7540
657.074	10549
657.129	14158
657.185	22608
657.241	53671
657.297	28790
657.352	7946
657.408	6144
657.464	6509
657.519	6889
657.575	5043
657.630	5506
657.686	5628
657.742	4946
657.797	5761
657.853	4826
657.908	6811
657.964	4926
658.019	5674
658.075	5267
658.130	5768
658.186	4997
658.241	6126
658.297	5088
658.352	4063
658.407	5809
658.463	5333
658.518	5041
658.573	4873
658.629	5050
658.684	5412
658.739	5730
658.795	3384
658.850	5740
658.905	4988
658.960	5224
659.016	4096
659.071	4221
659.126	3926
659.181	4668
659.236	5319
659.291	5359
659.346	4211
659.401	5770
659.457	6074
659.512	5039
659.567	5863
659.622	4402
659.677	4696
659.732	4375
659.787	4517
659.842	3618
659.897	3422
659.952	4278
660.007	3555
660.061	4617
660.116	4089
660.171	4281
660.226	3091
660.281	5716
660.336	4925
660.391	4519
660.445	3965
660.500	4132
660.555	3824
660.610	4002
660.664	4046
660.719	4651
660.774	3984
660.828	3609
660.883	4348
660.938	4571
660.992	3632
661.047	4373
661.101	3074
661.156	4364
661.211	2894
661.265	4382
661.320	3182
661.374	4103
661.429	3345
661.483	3824
661.538	3421
661.592	3939
661.647	4660
661.701	5604
661.755	4728
661.810	3876
661.864	3507
661.919	3688
661.973	4311
662.027	3330
662.081	3544
662.136	3448
662.190	4098
662.244	3338
662.299	4210
662.353	4301
662.407	2868
662.461	3293
662.515	3461
662.569	3644
662.624	4408
662.678	3575
662.732	3045
662.786	4399
662.840	3737
662.894	4404
662.948	4066
663.002	4765
663.056	3656
663.110	3837
663.164	3228
663.218	3978
663.272	4187
663.326	4584
663.380	3781
663.434	4323
663.488	3031
663.542	4218
663.595	4415
663.649	4442
663.703	4497
663.757	3847
663.811	3000
663.864	4149
663.918	4526
663.972	4166
664.026	4611
664.079	5286
664.133	4458
664.187	4467
664.240	4615
664.294	4200
664.348	3972
664.401	4959
664.455	3747
664.508	4123
664.562	4108
664.615	4791
664.669	4292
664.722	4466
664.776	3803
664.829	4308
664.883	3718
664.936	3429
664.990	4195
665.043	4293
665.097	3478
665.150	5077
665.203	3535
665.257	4195
665.310	3583
665.363	4273
665.417	5060
665.470	5151
665.523	5040
665.576	4591
665.630	3924
665.683	4822
665.736	4588
665.789	4453
665.842	3630
665.895	4367
665.949	4161
666.002	4681
666.055	4691
666.108	5857
666.161	4166
666.214	4052
666.267	4664
666.320	5505
666.373	5483
666.426	5238
666.479	5371
666.532	5221
666.585	5120
666.638	5453
666.691	4704
666.744	5070
666.796	4840
666.849	5905
666.902	5670
666.955	4346
667.008	4243
667.060	4648
667.113	4175
667.166	5292
667.219	4819
667.271	5261
667.324	4888
667.377	5420
667.430	4894
667.482	5040
667.535	4566
667.587	5157
667.640	4557
667.693	3865
667.745	5211
667.798	4999
667.850	4400
667.903	5483
667.955	5266
668.008	4550
668.060	4979
668.113	5411
668.165	4343
668.218	4953
668.270	4812
668.322	4306
668.375	4800
668.427	5333
668.479	3951
668.532	5560
668.584	4428
668.636	4643
668.689	4709
668.741	4194
668.793	4380
668.845	4770
668.898	5105
668.950	5311
669.002	4002
669.054	4211
669.106	3642
669.158	4341
669.211	4873
669.263	4360
669.315	4764
669.367	5085
669.419	4252
669.471	4690
669.523	4824
669.575	5268
669.627	4142
669.679	3923
669.731	4130
669.783	4231
669.835	5008
669.886	4199
669.938	4268
669.990	4344
670.042	3784
670.094	4228
670.146	3773
670.197	4217
670.249	4546
670.301	4578
670.353	4845
670.404	5999
670.456	6674
670.508	9577
670.560	13291
670.611	21249
670.663	34514
670.715	79727
670.766	121665
670.818	33070
670.869	8127
670.921	7166
670.972	5838
671.024	5462
671.075	5286
671.127	5811
671.178	5790
671.230	5883
671.281	6600
671.333	8024
671.384	9607
671.436	13850
671.487	19843
671.538	29428
671.590	47721
671.641	80215
671.692	142909
671.744	269672
671.795	184454
671.846	62141
671.897	29293
671.949	19081
672.000	13813
672.051	10442
672.102	9103
672.153	6350
672.204	6101
672.256	6540
672.307	5417
672.358	4954
672.409	4304
672.460	4633
672.511	4095
672.562	3961
672.613	3328
672.664	2742
672.715	4380
672.766	3625
672.817	2564
672.868	4266
672.919	2702
672.970	2899
673.021	3492
673.071	2856
673.122	2213
673.173	2862
673.224	2915
673.275	2814
673.326	3018
673.376	2636
673.427	2130
673.478	3108
673.528	3127
673.579	2819
673.630	3150
673.680	3336
673.731	2912
673.782	2872
673.832	2942
673.883	3606
673.934	2491
673.984	3423
674.035	3408
674.085	2344
674.136	3123
674.186	3559
674.237	3151
674.287	3277
674.338	3698
674.388	3902
674.438	3671
674.489	3912
674.539	3521
674.589	4475
674.640	3992
674.690	4190
674.740	3021
674.791	3248
674.841	2944
674.891	3047
674.942	2539
674.992	2305
675.042	2666
675.092	3022
675.142	1541
675.193	2436
675.243	1839
675.293	2658
675.343	2510
675.393	2071
675.443	3202
675.493	3504
675.543	2465
675.593	3051
675.643	2530
675.693	2881
675.743	2503
675.793	2112
675.843	1707
675.893	2187
675.943	2727
675.993	2925
676.043	1928
676.093	1924
676.142	1360
676.192	2442
676.242	2211
676.292	2043
676.341	1702
676.391	2486
676.441	1227
676.491	2991
676.540	1613
676.590	2127
676.640	1429
676.689	1036
676.739	713
676.789	1589
676.838	1227
676.888	2059
676.937	1513
676.987	1535
677.037	2158
677.086	1099
677.136	1772
677.185	1442
677.235	1124
677.284	1675
677.333	1226
677.383	1572
677.432	1337
677.482	2042
677.531	1483
677.580	1126
677.630	648
677.679	2033
677.728	1755
677.778	1734
677.827	1591
677.876	2121
677.925	1888
677.975	1713
678.024	1903
678.073	2129
678.122	2174
678.171	1309
678.220	2172
678.269	4399
678.319	3982
678.368	4456
678.417	3357
678.466	3183
678.515	1645
678.564	1347
678.613	1254
678.662	1548
678.711	1289
678.760	1805
678.809	2006
678.857	1715
678.906	1661
678.955	835
679.004	1129
679.053	1545
679.102	1185
679.151	728
679.199	336
679.248	725
679.297	934
679.346	888
679.394	1172
679.443	1165
679.492	337
679.540	1892
679.589	1278
679.638	1689
679.686	1552
679.735	2544
679.784	2663
679.832	3328
679.881	1841
679.929	1851
679.978	1173
680.026	1212
680.075	1523
680.123	783
680.172	1409
680.220	1142
680.268	1026
680.317	907
680.365	541
680.414	899
680.462	1050
680.510	1202
680.559	1104
680.607	819
680.655	486
680.703	1449
680.752	1477
680.800	989
680.848	593
680.896	1417
680.945	1114
680.993	645
681.041	408
681.089	1398
681.137	1713
681.185	845
681.233	1414
681.258	1112
681.281	791
681.329	12
681.377	1011
681.380	1043
681.425	962
681.473	1588
681.502	1594
681.521	1531
681.569	2424
681.617	2120
681.624	2024
681.665	1139
681.713	1950
681.745	2145
681.761	2187
681.809	1766
681.857	2217
681.867	2125
681.904	1663
681.952	1869
681.989	1849
682.000	1794
682.048	1805
682.096	2427
682.111	2446
682.143	2370
682.191	2004
682.233	3192
682.239	3337
682.286	2133
682.334	2421
682.354	2362
682.382	2220
682.430	3528
682.476	2609
682.477	2557
682.525	2624
682.572	2781
682.598	3022
682.620	3194
682.667	2647
682.715	3456
682.720	3432
682.763	2892
682.810	3399
682.841	3113
682.857	2930
682.905	3434
682.952	3197
682.963	3289
683.000	3377
683.047	3987
683.085	3990
683.095	3991
683.142	3439
683.190	4051
683.206	3904
683.237	3520
683.284	4025
683.328	3861
683.332	3818
683.379	3847
683.426	3448
683.449	3636
683.473	3826
683.521	4706
683.568	5027
683.571	4997
683.615	4154
683.662	4887
683.693	4268
683.709	3880
683.757	4814
683.804	4190
683.814	4241
683.851	4360
683.898	4957
683.936	5119
683.945	5136
683.992	4537
684.039	5009
684.057	4978
684.086	4858
684.133	4888
684.179	4389
684.180	4349
684.227	5331
684.274	5611
684.300	5567
684.321	5584
684.368	4471
684.415	5987
684.422	5947
684.462	5483
684.509	5477
684.543	5589
684.556	5651
684.603	5871
684.649	6006
684.665	6075
684.696	6064
684.743	6676
684.786	6622
684.790	6597
684.837	5695
684.883	5905
684.908	6213
684.930	6554
684.977	6565
685.023	6305
685.029	6411
685.070	6952
685.117	7012
685.150	6428
685.164	6174
685.210	6995
685.257	7276
685.272	7085
685.303	6629
685.350	7200
685.393	7056
685.396	7027
685.443	6726
685.490	6804
685.514	7049
685.536	7284
685.583	6284
685.629	7022
685.636	6878
685.675	6048
685.722	7390
685.757	7454
685.768	7408
685.815	7278
685.861	6861
685.878	6932
685.908	7193
685.954	7312
686.000	8113
686.000	8118
686.047	7709
686.093	8320
686.121	8486
686.139	8539
686.185	8533
686.232	7752
686.242	7933
686.278	8504
686.324	8562
686.363	8290
686.370	8236
686.416	8201
686.463	8103
686.484	8089
686.509	8092
686.555	8053
686.601	8541
686.606	8607
686.647	8971
686.693	8440
686.727	8186
686.739	8143
686.785	8312
686.831	8578
686.848	8568
686.877	8510
686.923	8783
686.969	8683
686.969	8682
687.015	8841
687.061	9129
687.090	9865
687.107	10169
687.153	10031
687.199	9793
687.211	9636
687.245	9052
687.291	9508
687.332	8827
687.336	8810
687.382	9426
687.428	9802
687.453	9991
687.474	9944
687.520	9645
687.565	9674
687.574	9578
687.611	9876
687.657	11187
687.695	12716
687.702	13071
687.748	13618
687.794	15083
687.816	15446
687.839	14675
687.885	13200
687.931	12592
687.937	12370
687.976	11653
688.022	11200
688.058	10903
688.067	10910
688.113	10993
688.158	10693
688.179	10572
688.204	10546
688.249	10608
688.295	10850
688.300	10912
688.340	11284
688.386	11239
688.421	10836
688.431	10791
688.477	10531
688.522	11133
688.542	11488
688.567	11939
688.613	11921
688.658	12246
688.663	12211
688.703	11909
688.749	12378
688.784	11971
688.794	11849
688.839	12257
688.884	12140
688.905	11857
688.930	11589
688.975	11996
689.020	12056
689.026	12022
689.065	11802
689.110	12237
689.146	11904
689.155	11894
689.201	12921
689.246	12801
689.267	12900
689.291	12785
689.336	12326
689.381	12456
689.388	12376
689.426	12211
689.471	12252
689.509	12143
689.516	12128
689.561	12109
689.606	12029
689.630	12032
689.651	12146
689.696	12157
689.741	12719
689.750	12768
689.785	13222
689.830	13050
689.871	13577
689.875	13593
689.920	12925
689.965	12728
689.992	12524
690.010	12440
690.054	11844
690.099	12332
690.112	12256
690.144	12440
690.189	12480
690.233	12088
690.233	12104
690.278	12802
690.323	12901
690.354	12855
690.367	12921
690.412	13456
690.457	13272
690.474	13464
690.501	13712
690.546	13540
690.590	13736
690.595	13699
690.635	13734
690.680	13971
690.716	14371
690.724	14617
690.769	15628
690.813	16919
690.836	17020
690.857	18202
690.902	21854
690.946	24939
690.957	25739
690.991	32277
691.035	41343
691.077	49871
691.080	49934
691.124	47207
691.168	45466
691.198	44492
691.213	42050
691.257	34773
691.301	26897
691.318	23994
691.346	22755
691.390	20552
691.434	18220
691.439	17989
691.478	17500
691.522	16574
691.559	15741
691.567	15797
691.611	16181
691.655	16184
691.680	16018
691.699	15776
691.743	15704
691.787	15468
691.800	15363
691.831	15437
691.875	15524
691.919	15364
691.921	15342
691.964	15251
692.008	15166
692.041	14821
692.052	14865
692.096	15015
692.139	15467
692.162	15421
692.183	15290
692.227	15633
692.271	15186
692.282	15094
692.315	15094
692.359	15137
692.402	15272
692.403	15304
692.447	15207
692.490	15652
692.523	15404
692.534	15323
692.578	15784
692.622	15221
692.643	15451
692.666	15706
692.709	15312
692.753	15151
692.763	15014
692.797	15202
692.840	15844
692.884	16535
692.884	16569
692.928	16194
692.971	15973
693.004	15815
693.015	15897
693.059	16081
693.102	16249
693.124	16206
693.146	16177
693.189	16167
693.233	16082
693.245	16134
693.276	16897
693.320	17635
693.363	18318
693.365	18307
693.407	19263
693.450	20212
693.485	20761
693.493	21222
693.537	23880
693.580	26109
693.605	27406
693.624	30207
693.667	37010
693.710	43969
693.725	46320
693.753	59909
693.797	81294
693.840	102721
693.845	104950
693.883	99963
693.926	93858
693.966	89060
693.970	87587
694.013	70194
694.056	52935
694.086	40957
694.099	39334
694.142	33756
694.185	28285
694.206	25628
694.229	25103
694.272	23896
694.315	22949
694.326	22530
694.358	21684
694.401	20977
694.444	20061
694.446	19965
694.487	19352
694.530	18623
694.566	18131
694.573	18224
694.616	18367
694.659	18435
694.686	18705
694.702	18803
694.745	18593
694.787	18440
694.806	18363
694.830	18249
694.873	17753
694.916	17542
694.926	17459
694.959	17943
695.002	18336
695.044	18497
695.046	18479
695.087	19121
695.130	19376
695.166	19653
695.172	19699
695.215	19497
695.258	19586
695.286	19524
695.301	19751
695.343	20200
695.386	20825
695.406	20819
695.428	21180
695.471	22341
695.514	23536
695.526	23763
695.556	25335
695.599	27636
695.641	29712
695.646	29893
695.684	28341
695.726	26199
695.766	24466
695.769	24515
695.811	24071
695.854	23773
695.886	23553
695.896	23670
695.938	23744
695.981	23884
696.005	24067
696.023	24786
696.065	26143
696.108	27548
696.125	27958
696.150	28426
696.192	29573
696.235	30350
696.245	30528
696.277	30893
696.319	31163
696.361	31396
696.365	31337
696.404	30899
696.446	30370
696.485	29743
696.488	29803
696.530	29719
696.572	29619
696.604	29452
696.614	29444
696.656	29210
696.698	28741
696.724	28458
696.740	28665
696.783	29031
696.825	29412
696.844	29478
696.867	29666
696.909	29930
696.951	30209
696.964	30214
696.992	30264
697.034	30250
697.076	30177
697.083	30096
697.118	31280
697.160	32542
697.202	34012
697.203	33965
697.244	33496
697.286	32859
697.323	32347
697.327	32416
697.369	32172
697.411	32010
697.442	31804
697.453	31947
697.494	32115
697.536	32397
697.562	32434
697.578	32458
697.620	32407
697.661	32203
697.682	32080
697.703	32749
697.744	33835
697.786	35068
697.801	35369
697.828	35226
697.869	34919
697.911	34584
697.921	34415
697.952	34285
697.994	34011
698.035	33721
698.040	33600
698.077	33855
698.118	34077
698.160	34202
698.160	34113
698.201	34762
698.243	35304
698.279	35700
698.284	35872
698.325	36605
698.367	37364
698.399	37838
698.408	38056
698.449	38594
698.491	39174
698.518	39432
698.532	39581
698.573	39738
698.614	39913
698.638	39904
698.656	40164
698.697	40529
698.738	40877
698.757	40949
698.779	40942
698.820	40702
698.862	40468
698.877	40276
698.903	40483
698.944	40644
698.985	40804
698.996	40744
699.026	40647
699.067	40364
699.116	39925
699.235	39645
699.354	39552
699.474	36572
699.593	36282
699.713	36484
699.832	37374
699.951	39646
700.070	38183
700.190	35662
700.309	35373
700.428	34648
700.547	33777
700.667	33360
700.786	33661
700.905	32444
701.024	33682
701.143	31488
701.262	34889
701.381	35115
701.500	34667
701.619	34158
701.738	34675
701.857	33359
701.976	31840
702.095	32862
702.214	35613
702.333	32671
702.452	35444
702.571	34475
702.690	34635
702.809	34161
702.928	32213
703.047	31004
703.165	31267
703.284	32466
703.403	31045
703.522	30636
703.640	29672
703.759	29900
703.878	28945
703.997	29460
704.115	30939
704.234	30398
704.353	32358
704.471	28047
704.590	27878
704.708	28344
704.827	26810
704.946	26982
705.064	27264
705.183	27123
705.301	27492
705.420	26612
705.538	25428
705.656	24874
705.775	25286
705.893	31880
706.012	33701
706.130	25620
706.249	26516
706.367	24276
706.485	25025
706.604	23409
706.722	24899
706.840	28286
706.958	37998
707.077	29533
707.195	23448
707.313	22799
707.431	21703
707.549	22711
707.668	20464
707.786	24024
707.904	22006
708.022	23795
708.140	23237
708.258	22581
708.376	24512
708.494	22327
708.612	24633
708.730	26189
708.848	24654
708.966	25286
709.084	23573
709.202	23432
709.320	21115
709.438	22294
709.556	21269
709.674	19463
709.791	19942
709.909	19408
710.027	20154
710.145	19656
710.263	20037
710.380	19130
710.498	18133
710.616	18988
710.733	18589
710.851	18866
710.969	19323
711.086	18823
711.204	19202
711.322	19700
711.439	19565
711.557	17996
711.674	18106
711.792	18485
711.909	18261
712.027	19202
712.144	17701
712.262	18393
712.379	18838
712.497	18424
712.614	18117
712.732	19017
712.849	17699
712.966	19505
713.084	21323
713.201	17230
713.318	20019
713.436	21642
713.553	21867
713.670	25691
713.787	23792
713.905	22754
714.022	24840
714.139	26951
714.256	38948
714.373	65009
714.490	137103
714.608	389823
714.725	1585354
714.842	1650791
714.959	172436
715.076	60432
715.193	39256
715.310	33120
715.427	22671
715.544	23429
715.661	23264
715.778	19882
715.895	21056
716.011	20482
716.128	18991
716.245	18609
716.362	18290
716.479	16798
716.596	16399
716.713	17476
716.829	16512
716.946	15636
717.063	16314
717.180	13562
717.296	14655
717.413	15399
717.530	14901
717.646	13289
717.763	14115
717.880	13877
717.996	13333
718.113	13990
718.229	13442
718.346	13108
718.462	14625
718.579	13809
718.695	14277
718.812	13338
718.928	14772
719.045	13372
719.161	13970
719.277	15191
719.394	16076
719.510	15956
719.626	21828
719.743	29743
719.859	56585
719.975	128432
720.092	552047
720.208	1299055
720.324	165108
720.440	34949
720.557	23290
720.673	20664
720.789	17703
720.905	17082
721.021	16019
721.137	12874
721.253	13045
721.369	13412
721.486	13077
721.602	11956
721.718	11514
721.834	12700
721.950	12626
722.066	11801
722.181	11981
722.297	11072
722.413	11947
722.529	11883
722.645	12540
722.761	11479
722.877	13310
722.993	16249
723.108	25611
723.224	20863
723.340	14088
723.456	12659
723.571	11223
723.687	11096
723.803	11953
723.918	11042
724.034	10541
724.150	10528
724.265	10204
724.381	10510
724.497	10692
724.612	10210
724.728	9933
724.843	9843
724.959	10570
725.074	11997
725.190	11740
725.305	9707
725.421	10283
725.536	11398
725.651	10092
725.767	10440
725.882	10315
725.997	9575
726.113	10524
726.228	9187
726.343	9700
726.459	9296
726.574	9503
726.689	9352
726.804	9874
726.920	9254
727.035	10280
727.150	9293
727.265	9379
727.380	10324
727.495	10400
727.610	9825
727.725	10283
727.841	9270
727.956	13488
728.071	12001
728.186	9613
728.301	9062
728.416	10153
728.531	9466
728.645	9446
728.760	10525
728.875	12143
728.990	11741
729.105	10482
729.220	10191
729.335	10352
729.449	9868
729.564	9992
729.679	9472
729.794	9633
729.908	9993
730.023	8805
730.138	9851
730.253	10769
730.367	9329
730.482	10219
730.596	9133
730.711	11345
730.826	16501
730.940	17612
731.055	13848
731.169	13600
731.284	14115
731.398	14483
731.513	14868
731.627	17919
731.742	23031
731.856	28197
731.970	32397
732.085	45923
732.199	74825
732.313	143957
732.428	378684
732.542	1055385
732.656	634915
732.771	121258
732.885	57397
732.999	42166
733.113	37679
733.227	33760
733.342	29795
733.456	28885
733.570	27374
733.684	24925
733.798	23452
733.912	24129
734.026	23969
734.140	23082
734.254	22867
734.368	22219
734.482	23607
734.596	23328
734.710	21039
734.824	21134
734.938	20334
735.052	20958
735.166	20583
735.280	19886
735.393	18943
735.507	19371
735.621	19404
735.735	18557
735.849	19482
735.962	18038
736.076	19617
736.190	18186
736.303	18598
736.417	19779
736.531	17925
736.644	18502
736.758	18295
736.872	17588
736.985	17094
737.099	18053
737.212	17343
737.326	17009
737.439	18187
737.553	15671
737.666	17258
737.780	16540
737.893	17556
738.007	16890
738.120	17495
738.233	15120
738.347	16690
738.460	15324
738.573	17769
738.687	15430
738.800	16819
738.913	16942
739.026	16048
739.140	15758
739.253	15353
739.366	16031
739.479	15239
739.592	15884
739.705	13968
739.818	16561
739.932	14281
740.045	15018
740.158	14884
740.271	16749
740.384	15612
740.497	14340
740.610	17196
740.723	15374
740.836	15589
740.949	15345
741.062	16550
741.174	14738
741.287	14946
741.400	15569
741.513	14933
741.626	17315
741.739	15514
741.851	14707
741.964	14738
742.077	14767
742.189	14702
742.302	18662
742.415	16602
742.527	13944
742.640	15028
742.753	11912
742.865	14033
742.978	13824
743.090	12182
743.203	13782
743.316	11902
743.428	12207
743.541	12363
743.653	11435
743.766	12494
743.878	12591
743.990	11876
744.103	13967
744.215	15030
744.327	12444
744.440	14008
744.552	12777
744.664	11696
744.777	12708
744.889	12108
745.001	10936
745.113	12693
745.226	11324
745.338	10166
745.450	13090
745.562	11981
745.674	11087
745.786	13205
745.898	12223
746.010	11156
746.122	12405
746.234	12344
746.347	12592
746.459	12098
746.570	10441
746.682	14608
746.794	19014
746.906	12198
747.018	11353
747.130	12757
747.242	9756
747.354	11056
747.466	11722
747.577	10608
747.689	11090
747.801	10663
747.913	10103
748.024	10526
748.136	10987
748.248	9876
748.359	10646
748.471	10662
748.583	9234
748.694	8876
748.806	11016
748.918	9530
749.029	9631
749.141	10139
749.252	10872
749.364	9160
749.475	9249
749.587	8720
749.698	9054
749.809	9274
749.921	8689
750.032	9297
750.144	8300
750.255	9816
750.366	9759
750.478	8735
750.589	9102
750.700	8046
750.811	9766
750.923	8844
751.034	9170
751.145	9805
751.256	8400
751.367	8245
751.479	8955
751.590	8656
751.701	8412
751.812	7744
751.923	8398
752.034	11309
752.145	10194
752.256	9006
752.367	8499
752.478	8440
752.589	9148
752.700	9134
752.811	8106
752.922	7906
753.032	9916
753.143	8552
753.254	8841
753.365	12001
753.476	11048
753.586	9556
753.697	8194
753.808	8732
753.919	8522
754.029	8167
754.140	8067
754.251	7700
754.361	9496
754.472	9188
754.582	7616
754.693	8325
754.804	8498
754.914	9161
755.025	7648
755.135	7782
755.246	8900
755.356	7661
755.466	7390
755.577	7815
755.687	8519
755.798	7768
755.908	7404
756.018	7660
756.129	8371
756.239	8097
756.349	9042
756.460	11048
756.570	12965
756.680	8859
756.790	8561
756.900	8320
757.011	8476
757.121	7284
757.231	8408
757.341	9402
757.451	7741
757.561	7895
757.671	7989
757.781	8556
757.891	8592
758.001	7706
758.111	9562
758.221	10191
758.331	10947
758.441	10948
758.551	11447
758.661	11670
758.771	12610
758.880	11374
758.990	10666
759.100	11152
759.210	10523
759.320	11124
759.429	11985
759.539	13172
759.649	14572
759.758	16649
759.868	18959
759.978	18586
760.087	20761
760.197	21472
760.307	20081
760.416	18426
760.526	16790
760.635	18628
760.745	19081
760.854	22213
760.964	25684
761.073	25494
761.182	22924
761.292	19314
761.401	18100
761.511	13871
761.620	12929
761.729	12467
761.839	11189
761.948	12174
762.057	10690
762.166	11787
762.276	11391
762.385	12223
762.494	12140
762.603	11518
762.712	12169
762.822	11128
762.931	11720
763.040	10998
763.149	11301
763.258	11192
763.367	12282
763.476	11990
763.585	12143
763.694	12743
763.803	13104
763.912	13698
764.021	14859
764.130	14998
764.238	16122
764.347	16902
764.456	18387
764.565	19079
764.674	19175
764.783	19900
764.891	21971
765.000	24634
765.109	26074
765.217	29867
765.326	36072
765.435	41674
765.543	50241
765.652	61185
765.761	79730
765.869	110784
765.978	165081
766.086	265756
766.195	473060
766.303	874774
766.412	1113098
766.520	997847
766.629	806614
766.737	414824
766.846	239041
766.954	155198
767.062	111223
767.171	82208
767.279	63842
767.387	50376
767.496	43264
767.604	37347
767.712	32846
767.820	30225
767.928	27944
768.037	25550
768.145	24686
768.253	23698
768.361	22562
768.469	22761
768.577	23292
768.685	24030
768.793	25446
768.901	27626
769.009	32842
769.117	37383
769.225	48748
769.333	68657
769.441	107539
769.549	184276
769.657	374026
769.765	798250
769.873	935018
769.981	740870
770.088	324970
770.196	160840
770.304	100545
770.412	70913
770.519	53071
770.627	43085
770.735	35056
770.842	29402
770.950	26474
771.058	24751
771.165	23731
771.273	22813
771.380	21486
771.488	23992
771.595	25380
771.703	21408
771.810	20308
771.918	20083
772.025	22147
772.133	23770
772.240	21028
772.348	23163
772.455	23386
772.562	20345
772.670	18957
772.777	20328
772.884	19933
772.991	18955
773.099	18833
773.206	17292
773.313	18641
773.420	18580
773.528	17545
773.635	16482
773.742	18593
773.849	15960
773.956	18365
774.063	15581
774.170	17316
774.277	17550
774.384	16329
774.491	16159
774.598	16007
774.705	15991
774.812	15316
774.919	16150
775.026	15840
775.133	15243
775.239	15846
775.346	15065
775.453	14255
775.560	14622
775.667	15792
775.773	12934
775.880	14425
775.987	14000
776.093	13803
776.200	15948
776.307	12155
776.413	12947
776.520	15700
776.627	13892
776.733	12610
776.840	12238
776.946	17153
777.053	17587
777.159	22941
777.266	17392
777.372	22707
777.478	20754
777.585	16912
777.691	11508
777.798	12872
777.904	11379
778.010	11027
778.117	12334
778.223	11153
778.329	11555
778.435	10121
778.542	12652
778.648	10927
778.754	10163
778.860	11358
778.966	10538
779.072	10823
779.178	11121
779.284	9313
779.391	10472
779.497	11013
779.603	11694
779.708	10728
779.815	15618
779.920	37184
780.026	72252
780.132	16924
780.238	10066
780.344	9379
780.450	11913
780.556	8716
780.661	7903
780.767	11321
780.873	6910
780.979	8964
781.085	9961
781.190	8780
781.296	8448
781.402	9346
781.507	9330
781.613	7133
781.719	8956
781.824	9896
781.930	8692
782.035	9196
782.141	10726
782.246	7188
782.352	7465
782.457	8924
782.563	8767
782.668	8825
782.773	7132
782.879	7090
782.984	8371
783.090	8028
783.195	8131
783.300	9785
783.405	7951
783.511	7438
783.616	6953
783.721	7949
783.826	7793
783.932	7091
784.037	8291
784.142	8634
784.247	7404
784.352	8482
784.457	6245
784.562	8296
784.667	8286
784.772	5942
784.877	5182
784.982	7898
785.087	7323
785.192	6031
785.297	6673
785.402	8256
785.507	7950
785.611	7112
785.716	6074
785.821	6913
785.926	6819
786.031	7394
786.135	6956
786.240	7544
786.345	4493
786.450	5487
786.554	6548
786.659	6447
786.763	6212
786.868	6580
786.973	7919
787.077	5615
787.182	4995
787.286	6864
787.391	7194
787.495	4521
787.600	4510
787.704	5431
787.809	6208
787.913	5795
788.017	6071
788.122	7525
788.226	6190
788.330	4088
788.435	6532
788.539	7637
788.643	5206
788.747	4315
788.852	5959
788.956	5452
789.060	6272
789.164	6260
789.268	4693
789.372	5863
789.476	5740
789.580	4619
789.684	4594
789.788	6424
789.892	5009
789.996	4929
790.100	4084
790.204	4999
790.308	7381
790.412	4801
790.516	4626
790.620	4933
790.724	7110
790.828	5633
790.931	3199
791.035	5799
791.139	5043
791.242	4528
791.346	5760
791.450	4745
791.554	3858
791.657	3995
791.761	4847
791.864	5990
791.968	5904
792.072	5982
792.175	3693
792.279	4455
792.382	5319
792.486	4500
792.589	4399
792.693	5443
792.796	4708
792.899	5430
793.003	5944
793.106	3829
793.209	4803
793.313	5269
793.416	2649
793.519	5643
793.623	6626
793.726	5656
793.829	3457
793.932	3821
794.035	3667
794.138	6114
794.242	6614
794.345	4003
794.448	4518
794.551	7045
794.654	17298
794.757	35951
794.860	9351
794.963	5228
795.066	3745
795.169	4901
795.272	4474
795.375	5519
795.477	3604
795.580	4043
795.683	3075
795.786	4700
795.889	2706
795.991	4555
796.094	4243
796.197	2797
796.300	6108
796.402	5387
796.505	3084
796.608	3760
796.710	5267
796.813	5145
796.915	5222
797.018	5535
797.120	5063
797.223	4228
797.326	5831
797.428	4054
797.530	3887
797.633	4816
797.735	5818
797.838	4667
797.940	5319
798.042	4226
798.145	3986
798.247	4640
798.349	2518
798.452	4795
798.554	4494
798.656	5216
798.758	8150
798.860	4902
798.962	4291
799.065	3557
799.167	2621
799.269	4846
799.371	5843
799.473	8178
799.575	6533
799.677	4821
799.779	5690
799.881	3943
799.983	6367
800.085	3776
800.187	4242
800.289	3004
800.390	3692
800.492	5575
800.594	5743
800.696	2355
800.798	3071
800.899	3628
801.001	3418
801.103	4646
801.205	4500
801.306	4331
801.408	3584
801.509	3597
801.611	4053
801.713	4059
801.814	2552
801.916	2402
802.017	2963
802.119	2272
802.220	2981
802.322	1788
802.423	4776
802.525	1243
802.626	3837
802.727	3553
802.829	3942
802.930	1397
803.031	3779
803.133	2977
803.234	3084
803.335	4121
803.436	2391
803.538	3057
803.639	1623
803.740	3153
803.841	2749
803.942	3741
804.043	3670
804.144	2559
804.245	3051
804.346	2438
804.447	2310
804.548	2595
804.649	4667
804.750	2590
804.851	2398
804.952	3155
805.053	2896
805.154	1406
805.255	3297
805.355	1885
805.456	2786
805.557	2802
805.658	1633
805.758	2993
805.859	2343
805.960	3262
806.061	2315
806.161	1908
806.262	1676
806.362	1928
806.463	2255
806.564	2906
806.664	1866
806.765	2192
806.865	1980
806.966	1996
807.066	2142
807.166	3124
807.267	1951
807.367	1770
807.468	2575
807.568	1401
807.668	2263
807.769	3653
807.869	1939
807.969	1807
808.069	2396
808.170	1949
808.270	2241
808.370	3337
808.470	2415
808.570	1183
808.670	1222
808.770	2330
808.870	2093
808.970	2521
809.070	1807
809.170	1294
809.271	2851
809.370	2140
809.470	2550
809.570	2438
809.670	1334
809.770	2264
809.870	3058
809.970	2656
810.070	2723
810.169	2708
810.269	854
810.369	2792
810.469	1735
810.568	2145
810.668	835
810.768	2222
810.867	1222
810.967	1299
811.066	2581
811.166	1895
811.265	1496
811.365	1933
811.464	2115
811.564	2171
811.663	2975
811.763	1377
811.862	2791
811.962	2384
812.061	1769
812.160	1436
812.260	1900
812.359	2564
812.458	1635
812.557	3277
812.657	2166
812.756	2563
812.855	2002
812.954	1349
813.053	1782
813.153	2430
813.252	1774
813.351	2811
813.450	2374
813.549	2202
813.648	2221
813.747	1935
813.846	2689
813.945	1928
814.044	2159
814.143	2927
814.242	2645
814.341	2595
814.439	2297
814.538	3271
814.637	2596
814.736	2593
814.835	3659
814.933	2750
815.032	3734
815.131	5015
815.229	9012
815.328	13824
815.427	9942
815.525	8705
815.624	8589
815.722	7950
815.821	9009
815.919	8775
816.018	8082
816.116	9599
816.215	8479
816.313	9884
816.412	12302
816.510	12328
816.609	14023
816.707	14536
816.805	12724
816.904	12368
817.002	14369
817.100	14952
817.198	14638
817.296	13688
817.395	12577
817.493	12892
817.591	10342
817.689	11121
817.787	11156
817.885	11484
817.983	11117
818.081	12996
818.179	13459
818.277	20338
818.375	19895
818.473	13950
818.571	10010
818.669	11891
818.767	12718
818.865	9528
818.963	8227
819.061	10827
819.158	9850
819.256	15618
819.354	17103
819.452	30747
819.549	22498
819.647	13880
819.745	9423
819.842	9556
819.940	9967
820.038	9290
820.135	7459
820.233	11396
820.330	9372
820.428	8815
820.525	9810
820.623	8747
820.720	7093
820.818	9226
820.915	9561
821.012	8388
821.110	7487
821.207	9297
821.304	8517
821.402	9785
821.499	10459
821.596	9925
821.693	9221
821.791	8681
821.888	8523
821.985	8730
822.082	7768
822.179	8505
822.276	9794
822.373	6717
822.470	7583
822.567	8338
822.664	6395
822.761	7659
822.858	7767
822.955	6678
823.052	6447
823.149	7721
823.246	8042
823.343	6534
823.440	6826
823.536	7176
823.633	7627
823.730	6804
823.827	7295
823.923	7150
824.020	7185
824.117	8519
824.213	8298
824.310	7294
824.407	6041
824.503	7441
824.600	6297
824.696	6082
824.793	8247
824.889	8376
824.986	7670
825.082	5307
825.179	5901
825.275	7118
825.371	8899
825.468	5815
825.564	3216
825.660	6846
825.757	8982
825.853	6388
825.949	5316
826.045	5787
826.142	5588
826.238	6310
826.334	6187
826.430	6189
826.526	4361
826.622	4389
826.718	6078
826.814	7349
826.910	6193
827.006	3909
827.102	3619
827.198	6950
827.294	6834
827.390	6320
827.486	4321
827.582	3234
827.678	3935
827.774	7093
827.869	3932
827.965	5088
828.061	3803
828.157	7141
828.252	6071
828.348	4606
828.444	4151
828.539	4633
828.635	5750
828.731	6140
828.826	5614
828.922	6724
829.017	7319
829.113	7817
829.208	5329
829.304	5711
829.399	8712
829.495	5783
829.590	5818
829.685	5232
829.781	5996
829.876	6362
829.971	3023
830.066	3281
830.162	4281
830.257	7213
830.352	5330
830.447	4959
830.543	4493
830.638	5190
830.733	7725
830.828	5273
830.923	6898
831.018	6268
831.113	6296
831.208	4563
831.303	2862
831.398	3660
831.493	4882
831.588	7178
831.683	4944
831.778	3652
831.873	4262
831.967	6572
832.062	5650
832.157	4661
832.252	5560
832.346	4876
832.441	6406
832.536	5126
832.631	4763
832.725	4000
832.820	3771
832.914	4520
833.009	2831
833.104	3203
833.198	3260
833.293	3637
833.387	5817
833.482	5666
833.576	4862
833.670	5758
833.765	6481
833.859	6732
833.954	5909
834.048	4564
834.142	4211
834.237	2563
834.331	3849
834.425	4564
834.519	2762
834.613	4164
834.708	3038
834.802	2894
834.896	3190
834.990	4617
835.084	3494
835.178	2692
835.272	2989
835.366	5308
835.460	5373
835.554	4152
835.648	2840
835.742	2447
835.836	2364
835.930	2822
836.024	4190
836.117	3981
836.211	2922
836.305	3036
836.399	2486
836.493	2545
836.586	3516
836.680	3063
836.774	2505
836.867	3288
836.961	2341
837.055	2355
837.148	2535
837.242	2560
837.335	3523
837.429	2672
837.522	2788
837.616	2555
837.709	2591
837.803	2084
837.896	3619
837.989	3542
838.083	1856
838.176	1915
838.269	1527
838.363	3142
838.456	2010
838.549	3559
838.642	2841
838.735	3235
838.829	3223
838.922	2176
839.015	2463
839.108	2096
839.201	2260
839.294	3373
839.387	3151
839.480	703
839.573	2545
839.666	1956
839.759	1856
839.852	2086
839.945	3327
840.038	2171
840.131	1473
840.223	1654
840.316	2332
840.409	2906
840.502	3540
840.594	3980
840.687	1412
840.780	2049
840.873	1599
840.965	1405
841.058	2855
841.150	3767
841.243	1245
841.336	2386
841.428	1026
841.521	1939
841.613	2181
841.706	2447
841.798	1840
841.890	1869
841.983	1440
842.075	2087
842.167	1730
842.260	2535
842.352	3296
842.444	3335
842.537	1861
842.629	2298
842.721	1881
842.813	3199
842.905	1802
842.997	3047
843.090	1693
843.182	2396
843.274	1227
843.366	3043
843.458	2756
843.550	4086
843.642	2178
843.734	2029
843.826	1588
843.918	1684
844.009	2604
844.101	1331
844.193	1976
844.285	2599
844.377	4174
844.469	4645
844.560	3755
844.652	3548
844.744	2799
844.835	2760
844.927	2025
845.019	2276
845.110	1521
845.202	2526
845.293	1741
845.385	1136
845.476	1977
845.568	2913
845.659	1510
845.751	1507
845.842	2025
845.934	1784
846.025	2322
846.116	2229
846.208	1471
846.299	1873
846.390	652
846.482	1245
846.573	2055
846.664	1368
846.755	1231
846.846	2853
846.937	1126
847.029	1837
847.120	1884
847.211	2325
847.302	3382
847.393	1759
847.484	2158
847.575	1062
847.666	643
847.757	780
847.847	1815
847.938	2792
848.029	2328
848.120	2202
848.211	766
848.302	1535
848.392	1090
848.483	2288
848.574	1787
848.664	2672
848.755	2647
848.846	2418
848.936	2069
849.027	3656
849.118	3918
849.208	4997
849.299	9620
849.389	16721
849.480	36332
849.570	75970
849.661	141811
849.751	236960
849.841	96190
849.932	17735
850.022	7239
850.112	6335
850.203	4573
850.293	4455
850.383	3019
850.474	3446
850.564	1905
850.654	2670
850.744	2076
850.834	2443
850.924	2096
851.014	4037
851.104	2185
851.194	2264
851.284	2177
851.374	2551
851.464	2442
851.554	2126
851.644	2285
851.734	3430
851.824	1961
851.914	2562
852.004	3574
852.094	2625
852.183	1933
852.273	2574
852.363	2447
852.452	3265
852.542	3061
852.632	2961
852.721	2761
852.811	3480
852.901	5179
852.990	5635
853.080	5717
853.169	6800
853.259	7863
853.348	9584
853.438	12945
853.527	17131
853.617	24717
853.706	43186
853.795	76818
853.885	150337
853.974	265627
854.063	453428
854.152	593320
854.242	305452
854.331	98211
854.420	44752
854.509	28136
854.598	21020
854.687	14699
854.777	11633
854.866	9043
854.955	8080
855.044	6336
855.133	5367
855.222	5357
855.311	3945
855.400	3494
855.488	4236
855.577	4298
855.666	3785
855.755	3342
855.844	3722
855.933	3504
856.021	3502
856.110	2278
856.199	1691
856.288	1968
856.376	1904
856.465	1813
856.554	2245
856.642	2338
856.731	2241
856.819	2272
856.908	2899
856.996	1320
857.085	1220
857.173	1502
857.262	1755
857.350	964
857.438	1955
857.527	1296
857.615	1451
857.703	1417
857.792	1406
857.880	1114
857.968	556
858.056	1377
858.145	2033
858.233	1693
858.321	856
858.409	1581
858.497	1151
858.585	959
858.673	1212
858.761	510
858.849	475
858.937	986
859.025	1448
859.113	1672
859.201	1901
859.289	2991
859.377	2475
859.465	986
859.552	1277
859.640	1079
859.728	1420
859.816	890
859.903	1815
859.991	166
860.079	1647
860.166	1676
860.254	1573
860.342	2119
860.429	646
860.517	1374
860.604	1237
860.692	796
860.779	1590
860.867	1419
860.954	1660
861.042	1698
861.129	1713
861.216	1526
861.304	1519
861.391	1338
861.478	1310
861.565	747
861.653	1960
861.740	358
861.827	964
861.914	2021
862.001	519
862.089	1880
862.176	1675
862.263	997
862.350	1480
862.437	878
862.524	2310
862.611	1467
862.698	1944
862.785	2389
862.871	3190
862.958	2913
863.045	2914
863.132	1857
863.219	1727
863.306	1566
863.392	2914
863.479	2907
863.566	2126
863.652	2551
863.739	2329
863.826	1692
863.912	2539
863.999	2829
864.086	3320
864.172	2629
864.259	2738
864.345	4064
864.432	3205
864.518	3136
864.604	3274
864.691	3526
864.777	4621
864.863	5666
864.950	7993
865.036	9468
865.122	15464
865.209	16657
865.295	16019
865.381	16525
865.467	19028
865.553	22284
865.639	31342
865.726	48045
865.812	86690
865.898	151565
865.984	227940
866.070	376033
866.156	388631
866.242	150995
866.328	53098
866.414	29245
866.499	22722
866.585	19142
866.671	15193
866.757	14803
866.843	13601
866.928	11982
867.014	11434
867.100	10823
867.186	10363
867.271	10126
867.357	11023
867.442	10000
867.528	9647
867.614	9810
867.699	10514
867.785	9888
867.870	11801
867.956	11376
868.041	10640
868.127	9154
868.212	10129
868.297	9201
868.383	8963
868.468	8439
868.553	8924
868.639	8200
868.724	8797
868.809	9096
868.894	8161
868.979	7157
869.065	8129
869.150	6593
869.235	8178
869.320	8420
869.405	6229
869.490	8724
869.575	7628
869.660	5994
869.745	8307
869.830	8281
869.915	7418
870.000	6242
870.085	6003
870.169	8872
870.254	8317
870.339	5247
870.424	5005
870.509	7320
870.593	8376
870.678	8015
870.763	7453
870.847	6197
870.932	7783
871.016	7867
871.101	5331
871.186	6950
871.270	8314
871.355	4969
871.439	5932
871.523	7334
871.608	6723
871.692	5102
871.777	7798
871.861	7278
871.945	5506
872.030	7069
872.114	6179
872.198	4611
872.282	4301
872.367	5342
872.451	5231
872.535	5997
872.619	6265
872.703	5620
872.787	7028
872.871	6017
872.955	4486
873.039	3328
873.123	5923
873.207	6723
873.291	3730
873.375	5017
873.459	7206
873.543	5801
873.627	4988
873.711	4586
873.794	6906
873.878	5156
873.962	4599
874.045	5188
874.129	5634
874.137	5611
874.213	5383
874.245	5445
874.296	5549
874.352	4825
874.380	4476
874.460	4948
874.464	4967
874.547	5418
874.568	5386
874.631	5313
874.676	4831
874.714	4414
874.784	6016
874.798	6341
874.881	4865
874.892	4815
874.965	4436
874.999	4809
875.048	5349
875.107	5913
875.131	6121
875.215	3345
875.215	3345
875.298	3782
875.323	3797
875.381	3846
875.430	5201
875.465	6141
875.538	4916
875.548	4738
875.631	3089
875.646	3035
875.714	2792
875.753	3091
875.798	3509
875.861	4364
875.881	4610
875.964	4422
875.968	4380
876.047	3656
876.076	3563
876.130	3439
876.183	4315
876.213	4760
876.291	5454
876.296	5498
876.379	3701
876.398	3690
876.462	3706
876.506	3132
876.545	2641
876.613	3493
876.628	3664
876.711	3811
876.721	3928
876.794	4970
876.828	4631
876.877	3955
876.935	2839
876.960	2437
877.043	3338
877.043	3338
877.125	3411
877.150	3920
877.208	5120
877.258	4127
877.291	3328
877.365	2718
877.374	2671
877.456	3871
877.472	3681
877.539	2911
877.579	3457
877.622	3993
877.687	4252
877.704	4347
877.787	3838
877.794	3856
877.869	4033
877.901	3971
877.952	3565
878.008	2294
878.034	1784
878.115	2469
878.117	2492
878.199	2483
878.222	2938
878.282	3759
878.329	4020
878.364	4208
878.437	3942
878.447	3915
878.529	2498
878.544	2544
878.611	2537
878.651	2535
878.694	2897
878.758	3441
878.776	3468
878.858	3459
878.865	3467
878.941	3457
878.972	2911
879.023	2170
879.078	2613
879.105	2866
879.185	3311
879.187	3317
879.269	3173
879.292	3149
879.351	3001
879.399	2951
879.433	2918
879.506	2131
879.516	2072
879.598	3135
879.613	3090
879.680	2564
879.720	2905
879.762	3380
879.827	2698
879.844	2495
879.926	2488
879.933	2558
880.007	3174
880.040	2908
880.089	2425
880.147	2182
880.171	2269
880.253	3653
880.254	3651
880.335	2472
880.360	2800
880.417	4023
880.467	3945
880.499	3719
880.574	3854
880.580	3873
880.662	4065
880.680	3733
880.744	2013
880.787	1889
880.825	2250
880.893	2876
880.907	2902
880.989	2119
881.000	2148
881.070	3359
881.106	3887
881.152	3624
881.213	2242
881.233	1994
881.315	2845
881.319	2870
881.396	3302
881.426	3169
881.478	2845
881.532	3358
881.559	3583
881.639	2621
881.641	2600
881.722	2726
881.745	2726
881.803	2669
881.852	2532
881.885	2452
881.958	2202
881.966	2202
882.047	2674
882.064	2680
882.129	2366
882.171	2146
882.210	1879
882.277	1518
882.291	1548
882.372	2199
882.383	2295
882.454	3017
882.489	3076
882.535	2944
882.596	3154
882.616	3146
882.697	2785
882.702	2713
882.778	1794
882.808	1927
882.859	2274
882.914	2525
882.940	2697
883.020	2911
883.021	2911
883.102	2862
883.127	3061
883.183	3759
883.233	3696
883.264	3090
883.339	1630
883.345	1596
883.426	1453
883.445	1507
883.507	1723
883.551	1805
883.587	1996
883.657	3071
883.668	3244
883.749	3399
883.763	3381
883.830	2351
883.869	1911
883.910	1571
883.975	1409
883.991	1649
884.072	2886
884.081	2968
884.152	2999
884.187	3072
884.233	3157
884.292	3209
884.314	2955
884.394	1173
884.398	1137
884.475	1267
884.504	1164
884.555	1066
884.610	1247
884.636	1542
884.716	2541
884.716	2547
884.797	3121
884.821	3183
884.877	3308
884.927	3346
884.958	2896
885.033	1843
885.038	1830
885.118	1512
885.139	1593
885.199	1977
885.244	2122
885.279	2294
885.350	2480
885.359	2548
885.439	3538
885.456	3537
885.520	2816
885.561	2602
885.600	2240
885.667	1835
885.680	1943
885.760	2406
885.773	2451
885.840	1291
885.878	752
885.920	1116
885.984	1786
886.000	1805
886.080	1560
886.089	1582
886.160	2402
886.195	2627
886.240	2405
886.300	2105
886.320	2205
886.400	2969
886.406	2968
886.480	1608
886.511	1356
886.560	1640
886.616	1579
886.640	1601
886.720	2018
886.722	2026
886.800	2217
886.827	2315
886.879	2332
886.932	2187
886.959	2510
887.038	3669
887.039	3664
887.119	2591
887.143	2372
887.198	2663
887.248	2730
887.278	2410
887.354	1769
887.358	1793
887.437	2151
887.459	2285
887.517	2039
887.564	1738
887.596	1915
887.669	2299
887.676	2249
887.755	1731
887.774	1576
887.835	1905
887.880	2240
887.914	2169
887.985	1967
887.994	2076
888.073	2999
888.090	3170
888.153	3214
888.195	3211
888.232	2867
888.300	2368
888.311	2234
888.391	1148
888.405	967
888.470	1743
888.510	2203
888.549	1806
888.615	1177
888.628	1491
888.708	3404
888.720	3680
888.787	3013
888.825	2623
888.866	2062
888.930	1290
888.945	1371
889.024	1762
889.035	1810
889.103	2674
889.140	3117
889.182	2685
889.245	2124
889.261	2082
889.340	1811
889.349	1782
889.419	1718
889.454	1687
889.498	1471
889.559	1198
889.577	1341
889.656	1963
889.664	2027
889.735	2637
889.768	2923
889.814	2532
889.873	1998
889.978	1966
890.083	1400
890.187	2872
890.292	2424
890.397	1963
890.501	2487
890.606	1560
890.710	1662
890.815	3003
890.919	2106
891.024	3298
891.128	2372
891.233	1980
891.337	2873
891.442	1869
891.546	1597
891.650	2145
891.755	1141
891.859	2629
891.963	2468
892.068	2257
892.172	1647
892.276	1192
892.380	880
892.484	2524
892.589	3444
892.693	3885
892.797	1327
892.901	1482
893.005	1277
893.109	3142
893.213	2220
893.317	1744
893.421	739
893.525	2286
893.629	1269
893.733	2661
893.837	1587
893.941	1540
894.045	1206
894.148	924
894.252	1447
894.356	2788
894.460	3024
894.564	1378
894.667	1161
894.771	1641
894.875	466
894.978	1767
895.082	1443
895.186	2772
895.289	886
895.393	1463
895.496	2202
895.600	1579
895.703	1221
895.807	1238
895.910	889
896.014	1920
896.117	1101
896.221	1885
896.324	1317
896.427	2313
896.531	895
896.634	1506
896.737	1554
896.840	1591
896.944	2329
897.047	3121
897.150	1354
897.253	1158
897.356	1588
897.460	612
897.563	1641
897.666	1502
897.769	2342
897.872	2143
897.975	960
898.078	1140
898.181	1298
898.284	1387
898.387	2087
898.490	2180
898.593	1089
898.695	1798
898.798	556
898.901	1111
899.004	1591
899.107	1746
899.209	369
899.312	2447
899.415	825
899.518	845
899.620	953
899.723	1076
899.826	1193
899.928	862
900.031	974
900.133	2242
900.236	684
900.338	748
900.441	1127
900.543	1003
900.646	1649
900.748	1206
900.851	1714
900.953	1285
901.055	1250
901.158	1422
901.260	517
901.362	758
901.465	822
901.567	1078
901.669	1925
901.771	1146
901.873	604
901.976	855
902.078	1494
902.180	601
902.282	1748
902.384	1825
902.486	1412
902.588	1672
902.690	877
902.792	933
902.894	1169
902.996	2087
903.098	1993
903.200	1828
903.302	638
903.404	666
903.505	960
903.607	1620
903.709	2058
903.811	1837
903.913	1333
904.014	984
904.116	792
904.218	884
904.319	1016
904.421	3513
904.523	1499
904.624	1773
904.726	873
904.827	1576
904.929	1646
905.030	1537
905.132	1709
905.233	2160
905.335	540
905.436	1083
905.537	595
905.639	1115
905.740	1788
905.841	2140
905.943	1390
906.044	1903
906.145	847
906.247	764
906.348	2043
906.449	1671
906.550	1552
906.651	1937
906.752	1011
906.854	827
906.955	888
907.056	2027
907.157	2179
907.258	1988
907.359	211
907.460	376
907.561	695
907.662	688
907.762	893
907.863	1405
907.964	1187
908.065	1673
908.166	249
908.267	1099
908.367	497
908.468	1430
908.569	1054
908.670	1534
908.770	980
908.871	2080
908.971	1404
909.072	255
909.173	615
909.273	588
909.374	1372
909.474	1350
909.575	132
909.675	1253
909.776	971
909.876	1001
909.977	935
910.077	1608
910.177	1189
910.278	1586
910.378	304
910.478	154
910.579	1234
910.679	2433
910.779	1677
910.879	1319
910.980	722
911.080	1408
911.180	1070
911.280	1277
911.380	485
911.480	754
911.580	1209
911.680	2113
911.780	1220
911.880	2315
911.980	655
912.080	1143
912.180	792
912.280	1117
912.380	834
912.480	587
912.580	-56
912.679	677
912.779	1692
912.879	1237
912.979	1411
913.078	909
913.178	-15
913.278	779
913.377	315
913.477	717
913.577	585
913.676	2082
913.776	424
913.875	1212
913.975	844
914.074	1106
914.174	896
914.273	611
914.373	1053
914.472	1234
914.572	635
914.671	875
914.770	165
914.870	919
914.969	187
915.068	1035
915.167	950
915.267	871
915.366	-52
915.465	2062
915.564	1774
915.663	1686
915.763	-2
915.862	1199
915.961	1003
916.060	1321
916.159	376
916.258	-176
916.357	816
916.456	1401
916.555	1089
916.654	1090
916.752	940
916.851	1594
916.950	281
917.049	320
917.148	824
917.247	806
917.345	207
917.444	92
917.543	959
917.642	1006
917.740	1231
917.839	1978
917.937	1902
918.036	1949
918.135	179
918.233	1463
918.332	555
918.430	729
918.529	1139
918.627	797
918.726	1095
918.824	1452
918.923	1175
919.021	1183
919.119	355
919.218	858
919.316	194
919.414	1709
919.512	1325
919.611	1084
919.709	1647
919.807	1427
919.905	1423
920.003	2351
920.102	990
920.200	1904
920.298	1147
920.396	2145
920.494	1274
920.592	782
920.690	1168
920.788	2074
920.886	1626
920.984	2339
921.082	1462
921.180	3198
921.277	2219
921.375	2469
921.473	3911
921.571	3582
921.669	2685
921.766	3454
921.864	2444
921.962	3442
922.060	2477
922.157	2988
922.255	2747
922.352	3153
922.450	3458
922.548	3937
922.645	3912
922.743	5237
922.840	8413
922.938	10474
923.035	9366
923.133	8677
923.230	10508
923.327	12528
923.425	10602
923.522	10867
923.619	10629
923.717	9069
923.814	9088
923.911	9163
924.008	8922
924.106	8827
924.203	8801
924.300	9558
924.397	9189
924.494	9328
924.591	8546
924.688	7928
924.786	8401
924.883	9041
924.979	8302
925.077	8296
925.173	7663
925.270	8466
925.367	8320
925.464	9870
925.561	8799
925.658	10483
925.755	8067
925.852	10147
925.948	8355
926.045	9746
926.142	9805
926.239	9647
926.335	6922
926.432	9616
926.529	9516
926.625	10481
926.722	8136
926.818	8225
926.915	8287
927.011	8133
927.108	6740
927.204	7181
927.301	6264
927.397	7818
927.494	8888
927.590	6195
927.687	6409
927.783	8931
927.879	8117
927.976	6474
928.072	6616
928.168	7101
928.264	7280
928.361	7208
928.457	7548
928.553	5807
928.649	7307
928.745	7819
928.841	6182
928.937	6775
929.033	7076
929.129	7015
929.225	7115
929.321	7004
929.417	5691
929.513	6742
929.609	6809
929.705	5735
929.801	7289
929.897	6497
929.993	5670
930.089	7063
930.184	5649
930.280	6538
930.376	7600
930.471	6656
930.567	5325
930.663	6919
930.758	5487
930.854	5763
930.950	5505
931.045	6088
931.141	5757
931.236	8469
931.332	6084
931.427	5386
931.523	7236
931.618	7745
931.714	3945
931.809	5272
931.905	6495
932.000	4592
932.095	3497
932.191	7002
932.286	7262
932.381	6578
932.476	3931
932.572	5237
932.667	4839
932.762	4537
932.857	5561
932.952	6120
933.047	5642
933.142	4791
933.237	5340
933.332	6110
933.427	6604
933.522	5975
933.617	3899
933.712	5053
933.807	6473
933.902	6754
933.997	7080
934.092	5353
934.187	5007
934.282	6477
934.376	5176
934.471	5929
934.566	4469
934.661	4645
934.755	5851
934.850	5902
934.945	4712
935.039	4389
935.134	3315
935.228	4496
935.323	7392
935.417	4252
935.512	2579
935.606	2631
935.701	5153
935.795	6155
935.890	5458
935.984	4657
936.079	3001
936.173	4736
936.267	3165
936.362	3635
936.456	4211
936.550	6444
936.644	5156
936.738	4115
936.833	3842
936.927	3189
937.021	3931
937.115	4430
937.209	4765
937.303	4430
937.397	2701
937.491	3573
937.585	5039
937.679	5099
937.773	3467
937.867	4110
937.961	2727
938.055	5788
938.149	4554
938.243	1568
938.337	2942
938.430	2710
938.524	5283
938.618	5511
938.712	4859
938.805	3872
938.899	4764
938.993	6263
939.086	4212
939.180	4396
939.274	5398
939.367	5007
939.461	4859
939.554	3550
939.648	2909
939.741	2522
939.835	2984
939.928	5519
940.022	4232
940.115	3345
940.208	4718
940.302	4911
940.395	5184
940.488	3134
940.582	2115
940.675	2167
940.768	2675
940.861	4009
940.954	5123
941.048	2544
941.141	2384
941.234	3462
941.327	4629
941.420	5789
941.513	3613
941.606	3692
941.699	3516
941.792	5415
941.885	3868
941.978	3748
942.071	2570
942.164	2815
942.257	2223
942.349	3097
942.442	3683
942.535	2064
942.628	2614
942.721	2759
942.813	2527
942.906	3286
942.999	2210
943.091	2607
943.184	2677
943.277	3527
943.369	2429
943.462	2023
943.554	3441
943.647	2967
943.739	4291
943.832	3320
943.924	1468
944.017	1778
944.109	2063
944.201	2245
944.294	2233
944.386	2729
944.478	2400
944.571	1739
944.663	1717
944.755	3252
944.847	3241
944.940	3142
945.032	421
945.124	2060
945.216	2419
945.308	3225
945.400	3008
945.492	2064
945.584	3380
945.676	4530
945.768	2432
945.860	3343
945.952	3809
946.044	3479
946.136	1943
946.228	3203
946.320	1341
946.412	2934
946.503	2517
946.595	3628
946.687	1532
946.779	1368
946.870	1746
946.962	2417
947.054	1919
947.145	2743
947.237	2053
947.329	2352
947.420	1952
947.512	2191
947.603	1369
947.695	1318
947.786	1416
947.878	2231
947.969	2811
948.061	2655
948.152	2940
948.243	1272
948.335	1008
948.426	899
948.517	1988
948.609	3091
948.700	2324
948.791	1999
948.882	866
948.973	1777
949.065	2165
949.156	2407
949.247	938
949.338	2663
949.429	1317
949.520	1254
949.611	1939
949.702	3258
949.793	1731
949.884	2592
949.975	1313
950.066	699
950.157	1229
950.247	1439
950.338	991
950.429	2631
950.520	2494
950.611	1773
950.701	1893
950.792	3135
950.883	2759
950.973	2011
951.064	2302
951.155	2447
951.245	2289
951.336	2012
951.427	2542
951.517	2910
951.608	2120
951.698	1625
951.788	721
951.879	967
951.969	841
952.060	1338
952.150	2581
952.240	2428
952.331	1456
952.421	3308
952.511	935
952.602	1076
952.692	706
952.782	1063
952.872	1284
952.962	2036
953.052	683
953.143	1430
953.233	1126
953.323	1664
953.413	2057
953.503	2571
953.593	2110
953.683	1945
953.773	743
953.863	225
953.953	1120
954.042	1003
954.132	1692
954.222	1863
954.312	650
954.402	1381
954.492	2315
954.581	1790
954.671	990
954.761	1378
954.850	2368
954.940	-126
955.030	216
955.119	252
955.209	1494
955.298	1615
955.388	1503
955.477	2715
955.567	532
955.656	1416
955.746	1260
955.835	2049
955.925	511
956.014	1888
956.103	1709
956.193	2881
956.282	1853
956.371	2127
956.461	2276
956.550	1860
956.639	1483
956.728	903
956.817	1116
956.906	588
956.995	1448
957.085	1708
957.174	1280
957.263	569
957.352	2127
957.441	1517
957.530	1083
957.619	1331
957.708	965
957.796	1137
957.885	1021
957.974	522
958.063	704
958.152	-86
958.241	479
958.329	1726
958.418	141
958.507	1405
958.596	1006
958.684	635
958.773	1036
958.861	751
958.950	-67
959.039	1262
959.127	392
959.216	1263
959.304	-157
959.393	1559
959.481	1538
959.570	848
959.658	442
959.746	812
959.835	592
959.923	1353
960.011	715
960.100	1477
960.188	1653
960.276	300
960.365	-15
960.453	570
960.541	116
960.629	956
960.717	561
960.805	307
960.893	768
960.981	1064
961.069	1505
961.158	1806
961.245	2349
961.333	2169
961.421	1223
961.509	967
961.597	1093
961.685	294
961.773	292
961.861	525
961.949	1245
962.036	685
962.124	772
962.212	313
962.299	724
962.387	101
962.475	272
962.562	569
962.650	597
962.738	903
962.825	288
962.913	651
963.000	172
963.088	1262
963.175	751
963.263	328
963.350	119
963.438	2060
963.525	722
963.612	1133
963.700	1075
963.787	1596
963.874	649
963.962	217
964.049	-211
964.136	456
964.223	-423
964.310	-253
964.398	301
964.485	753
964.572	236
964.659	1487
964.746	301
964.833	820
964.920	-123
965.007	-170
965.094	30
965.181	594
965.268	617
965.355	799
965.441	-142
965.528	-402
965.615	699
965.702	830
965.789	546
965.875	1252
965.962	1335
966.049	565
966.136	800
966.222	418
966.309	1571
966.395	776
966.482	1557
966.569	1878
966.655	1132
966.742	660
966.828	962
966.915	-259
967.001	-488
967.087	-157
967.174	-67
967.260	927
967.347	722
967.433	647
967.519	630
967.605	574
967.692	448
967.778	921
967.864	795
967.950	469
968.036	6
968.123	771
968.209	-538
968.295	482
968.381	1709
968.467	521
968.553	-534
968.639	1941
968.725	38
968.811	1099
968.897	874
968.983	357
969.069	-198
969.154	203
969.240	527
969.326	228
969.412	267
969.497	334
969.583	155
969.669	971
969.755	467
969.840	615
969.926	1575
970.012	3028
970.097	3851
970.183	2858
970.268	1310
970.354	1497
970.439	554
970.525	1372
970.610	491
970.696	1933
970.781	295
970.866	-175
970.952	1145
971.037	379
971.122	80
971.208	1430
971.293	-212
971.378	-137
971.463	661
971.549	326
971.634	199
971.719	604
971.804	76
971.889	1277
971.974	416
972.059	861
972.144	450
972.229	236
972.314	-130
972.399	1562
972.484	-778
972.569	935
972.654	-1433
972.739	1732
972.824	114
972.908	-112
972.993	-229
973.078	915
973.163	279
973.247	719
973.332	-1489
973.417	1432
973.501	-542
973.586	203
973.671	430
973.755	186
973.840	78
973.924	1767
974.009	759
974.093	1110
974.178	2307
974.262	1456
974.346	-70
974.431	1079
974.515	339
974.600	834
974.684	1015
974.768	-121
974.852	1157
974.937	-141
975.021	643
975.105	-778
975.189	-24
975.273	941
975.358	-665
975.442	-428
975.526	308
975.610	24
975.694	-399
975.778	1147
975.862	-707
975.946	-998
976.030	1550
976.114	-391
976.198	-44
976.281	960
976.365	1235
976.449	702
976.533	122
976.617	-302
976.700	45
976.784	768
976.868	388
976.951	623
977.035	103
977.119	1268
977.202	293
977.286	870
977.369	1291
977.453	2085
977.536	1695
977.620	1131
977.703	1185
977.787	1313
977.870	2089
977.953	1322
978.037	-176
978.120	1308
978.203	-106
978.287	1482
978.370	804
978.453	243
978.536	49
978.620	704
978.703	316
978.786	422
978.869	-85
978.952	-218
979.035	1124
979.118	773
979.201	633
979.284	1222
979.367	-357
979.450	902
979.533	328
979.616	-366
979.699	456
979.782	1187
979.865	625
979.948	-59
980.030	-610
980.113	504
980.196	-1090
980.279	1541
980.361	315
980.444	90
980.526	865
980.609	2091
980.692	1853
980.774	2262
980.857	178
980.939	1660
981.022	1291
981.104	1068
981.187	428
981.269	1435
981.352	520
981.434	771
981.516	56
981.599	1751
981.681	847
981.763	835
981.846	105
981.928	699
982.010	273
982.092	-509
982.174	1323
982.256	656
982.339	628
982.421	676
982.503	1255
982.585	-373
982.667	625
982.749	803
982.831	459
982.913	-92
982.995	1510
983.077	198
983.158	1520
983.240	-219
983.322	1123
983.404	2613
983.486	1648
983.568	2891
983.649	1402
983.731	1928
983.813	1348
983.894	1202
983.976	1004
984.058	1295
984.139	1253
984.221	-73
984.302	1563
984.384	1165
984.465	619
984.547	690
984.628	658
984.710	2037
984.791	825
984.872	1457
984.954	-8
985.035	1511
985.116	249
985.198	1501
985.279	2319
985.360	936
985.441	817
985.522	1802
985.604	475
985.685	-104
985.766	1192
985.847	2415
985.928	141
986.009	653
986.090	14
986.171	2114
986.252	1836
986.333	2451
986.414	315
986.495	1928
986.576	1953
986.656	701
986.737	1901
986.818	1926
986.899	778
986.980	785
987.060	2162
987.141	1459
987.222	2026
987.302	2451
987.383	1947
987.464	1893
987.544	2214
987.625	1812
987.705	1901
987.786	2949
987.866	1261
987.947	1415
988.027	2249
988.108	1465
988.188	1215
988.268	1696
988.349	1402
988.429	1442
988.509	1745
988.589	1739
988.670	403
988.750	2834
988.830	956
988.910	2691
988.990	1459
989.070	1735
989.151	1310
989.231	1179
989.311	2281
989.391	1479
989.471	1420
989.551	979
989.631	445
989.711	1870
989.791	1062
989.870	810
989.950	1690
990.030	1211
990.110	865
990.190	523
990.269	251
990.349	1529
990.429	2067
990.509	1199
990.588	497
990.668	1320
990.747	1075
990.827	589
990.907	1067
990.986	1378
991.066	640
991.145	-7
991.225	971
991.304	1336
991.383	1346
991.463	1398
991.542	647
991.622	175
991.701	-34
991.780	775
991.859	823
991.939	601
992.018	516
992.097	1050
992.176	1106
992.256	154
992.335	424
992.414	2033
992.493	100
992.572	-16
992.651	1011
992.730	499
992.809	73
992.888	120
992.967	-145
993.046	1248
993.125	-225
993.203	679
993.282	667
993.361	985
993.440	540
993.519	-444
993.597	624
993.676	-227
993.755	733
993.834	871
993.912	-385
993.991	1624
994.069	-688
994.148	1097
994.226	292
994.305	408
994.384	-394
994.462	1259
994.540	-805
994.619	-277
994.697	820
994.776	83
994.854	753
994.932	-354
995.011	-55
995.089	-324
995.167	-293
995.245	-253
995.324	-923
995.402	501
995.480	-927
995.558	11
995.636	-720
995.714	-227
995.792	277
995.870	-262
995.948	-714
996.026	-58
996.104	-1293
996.182	731
996.260	-627
996.338	-495
996.416	-1181
996.494	-440
996.572	282
996.649	-582
996.727	-1242
996.805	89
996.883	-323
996.960	-240
997.038	-143
997.116	818
997.193	-1112
997.271	-18
997.348	-1083
997.426	-748
997.504	-844
997.581	484
997.658	-669
997.736	-865
997.813	-1667
997.891	889
997.968	-625
998.046	-150
998.123	-1132
998.200	1151
998.277	179
998.355	-3
998.432	-1420
998.509	-1177
998.586	-25
998.663	274
998.741	-152
998.818	-707
998.895	-988
998.972	-735
999.049	-565
999.126	-1260
999.203	108
999.280	439
999.357	-1183
999.434	-1195
999.511	-611
999.587	-214
999.664	-1404
999.741	301
999.818	-759
999.895	-432
999.971	-959
1000.048	-717
1000.125	-811
1000.202	-486
1000.278	-524
1000.355	108
1000.431	-1269
1000.508	-1350
1000.584	-696
1000.661	-547
1000.738	-1320
1000.814	-280
1000.890	-543
1000.967	-486
1001.043	-1517
1001.120	-1579
1001.196	-484
1001.272	-695
1001.349	-1433
1001.425	-578
1001.501	-945
1001.577	-1408
1001.654	-434
1001.730	-1500
1001.806	-597
1001.882	-1515
1001.958	-457
1002.034	-181
1002.110	-385
1002.186	-1462
1002.262	-1448
1002.338	-1486
1002.414	-670
1002.490	-480
1002.566	-868
1002.642	-1154
1002.718	-1201
1002.794	-1292
1002.870	-2090
1002.945	-1130
1003.021	-1710
1003.097	-1402
1003.173	-1060
1003.248	-1381
1003.324	-562
1003.400	-1099
1003.475	-1499
1003.551	-1065
1003.626	-2199
1003.702	-814
1003.777	-1450
1003.853	-527
1003.928	-1663
1004.004	-1189
1004.079	-822
1004.155	-1162
1004.230	-2538
1004.305	-1104
1004.381	-1559
1004.456	-1460
1004.531	-1624
1004.607	-535
1004.682	-1950
1004.757	-1196
1004.832	-1772
1004.907	-1363
1004.982	-1064
1005.057	-1177
1005.133	-1930
1005.208	-1241
1005.283	-1462
1005.358	-653
1005.433	-1647
1005.508	-1284
1005.583	-1853
1005.657	-1193
1005.732	-1035
1005.807	-1097
1005.882	-2181
1005.957	-638
1006.032	-1227
1006.106	-1942
1006.181	-1484
1006.256	-682
1006.331	-2312
1006.405	-1150
1006.480	-1707
1006.554	-1645
1006.629	-2462
1006.704	-1899
1006.778	-1815
1006.853	-721
1006.927	-2335
1007.002	-2453
1007.076	-1800
1007.150	-1326
1007.225	-1430
1007.299	-1102
1007.373	-1331
1007.448	-1370
1007.522	-1302
1007.596	-547
1007.671	-1574
1007.745	229
1007.819	-1802
1007.893	-1371
1007.967	-1496
1008.041	-2758
1008.115	-1279
1008.190	-1889
1008.264	-1262
1008.338	-2334
1008.412	-2040
1008.486	-903
1008.560	-1770
1008.633	-1614
1008.707	-863
1008.781	-909
1008.855	-1779
1008.929	-1494
1009.003	-1711
1009.076	-2120
1009.150	-2420
1009.224	-1902
1009.298	-1726
1009.371	-1867
1009.445	-1819
1009.519	-817
1009.592	-1911
1009.666	-1112
1009.739	-2436
1009.813	-2339
1009.886	-1718
1009.960	-2397
1010.033	-1057
1010.107	-769
1010.180	-2422
1010.253	-2274
1010.327	-2698
1010.400	-1383
1010.473	-1939
1010.547	-1165
1010.620	-1424
1010.693	-1109
1010.766	-1862
1010.840	-1333
1010.913	-1682
1010.986	-1919
1011.059	-1855
1011.132	-1441
1011.205	-1430
1011.278	-1525
1011.351	-1621
1011.424	-1358
1011.497	-2384
1011.570	-1895
1011.643	-2108
1011.716	-1569
1011.789	-2713
1011.862	-1015
1011.934	-1779
1012.007	-2137
1012.080	-2113
1012.153	-1729
1012.225	-1679
1012.298	-1634
1012.371	-1371
1012.443	-879
1012.516	-2437
1012.588	-1523
1012.661	-1502
1012.733	-1577
1012.806	-837
1012.879	-1802
1012.951	-1684
1013.023	-1594
1013.096	-2231
1013.168	-1580
1013.241	-1480
1013.313	-1189
1013.385	-2470
1013.458	-1807
1013.530	-1206
1013.602	-1904
1013.674	-1412
1013.746	-1966
1013.819	-2238
1013.891	-1361
1013.963	-1820
1014.035	-678
1014.107	-1907
1014.179	-1096
1014.251	-1773
1014.323	-1466
1014.395	-1424
1014.467	-1686
1014.539	-933
1014.611	-1535
1014.683	-1413
1014.754	-1820
1014.826	-2644
1014.898	-850
1014.970	-2094
1015.042	-553
1015.113	-2243
1015.185	-1734
1015.257	-3275
1015.328	-1106
1015.400	-2462
1015.471	-1473
1015.543	-2096
1015.615	-1440
1015.686	-1678
1015.757	-1142
1015.829	-1743
1015.901	-1545
1015.972	-1052
1016.043	-2361
1016.115	-1007
1016.186	-1175
1016.257	-2285
1016.328	-1259
1016.400	-263
1016.471	-1967
1016.542	-1570
1016.613	-1419
1016.685	-1389
1016.756	-1106
1016.827	-1970
1016.898	-1445
1016.969	-1140
1017.040	-1658
1017.111	-2106
1017.182	-2680
1017.253	-1259
1017.324	-1874
1017.395	-2183
1017.466	-1119
1017.537	-1760
1017.608	-2152
1017.678	-2166
1017.749	-1321
1017.820	-2070
1017.891	-1422
1017.961	-2414
1018.032	-1608
1018.103	-2651
1018.173	-1076
1018.244	-2698
1018.315	-1854
1018.385	-1827
1018.456	-2084
1018.526	-2490
1018.597	-1476
1018.667	-1585
1018.738	-2064
1018.808	-2383
1018.878	-1894
1018.949	-1511
1019.019	-1344
1019.089	-2564
1019.160	-1487
1019.230	-1807
1019.300	-2039
1019.371	-3194
1019.441	-1298
1019.511	-1935
1019.581	-2006
1019.651	-1539
1019.721	-1436
1019.791	-1254
1019.861	-1409
1019.931	-1743
1020.001	-2246
1020.071	-2000
1020.141	-1487
1020.211	-2139
1020.281	-1874
1020.351	-2667
1020.421	-2173
1020.491	-1283
1020.560	-2429
1020.630	-1436
1020.700	-1938
1020.770	-2951
1020.839	-1105
1020.909	-2041
1020.979	-1547
1021.048	-1630
1021.118	-1378
1021.187	-2229
1021.257	-2033
1021.326	-2196
1021.396	-2352
1021.465	-2509
1021.535	-1830
1021.604	-1921
1021.674	-2282
1021.743	-1761
1021.812	-1178
1021.882	-1496
1021.951	-1356
1022.020	-2299
1022.089	-594
1022.159	-1767
1022.228	-1883
1022.297	-2306
1022.366	-1895
1022.435	-2837
1022.504	-1772
1022.573	-1965
1022.642	-2143
1022.711	-2640
1022.781	-1553
1022.849	-1994
1022.918	-2119
1022.987	-1058
1023.056	-1994
1023.125	-2091
1023.194	-2107
1023.263	-1451
1023.331	-1919
1023.400	-1992
1023.469	-1997
1023.538	-795
1023.606	-1888
1023.675	-2291
1023.744	-1060
1023.812	-2852
1023.881	-1716
1023.949	-2302
1024.018	-2080
1024.086	-2308
1024.155	-1622
1024.223	-2196
1024.292	-700
1024.360	-1207
1024.429	-1975
1024.497	-2093
1024.565	-1494
1024.634	-1290
1024.702	-1299
1024.770	-2363
1024.838	-2170
1024.907	-883
1024.975	-1698
1025.043	-1052
1025.111	-1922
1025.179	-1642
1025.247	-2643
1025.315	-2064
1025.383	-917
1025.451	-2246
1025.519	-2150
1025.587	-2074
1025.655	-1736
1025.723	-1532
1025.791	-1574
1025.859	-2029
1025.927	-2035
1025.995	-2183
1026.062	-1313
1026.130	-1939
1026.198	-1922
1026.266	-2453
1026.333	-1266
1026.401	-1172
1026.469	-1669
1026.536	-1598
1026.604	-1781
1026.671	-2664
1026.739	-2181
1026.806	-1520
1026.874	-1845
1026.941	-1571
1027.009	-1112
1027.076	-2335
1027.144	-988
1027.211	-1762
1027.278	-2082
1027.345	-2127
1027.413	-913
1027.480	-1857
1027.547	-1134
1027.614	-2386
1027.682	-1889
1027.749	-2174
1027.816	-1741
1027.883	-1798
1027.950	-896
1028.017	-2818
1028.084	-1287
1028.151	-2719
1028.218	-1649
1028.285	-2009
1028.352	-1817
1028.419	-1320
1028.486	-2186
1028.553	-1500
1028.619	-1495
1028.686	-1896
1028.753	-2157
1028.820	-1859
1028.886	-869
1028.953	-1953
1029.020	-1495
1029.086	-2419
1029.153	-2088
1029.220	-2298
1029.286	-1151
1029.353	-2113
1029.419	-1854
1029.486	-1947
1029.552	-1645
1029.619	-1571
1029.685	-2185
1029.751	-2222
1029.818	-942
1029.884	-1241
1029.951	-1185
1030.017	-2255
1030.083	-1311
1030.149	-2460
1030.216	-2231
1030.282	-1834
1030.348	-2415
1030.414	-1844
1030.480	-1118
1030.546	-2024
1030.612	-563
1030.678	-2001
1030.744	-2018
1030.810	-1793
1030.876	-1690
1030.942	-2114
1031.008	-1504
1031.074	-2711
1031.140	-1346
1031.206	-817
1031.272	-1785
1031.337	-1592
1031.403	-1447
1031.469	-1791
1031.534	-2080
1031.600	-1847
1031.666	-1476
1031.731	-2195
1031.797	-1287
1031.863	-1673
1031.928	-1810
1031.994	-2187
1032.059	-1955
1032.125	-1751
1032.190	-3012
1032.256	-1626
1032.321	-2025
1032.386	-2046
1032.452	-1525
1032.517	-1623
1032.582	-2252
1032.647	-2051
1032.713	-1254
1032.778	-1512
1032.843	-1680
1032.908	-2628
1032.974	-2082
1033.039	-1846
1033.104	-1077
1033.169	-1923
1033.234	-1462
1033.299	-2301
1033.364	-2029
1033.429	-2116
1033.494	-1866
1033.559	-2095
1033.624	-1451
1033.688	-1583
1033.753	-1712
1033.818	-1316
1033.883	-1335
1033.948	-2050
1034.013	-708
1034.077	-1222
1034.142	-115
1034.207	-516
1034.271	1831
1034.336	2378
1034.400	878
1034.465	-992
1034.530	-785
1034.594	-2139
1034.658	-1582
1034.723	-2244
1034.787	-1158
1034.852	-2872
1034.916	-2155
1034.981	-2214
1035.045	-625
1035.109	-1841
1035.173	-2127
1035.238	-2355
1035.302	-1542
1035.366	-2002
1035.430	-1490
1035.495	-2219
1035.559	-833
1035.623	-2588
1035.687	-1821
1035.751	-1837
1035.815	-1640
1035.879	-2265
1035.943	-1329
1036.007	-2047
1036.071	-1762
1036.135	-2185
1036.198	-1635
1036.262	-2034
1036.326	-1803
1036.390	-2410
1036.454	-1653
1036.517	-2224
1036.581	-1615
1036.645	-1814
1036.709	-1641
1036.772	-2139
1036.836	-1171
1036.900	-1781
1036.963	-1755
1037.026	-1676
1037.090	-900
1037.154	-1760
1037.217	-1634
1037.280	-3298
1037.344	-2512
1037.407	-2267
1037.471	-1907
1037.534	-2506
1037.597	-1190
1037.661	-1520
1037.724	-1084
1037.787	-2069
1037.850	-1053
1037.913	-1591
1037.977	-1237
1038.040	-2661
1038.103	-1639
1038.166	-2686
1038.229	-1675
1038.292	-2660
1038.355	-2246
1038.418	-1481
1038.481	-997
1038.544	-2263
1038.607	-1852
1038.670	-2126
1038.732	-1476
1038.795	-2599
1038.858	-2161
1038.921	-2124
1038.984	-1619
1039.046	-2553
1039.109	-2378
1039.172	-2001
1039.234	-1909
1039.297	-2165
1039.360	-1950
1039.422	-2552
1039.485	-2352
1039.547	-2625
1039.610	-1356
1039.672	-1649
1039.734	-2166
1039.797	-2636
1039.859	-1577
1039.922	-2429
1039.984	-1411
1040.046	-2541
1040.109	-2115
1040.171	-2093
1040.233	-1663
1040.295	-1976
1040.358	-1176
1040.420	-1622
1040.482	-1432
1040.544	-2732
1040.606	-1256
1040.668	-2363
1040.730	-1419
1040.792	-2343
1040.854	-2619
1040.916	-2007
1040.978	-1698
1041.040	-1763
1041.102	-1345
1041.164	-2510
1041.225	-1658
1041.287	-1943
1041.349	-1119
1041.411	-2408
1041.472	-1542
1041.534	-2372
1041.596	-2070
1041.657	-1215
1041.719	-2159
1041.781	-2025
1041.842	-2054
1041.904	-2224
1041.965	-2690
1042.027	-2667
1042.088	-2359
1042.150	-1397
1042.211	-1822
1042.272	-1648
1042.334	-1781
1042.395	-2134
1042.456	-2124
1042.518	-2444
1042.579	-2335
1042.640	-2250
1042.701	-1163
1042.763	-2190
1042.824	-1891
1042.885	-2583
1042.946	-2210
1043.007	-1589
1043.068	-1807
1043.129	-1563
1043.190	-2503
1043.251	-1559
1043.312	-2421
1043.373	-2267
1043.434	-1127
1043.495	-1473
1043.556	-1599
1043.616	-1433
1043.677	-1606
1043.738	-2132
1043.799	-2344
1043.859	-1631
1043.920	-1769
1043.981	-2052
1044.041	-1983
1044.102	-2877
1044.162	-2857
1044.223	-2096
1044.284	-1450
1044.344	-1594
1044.405	-1922
1044.465	-2651
1044.525	-1978
1044.586	-1434
1044.646	-2366
1044.707	-1932
1044.767	-1202
1044.827	-1722
1044.887	-1614
1044.948	-2026
1045.008	-1715
1045.068	-2713
1045.128	-1793
1045.188	-2317
1045.249	-805
1045.309	-2090
1045.369	-2066
1045.429	-2534
1045.489	-1869
1045.549	-2059
1045.609	-1811
1045.669	-2537
1045.729	-1782
1045.789	-1835
1045.848	-2426
1045.908	-1084
1045.968	-1105
1046.028	-1830
1046.088	-1332
1046.147	-1560
1046.207	-1972
1046.267	-2236
1046.326	-1211
1046.386	-2135
1046.446	-1729
1046.505	-1320
1046.565	-546
1046.624	-1925
1046.684	-973
1046.743	-697
1046.803	339
1046.862	-315
1046.922	0
