'Start Wavelength	183.907
'End Wavelength	1046.922
'Gate Delay	5.000
'Gate Width (ms)	1.050
'Laser Output Level	0.000
'X Position	0.000
'Y Position	0.000
'Z Position	0.000
'Grid Point Number	1.000
'Shot Number	100.000
183.907	-85.000
183.977	504.000
184.047	-197
184.116	904
184.186	1039
184.256	559
184.325	-496
184.395	-1078
184.465	693
184.534	-9
184.604	-10
184.674	611
184.743	-514
184.813	945
184.883	807
184.952	-43
185.022	110
185.092	79
185.161	-186
185.231	769
185.301	-98
185.370	327
185.440	-516
185.509	386
185.579	-313
185.649	295
185.718	-39
185.788	442
185.857	48
185.927	-405
185.996	-22
186.066	-311
186.136	-276
186.205	654
186.275	353
186.344	191
186.414	114
186.483	143
186.553	613
186.622	1398
186.692	7
186.761	251
186.831	67
186.900	267
186.970	397
187.039	1062
187.109	1024
187.178	1045
187.248	-165
187.317	775
187.387	325
187.456	650
187.526	626
187.595	1453
187.664	705
187.734	164
187.803	320
187.873	675
187.942	1406
188.012	278
188.081	768
188.150	838
188.220	948
188.289	900
188.358	183
188.428	946
188.497	332
188.567	639
188.636	185
188.705	-596
188.775	139
188.844	33
188.913	722
188.983	263
189.052	505
189.121	192
189.191	287
189.260	1984
189.329	1479
189.399	856
189.468	1782
189.537	350
189.606	269
189.676	1204
189.745	876
189.814	1780
189.883	793
189.953	1696
190.022	1512
190.091	5228
190.161	6833
190.230	3032
190.299	6
190.368	1082
190.437	982
190.507	598
190.576	904
190.645	898
190.714	726
190.783	-305
190.853	837
190.922	1389
190.991	1110
191.060	733
191.129	-329
191.198	1264
191.268	94
191.337	25
191.406	1003
191.475	1050
191.544	-468
191.613	323
191.682	949
191.752	654
191.821	230
191.890	613
191.959	694
192.028	446
192.097	902
192.166	952
192.235	858
192.304	1271
192.373	1239
192.442	717
192.511	29
192.580	928
192.650	1658
192.719	816
192.788	1411
192.857	1482
192.926	725
192.995	1784
193.064	2235
193.133	3534
193.202	4261
193.271	3798
193.340	2239
193.409	2696
193.478	2590
193.547	4456
193.615	6273
193.684	5686
193.753	3304
193.822	1965
193.891	1129
193.960	2153
194.029	1066
194.098	2073
194.167	1155
194.236	1419
194.305	1049
194.374	1746
194.443	899
194.512	1217
194.580	611
194.649	1281
194.718	769
194.787	1115
194.856	585
194.925	961
194.994	1172
195.062	1245
195.131	303
195.200	982
195.269	960
195.338	1606
195.407	1173
195.475	1125
195.544	1027
195.613	1630
195.682	496
195.751	837
195.819	972
195.888	895
195.957	1648
196.026	1822
196.094	1997
196.163	1420
196.232	942
196.301	1474
196.369	1180
196.438	1548
196.507	1013
196.576	1384
196.644	1436
196.713	1582
196.782	1005
196.850	1527
196.919	1059
196.988	2347
197.056	1359
197.125	2083
197.194	1699
197.262	1528
197.331	1296
197.400	1463
197.468	1333
197.537	758
197.606	1774
197.674	3438
197.743	6490
197.812	3767
197.880	6478
197.949	5110
198.017	6727
198.086	5002
198.155	3034
198.223	3049
198.292	8619
198.360	4315
198.429	2215
198.497	3088
198.566	4570
198.635	8584
198.703	2986
198.772	4067
198.840	8101
198.909	9950
198.977	2913
199.046	2986
199.114	2439
199.183	3355
199.251	1570
199.320	2323
199.388	2012
199.457	1006
199.525	1182
199.594	2518
199.662	2240
199.731	1454
199.799	761
199.867	2243
199.936	1090
200.004	2247
200.073	1457
200.141	1809
200.210	554
200.278	1481
200.346	2061
200.415	2008
200.483	2220
200.552	1387
200.620	1779
200.688	1554
200.757	1762
200.825	2780
200.893	1071
200.962	2138
201.030	895
201.098	1272
201.167	1766
201.235	1994
201.303	1149
201.372	1803
201.440	2056
201.508	2184
201.577	1958
201.645	1751
201.713	1917
201.781	1908
201.850	1878
201.918	1942
201.986	1875
202.055	2076
202.123	1455
202.191	2088
202.259	1741
202.327	2219
202.396	2259
202.464	1678
202.532	1583
202.600	1663
202.669	1252
202.737	1415
202.805	1777
202.873	2017
202.941	2248
203.009	2247
203.078	1653
203.146	2553
203.214	2357
203.282	2530
203.350	1795
203.418	1927
203.487	1435
203.555	2446
203.623	1809
203.691	2117
203.759	1285
203.827	1870
203.895	2715
203.963	2125
204.031	2366
204.099	2538
204.168	2210
204.236	3182
204.304	2396
204.372	2733
204.440	3255
204.508	2606
204.576	2274
204.644	2695
204.712	1520
204.780	2445
204.848	2074
204.916	2506
204.984	2425
205.052	3311
205.120	1702
205.188	2710
205.256	1729
205.324	2863
205.392	2644
205.460	3270
205.528	2906
205.596	3583
205.664	2729
205.732	3368
205.799	10092
205.867	17827
205.935	4961
206.003	4604
206.071	3479
206.139	4194
206.207	2678
206.275	2671
206.343	1913
206.411	2486
206.478	2594
206.546	3411
206.614	2978
206.682	2821
206.750	2424
206.818	3437
206.885	4228
206.953	2589
207.021	3581
207.089	2807
207.157	2523
207.225	3162
207.292	3499
207.360	3080
207.428	3061
207.496	2716
207.563	2936
207.631	2511
207.699	2650
207.767	2732
207.834	2325
207.902	3306
207.970	2889
208.038	3222
208.105	2660
208.173	3689
208.241	5391
208.309	4965
208.376	3977
208.444	5371
208.512	4826
208.579	3005
208.647	4188
208.715	4295
208.782	3514
208.850	3333
208.918	2647
208.985	3471
209.053	3646
209.120	3766
209.188	3156
209.256	4110
209.323	2010
209.391	3290
209.459	4303
209.526	3535
209.594	3884
209.661	4312
209.729	3751
209.796	3773
209.864	2856
209.932	2866
209.999	4761
210.067	4098
210.134	2985
210.202	3469
210.269	3935
210.337	4615
210.404	4224
210.472	4297
210.539	4169
210.607	3867
210.674	3059
210.742	3452
210.809	4098
210.877	4478
210.944	4549
211.012	3779
211.079	5006
211.146	4647
211.214	4304
211.281	4229
211.349	4752
211.416	4389
211.484	4282
211.551	4506
211.618	4273
211.686	4950
211.753	3989
211.821	5026
211.888	4205
211.955	4742
212.023	4352
212.090	4975
212.157	4574
212.225	6173
212.292	10539
212.359	20291
212.427	45275
212.494	24211
212.561	9352
212.629	7592
212.696	5647
212.763	5357
212.831	4145
212.898	5533
212.965	3969
213.032	5090
213.100	4228
213.167	4968
213.234	4263
213.301	4351
213.369	4789
213.436	4661
213.503	4140
213.570	5212
213.638	4196
213.705	3475
213.772	3594
213.839	4015
213.906	5990
213.973	5016
214.041	4005
214.108	4867
214.175	4476
214.242	4693
214.309	5677
214.376	5070
214.444	4948
214.511	5427
214.578	5243
214.645	5973
214.712	5559
214.779	5351
214.846	5535
214.913	5648
214.980	5485
215.048	5819
215.115	6527
215.182	5907
215.249	5014
215.316	4667
215.383	4605
215.450	4548
215.517	3970
215.584	3743
215.651	4178
215.718	4240
215.785	4162
215.852	4194
215.919	4185
215.986	4174
216.053	3675
216.120	3783
216.187	3814
216.254	4870
216.321	3744
216.388	4719
216.455	5058
216.522	5008
216.589	5043
216.656	6408
216.722	6197
216.789	7468
216.856	7494
216.923	7850
216.990	7111
217.057	6910
217.124	7574
217.191	6796
217.258	9131
217.324	10376
217.391	11127
217.458	9496
217.525	7599
217.592	6940
217.659	5310
217.725	6795
217.792	6201
217.859	5437
217.926	4096
217.993	4586
218.059	4842
218.126	3666
218.193	4417
218.260	3799
218.327	3250
218.393	3803
218.460	3465
218.527	3244
218.594	2834
218.660	4145
218.727	4031
218.794	3326
218.860	3121
218.927	3309
218.994	2617
219.061	2321
219.127	3562
219.194	3858
219.261	3285
219.327	3175
219.394	2997
219.461	2223
219.527	2901
219.594	4364
219.661	3091
219.727	2429
219.794	4448
219.860	3546
219.927	4226
219.994	4652
220.060	5181
220.127	5778
220.193	6029
220.260	6958
220.326	9998
220.393	15708
220.460	19321
220.526	14192
220.593	9549
220.659	10051
220.726	11576
220.792	23081
220.859	22261
220.925	26036
220.992	30890
221.058	31423
221.125	31882
221.191	24964
221.258	10924
221.324	8595
221.391	6407
221.457	5448
221.524	6261
221.590	8644
221.657	26305
221.723	20451
221.789	17480
221.856	15581
221.922	9767
221.989	6510
222.055	4753
222.121	3576
222.188	5230
222.254	4594
222.321	3924
222.387	3056
222.453	3243
222.520	3406
222.586	3052
222.652	3838
222.719	2139
222.785	3165
222.851	2025
222.918	2322
222.984	2114
223.050	3051
223.116	1891
223.183	3958
223.249	1468
223.315	2736
223.382	2974
223.448	2666
223.514	2266
223.580	2063
223.647	2016
223.713	1989
223.779	1948
223.845	2694
223.911	3541
223.978	2036
224.044	2196
224.110	2449
224.176	3421
224.242	1887
224.309	1565
224.375	2767
224.441	2131
224.507	2712
224.573	593
224.639	2740
224.705	1159
224.772	2439
224.838	2042
224.904	3128
224.970	2350
225.036	2505
225.102	1682
225.168	2619
225.234	2239
225.300	2516
225.366	2194
225.432	3184
225.499	2102
225.565	2288
225.631	3395
225.697	3899
225.763	5228
225.829	6694
225.895	5652
225.961	7535
226.027	7026
226.093	6723
226.159	9427
226.225	16286
226.291	32642
226.357	49455
226.423	27961
226.489	14989
226.554	10390
226.620	10311
226.686	10390
226.752	17134
226.818	32613
226.884	61771
226.950	57086
227.016	26588
227.082	15423
227.148	10737
227.214	7420
227.279	5893
227.345	4581
227.411	4647
227.477	4890
227.543	9401
227.609	7458
227.674	6028
227.740	3527
227.806	5196
227.872	4193
227.938	4105
228.003	3797
228.069	4062
228.135	3375
228.201	3548
228.267	3250
228.332	3529
228.398	2102
228.464	3265
228.530	2044
228.595	2929
228.661	2378
228.727	2252
228.792	3152
228.858	2563
228.924	2159
228.990	5594
229.055	3065
229.121	5426
229.187	2050
229.252	1934
229.318	1527
229.384	2192
229.449	2137
229.515	635
229.581	664
229.646	2639
229.712	1354
229.777	2482
229.843	2132
229.909	2879
229.974	3105
230.040	3671
230.105	3883
230.171	3858
230.236	6849
230.302	11477
230.368	6143
230.433	4386
230.499	4254
230.564	3685
230.630	2674
230.695	3927
230.761	4303
230.826	2568
230.892	3167
230.957	2922
231.023	2424
231.088	2172
231.154	3033
231.219	2910
231.284	2673
231.350	4005
231.415	1817
231.481	4031
231.546	2592
231.612	2767
231.677	1100
231.742	1950
231.808	3217
231.873	2471
231.939	801
232.004	2340
232.069	2916
232.135	2967
232.200	2628
232.265	2796
232.331	1650
232.396	2465
232.461	1426
232.527	2539
232.592	1447
232.657	1762
232.723	1333
232.788	2222
232.853	2187
232.918	2786
232.984	1627
233.049	1372
233.114	1373
233.179	2602
233.245	2826
233.310	3085
233.375	1095
233.440	2037
233.506	1151
233.571	2226
233.636	2468
233.701	1834
233.766	2131
233.832	2329
233.897	1008
233.962	277
234.027	2498
234.092	2076
234.157	746
234.222	1893
234.288	2133
234.353	4641
234.418	4305
234.483	3981
234.548	3565
234.613	3579
234.678	3146
234.743	2348
234.808	5269
234.873	3307
234.938	4134
235.004	2871
235.069	3279
235.134	2237
235.199	4047
235.264	2595
235.329	1686
235.394	3834
235.459	3453
235.524	2532
235.589	3103
235.654	2925
235.719	2175
235.784	4037
235.849	3120
235.913	4726
235.978	3946
236.043	3864
236.108	2981
236.173	2915
236.238	5440
236.303	3455
236.368	3722
236.433	5104
236.498	6604
236.563	10275
236.627	24648
236.692	78068
236.757	72805
236.822	29019
236.887	16476
236.952	15082
237.017	12041
237.081	12982
237.146	16191
237.211	39920
237.276	79929
237.341	118341
237.405	62381
237.470	25720
237.535	15541
237.600	12333
237.664	8750
237.729	7066
237.794	9513
237.859	21928
237.923	12637
237.988	6665
238.053	5942
238.118	5696
238.182	8236
238.247	9465
238.312	3720
238.376	4579
238.441	2610
238.506	4222
238.570	2667
238.635	3723
238.700	3451
238.764	3120
238.829	3897
238.893	3659
238.958	3564
239.023	3780
239.087	3028
239.152	3811
239.216	2134
239.281	4008
239.346	2503
239.410	2964
239.475	2440
239.539	6339
239.604	5367
239.668	3371
239.733	2066
239.797	5269
239.862	11587
239.926	8428
239.991	4082
240.055	3469
240.120	2691
240.184	3241
240.249	1094
240.313	1522
240.378	1668
240.442	3875
240.507	4927
240.571	2195
240.635	2094
240.700	3012
240.764	1600
240.829	1870
240.893	490
240.957	2792
241.022	2859
241.086	4743
241.151	1765
241.215	1684
241.279	2634
241.344	2908
241.408	3737
241.472	3260
241.537	4343
241.601	2979
241.665	2091
241.730	3653
241.794	4339
241.858	3663
241.922	3185
241.987	3441
242.051	2821
242.115	2317
242.179	3391
242.244	3228
242.308	3870
242.372	2860
242.436	2299
242.501	3959
242.565	2301
242.629	2877
242.693	3643
242.757	3095
242.822	2893
242.886	3766
242.950	3783
243.014	3414
243.078	3023
243.142	3956
243.206	3764
243.271	4894
243.335	5650
243.399	12828
243.463	49070
243.527	130120
243.591	43806
243.655	14503
243.719	7929
243.783	8533
243.847	12399
243.911	17913
243.975	7401
244.040	4046
244.104	4462
244.168	3744
244.232	3870
244.296	7361
244.360	13848
244.424	4741
244.488	3993
244.552	3885
244.615	1472
244.679	3171
244.743	1920
244.807	1890
244.871	2878
244.935	3162
244.999	744
245.063	1417
245.127	4105
245.191	10629
245.255	10108
245.319	3214
245.383	2072
245.446	4383
245.510	2901
245.574	2149
245.638	1942
245.702	1837
245.766	3008
245.829	2675
245.893	924
245.957	2583
246.021	4011
246.085	2604
246.149	2149
246.212	4072
246.276	6493
246.340	2644
246.404	1986
246.467	4029
246.531	1759
246.595	4325
246.659	4069
246.722	1945
246.786	2523
246.850	2615
246.913	2741
246.977	1369
247.041	2319
247.104	2194
247.168	2557
247.232	3869
247.295	8607
247.359	4167
247.423	2432
247.486	2956
247.550	3902
247.614	2369
247.677	2339
247.741	2101
247.804	1130
247.868	3120
247.932	3427
247.995	9531
248.059	2864
248.122	1974
248.186	3402
248.249	4742
248.313	15820
248.376	15990
248.440	8534
248.503	4211
248.567	4772
248.630	2742
248.694	4637
248.757	8612
248.821	19753
248.884	11989
248.948	8241
249.011	13029
249.075	21547
249.138	18669
249.202	7401
249.265	5715
249.328	6680
249.392	5785
249.455	6350
249.519	5739
249.582	4925
249.645	7086
249.709	6782
249.772	7238
249.835	6632
249.899	6503
249.962	6370
250.025	5984
250.089	9064
250.152	10300
250.215	7499
250.279	7056
250.342	7669
250.405	8712
250.468	8914
250.532	11654
250.595	25314
250.658	106036
250.721	185721
250.785	60254
250.848	27975
250.911	17161
250.974	15066
251.038	14854
251.101	18613
251.164	13757
251.227	13918
251.290	18017
251.354	36202
251.417	149398
251.480	162473
251.543	112860
251.606	271801
251.669	223358
251.732	82323
251.795	51693
251.859	60602
251.922	171003
251.985	106356
252.048	36346
252.111	22893
252.174	17362
252.237	20473
252.300	37914
252.363	72246
252.426	201343
252.489	84468
252.552	31723
252.615	20710
252.678	20468
252.741	34171
252.804	80686
252.867	216260
252.930	98190
252.993	33439
253.056	20339
253.119	15401
253.182	15804
253.245	37830
253.308	24896
253.371	9927
253.434	7604
253.497	7162
253.559	9054
253.622	7359
253.685	5825
253.748	5130
253.811	4936
253.874	5298
253.937	4287
254.000	4195
254.062	5864
254.125	7646
254.188	5876
254.251	3756
254.314	3885
254.376	3819
254.439	5329
254.502	3595
254.565	5525
254.628	8607
254.690	4281
254.753	1901
254.816	3060
254.878	3022
254.941	5487
255.004	5215
255.067	3409
255.129	2128
255.192	3147
255.255	1969
255.317	2511
255.380	2269
255.443	2852
255.505	1333
255.568	2151
255.631	1798
255.693	2111
255.756	1251
255.819	3323
255.881	1628
255.944	2526
256.006	2204
256.069	2378
256.132	1660
256.194	3373
256.257	3831
256.319	4006
256.382	4075
256.444	4717
256.507	5133
256.569	3634
256.632	5516
256.694	9645
256.757	38286
256.819	126091
256.882	56670
256.944	19118
257.007	11956
257.069	9782
257.132	6304
257.194	6509
257.257	5239
257.319	6125
257.381	10449
257.444	30052
257.506	135690
257.569	152855
257.631	47539
257.693	22240
257.756	13792
257.818	9952
257.880	7151
257.943	6235
258.005	4025
258.067	3332
258.130	3868
258.192	3955
258.254	3043
258.317	3704
258.379	3505
258.441	5320
258.503	4442
258.566	5481
258.628	6657
258.690	3125
258.753	4330
258.815	4651
258.877	2721
258.939	3050
259.001	3581
259.064	3444
259.126	3375
259.188	3547
259.250	3703
259.312	4087
259.375	6019
259.437	4011
259.499	3523
259.561	2916
259.623	3263
259.685	2454
259.747	3198
259.809	5921
259.872	7822
259.934	14160
259.996	11555
260.058	3893
260.120	1623
260.182	3348
260.244	2510
260.306	2616
260.368	3126
260.430	1443
260.492	2451
260.554	4680
260.616	3677
260.678	4768
260.740	6350
260.802	2424
260.864	3296
260.926	969
260.988	2668
261.050	2407
261.112	2388
261.174	7014
261.236	6328
261.298	3518
261.359	3812
261.421	5917
261.483	2519
261.545	3067
261.607	271
261.669	3017
261.731	2828
261.793	4181
261.854	1103
261.916	2780
261.978	1014
262.040	2581
262.102	2370
262.164	2323
262.225	2932
262.287	2573
262.349	1352
262.411	2027
262.472	2101
262.534	2812
262.596	3181
262.658	3074
262.719	1658
262.781	3437
262.843	4041
262.904	3839
262.966	4528
263.028	9574
263.090	48095
263.151	151470
263.213	43818
263.275	12692
263.336	7575
263.398	6766
263.459	3000
263.521	3747
263.583	2885
263.644	2637
263.706	1743
263.767	1333
263.829	1918
263.891	1758
263.952	388
264.014	961
264.075	1594
264.137	1862
264.198	1483
264.260	925
264.321	965
264.383	1287
264.444	2542
264.506	1652
264.567	1260
264.629	2531
264.690	127
264.752	1948
264.813	2128
264.875	1640
264.936	2755
264.998	2505
265.059	2016
265.120	3980
265.182	9579
265.243	59913
265.305	69827
265.366	16157
265.427	7530
265.489	6538
265.550	3568
265.611	4109
265.673	1487
265.734	2248
265.795	3203
265.857	3075
265.918	5801
265.979	17381
266.040	101127
266.102	95608
266.163	21857
266.224	10631
266.286	7409
266.347	4187
266.408	3860
266.469	3797
266.530	2306
266.592	2941
266.653	2179
266.714	1912
266.775	985
266.836	893
266.898	1323
266.959	1411
267.020	1417
267.081	3538
267.142	2094
267.203	2046
267.264	571
267.326	2958
267.387	2202
267.448	653
267.509	2068
267.570	2038
267.631	1215
267.692	102
267.753	2133
267.814	344
267.875	2041
267.936	2951
267.997	3320
268.058	3730
268.119	2572
268.180	1992
268.241	1151
268.302	1488
268.363	1112
268.424	459
268.485	1619
268.546	1467
268.607	1315
268.668	1384
268.729	884
268.790	1282
268.851	1610
268.912	2082
268.972	1296
269.033	470
269.094	1025
269.155	1485
269.216	1655
269.277	928
269.338	1392
269.398	1409
269.459	857
269.520	2052
269.581	1565
269.642	2146
269.702	1554
269.763	1678
269.824	1295
269.885	1687
269.945	1438
270.006	1583
270.067	869
270.128	1335
270.188	212
270.249	1004
270.310	-50
270.370	1820
270.431	1213
270.492	1113
270.553	669
270.613	1593
270.674	1583
270.734	1424
270.795	1041
270.856	2222
270.916	-36
270.977	1043
271.038	1764
271.098	1051
271.159	657
271.219	1625
271.280	1398
271.340	904
271.401	776
271.462	1801
271.522	1441
271.583	1129
271.643	803
271.704	1508
271.764	943
271.825	2013
271.885	10429
271.946	19704
272.006	4420
272.066	6917
272.127	14094
272.187	4827
272.248	2604
272.308	2624
272.369	5932
272.429	3909
272.489	1706
272.550	1853
272.610	2047
272.671	1427
272.731	1419
272.791	2009
272.852	517
272.912	2165
272.972	146
273.033	1963
273.093	1280
273.153	1684
273.214	689
273.274	1201
273.334	2691
273.394	6210
273.455	1506
273.515	2185
273.575	3209
273.635	2256
273.696	3323
273.756	8347
273.816	2774
273.876	2319
273.936	2956
273.997	5833
274.057	542
274.117	1086
274.177	1352
274.237	8904
274.297	8493
274.358	4764
274.418	3923
274.478	3006
274.538	1196
274.598	671
274.658	4137
274.718	5331
274.778	2083
274.838	1694
274.898	1887
274.958	7742
275.018	9068
275.078	6496
275.138	1674
275.198	798
275.258	855
275.318	1037
275.378	1135
275.438	1414
275.498	1207
275.558	3712
275.618	7327
275.678	3636
275.738	2117
275.798	1095
275.858	906
275.918	1098
275.978	1337
276.038	1345
276.098	1030
276.157	859
276.217	2932
276.277	1909
276.337	804
276.397	519
276.457	1496
276.517	1176
276.576	391
276.636	1029
276.696	505
276.756	2123
276.815	730
276.875	1287
276.935	1469
276.995	1469
277.055	921
277.114	1388
277.174	1914
277.234	2617
277.293	1500
277.353	687
277.413	222
277.472	1004
277.532	855
277.592	957
277.651	1211
277.711	2043
277.771	747
277.830	3508
277.890	2712
277.950	2039
278.009	8605
278.069	4368
278.128	2621
278.188	3002
278.248	1808
278.307	2543
278.367	2478
278.426	1499
278.486	657
278.545	1584
278.605	592
278.664	947
278.724	1151
278.783	3734
278.843	7762
278.902	2967
278.962	1371
279.021	1800
279.081	1942
279.140	2661
279.199	2065
279.259	3196
279.318	3279
279.378	4624
279.437	7544
279.496	26127
279.556	85458
279.615	72608
279.675	14468
279.734	7375
279.793	9416
279.853	17974
279.912	6891
279.971	3690
280.031	3039
280.090	6142
280.149	11315
280.208	9000
280.268	43521
280.327	53050
280.386	9681
280.445	5404
280.505	3343
280.564	2538
280.623	1912
280.682	2383
280.742	2200
280.801	1812
280.860	1556
280.919	1958
280.978	61
281.037	1579
281.097	750
281.156	1478
281.215	100
281.274	1000
281.333	3679
281.392	2519
281.451	1061
281.510	1513
281.569	815
281.628	1573
281.688	1699
281.747	1893
281.806	1207
281.865	1123
281.924	346
281.983	1714
282.042	-110
282.101	1396
282.160	1313
282.219	1134
282.278	-131
282.337	1299
282.396	1612
282.454	1147
282.513	721
282.572	1824
282.631	1181
282.690	957
282.749	427
282.808	484
282.867	716
282.926	328
282.985	1094
283.043	354
283.102	654
283.161	814
283.220	1191
283.279	2677
283.338	717
283.396	588
283.455	493
283.514	1298
283.573	1599
283.631	1054
283.690	1068
283.749	1098
283.808	734
283.866	1604
283.925	806
283.984	1572
284.043	627
284.101	1397
284.160	845
284.219	1761
284.277	1698
284.336	1482
284.395	2726
284.453	3370
284.512	565
284.570	1507
284.629	873
284.688	729
284.746	992
284.805	1345
284.863	1493
284.922	2433
284.981	2596
285.039	3425
285.098	6236
285.156	18256
285.215	88090
285.273	100532
285.332	39031
285.390	16429
285.449	8697
285.507	6178
285.566	4199
285.624	3325
285.683	2451
285.741	1698
285.799	1633
285.858	1795
285.916	801
285.975	1540
286.033	1249
286.091	1064
286.150	1210
286.208	1839
286.267	1107
286.325	1632
286.383	1651
286.442	1368
286.500	1057
286.558	1252
286.616	1589
286.675	2203
286.733	1743
286.791	1193
286.850	1926
286.908	1854
286.966	2355
287.024	2005
287.083	2460
287.141	1962
287.199	2713
287.257	2733
287.315	2546
287.374	3145
287.432	3792
287.490	4376
287.548	3157
287.606	3514
287.664	4406
287.723	4755
287.781	4929
287.839	6133
287.897	8475
287.955	13870
288.013	26839
288.071	65716
288.129	222313
288.187	557879
288.245	301784
288.303	100349
288.361	54388
288.419	36625
288.477	25386
288.535	18933
288.593	13110
288.651	9690
288.709	7257
288.767	6132
288.825	4310
288.883	5174
288.941	3340
288.999	3406
289.057	2525
289.115	3231
289.173	2422
289.231	2715
289.289	1778
289.346	2419
289.404	2475
289.462	2368
289.520	1742
289.578	2264
289.636	1733
289.694	1605
289.751	1887
289.809	2083
289.867	1839
289.925	2656
289.983	2264
290.040	2178
290.098	1298
290.156	1493
290.214	1726
290.271	298
290.329	1551
290.387	1761
290.444	836
290.502	1094
290.560	1115
290.617	761
290.675	738
290.733	994
290.790	1067
290.848	1909
290.906	555
290.963	741
291.021	367
291.078	788
291.136	728
291.194	1033
291.251	2077
291.309	1047
291.366	404
291.424	1069
291.481	312
291.539	638
291.596	1028
291.654	1137
291.711	994
291.769	385
291.826	944
291.884	1079
291.941	102
291.999	679
292.056	270
292.114	879
292.171	911
292.228	946
292.286	522
292.343	1287
292.401	1181
292.458	306
292.515	461
292.573	1681
292.630	837
292.687	704
292.745	871
292.802	1612
292.859	1053
292.917	2413
292.974	1172
293.031	757
293.089	1185
293.146	-507
293.203	381
293.260	561
293.318	1269
293.375	1195
293.432	808
293.489	1196
293.546	433
293.604	1410
293.661	2643
293.718	8252
293.775	2732
293.832	1658
293.889	863
293.947	2085
294.004	1230
294.061	873
294.118	115
294.175	1596
294.232	548
294.289	1150
294.346	1374
294.403	2819
294.460	1416
294.517	346
294.574	346
294.631	1148
294.688	771
294.745	2013
294.802	7214
294.859	5452
294.916	2031
294.973	1319
295.030	712
295.087	1645
295.144	691
295.201	1333
295.258	364
295.315	1004
295.372	2720
295.429	5650
295.486	2661
295.542	745
295.599	1290
295.656	1783
295.713	1996
295.770	4004
295.827	1693
295.883	772
295.940	485
295.997	1169
296.054	994
296.111	815
296.167	810
296.224	305
296.281	-108
296.338	450
296.394	116
296.451	431
296.508	1655
296.564	3225
296.621	3339
296.678	9292
296.734	14705
296.791	4025
296.848	2568
296.904	2256
296.961	2729
297.018	6170
297.074	5742
297.131	3084
297.187	1781
297.244	3226
297.301	6728
297.357	14792
297.414	5239
297.470	2313
297.527	1255
297.583	1556
297.640	787
297.696	979
297.753	689
297.809	1149
297.866	168
297.922	599
297.979	702
298.035	986
298.092	874
298.148	2539
298.204	2626
298.261	1844
298.317	3476
298.374	11671
298.430	6569
298.486	2554
298.543	2208
298.599	3059
298.656	4795
298.712	11975
298.768	50905
298.824	52913
298.881	14070
298.937	6452
298.993	3939
299.050	4284
299.106	3191
299.162	2836
299.218	2537
299.275	2446
299.331	2251
299.387	3283
299.443	10396
299.500	14880
299.556	7597
299.612	3009
299.668	2439
299.724	5172
299.780	7477
299.837	2696
299.893	2583
299.949	5681
300.005	8702
300.061	7666
300.117	17211
300.173	8365
300.229	2854
300.285	1812
300.341	1843
300.397	1637
300.453	895
300.510	1443
300.566	1839
300.622	4264
300.678	13430
300.734	18241
300.790	8960
300.845	9605
300.901	7165
300.957	9773
301.013	4912
301.069	1965
301.125	1617
301.181	1064
301.237	-22
301.293	191
301.349	784
301.405	243
301.461	-264
301.516	353
301.572	684
301.628	997
301.684	131
301.740	1878
301.796	1482
301.851	1419
301.907	3057
301.963	4238
302.019	11034
302.074	37453
302.130	37622
302.186	15167
302.242	5895
302.297	3756
302.353	3490
302.409	3500
302.464	3159
302.520	2974
302.576	4636
302.631	7047
302.687	3093
302.743	1185
302.798	1237
302.854	1241
302.910	1420
302.965	1972
303.021	1463
303.076	2390
303.132	1541
303.187	2946
303.243	1561
303.299	2906
303.354	1480
303.410	2189
303.465	2130
303.521	1954
303.576	1253
303.632	1815
303.687	2651
303.743	8472
303.798	7604
303.853	3532
303.909	1609
303.964	2005
304.020	1684
304.075	2696
304.130	2515
304.186	2559
304.241	3956
304.297	2960
304.352	2735
304.358	2629
304.407	1765
304.449	1707
304.463	1691
304.518	1271
304.539	1399
304.573	1583
304.629	2141
304.630	2137
304.684	2145
304.720	5169
304.739	6657
304.794	12206
304.811	10550
304.850	6566
304.902	2670
304.905	2435
304.960	4035
304.992	5668
305.015	6678
305.071	6311
305.083	5435
305.126	2354
305.173	1974
305.181	1928
305.236	1430
305.264	1526
305.292	1599
305.347	1940
305.354	2016
305.402	2864
305.445	4788
305.457	5227
305.512	7426
305.535	6237
305.567	4616
305.622	4190
305.626	4314
305.678	7798
305.716	15955
305.733	18586
305.788	15098
305.807	12500
305.843	8752
305.897	10708
305.898	10718
305.953	11522
305.988	8432
306.008	6836
306.063	4174
306.078	3894
306.118	3308
306.168	2480
306.173	2407
306.228	1976
306.259	2098
306.283	2314
306.338	2779
306.349	2981
306.393	4245
306.440	7444
306.448	7799
306.503	6495
306.530	5360
306.558	5074
306.613	8633
306.620	8849
306.668	8920
306.711	7198
306.723	6656
306.778	5340
306.801	4511
306.833	3741
306.888	3111
306.892	3114
306.943	3315
306.982	2731
306.997	2525
307.052	2535
307.072	2670
307.107	2959
307.162	3349
307.163	3344
307.217	2995
307.253	3653
307.272	3957
307.327	3791
307.343	3741
307.381	3605
307.434	3569
307.436	3601
307.491	5050
307.524	5404
307.546	5522
307.600	7318
307.614	7276
307.655	6866
307.704	6882
307.710	6950
307.765	7699
307.795	8066
307.819	8815
307.874	11195
307.885	11825
307.929	15391
307.975	20601
307.984	22916
308.038	42782
308.065	56808
308.093	100114
308.148	208800
308.156	232239
308.202	346645
308.246	426851
308.257	416681
308.312	232457
308.336	153735
308.366	103811
308.421	52866
308.426	49521
308.475	35782
308.517	27926
308.530	26187
308.585	21621
308.607	19978
308.639	18067
308.694	15204
308.697	15143
308.748	15410
308.787	15781
308.803	15893
308.857	16552
308.877	17117
308.912	19371
308.967	23681
308.967	23761
309.021	36097
309.058	46555
309.076	61253
309.130	114905
309.148	136763
309.185	259996
309.238	475243
309.239	476716
309.293	513395
309.328	475376
309.348	414539
309.402	205460
309.418	153695
309.457	103519
309.508	57711
309.511	56176
309.566	40290
309.598	32668
309.620	29554
309.674	23068
309.688	21739
309.729	18675
309.778	15315
309.783	15018
309.837	12320
309.868	11318
309.892	10959
309.946	10127
309.959	10247
310.001	10835
310.049	11069
310.055	10777
310.109	7851
310.139	6211
310.163	5640
310.218	4844
310.229	4666
310.272	4681
310.319	4956
310.326	4874
310.381	4213
310.409	3996
310.435	3970
310.489	3751
310.499	3741
310.543	3709
310.589	3479
310.598	3491
310.652	3766
310.679	3852
310.706	3514
310.760	2871
310.769	2795
310.814	2961
310.859	3003
310.868	3025
310.923	3036
310.948	3140
310.977	3174
311.031	2997
311.038	3019
311.085	2827
311.128	2240
311.139	2239
311.193	2688
311.218	2785
311.247	2623
311.301	2359
311.308	2314
311.356	2383
311.398	2539
311.410	2580
311.464	2717
311.488	2751
311.518	2742
311.572	2821
311.578	2823
311.626	2876
311.668	2865
311.680	2907
311.734	3113
311.758	3185
311.788	2855
311.842	2294
311.847	2229
311.896	2491
311.937	2750
311.950	2748
312.004	2702
312.027	2693
312.058	2591
312.112	2393
312.117	2372
312.165	2545
312.207	2694
312.297	2130
312.386	2816
312.476	2382
312.566	2709
312.656	2159
312.745	2826
312.835	3082
312.925	2898
313.015	3338
313.104	3520
313.194	2171
313.284	2526
313.374	2695
313.463	3083
313.553	3010
313.643	2886
313.732	2986
313.822	1864
313.912	3155
314.001	3199
314.091	3072
314.180	2672
314.270	2934
314.360	3328
314.449	2927
314.539	2303
314.628	2790
314.718	3220
314.808	2586
314.897	2681
314.987	3321
315.076	2132
315.166	2928
315.255	3400
315.345	3346
315.434	3956
315.524	3057
315.613	4209
315.703	4934
315.792	16334
315.881	67154
315.971	21661
316.060	6483
316.150	4179
316.239	3496
316.328	2950
316.418	3152
316.507	2883
316.597	3275
316.686	3343
316.775	2490
316.865	3087
316.954	2956
317.043	2214
317.133	2404
317.222	2847
317.311	2927
317.400	1968
317.490	4318
317.579	4559
317.668	5515
317.757	10403
317.847	32324
317.936	121449
318.025	32484
318.114	19715
318.203	8794
318.293	3525
318.382	3642
318.471	3371
318.560	2892
318.649	3961
318.738	2358
318.828	1968
318.917	1946
319.006	1930
319.095	2398
319.184	4295
319.273	3776
319.362	2354
319.451	1992
319.540	1838
319.629	2374
319.718	2809
319.807	1648
319.896	3106
319.985	5378
320.074	3185
320.163	2064
320.252	1457
320.341	1304
320.430	1317
320.519	1968
320.608	1671
320.697	2166
320.786	1696
320.875	2884
320.964	2854
321.053	3399
321.142	3985
321.230	4007
321.319	3448
321.408	5554
321.497	3170
321.586	3445
321.675	3379
321.764	3567
321.852	3072
321.941	3362
322.030	2869
322.119	2755
322.207	5381
322.296	4370
322.385	3653
322.474	4778
322.562	7095
322.651	4450
322.740	4422
322.829	4536
322.917	3408
323.006	2348
323.095	2779
323.183	2308
323.272	2457
323.361	3212
323.449	5361
323.538	2696
323.626	3929
323.715	2866
323.804	1177
323.892	3408
323.981	2694
324.069	2884
324.158	3785
324.246	2444
324.335	2076
324.424	2308
324.512	1701
324.601	2498
324.689	2682
324.778	4392
324.866	2632
324.954	1651
325.043	1161
325.131	1399
325.220	3103
325.308	2008
325.397	2385
325.485	2644
325.574	1437
325.662	1654
325.750	1275
325.839	2132
325.927	2068
326.015	1622
326.104	1931
326.192	2217
326.280	2132
326.369	1408
326.457	1635
326.545	2075
326.634	1466
326.722	2040
326.810	1224
326.898	1362
326.987	1947
327.075	1878
327.163	2272
327.251	1984
327.340	2528
327.428	3676
327.516	2381
327.604	2122
327.692	2401
327.781	1798
327.869	1642
327.957	1258
328.045	1175
328.133	2472
328.221	1120
328.309	1258
328.397	2390
328.485	2114
328.574	2748
328.662	4524
328.750	2263
328.838	1573
328.926	2099
329.014	1735
329.102	1398
329.190	3248
329.278	2440
329.366	1637
329.454	1471
329.542	2227
329.630	3017
329.718	3652
329.806	3646
329.893	5636
329.981	8981
330.069	26585
330.157	99194
330.245	250806
330.333	128302
330.421	22725
330.509	8428
330.597	6835
330.684	4857
330.772	3324
330.860	2291
330.948	2513
331.036	2533
331.123	1000
331.211	2315
331.299	1310
331.387	1483
331.475	2246
331.562	1428
331.650	2476
331.738	1449
331.825	1180
331.913	1761
332.001	1200
332.089	2204
332.176	1374
332.264	1739
332.352	662
332.439	656
332.527	1582
332.614	498
332.702	977
332.790	1000
332.877	1643
332.965	2427
333.052	1724
333.140	1408
333.228	1136
333.315	1299
333.403	364
333.490	1844
333.578	1064
333.665	1667
333.753	2483
333.840	1471
333.928	1512
334.015	2530
334.103	2754
334.190	5071
334.278	3807
334.365	3850
334.452	4194
334.540	2956
334.627	2296
334.715	4260
334.802	5124
334.889	9328
334.977	11831
335.064	6319
335.151	3698
335.239	2401
335.326	1763
335.413	3372
335.501	3874
335.588	2169
335.675	2372
335.762	3631
335.850	4150
335.937	5907
336.024	9350
336.111	15697
336.199	12480
336.286	5804
336.373	3930
336.460	2437
336.547	2591
336.635	1870
336.722	2125
336.809	1604
336.896	1540
336.983	2377
337.070	3617
337.157	4484
337.245	2735
337.332	2594
337.419	1502
337.506	998
337.593	1689
337.680	1987
337.767	3118
337.854	1145
337.941	1240
338.028	2215
338.115	1920
338.202	1482
338.289	832
338.376	2785
338.463	2316
338.550	1984
338.637	1521
338.724	1407
338.811	2567
338.898	1908
338.984	582
339.071	298
339.158	105
339.245	1761
339.332	1287
339.419	1257
339.506	1500
339.593	453
339.679	1105
339.766	734
339.853	652
339.940	753
340.027	1122
340.113	1342
340.200	1378
340.287	947
340.374	1043
340.460	1300
340.547	707
340.634	1221
340.720	3956
340.807	2133
340.894	1536
340.980	469
341.067	962
341.154	1017
341.240	730
341.327	1458
341.414	1706
341.500	708
341.587	1619
341.674	1070
341.760	2104
341.847	806
341.933	1219
342.020	690
342.106	898
342.193	347
342.279	1332
342.366	464
342.452	1989
342.539	1084
342.625	1451
342.712	3306
342.798	1784
342.885	885
342.971	1042
343.058	787
343.144	392
343.230	862
343.317	1160
343.403	660
343.490	896
343.576	652
343.662	259
343.749	245
343.835	1532
343.921	3068
344.008	16443
344.094	34452
344.180	6143
344.267	2272
344.353	4505
344.439	4082
344.525	2286
344.612	2595
344.698	1817
344.784	924
344.870	1119
344.957	325
345.043	1922
345.129	1208
345.215	1752
345.301	554
345.387	1081
345.474	1086
345.560	212
345.646	275
345.732	1021
345.818	519
345.904	1393
345.990	1192
346.076	714
346.162	719
346.249	1332
346.335	297
346.421	3219
346.507	3506
346.593	7754
346.679	1408
346.765	1913
346.851	1696
346.937	149
347.023	1799
347.108	1156
347.194	176
347.280	1502
347.366	1846
347.452	3615
347.538	11540
347.624	7540
347.710	3567
347.796	951
347.882	1007
347.967	1312
348.053	670
348.139	441
348.225	587
348.311	905
348.397	274
348.482	1692
348.568	1005
348.654	848
348.740	3392
348.825	2620
348.911	3210
348.997	5443
349.083	10543
349.168	1288
349.254	1194
349.340	868
349.425	128
349.511	919
349.597	608
349.682	1290
349.768	3765
349.854	2434
349.939	901
350.025	735
350.110	993
350.196	784
350.282	131
350.367	2150
350.453	722
350.538	-91
350.624	1474
350.709	1526
350.795	252
350.880	454
350.966	2319
351.051	287
351.137	361
351.222	236
351.308	1154
351.393	2710
351.479	966
351.564	495
351.649	1234
351.735	915
351.820	699
351.906	1699
351.991	941
352.076	2202
352.162	2866
352.247	1220
352.332	938
352.418	727
352.503	1160
352.588	4259
352.673	3095
352.759	1201
352.844	815
352.929	1288
353.014	975
353.100	2734
353.185	2111
353.270	1622
353.355	2152
353.441	1218
353.526	1320
353.611	1134
353.696	1038
353.781	1560
353.866	74
353.952	2198
354.037	695
354.122	2676
354.207	1740
354.292	1714
354.377	726
354.462	246
354.547	758
354.632	1554
354.717	2386
354.802	1302
354.887	1878
354.972	1344
355.057	989
355.142	370
355.227	664
355.312	1292
355.397	1232
355.482	3117
355.567	1998
355.652	2053
355.737	2038
355.822	4641
355.907	3375
355.991	2341
356.076	248
356.161	1630
356.246	648
356.331	1665
356.416	1592
356.501	14045
356.585	11426
356.670	761
356.755	2204
356.840	2101
356.924	10165
357.009	38385
357.094	12852
357.179	1386
357.263	1522
357.348	2136
357.433	1812
357.517	1642
357.602	631
357.687	702
357.771	1286
357.856	1568
357.941	2487
358.025	11652
358.110	59519
358.195	23650
358.279	2682
358.364	1320
358.448	3245
358.533	8096
358.617	5151
358.702	6482
358.787	2330
358.871	1476
358.956	1035
359.040	1046
359.125	277
359.209	1555
359.294	160
359.378	1725
359.462	1333
359.547	695
359.631	1300
359.716	244
359.800	1231
359.885	2185
359.969	395
360.053	1030
360.138	1062
360.222	508
360.306	1141
360.391	1391
360.475	763
360.559	2466
360.644	3464
360.728	2234
360.812	8273
360.896	19293
360.981	5751
361.065	1907
361.149	1956
361.233	1087
361.318	694
361.402	200
361.486	1585
361.570	486
361.654	1622
361.739	2056
361.823	12531
361.907	22020
361.991	3905
362.075	1986
362.159	3303
362.243	5396
362.327	8649
362.411	14572
362.495	5357
362.580	2914
362.664	2481
362.748	2894
362.832	4181
362.916	8745
363.000	28891
363.084	47471
363.168	34943
363.252	7463
363.336	3346
363.420	3287
363.503	3508
363.587	3506
363.671	2705
363.755	1887
363.839	3813
363.923	1472
364.007	2925
364.091	4210
364.175	4573
364.258	15896
364.342	31987
364.426	64096
364.510	29659
364.594	10500
364.677	6585
364.761	17319
364.845	12337
364.929	2959
365.013	2090
365.096	2383
365.180	1289
365.264	1463
365.347	5289
365.431	1901
365.515	790
365.598	502
365.682	2019
365.766	-202
365.849	760
365.933	570
366.017	2547
366.100	442
366.184	871
366.267	1736
366.351	769
366.435	554
366.518	-125
366.602	1385
366.685	1455
366.769	1101
366.852	1281
366.936	761
367.019	876
367.103	132
367.186	2200
367.270	1119
367.353	-107
367.436	1298
367.520	624
367.603	1243
367.687	-114
367.770	1018
367.853	1591
367.937	4573
368.020	5341
368.104	1396
368.187	1747
368.270	2148
368.353	1231
368.437	1011
368.520	2381
368.603	1915
368.687	2322
368.770	5675
368.853	1235
368.936	856
369.020	1393
369.103	10
369.186	571
369.269	1001
369.352	1123
369.436	1101
369.519	898
369.602	-587
369.685	1898
369.768	260
369.851	1037
369.934	516
370.018	556
370.101	448
370.184	2953
370.267	1073
370.350	909
370.433	2205
370.516	10315
370.599	26541
370.682	9806
370.765	4801
370.848	4758
370.931	7492
371.014	4177
371.097	277
371.180	1813
371.263	1549
371.346	-725
371.429	1453
371.511	197
371.594	585
371.677	1434
371.760	2277
371.843	2486
371.926	19974
372.009	48515
372.091	12288
372.174	3889
372.257	9175
372.340	2628
372.423	1457
372.505	2427
372.588	741
372.671	2733
372.754	6979
372.836	4012
372.919	1690
373.002	2251
373.085	425
373.167	2590
373.250	3625
373.332	8922
373.415	24501
373.498	59191
373.580	22415
373.663	52263
373.746	60189
373.828	9584
373.911	3273
373.993	2351
374.076	2481
374.159	2262
374.241	2909
374.324	5846
374.406	4722
374.489	11752
374.571	32741
374.654	10191
374.736	5278
374.819	17056
374.901	32176
374.983	34280
375.066	5697
375.148	2133
375.231	3018
375.313	3152
375.395	978
375.478	810
375.560	2097
375.643	651
375.725	5097
375.807	23334
375.890	15384
375.972	2861
376.054	2125
376.136	1607
376.219	2049
376.301	6267
376.383	15406
376.465	5345
376.548	2603
376.630	3167
376.712	11782
376.794	5018
376.877	1438
376.959	525
377.041	967
377.123	985
377.205	844
377.287	-246
377.369	1116
377.452	-21
377.534	1016
377.616	331
377.698	-124
377.780	-184
377.862	1252
377.944	1005
378.026	653
378.108	1054
378.190	800
378.272	1538
378.354	577
378.436	225
378.518	530
378.600	609
378.682	1626
378.764	3405
378.846	3922
378.928	1595
379.010	620
379.091	1025
379.173	540
379.255	-187
379.337	733
379.419	1357
379.501	6852
379.583	2382
379.664	26
379.746	551
379.828	4682
379.910	4168
379.991	5470
380.073	409
380.155	1004
380.237	679
380.318	1501
380.400	770
380.482	1860
380.564	795
380.645	788
380.727	1181
380.809	1152
380.890	325
380.972	-232
381.053	331
381.135	1761
381.217	1337
381.298	4110
381.380	1135
381.461	3050
381.543	12057
381.624	14551
381.706	2748
381.787	740
381.869	2015
381.951	8519
382.032	38741
382.113	23363
382.195	1820
382.276	2682
382.358	3252
382.439	10317
382.521	16267
382.602	28524
382.684	10257
382.765	11892
382.846	8871
382.928	8429
383.009	3795
383.090	4530
383.172	11522
383.253	17810
383.334	8763
383.416	16417
383.497	9052
383.578	2406
383.659	3290
383.741	11898
383.822	29097
383.903	13153
383.984	7247
384.066	17318
384.147	9025
384.228	3302
384.309	1501
384.390	1435
384.471	1650
384.553	2000
384.634	1437
384.715	2593
384.796	695
384.877	1334
384.958	4281
385.039	4146
385.120	2035
385.201	2124
385.282	1452
385.363	2648
385.444	1587
385.525	3567
385.606	8905
385.687	8306
385.768	2563
385.849	2776
385.930	17990
386.011	33474
386.092	6769
386.173	2949
386.254	2458
386.335	2770
386.416	1326
386.496	2726
386.577	4897
386.658	2634
386.739	1572
386.820	2248
386.901	1325
386.981	2414
387.062	2214
387.143	3164
387.224	4949
387.304	6530
387.385	4387
387.466	1616
387.547	2530
387.627	2718
387.708	4292
387.789	9908
387.869	10683
387.950	5534
388.031	2018
388.111	-8
388.192	2807
388.273	3917
388.353	3027
388.434	2713
388.514	2740
388.595	14180
388.676	13731
388.756	5827
388.837	5226
388.917	2596
388.998	533
389.078	3005
389.159	2177
389.239	632
389.320	3200
389.400	846
389.480	3556
389.561	4447
389.641	4003
389.722	2299
389.802	1698
389.883	3500
389.963	7611
390.043	4054
390.124	1205
390.204	4031
390.284	7255
390.365	7246
390.445	33786
390.525	185438
390.605	161114
390.686	21992
390.766	6658
390.846	5350
390.927	2579
391.007	2288
391.087	3509
391.167	2130
391.247	1688
391.328	3722
391.408	4051
391.488	4262
391.568	1549
391.648	3212
391.728	3388
391.808	4777
391.888	3413
391.969	5863
392.049	6315
392.129	5884
392.209	5935
392.289	10220
392.369	7508
392.449	7273
392.529	6524
392.609	8655
392.689	9425
392.769	14987
392.849	15113
392.929	18412
393.009	27306
393.089	36948
393.169	75017
393.248	270355
393.328	952301
393.408	934660
393.488	247104
393.568	68353
393.648	34609
393.728	21962
393.807	17094
393.887	16282
393.967	16328
394.047	17166
394.127	22962
394.206	45567
394.286	173994
394.366	667722
394.446	675952
394.525	175580
394.605	46344
394.685	24072
394.764	17847
394.844	15628
394.924	13823
395.003	11130
395.083	10247
395.163	9862
395.242	9253
395.322	10183
395.402	8679
395.481	11543
395.561	11451
395.640	19218
395.720	28354
395.799	26529
395.879	35738
395.958	71140
396.038	264668
396.117	862445
396.197	881979
396.276	276283
396.356	82724
396.435	43695
396.515	32883
396.594	36013
396.673	67617
396.753	287996
396.832	838353
396.912	521284
396.991	98845
397.070	34303
397.150	17259
397.229	14299
397.308	17628
397.388	25748
397.467	14759
397.546	7635
397.625	4118
397.705	6931
397.784	4581
397.863	3842
397.942	3925
398.022	3734
398.101	2907
398.180	5285
398.259	2764
398.338	3248
398.417	2316
398.497	1286
398.576	2776
398.655	1838
398.734	2223
398.813	2241
398.892	2567
398.971	3347
399.050	1767
399.129	930
399.208	1734
399.287	1582
399.366	878
399.445	725
399.524	1322
399.603	437
399.682	1326
399.761	1432
399.840	3321
399.919	2891
399.998	1514
400.077	200
400.156	-515
400.235	2543
400.313	314
400.392	-141
400.471	2159
400.550	2934
400.629	223
400.708	973
400.786	-194
400.865	176
400.944	-427
401.023	2040
401.102	622
401.180	394
401.259	-84
401.338	66
401.416	1211
401.495	691
401.574	994
401.652	-152
401.731	922
401.810	468
401.888	548
401.967	-370
402.046	774
402.124	1261
402.203	148
402.281	843
402.360	-20
402.438	1313
402.517	-560
402.596	660
402.674	68
402.753	-185
402.831	350
402.910	1166
402.988	2274
403.066	9943
403.145	5447
403.223	4592
403.302	7880
403.380	6144
403.459	3907
403.537	1885
403.615	962
403.694	-537
403.772	1560
403.850	918
403.929	126
404.007	278
404.085	1621
404.164	1448
404.242	855
404.320	5129
404.398	18569
404.477	14834
404.555	18836
404.633	16919
404.711	10729
404.789	6928
404.868	455
404.946	409
405.024	651
405.102	748
405.180	-397
405.258	-456
405.336	1238
405.415	-795
405.493	1129
405.571	1575
405.649	-1121
405.727	-629
405.805	947
405.883	669
405.961	543
406.039	-179
406.117	-483
406.195	856
406.273	1365
406.351	10711
406.429	7005
406.507	343
406.585	-532
406.663	457
406.740	-47
406.818	804
406.896	544
406.974	1596
407.052	-412
407.130	6551
407.208	7713
407.285	2684
407.363	34
407.441	1143
407.519	1770
407.596	4313
407.674	29962
407.752	131053
407.830	87924
407.907	9900
407.985	1532
408.063	1679
408.141	507
408.218	845
408.296	-89
408.373	153
408.451	546
408.529	383
408.606	199
408.684	1116
408.762	404
408.839	-94
408.917	653
408.994	227
409.072	-157
409.149	475
409.227	1958
409.304	2142
409.382	2891
409.459	3256
409.537	4963
409.614	4241
409.692	3267
409.769	3246
409.846	4069
409.924	6124
410.001	2616
410.079	2581
410.156	2373
410.233	2403
410.311	2788
410.388	2389
410.465	851
410.543	74
410.620	1429
410.697	1144
410.775	671
410.852	-537
410.929	1527
411.006	1518
411.083	144
411.161	-255
411.238	1203
411.315	357
411.392	533
411.469	464
411.547	-40
411.624	-388
411.701	-156
411.778	969
411.855	249
411.932	-56
412.009	-409
412.086	321
412.163	250
412.240	157
412.317	116
412.394	-52
412.471	379
412.548	-307
412.625	-415
412.702	812
412.779	1037
412.856	815
412.933	-209
413.010	598
413.087	690
413.164	1072
413.241	1683
413.318	-8
413.395	650
413.471	12
413.548	-67
413.625	895
413.702	-798
413.779	129
413.855	-126
413.932	-863
414.009	-1321
414.086	971
414.162	1068
414.239	566
414.316	1667
414.393	4450
414.469	656
414.546	5
414.623	-235
414.699	98
414.776	41
414.853	-182
414.929	413
415.006	-245
415.082	-156
415.159	162
415.236	249
415.312	684
415.389	344
415.465	-955
415.542	27
415.618	-512
415.695	744
415.771	-472
415.848	-247
415.924	190
416.000	-584
416.077	309
416.153	-1002
416.230	-595
416.306	-325
416.383	-291
416.459	238
416.535	-78
416.612	-495
416.688	493
416.764	126
416.841	-986
416.917	-564
416.993	915
417.069	38
417.146	815
417.222	2765
417.298	915
417.374	-83
417.451	518
417.527	71
417.603	-705
417.679	-98
417.755	29
417.831	-488
417.908	150
417.984	-492
418.060	-794
418.136	-91
418.212	-304
418.288	338
418.364	-2
418.440	-734
418.516	272
418.592	-13
418.668	-102
418.744	158
418.820	1020
418.896	1424
418.972	-152
419.048	522
419.124	1098
419.200	-890
419.276	223
419.352	-228
419.428	75
419.504	-603
419.579	-411
419.655	-227
419.731	-259
419.807	-321
419.883	99
419.959	596
420.034	1186
420.110	268
420.186	1425
420.262	2055
420.337	655
420.413	280
420.489	894
420.565	1770
420.640	953
420.716	850
420.792	-965
420.867	638
420.943	706
421.019	804
421.094	1582
421.170	728
421.245	272
421.321	1780
421.397	3351
421.472	23148
421.548	75293
421.623	37457
421.699	5230
421.774	3135
421.850	2604
421.925	3325
422.001	3686
422.076	4097
422.152	4610
422.227	7791
422.302	10564
422.378	16366
422.453	31824
422.529	89983
422.604	305343
422.679	517377
422.755	291873
422.830	86148
422.905	32717
422.981	17084
423.056	10894
423.131	7586
423.207	4736
423.282	3980
423.357	4435
423.432	2892
423.508	2724
423.583	1493
423.658	2878
423.733	2459
423.808	1940
423.883	2035
423.959	1716
424.034	1556
424.109	2114
424.184	641
424.259	840
424.334	1279
424.409	267
424.484	627
424.559	443
424.634	299
424.709	279
424.784	1217
424.859	243
424.934	-52
425.009	972
425.084	2094
425.159	777
425.234	862
425.309	-553
425.384	869
425.459	-364
425.534	173
425.609	-542
425.683	388
425.758	110
425.833	-559
425.908	807
425.983	437
426.058	2035
426.132	221
426.207	55
426.282	1288
426.357	-825
426.431	-582
426.506	33
426.581	251
426.655	-588
426.730	-153
426.805	-692
426.879	964
426.954	-364
427.029	418
427.103	2221
427.178	6520
427.253	2812
427.327	26
427.402	-370
427.476	277
427.551	-640
427.625	-87
427.700	359
427.774	-1042
427.849	811
427.923	-447
427.998	335
428.072	999
428.147	3670
428.221	23504
428.296	84827
428.370	44180
428.444	4498
428.519	890
428.593	292
428.667	1184
428.742	964
428.816	6884
428.890	44657
428.965	71655
429.039	14829
429.113	1759
429.188	873
429.262	141
429.336	969
429.410	1066
429.485	815
429.559	682
429.633	776
429.707	1760
429.781	5490
429.855	37969
429.930	58633
430.004	12070
430.078	5609
430.152	27033
430.226	134879
430.300	131144
430.374	18923
430.448	3852
430.522	2534
430.596	3979
430.670	11262
430.744	61848
430.818	68197
430.892	9944
430.966	1499
431.040	895
431.114	-495
431.188	-351
431.262	-1307
431.336	-797
431.410	1137
431.484	-437
431.557	842
431.631	1304
431.705	1655
431.779	17836
431.853	82006
431.927	52327
432.000	6113
432.074	957
432.148	47
432.222	-1214
432.295	-249
432.369	-218
432.443	-231
432.516	2472
432.590	8488
432.664	2604
432.737	294
432.811	-714
432.885	-153
432.958	-482
433.032	-733
433.106	-166
433.179	370
433.253	61
433.326	-1093
433.400	-868
433.473	191
433.547	-790
433.620	348
433.694	-717
433.767	-191
433.841	-625
433.914	-161
433.988	-567
434.061	-404
434.134	-1063
434.208	-395
434.281	-1387
434.355	-301
434.428	168
434.501	100
434.575	-1184
434.648	-458
434.721	-463
434.795	-23
434.868	-1136
434.941	-380
435.014	-1100
435.088	-961
435.161	69
435.234	143
435.307	298
435.381	-14
435.454	527
435.527	1673
435.600	2552
435.673	1646
435.746	1008
435.819	-37
435.892	329
435.966	-383
436.039	635
436.112	446
436.185	-489
436.258	-531
436.331	-529
436.404	-354
436.477	-422
436.550	-634
436.623	-487
436.696	-764
436.769	-705
436.842	-1072
436.915	-1503
436.987	-512
437.060	-1004
437.133	-826
437.206	-648
437.279	-34
437.352	-585
437.425	42
437.498	-179
437.570	-566
437.643	-886
437.716	-18
437.789	-646
437.861	-529
437.934	-461
438.007	-1018
438.080	-421
438.152	-84
438.225	615
438.298	5275
438.370	16959
438.443	6430
438.516	217
438.588	-60
438.661	-906
438.734	312
438.806	0
438.879	-9
438.951	-501
439.024	-807
439.096	-617
439.169	-450
439.241	-1000
439.314	-430
439.386	130
439.459	316
439.531	-257
439.604	-359
439.676	404
439.749	-1122
439.821	-979
439.893	103
439.966	-855
440.038	-218
440.110	-372
440.183	-286
440.255	-714
440.327	694
440.400	706
440.472	6158
440.544	3297
440.617	212
440.689	470
440.761	-276
440.833	181
440.905	-200
440.978	-704
441.050	-525
441.122	-305
441.194	-444
441.266	-520
441.338	-10
441.411	224
441.483	1804
441.555	1519
441.627	372
441.699	-31
441.771	-584
441.843	-40
441.915	759
441.987	-368
442.059	-151
442.131	547
442.203	615
442.275	946
442.347	1324
442.419	6031
442.491	34419
442.563	82684
442.635	32181
442.706	5667
442.778	1605
442.850	1055
442.922	490
442.994	384
443.066	447
443.137	1123
443.209	1603
443.281	3423
443.353	9262
443.425	45966
443.496	168901
443.568	154068
443.640	51730
443.711	9204
443.783	2896
443.855	1565
443.926	830
443.998	794
444.070	682
444.141	12
444.213	-25
444.285	604
444.356	166
444.428	276
444.499	292
444.571	-191
444.642	275
444.714	273
444.785	-84
444.857	-154
444.928	552
445.000	1243
445.071	2173
445.143	1786
445.214	4337
445.285	6785
445.357	22011
445.428	116133
445.500	266019
445.571	148828
445.642	71462
445.714	18988
445.785	6096
445.856	1740
445.928	1267
445.999	1045
446.070	387
446.141	381
446.213	432
446.284	385
446.355	168
446.426	-445
446.497	-50
446.569	-127
446.640	206
446.711	-562
446.782	53
446.853	-230
446.924	102
446.995	252
447.066	449
447.138	-47
447.209	-248
447.280	-575
447.351	-267
447.422	-940
447.493	-172
447.564	233
447.635	-412
447.706	-332
447.777	-1022
447.847	-1434
447.918	-1312
447.989	-173
448.060	76
448.131	171
448.202	-650
448.273	-120
448.344	647
448.414	-720
448.485	-23
448.556	-315
448.627	-448
448.698	505
448.768	255
448.839	-438
448.910	57
448.981	82
449.051	268
449.122	-880
449.193	-71
449.263	-424
449.334	322
449.405	1058
449.475	1115
449.546	1645
449.616	1311
449.687	1421
449.758	1096
449.828	412
449.899	707
449.969	762
450.040	740
450.110	1032
450.181	23
450.251	108
450.322	1379
450.392	748
450.463	693
450.533	249
450.604	207
450.674	-291
450.744	876
450.815	-66
450.885	741
450.955	725
451.026	100
451.096	211
451.166	252
451.237	242
451.307	752
451.377	187
451.447	-1139
451.518	296
451.588	-299
451.658	659
451.728	1204
451.799	312
451.869	294
451.939	-145
452.009	260
452.079	126
452.149	226
452.219	-548
452.289	-590
452.360	-351
452.430	329
452.500	-559
452.570	925
452.640	3274
452.710	5350
452.780	5772
452.850	4454
452.920	2125
452.990	1248
453.060	762
453.129	-663
453.199	-952
453.269	575
453.339	319
453.409	58
453.479	1253
453.549	683
453.619	706
453.688	232
453.758	320
453.828	345
453.898	305
453.968	-588
454.037	149
454.087	-76
454.107	-178
454.168	-294
454.177	-331
454.247	77
454.249	59
454.316	-735
454.330	-640
454.386	-334
454.411	-287
454.456	-262
454.492	114
454.525	441
454.574	597
454.595	633
454.655	280
454.665	206
454.734	917
454.736	901
454.804	-319
454.817	-217
454.873	112
454.898	132
454.943	179
454.979	166
455.013	113
455.060	320
455.082	403
455.141	-133
455.152	-194
455.221	1743
455.222	1771
455.291	3083
455.303	4351
455.360	8913
455.384	13974
455.430	21491
455.465	15486
455.499	10288
455.546	4356
455.569	1749
455.627	617
455.638	410
455.707	178
455.708	196
455.777	493
455.789	496
455.846	555
455.869	615
455.916	698
455.950	428
455.985	72
456.031	150
456.054	225
456.112	176
456.124	157
456.193	291
456.193	276
456.262	477
456.274	465
456.332	612
456.355	526
456.401	192
456.436	195
456.470	94
456.516	144
456.540	188
456.597	105
456.609	70
456.678	828
456.678	822
456.747	695
456.759	631
456.817	350
456.840	343
456.886	-22
456.920	197
456.955	565
457.001	443
457.024	357
457.082	398
457.093	385
457.162	106
457.163	119
457.232	931
457.243	945
457.301	852
457.324	552
457.370	120
457.405	732
457.439	1168
457.485	679
457.508	590
457.566	1494
457.577	1662
457.646	2365
457.647	2383
457.715	3956
457.727	4431
457.784	7609
457.808	10083
457.853	13231
457.889	15779
457.922	15861
457.969	10695
457.991	10650
458.050	12692
458.060	13122
458.129	21953
458.130	22238
458.198	23400
458.211	21528
458.267	13137
458.292	9376
458.336	6003
458.372	5015
458.405	6317
458.453	9618
458.474	12144
458.533	21779
458.543	22721
458.611	37628
458.614	37892
458.680	24592
458.694	19931
458.749	10555
458.775	7653
458.818	4423
458.855	3534
458.887	2978
458.936	2475
458.955	2300
459.016	1896
459.024	1887
459.093	1810
459.097	1824
459.162	1561
459.177	1618
459.230	1914
459.257	1794
459.299	1441
459.338	1720
459.368	2053
459.418	2011
459.437	1910
459.499	1926
459.505	1998
459.574	2169
459.579	2217
459.643	1843
459.659	1873
459.711	2162
459.740	1911
459.780	1717
459.820	2195
459.849	2356
459.900	1814
459.917	1710
459.981	2173
459.986	2204
460.054	2224
460.061	2231
460.123	2282
460.141	2454
460.191	2879
460.222	2869
460.260	2906
460.302	3053
460.328	3210
460.382	3668
460.397	3819
460.462	4256
460.465	4545
460.534	12052
460.543	13102
460.602	47133
460.623	60148
460.671	94737
460.703	128629
460.739	121213
460.783	98280
460.808	82077
460.864	17606
460.876	12248
460.944	4299
460.945	4216
461.013	3327
461.024	3181
461.081	2805
461.104	3004
461.150	2903
461.184	2633
461.218	2665
461.264	2435
461.286	2350
461.345	2272
461.355	2215
461.423	1977
461.425	1985
461.491	2446
461.505	2474
461.559	2414
461.585	2271
461.628	2281
461.665	2671
461.696	2795
461.745	2657
461.764	2638
461.825	2113
461.832	2123
461.901	2759
461.905	2798
461.969	1671
461.985	1445
462.037	2405
462.065	2848
462.105	2551
462.145	2333
462.173	2541
462.225	2532
462.241	2447
462.305	2506
462.310	2499
462.378	2270
462.385	2262
462.446	2545
462.465	2633
462.514	3202
462.545	3578
462.582	3157
462.625	2562
462.650	2826
462.705	3265
462.718	3080
462.785	2500
462.786	2506
462.854	2483
462.865	2476
462.922	2630
462.945	2815
462.990	2864
463.025	2812
463.058	2952
463.104	2962
463.126	2863
463.184	2421
463.194	2422
463.262	2890
463.264	2914
463.330	3642
463.344	3651
463.398	3250
463.424	2987
463.466	2631
463.504	2730
463.533	3006
463.583	3055
463.601	3018
463.663	2847
463.669	2736
463.737	1756
463.743	1667
463.805	2577
463.823	2762
463.873	2846
463.903	3025
463.940	3136
463.982	3185
464.008	3371
464.062	3554
464.076	3499
464.142	3351
464.144	3362
464.211	3542
464.221	3578
464.279	2967
464.301	2759
464.347	2902
464.381	2894
464.414	2766
464.461	2677
464.482	2994
464.540	3843
464.550	3811
464.617	3379
464.620	3366
464.685	5213
464.699	5599
464.753	7744
464.779	8823
464.820	10339
464.859	11860
464.888	11021
464.938	9358
464.956	9287
465.018	8586
465.023	8603
465.091	8888
465.098	8925
465.158	8756
465.177	8666
465.226	8564
465.257	8489
465.293	8278
465.336	7888
465.361	8217
465.416	9092
465.428	9193
465.495	9612
465.496	9621
465.563	8762
465.575	8619
465.631	9108
465.654	9348
465.698	9437
465.734	9430
465.765	9921
465.813	10505
465.833	10427
465.893	10317
465.900	10382
465.968	10705
465.972	10715
466.035	10923
466.052	10968
466.102	11856
466.131	12283
466.170	12024
466.210	11693
466.237	12414
466.290	13845
466.304	13887
466.369	13948
466.372	14009
466.439	15202
466.449	15336
466.506	15851
466.528	16029
466.573	16810
466.607	17300
466.641	16898
466.687	16395
466.708	17098
466.766	18796
466.775	18890
466.842	19446
466.845	19438
466.909	19535
466.925	19513
466.977	19610
467.004	19614
467.044	19801
467.083	19921
467.111	20809
467.163	22370
467.178	22815
467.242	24506
467.245	24375
467.312	20813
467.321	20308
467.379	18883
467.400	18314
467.446	18322
467.480	18273
467.559	16829
467.638	15795
467.717	14696
467.796	15740
467.875	13958
467.955	13457
468.034	13859
468.113	12949
468.192	13933
468.271	13748
468.350	15153
468.429	15703
468.508	16050
468.588	13356
468.667	11173
468.746	11194
468.825	10242
468.904	10388
468.983	9966
469.062	9584
469.141	10480
469.220	9055
469.299	10059
469.378	11624
469.456	16747
469.535	14786
469.614	12957
469.693	11068
469.772	12115
469.851	11460
469.930	11726
470.009	11790
470.088	10926
470.166	10669
470.245	11406
470.324	10224
470.403	10558
470.482	10217
470.560	9076
470.639	8836
470.718	9992
470.797	9029
470.875	10218
470.954	9260
471.033	9613
471.111	8915
471.190	8830
471.269	8328
471.347	8209
471.426	8450
471.505	9813
471.583	12014
471.662	12566
471.740	10794
471.819	10714
471.898	9866
471.976	9894
472.055	9649
472.133	10395
472.212	12586
472.290	10430
472.369	9317
472.447	9291
472.526	8396
472.604	9736
472.683	9373
472.761	8694
472.839	7814
472.918	8410
472.996	8350
473.075	9106
473.153	8695
473.231	8019
473.310	8508
473.388	7874
473.466	8958
473.545	8844
473.623	11671
473.701	9222
473.780	8750
473.858	7423
473.936	9301
474.014	9213
474.093	10077
474.171	10757
474.249	9703
474.327	7703
474.405	7039
474.484	7598
474.562	8289
474.640	8087
474.718	9219
474.796	10834
474.874	11414
474.952	9339
475.030	10007
475.108	11709
475.187	14368
475.265	13872
475.343	12656
475.421	12176
475.499	9775
475.577	8428
475.655	7644
475.733	7365
475.811	8335
475.889	7558
475.966	7155
476.044	7564
476.122	7647
476.200	7697
476.278	7235
476.356	6700
476.434	6478
476.512	7149
476.590	6644
476.667	6568
476.745	5076
476.823	6705
476.901	5602
476.979	6069
477.056	7172
477.134	6588
477.212	5896
477.290	6452
477.367	6239
477.445	5532
477.523	5276
477.601	5560
477.678	4975
477.756	6181
477.834	6098
477.911	5658
477.989	5492
478.066	4553
478.144	5204
478.222	5836
478.299	6271
478.377	8246
478.454	6864
478.532	4283
478.609	5347
478.687	5519
478.764	5434
478.842	4800
478.919	4842
478.997	5482
479.074	4898
479.152	4382
479.229	5427
479.307	4353
479.384	4094
479.461	4619
479.539	4321
479.616	4577
479.694	3986
479.771	4411
479.848	4303
479.926	3244
480.003	4835
480.080	4432
480.157	4271
480.235	3982
480.312	4576
480.389	3899
480.467	3702
480.544	4097
480.621	4288
480.698	4552
480.775	4213
480.853	4234
480.930	4090
481.007	4473
481.084	7133
481.161	13900
481.238	8707
481.315	3229
481.392	3642
481.470	3852
481.547	3955
481.624	3026
481.701	3437
481.778	3669
481.855	3300
481.932	4651
482.009	4945
482.086	4658
482.163	4271
482.240	4735
482.317	6332
482.393	5476
482.470	3581
482.547	3320
482.624	3853
482.701	3564
482.778	2976
482.855	3274
482.932	4475
483.009	4076
483.085	5803
483.162	9339
483.239	9493
483.316	4310
483.393	4992
483.469	4592
483.546	3943
483.623	4884
483.699	3861
483.776	3218
483.853	4129
483.930	5122
484.006	5645
484.083	9705
484.160	26297
484.236	53940
484.313	42342
484.389	29317
484.466	27661
484.543	24377
484.619	24028
484.696	25600
484.772	23966
484.849	23812
484.925	22934
485.002	21527
485.078	22260
485.155	21225
485.231	21232
485.308	20884
485.384	20952
485.461	21437
485.537	20312
485.614	20671
485.690	19936
485.766	19996
485.843	20084
485.919	19049
485.995	18982
486.072	18132
486.148	18246
486.224	18045
486.301	18036
486.377	18357
486.453	17452
486.530	21536
486.606	30649
486.682	32271
486.758	27065
486.835	25649
486.911	24252
486.987	23324
487.063	24150
487.139	26895
487.215	28733
487.292	25531
487.368	21830
487.444	22716
487.520	27016
487.596	31237
487.672	41623
487.748	87652
487.824	129236
487.900	56611
487.976	26075
488.052	20597
488.128	19904
488.204	17828
488.280	18317
488.356	17513
488.432	16168
488.508	16642
488.584	16852
488.660	15325
488.736	15608
488.812	15149
488.888	19798
488.964	19667
489.039	18806
489.115	21407
489.191	20138
489.267	17041
489.343	15152
489.418	15726
489.494	14976
489.570	14086
489.646	16036
489.722	14407
489.797	14990
489.873	13671
489.949	14441
490.024	14687
490.100	12351
490.176	13601
490.251	12158
490.327	13229
490.403	11565
490.478	13413
490.554	12082
490.629	12351
490.705	11418
490.781	12655
490.856	10966
490.932	11683
491.007	11690
491.083	11998
491.158	11028
491.234	10704
491.309	11673
491.385	11125
491.460	10283
491.536	11825
491.611	10883
491.686	10225
491.762	10971
491.837	10200
491.913	13484
491.988	13394
492.063	14739
492.139	9941
492.214	9522
492.289	10002
492.365	7946
492.440	9939
492.515	5878
492.590	9449
492.666	6660
492.741	8460
492.816	8554
492.891	7300
492.967	8846
493.042	7917
493.117	8652
493.192	8506
493.267	13957
493.342	40240
493.418	56399
493.493	14709
493.568	8536
493.643	7473
493.718	8642
493.793	5997
493.868	8359
493.943	6157
494.018	8180
494.093	6207
494.168	6085
494.243	6765
494.318	6626
494.393	7104
494.468	7028
494.543	6266
494.618	6405
494.693	5807
494.768	5855
494.842	7248
494.917	5703
494.992	6876
495.067	5558
495.142	5306
495.217	6873
495.292	5772
495.366	6316
495.441	6521
495.516	7073
495.591	7505
495.665	9788
495.740	15652
495.815	10727
495.890	6399
495.964	4584
496.039	10021
496.114	9012
496.188	15752
496.263	14568
496.338	7749
496.412	7832
496.487	9745
496.561	9101
496.636	9099
496.710	10135
496.785	11431
496.860	11292
496.934	10468
497.009	11653
497.083	12126
497.158	13186
497.232	13971
497.307	16328
497.381	18933
497.455	20741
497.530	23829
497.604	24843
497.679	26568
497.753	33254
497.827	43518
497.902	51526
497.976	50665
498.050	47967
498.125	50483
498.199	55885
498.273	65861
498.348	66733
498.422	58794
498.496	50660
498.570	41271
498.645	34371
498.719	29330
498.793	27269
498.867	23084
498.941	20861
499.016	19631
499.090	18401
499.164	16859
499.238	13409
499.312	12501
499.386	12940
499.460	10927
499.534	8893
499.609	9447
499.683	7616
499.757	8005
499.831	8539
499.905	9916
499.979	9031
500.053	6947
500.127	7182
500.201	5700
500.275	6018
500.349	6106
500.422	5453
500.496	5047
500.570	6204
500.644	6604
500.718	6680
500.792	5280
500.866	5377
500.940	5150
501.013	4484
501.087	3506
501.161	4621
501.235	3125
501.309	5856
501.382	5024
501.456	6507
501.530	3700
501.603	3423
501.677	3548
501.751	2763
501.825	4501
501.898	3774
501.972	3850
502.046	4512
502.119	1867
502.193	4147
502.266	3525
502.340	3404
502.413	2940
502.487	3326
502.561	1854
502.634	3315
502.708	3621
502.781	2614
502.855	4279
502.928	2391
503.002	3017
503.075	1559
503.149	2726
503.222	2000
503.295	1753
503.369	3044
503.442	2746
503.516	3427
503.589	4159
503.662	4306
503.736	3659
503.809	5668
503.882	5731
503.956	8168
504.029	13427
504.102	37386
504.175	57358
504.249	22956
504.322	9929
504.395	5203
504.468	4000
504.542	3039
504.615	2947
504.688	3747
504.761	1019
504.834	3928
504.907	3424
504.980	3367
505.053	2404
505.127	637
505.200	4451
505.273	2299
505.346	2478
505.419	1682
505.492	2969
505.565	1824
505.638	3835
505.711	1988
505.784	1494
505.857	1254
505.930	3299
506.003	948
506.076	3388
506.149	1167
506.221	44
506.294	2606
506.367	1280
506.440	1910
506.513	1811
506.586	1345
506.659	1760
506.731	2144
506.804	308
506.877	1028
506.950	1255
507.022	2078
507.095	566
507.168	1561
507.241	2833
507.313	1336
507.386	1186
507.459	2808
507.531	963
507.604	969
507.677	2512
507.749	809
507.822	3522
507.894	9677
507.967	17355
508.040	10777
508.112	9453
508.185	6732
508.257	6512
508.330	7376
508.402	6025
508.475	5357
508.547	5861
508.620	6655
508.692	6684
508.765	5439
508.837	5179
508.909	5685
508.982	4661
509.054	6430
509.127	4375
509.199	4990
509.271	4470
509.344	3271
509.416	4783
509.488	4110
509.560	5148
509.633	4256
509.705	4902
509.777	4764
509.849	4391
509.922	3892
509.994	4715
510.066	6086
510.138	6949
510.210	19951
510.283	16599
510.355	12871
510.427	11000
510.499	9292
510.571	8386
510.643	8314
510.715	10022
510.787	6820
510.859	9876
510.931	7227
511.003	8533
511.076	9099
511.148	7225
511.219	6726
511.291	8410
511.363	8135
511.435	7079
511.507	6537
511.579	8413
511.651	7838
511.723	6685
511.795	6197
511.867	6581
511.939	6855
512.010	6235
512.082	8078
512.154	5763
512.226	7699
512.298	13756
512.369	18423
512.441	14908
512.513	11780
512.585	8695
512.656	10310
512.728	9156
512.800	8808
512.871	9363
512.943	9097
513.015	7967
513.086	8134
513.158	8470
513.230	7588
513.301	7868
513.373	8749
513.444	8703
513.516	7949
513.588	7488
513.659	7422
513.731	8470
513.802	5787
513.874	9964
513.945	8605
514.016	7171
514.088	6585
514.159	6638
514.231	9663
514.302	16150
514.374	13512
514.445	10077
514.516	11560
514.588	9309
514.659	8728
514.730	9967
514.802	14236
514.873	19646
514.944	23558
515.016	16301
515.087	13556
515.158	12299
515.229	15284
515.301	24151
515.372	39202
515.443	24626
515.514	16054
515.585	11054
515.656	10662
515.728	8969
515.799	7973
515.870	7981
515.941	8259
516.012	7424
516.083	12107
516.154	11465
516.225	10412
516.296	9601
516.367	8494
516.438	7354
516.509	7522
516.580	7639
516.651	10745
516.722	19441
516.793	14432
516.864	7621
516.935	7148
517.006	9232
517.077	7580
517.148	11572
517.219	22657
517.289	30259
517.360	9220
517.431	7387
517.502	6043
517.573	7097
517.643	6647
517.714	9952
517.785	9849
517.856	7868
517.926	9552
517.997	7342
518.068	7314
518.138	9263
518.209	8778
518.280	17549
518.350	52118
518.421	25048
518.492	10716
518.562	10248
518.633	12154
518.703	13368
518.774	29378
518.845	73021
518.915	73969
518.986	23898
519.056	13071
519.127	11309
519.197	11651
519.268	9457
519.338	7783
519.408	6773
519.479	6877
519.549	5275
519.620	7461
519.690	4813
519.760	6157
519.831	4949
519.901	4792
519.971	5472
520.042	4418
520.112	3822
520.182	5801
520.253	5034
520.323	5043
520.393	4459
520.463	6984
520.534	1074
520.604	6957
520.674	4950
520.744	3140
520.814	4114
520.885	5659
520.955	3592
521.025	4533
521.095	4258
521.165	5433
521.235	4278
521.305	4103
521.375	4480
521.445	5596
521.515	2507
521.585	5340
521.655	3392
521.725	4762
521.795	5156
521.865	1258
521.935	6398
522.005	3713
522.075	3793
522.145	4747
522.215	3782
522.285	4239
522.355	3829
522.424	4380
522.494	3946
522.564	4908
522.634	5819
522.704	8970
522.774	4639
522.843	4318
522.913	3659
522.983	3381
523.053	3040
523.122	3789
523.192	2920
523.262	4214
523.331	5050
523.401	4559
523.471	2966
523.540	3728
523.610	2185
523.680	3482
523.749	3933
523.819	5101
523.888	3710
523.958	3485
524.027	2055
524.097	2904
524.166	2487
524.236	1977
524.305	4681
524.375	2264
524.444	2151
524.514	4833
524.583	2644
524.653	2741
524.722	3493
524.791	1799
524.861	4045
524.930	1990
524.999	1752
525.069	3319
525.138	2514
525.207	2363
525.277	3113
525.346	2569
525.415	3142
525.484	3841
525.554	2654
525.623	5891
525.692	9110
525.761	7955
525.830	8089
525.900	9632
525.969	13864
526.038	23773
526.107	50240
526.176	160695
526.245	140484
526.314	40596
526.383	78642
526.452	112498
526.522	188647
526.591	196141
526.660	30780
526.729	18310
526.797	21864
526.867	26690
526.935	86377
527.004	375073
527.073	258847
527.142	24844
527.211	9493
527.280	6054
527.349	4808
527.418	2571
527.487	4095
527.555	2251
527.624	2374
527.693	1220
527.762	3459
527.831	1487
527.899	2407
527.968	1935
528.037	437
528.106	3058
528.174	2734
528.243	2284
528.312	1891
528.380	2541
528.449	861
528.518	2448
528.586	349
528.655	2834
528.723	1530
528.792	1940
528.861	-128
528.929	-601
528.998	2987
529.066	1240
529.135	1111
529.203	1190
529.272	312
529.340	1680
529.409	3057
529.477	829
529.545	-260
529.614	3352
529.682	-1259
529.751	336
529.819	3537
529.887	792
529.956	525
530.024	1424
530.092	-454
530.161	914
530.229	438
530.297	508
530.365	2290
530.434	616
530.502	59
530.570	997
530.638	-236
530.707	1522
530.775	2266
530.843	618
530.911	21
530.979	2026
531.047	-236
531.115	1534
531.183	424
531.252	1931
531.320	411
531.388	-400
531.456	1691
531.524	-1098
531.592	1808
531.660	2490
531.728	-24
531.796	273
531.864	1318
531.932	1071
532.000	-63
532.067	770
532.135	1102
532.203	1430
532.271	103
532.339	3187
532.407	2667
532.475	2199
532.542	1746
532.610	954
532.678	-84
532.746	5636
532.814	9591
532.881	3013
532.949	1994
533.017	2024
533.084	1212
533.152	1104
533.220	1152
533.287	702
533.355	542
533.423	684
533.490	412
533.558	661
533.625	1945
533.693	1386
533.761	2211
533.828	1804
533.896	927
533.963	3365
534.031	3027
534.098	3852
534.166	1525
534.233	829
534.300	3559
534.368	2228
534.435	2254
534.503	3250
534.570	3135
534.637	3603
534.705	5284
534.772	6699
534.840	12182
534.907	70603
534.974	99114
535.041	11406
535.109	3399
535.176	2051
535.243	1636
535.310	2132
535.378	1387
535.445	1705
535.512	2177
535.579	1824
535.646	1096
535.714	3251
535.781	4775
535.848	4212
535.915	4713
535.982	2584
536.049	1927
536.116	3186
536.183	1870
536.250	1089
536.317	1541
536.384	3434
536.451	2959
536.518	3241
536.585	440
536.652	3828
536.719	3164
536.786	1356
536.853	1280
536.920	2934
536.987	2825
537.053	1272
537.120	6793
537.187	6379
537.254	1677
537.321	1553
537.388	3644
537.454	1396
537.521	1599
537.588	790
537.654	4100
537.721	4807
537.788	4695
537.855	2979
537.921	3380
537.988	2937
538.055	3110
538.121	2050
538.188	2529
538.254	2521
538.321	3894
538.388	3707
538.454	3029
538.521	3225
538.587	1669
538.654	2111
538.720	2671
538.787	3301
538.853	2955
538.920	3348
538.986	1552
539.053	1263
539.119	1836
539.185	2271
539.252	3709
539.318	2410
539.385	4879
539.451	4675
539.517	5239
539.583	4929
539.650	3542
539.716	5690
539.782	3260
539.849	2561
539.915	3488
539.981	2124
540.047	2458
540.114	2791
540.180	3654
540.246	2683
540.312	3172
540.378	3296
540.444	4343
540.510	3451
540.576	5184
540.643	4068
540.709	1684
540.775	3269
540.841	3150
540.907	4957
540.973	6009
541.039	5255
541.105	4593
541.171	3062
541.237	3657
541.303	4030
541.369	6616
541.435	3715
541.500	3569
541.566	2464
541.632	3034
541.698	2192
541.764	3721
541.830	2607
541.896	2246
541.961	3970
542.027	2370
542.093	3892
542.159	4295
542.224	2264
542.290	6258
542.356	4908
542.421	5064
542.487	4326
542.553	3296
542.618	4010
542.684	3106
542.750	2374
542.815	2706
542.881	2261
542.947	4971
543.012	5699
543.078	3061
543.143	2068
543.209	3937
543.274	2742
543.340	3466
543.405	3012
543.471	4749
543.536	4181
543.602	3825
543.667	1455
543.732	4934
543.798	1896
543.863	4212
543.928	3207
543.994	2658
544.059	3665
544.124	3934
544.190	3587
544.255	3850
544.320	4044
544.386	2721
544.451	3788
544.516	4214
544.581	2860
544.646	5434
544.712	7206
544.777	6074
544.842	4810
544.907	3597
544.972	4278
545.037	4417
545.102	5023
545.168	3397
545.233	4730
545.298	4055
545.363	4472
545.428	5588
545.493	6006
545.558	5005
545.623	4560
545.688	3625
545.753	4659
545.818	4680
545.883	5187
545.947	4082
546.012	4378
546.077	4120
546.142	5521
546.207	4206
546.272	4767
546.337	4585
546.401	5823
546.466	7125
546.531	4839
546.596	6227
546.661	6138
546.725	7024
546.790	4630
546.855	7070
546.919	4290
546.984	6881
547.049	6029
547.113	7957
547.178	8127
547.243	9658
547.307	11957
547.372	12009
547.436	12023
547.501	12087
547.565	13842
547.630	12966
547.695	12114
547.759	11178
547.823	12044
547.888	12474
547.952	13835
548.017	15320
548.081	19182
548.146	15275
548.210	13782
548.274	14476
548.339	14415
548.403	13609
548.468	12632
548.532	11499
548.596	13235
548.660	12531
548.725	14481
548.789	13820
548.853	14458
548.917	14206
548.982	13264
549.046	12117
549.110	10356
549.174	10762
549.238	12645
549.303	13362
549.367	15326
549.431	14476
549.495	13105
549.559	12740
549.623	14751
549.687	15590
549.751	16371
549.815	19545
549.879	19305
549.943	17192
550.007	19207
550.071	19369
550.135	17403
550.199	15191
550.263	16384
550.327	16591
550.391	18167
550.455	19723
550.519	18341
550.582	20174
550.646	20955
550.710	21638
550.774	22651
550.838	22381
550.901	23782
550.965	25422
551.029	27156
551.093	30697
551.156	35090
551.220	41450
551.284	50704
551.347	36549
551.411	26901
551.475	24464
551.538	23804
551.602	22158
551.666	20690
551.729	18794
551.793	18527
551.856	17949
551.920	18297
551.983	18641
552.047	18139
552.110	19091
552.174	20118
552.237	19172
552.301	16821
552.364	16455
552.428	15320
552.491	16063
552.554	16477
552.618	16280
552.681	17272
552.745	15535
552.808	17606
552.871	18872
552.934	17904
552.998	16051
553.061	16035
553.124	16340
553.187	16022
553.251	17275
553.314	17500
553.377	17614
553.440	21397
553.503	33430
553.567	48090
553.630	21181
553.693	17793
553.756	16473
553.819	17023
553.882	16020
553.945	16749
554.008	15956
554.071	15580
554.134	15760
554.197	14839
554.260	15594
554.323	16606
554.386	16431
554.449	15330
554.512	16364
554.575	15590
554.638	15048
554.701	14739
554.764	14950
554.827	14437
554.889	14238
554.952	13333
555.015	12406
555.078	13740
555.141	13269
555.203	13213
555.266	12957
555.329	13189
555.391	12429
555.454	11547
555.517	11735
555.580	11198
555.642	11330
555.705	10555
555.768	11896
555.830	11699
555.893	10056
555.955	10592
556.018	9076
556.080	10080
556.143	11380
556.206	8676
556.268	9727
556.330	10428
556.393	8853
556.455	9539
556.518	9382
556.580	8716
556.643	8107
556.705	7677
556.767	7070
556.830	7785
556.892	8730
556.955	7776
557.017	6889
557.079	7383
557.142	7706
557.204	6358
557.266	8553
557.328	8001
557.391	6281
557.453	6177
557.515	6604
557.577	6851
557.639	7607
557.701	7453
557.764	6821
557.826	8893
557.888	9714
557.950	10818
558.012	11446
558.074	16180
558.136	41908
558.198	118343
558.260	45371
558.322	14009
558.384	15438
558.446	18380
558.508	22706
558.570	26902
558.632	33754
558.694	43500
558.756	73737
558.818	253811
558.880	686205
558.942	218485
559.003	133870
559.065	69034
559.127	26684
559.189	24957
559.251	28397
559.312	39874
559.374	107757
559.436	402007
559.498	207158
559.559	31698
559.621	23811
559.683	27046
559.744	46115
559.806	163854
559.868	272779
559.929	49459
559.991	23712
560.052	35077
560.114	114159
560.176	75030
560.237	59745
560.299	105887
560.360	22733
560.422	6482
560.483	5983
560.545	4160
560.606	4053
560.667	3223
560.729	3452
560.790	4049
560.852	3380
560.913	3272
560.974	2640
561.036	2999
561.097	2465
561.158	2968
561.220	3625
561.281	2815
561.342	2956
561.403	3885
561.465	2304
561.526	5251
561.587	5368
561.648	1979
561.709	1947
561.771	3928
561.832	2958
561.893	2180
561.954	2575
562.015	2933
562.076	2984
562.137	2719
562.198	2543
562.259	2969
562.320	2911
562.381	2530
562.442	1885
562.503	2333
562.564	2804
562.625	2331
562.686	2320
562.747	3083
562.808	2829
562.869	2320
562.930	2435
562.991	1688
563.051	3418
563.112	1687
563.173	1733
563.234	1790
563.294	2283
563.355	2018
563.416	2440
563.477	2821
563.537	2498
563.598	2686
563.659	3272
563.720	2164
563.780	2992
563.841	2555
563.901	2510
563.962	2861
564.023	2899
564.083	3120
564.144	2434
564.204	2927
564.265	2746
564.325	3368
564.386	3382
564.446	3145
564.507	2555
564.567	2859
564.628	3498
564.688	2558
564.749	2396
564.809	3989
564.869	3622
564.930	3891
564.990	4349
565.050	3273
565.111	3532
565.171	3478
565.231	3334
565.292	4650
565.352	3866
565.412	4837
565.472	4641
565.532	4411
565.593	4530
565.653	4477
565.713	5037
565.773	5922
565.833	4745
565.893	6768
565.953	5471
566.013	6208
566.074	7247
566.134	7934
566.194	7772
566.254	8468
566.314	9058
566.374	8702
566.434	9297
566.494	9614
566.554	12531
566.614	12275
566.673	13276
566.733	14930
566.793	15627
566.853	16638
566.913	18199
566.973	17513
567.033	18250
567.092	16767
567.152	17042
567.212	17828
567.272	19313
567.331	20746
567.391	22627
567.451	24346
567.511	25830
567.570	23996
567.630	21710
567.690	21955
567.749	22365
567.809	26009
567.868	29793
567.928	34597
567.988	43496
568.047	53794
568.107	69294
568.166	97895
568.226	159129
568.285	230063
568.345	207132
568.404	165247
568.464	140099
568.523	127233
568.582	126992
568.642	138991
568.701	173043
568.761	250896
568.820	392442
568.879	404108
568.939	302068
568.998	221442
569.057	167239
569.116	130602
569.176	103014
569.235	82471
569.294	69413
569.353	57208
569.413	49541
569.472	42246
569.531	37015
569.590	32420
569.649	29079
569.708	25695
569.767	23002
569.827	20432
569.886	19675
569.945	17319
570.004	16748
570.063	15143
570.122	14627
570.181	13188
570.240	11826
570.299	11361
570.358	10713
570.417	9719
570.475	8716
570.534	10675
570.593	9099
570.652	8337
570.711	8374
570.770	7966
570.829	9953
570.887	8344
570.946	7465
571.005	6435
571.064	6382
571.122	5104
571.181	5706
571.240	4866
571.299	5510
571.357	5939
571.416	5086
571.475	4245
571.533	4249
571.592	4309
571.650	4531
571.709	4172
571.768	5415
571.826	6035
571.885	5748
571.943	4414
572.002	4087
572.060	3982
572.119	4058
572.177	4215
572.236	3161
572.294	3649
572.352	4094
572.411	4568
572.469	3629
572.528	3827
572.586	3686
572.644	3988
572.703	3490
572.761	2978
572.819	3130
572.877	2740
572.936	3180
572.994	3880
573.052	3122
573.110	1977
573.169	3556
573.227	3134
573.285	3534
573.343	3407
573.401	3548
573.459	3881
573.517	2467
573.576	4056
573.634	3421
573.692	2894
573.750	3380
573.808	3560
573.866	3336
573.924	2656
573.982	2587
574.040	2671
574.098	2746
574.155	3137
574.213	3344
574.271	2451
574.329	3572
574.387	2894
574.445	3108
574.503	2451
574.560	1757
574.618	2770
574.676	3086
574.734	3132
574.792	3104
574.849	2427
574.907	2314
574.965	2734
575.022	1844
575.080	3106
575.138	3500
575.195	2851
575.253	2009
575.311	2476
575.368	2778
575.426	2261
575.483	3363
575.541	2126
575.598	2877
575.656	2775
575.713	2895
575.771	3318
575.828	2593
575.886	3363
575.943	2873
576.001	1884
576.058	2060
576.115	1908
576.173	3000
576.230	3101
576.287	2993
576.345	3141
576.402	2510
576.459	2738
576.517	2999
576.574	3091
576.631	2955
576.688	1981
576.746	2375
576.803	2223
576.860	2908
576.917	3251
576.974	3065
577.031	3086
577.089	2986
577.146	2447
577.203	3405
577.260	3318
577.317	3721
577.374	2642
577.431	2676
577.488	3450
577.545	2197
577.602	2526
577.659	2317
577.716	3602
577.773	2592
577.830	3460
577.886	3793
577.943	2615
578.000	3558
578.057	3129
578.114	3519
578.171	4035
578.227	4694
578.284	4293
578.341	3955
578.398	3093
578.454	2895
578.511	2849
578.568	2948
578.625	2194
578.681	2088
578.738	3304
578.794	2757
578.851	2819
578.908	3681
578.964	3422
579.021	3516
579.077	2630
579.134	3325
579.190	3632
579.247	2948
579.303	3613
579.360	3106
579.416	4018
579.473	3421
579.529	2893
579.586	2648
579.642	3072
579.698	3194
579.755	4179
579.811	4243
579.867	3948
579.924	4447
579.980	3585
580.036	3843
580.093	4564
580.149	6597
580.205	7084
580.261	5447
580.317	4900
580.374	4419
580.430	3829
580.486	4842
580.542	3799
580.598	4766
580.619	4461
580.654	3934
580.692	3900
580.710	3886
580.765	4752
580.767	4781
580.823	4627
580.838	4648
580.879	4722
580.911	4798
580.935	4866
580.984	3406
580.991	3209
581.047	4628
581.057	4745
581.103	5268
581.130	5092
581.159	4903
581.203	4747
581.215	4711
581.270	4557
581.276	4529
581.326	4223
581.349	4420
581.382	4759
581.422	4820
581.438	4821
581.494	4624
581.494	4623
581.550	4819
581.567	4820
581.606	4776
581.640	4223
581.661	3903
581.713	4873
581.717	4948
581.773	4448
581.786	4437
581.829	4393
581.859	4418
581.885	4480
581.932	4335
581.940	4307
581.996	5004
582.004	5112
582.052	5604
582.077	5165
582.107	4675
582.150	5102
582.163	5224
582.219	5440
582.223	5465
582.274	5861
582.296	5514
582.330	4929
582.368	5456
582.386	5765
582.441	5245
582.441	5243
582.497	5732
582.514	5859
582.552	6361
582.587	6265
582.608	6133
582.659	5733
582.663	5704
582.719	6590
582.732	6449
582.774	6134
582.805	6373
582.830	6524
582.877	6717
582.885	6735
582.941	6242
582.950	6254
582.996	6460
583.023	6958
583.052	7512
583.095	7234
583.107	7147
583.162	8445
583.168	8444
583.218	8348
583.240	8052
583.273	7580
583.313	7711
583.328	7841
583.384	7982
583.385	7983
583.439	7689
583.458	7753
583.494	7992
583.531	7554
583.549	7361
583.603	7556
583.605	7554
583.660	8279
583.676	8165
583.715	8071
583.748	8450
583.770	8633
583.820	8675
583.825	8689
583.881	8628
583.893	8679
583.936	9023
583.965	8944
583.991	8772
584.038	9599
584.046	9732
584.101	9213
584.110	9274
584.156	9797
584.183	9825
584.211	9710
584.255	10202
584.266	10385
584.321	10045
584.328	10147
584.376	11054
584.400	11298
584.431	11348
584.472	10836
584.486	10763
584.541	11100
584.545	11111
584.596	11237
584.617	11399
584.651	11935
584.689	12271
584.706	12244
584.761	12605
584.762	12601
584.816	12841
584.834	12934
584.871	13187
584.906	13554
584.926	13753
584.978	14375
584.980	14407
585.035	15134
585.051	15445
585.090	16417
585.123	17024
585.145	17355
585.195	18167
585.200	18319
585.254	20557
585.267	21202
585.309	23243
585.340	24824
585.364	25835
585.412	26790
585.419	26992
585.473	29880
585.484	30534
585.528	34810
585.556	39825
585.583	49642
585.628	73249
585.637	82004
585.692	157046
585.700	171589
585.747	229270
585.772	202467
585.801	136207
585.845	58628
585.856	48564
585.910	32708
585.917	31228
585.965	28496
585.989	27437
586.019	26584
586.061	26168
586.074	26251
586.128	26385
586.133	26379
586.183	26559
586.205	26639
586.237	26810
586.277	27248
586.292	27578
586.346	28602
586.349	28688
586.401	29925
586.421	29961
586.455	30539
586.493	31138
586.509	31448
586.564	32512
586.565	32524
586.618	34713
586.637	35459
586.672	36783
586.709	38252
586.727	39089
586.781	41021
586.781	41059
586.835	41605
586.853	42087
586.889	42882
586.925	43129
586.944	43607
586.996	45326
586.998	45428
587.052	47898
587.068	48606
587.106	50855
587.140	52800
587.161	53823
587.212	56068
587.215	56272
587.269	59757
587.284	60541
587.323	62546
587.356	64576
587.377	66441
587.427	71098
587.431	71492
587.485	75774
587.499	76947
587.539	81279
587.571	84482
587.593	87221
587.643	92780
587.648	93502
587.702	102135
587.715	103926
587.755	109810
587.786	114638
587.810	119178
587.858	129299
587.864	130784
587.917	144611
587.930	147696
587.971	159894
588.001	169005
588.025	177900
588.073	197207
588.079	200156
588.133	224470
588.145	230318
588.187	255294
588.217	272913
588.241	290891
588.288	328533
588.295	334602
588.348	385347
588.360	396618
588.402	449678
588.431	488004
588.456	527070
588.503	605010
588.510	619838
588.564	744458
588.575	771652
588.617	912721
588.646	1017013
588.671	1138502
588.718	1383264
588.725	1431177
588.778	1820075
588.789	1901923
588.832	2200893
588.861	2388924
588.886	2367628
588.932	2181571
588.939	2151817
588.993	1861770
589.004	1852986
589.047	2253760
589.075	2441212
589.100	2336512
589.147	2037310
589.154	1989362
589.207	1628956
589.218	1561604
589.261	1443076
589.290	1378344
589.314	1404709
589.361	1479348
589.368	1512156
589.421	1804992
589.433	1871731
589.475	2114372
589.504	2261868
589.528	2206255
589.576	1959497
589.582	1966466
589.635	2141394
589.647	2154856
589.689	1895048
589.718	1674518
589.742	1456698
589.790	1050476
589.795	1022724
589.849	775897
589.861	720693
589.902	608580
589.932	529312
589.955	490847
590.004	411441
590.009	406264
590.062	347606
590.075	333202
590.115	301595
590.146	277143
590.168	264987
590.218	237091
590.222	235583
590.275	212258
590.289	205862
590.328	192313
590.360	181265
590.381	175838
590.431	162283
590.435	161828
590.488	149314
590.503	145667
590.541	137162
590.574	129551
590.594	126662
590.645	118763
590.647	118718
590.700	111663
590.716	109387
590.753	105092
590.787	100807
590.806	99443
590.859	95333
590.859	95436
590.912	90012
590.930	88134
590.965	85310
591.001	82387
591.018	81482
591.071	77939
591.072	77742
591.124	73918
591.143	72313
591.177	70450
591.214	68317
591.230	67890
591.283	65861
591.285	65636
591.336	62986
591.356	61789
591.389	60674
591.427	59005
591.442	58698
591.495	56992
591.498	56747
591.547	55232
591.569	54342
591.600	53630
591.640	52358
591.653	52063
591.706	50436
591.711	50137
591.759	49158
591.782	48507
591.811	48080
591.853	47109
591.864	46836
591.917	44997
591.924	44629
591.969	44763
591.995	44622
592.022	44009
592.066	42811
592.075	42812
592.127	42117
592.137	41902
592.180	41214
592.208	40566
592.233	40184
592.279	39215
592.285	39290
592.338	39141
592.350	39018
592.390	37990
592.421	37044
592.443	37058
592.491	36844
592.495	36893
592.548	36380
592.562	36155
592.600	35661
592.633	35075
592.653	34851
592.704	33865
592.705	34063
592.775	34241
592.846	33320
592.916	32551
592.987	31909
593.058	31909
593.128	30960
593.199	30765
593.270	29766
593.341	28907
593.411	29220
593.482	28460
593.553	28860
593.623	28867
593.694	28753
593.764	27906
593.835	26979
593.906	27100
593.976	27379
594.047	25412
594.117	27414
594.188	25913
594.258	26190
594.329	25291
594.399	26809
594.470	26682
594.540	26708
594.611	26036
594.681	26217
594.751	26101
594.822	28027
594.892	28786
594.963	27067
595.033	26811
595.103	25177
595.174	25674
595.244	26791
595.314	26811
595.384	25190
595.455	25486
595.525	26361
595.595	26746
595.665	26882
595.736	25831
595.806	26536
595.876	26032
595.946	25352
596.016	26163
596.087	26565
596.157	26504
596.227	26357
596.297	27080
596.367	27653
596.437	29922
596.507	28920
596.577	28183
596.647	29751
596.717	30598
596.787	30354
596.857	30855
596.927	29940
596.997	30908
597.067	31726
597.137	31083
597.207	31238
597.277	31487
597.347	29424
597.417	27841
597.487	29223
597.557	29130
597.626	29423
597.696	29979
597.766	29892
597.836	28340
597.906	27705
597.975	26952
598.045	26810
598.115	27841
598.185	29427
598.254	31879
598.324	34413
598.394	35111
598.464	33752
598.533	33267
598.603	31321
598.672	30304
598.742	31312
598.812	30352
598.881	31675
598.951	30636
599.020	31688
599.090	33307
599.159	32874
599.229	33045
599.299	30504
599.368	31504
599.437	30762
599.507	29205
599.576	27578
599.646	28373
599.715	28675
599.785	26758
599.854	26174
599.924	25589
599.993	25799
600.062	25461
600.132	26650
600.201	27645
600.270	32827
600.340	33438
600.409	31867
600.478	32061
600.547	33334
600.617	31063
600.686	25280
600.755	23092
600.824	22111
600.894	21823
600.963	22395
601.032	21024
601.101	20942
601.170	20444
601.239	19152
601.308	20003
601.378	19997
601.447	19919
601.516	19407
601.585	20252
601.654	19885
601.723	19389
601.792	19704
601.861	21295
601.930	22070
601.999	21505
602.068	20842
602.137	22345
602.206	22209
602.275	21971
602.343	22166
602.412	21722
602.481	21547
602.550	21562
602.619	22745
602.688	24228
602.756	22882
602.825	24306
602.894	23757
602.963	23640
603.032	24836
603.100	24070
603.169	25054
603.238	24869
603.307	25160
603.375	25111
603.444	25273
603.513	25688
603.581	26637
603.650	26520
603.719	25592
603.787	26132
603.856	25791
603.924	27358
603.993	29296
604.061	29039
604.130	31407
604.198	31634
604.267	32004
604.335	31784
604.404	31715
604.472	32521
604.541	32660
604.609	33656
604.678	33418
604.746	33208
604.815	35010
604.883	35208
604.951	35122
605.020	35933
605.088	36288
605.156	37004
605.225	37556
605.293	37652
605.361	38083
605.429	38385
605.498	39648
605.566	39667
605.634	41967
605.702	42929
605.771	44659
605.839	44586
605.907	43101
605.975	43112
606.043	41634
606.111	41724
606.180	41191
606.248	41507
606.316	41862
606.384	38951
606.452	40592
606.520	40698
606.588	43134
606.656	42767
606.724	41617
606.792	39009
606.860	36011
606.928	32688
606.996	31602
607.064	31389
607.132	32246
607.200	34096
607.267	34648
607.335	35578
607.403	36006
607.471	34404
607.539	33690
607.607	34720
607.674	30837
607.742	31094
607.810	30046
607.878	30621
607.946	31411
608.013	32951
608.081	33169
608.149	33616
608.216	34693
608.284	35038
608.352	35172
608.419	33740
608.487	35057
608.555	32731
608.622	35248
608.690	36889
608.757	40725
608.825	41799
608.893	40648
608.960	38307
609.028	36858
609.095	36873
609.163	36653
609.230	32085
609.298	30816
609.365	32529
609.432	34143
609.500	36770
609.567	41554
609.635	48138
609.702	50210
609.769	48320
609.837	38396
609.904	33950
609.971	36313
610.039	44642
610.106	64342
610.173	139051
610.241	339136
610.308	190164
610.375	54189
610.442	37953
610.509	35309
610.577	35018
610.644	34868
610.711	36380
610.778	37029
610.845	38413
610.912	41078
610.980	42619
611.047	44601
611.114	42384
611.181	40016
611.248	38697
611.315	42824
611.382	43139
611.449	44929
611.516	45021
611.583	44416
611.650	44575
611.717	47170
611.784	47779
611.851	52942
611.918	60458
611.984	78191
612.051	130828
612.118	303107
612.185	793770
612.252	498085
612.319	101534
612.386	70058
612.452	58039
612.519	53368
612.586	52125
612.653	51357
612.719	53159
612.786	49734
612.853	46956
612.919	44994
612.986	46040
613.053	43929
613.120	41113
613.186	39087
613.253	41252
613.319	40461
613.386	39279
613.453	40270
613.519	41425
613.586	40409
613.652	42052
613.719	40153
613.785	40758
613.852	40552
613.918	41229
613.985	44240
614.051	48750
614.118	60790
614.184	57740
614.250	41829
614.317	42220
614.383	41261
614.449	42085
614.516	41201
614.582	42618
614.648	41423
614.715	42490
614.781	39356
614.847	40503
614.914	40016
614.980	41259
615.046	41874
615.112	43331
615.179	46746
615.245	53448
615.311	71814
615.377	116697
615.443	134888
615.509	80619
615.575	60769
615.642	54705
615.708	56219
615.774	61289
615.840	72555
615.906	97167
615.972	160563
616.038	324002
616.104	555348
616.170	1067332
616.236	893602
616.302	184545
616.368	109368
616.434	74794
616.500	64671
616.565	70180
616.631	89323
616.697	73281
616.763	75409
616.829	116902
616.895	217076
616.961	209990
617.026	87544
617.092	52424
617.158	46524
617.224	42691
617.289	39634
617.355	37351
617.421	35980
617.487	36208
617.552	34041
617.618	33666
617.684	32544
617.749	35726
617.815	33170
617.880	30727
617.946	31824
618.012	32017
618.077	32187
618.143	30671
618.208	30987
618.274	33364
618.339	34257
618.405	27258
618.470	28904
618.536	27321
618.601	27794
618.667	24996
618.732	24584
618.798	24490
618.863	23275
618.928	23399
618.994	23098
619.059	24209
619.124	24194
619.190	23482
619.255	22044
619.320	22412
619.386	22780
619.451	23026
619.516	22546
619.581	22624
619.647	23322
619.712	23460
619.777	21384
619.842	23170
619.907	21682
619.972	22871
620.038	23076
620.103	21861
620.168	20361
620.233	22767
620.298	22195
620.363	22602
620.428	23998
620.493	24059
620.558	23933
620.623	24405
620.688	24525
620.753	24097
620.818	24478
620.883	24361
620.948	24262
621.013	24279
621.078	23634
621.143	23329
621.207	25872
621.272	23559
621.337	22732
621.402	23376
621.467	22856
621.532	22892
621.596	23110
621.661	22080
621.726	21370
621.791	22326
621.855	22353
621.920	21893
621.985	21769
622.049	23550
622.114	22850
622.179	23859
622.243	23913
622.308	23561
622.373	26533
622.437	25042
622.502	23741
622.566	23376
622.631	21835
622.695	23864
622.760	23097
622.824	22321
622.889	22947
622.953	23375
623.018	25232
623.082	25341
623.147	25128
623.211	24041
623.276	24543
623.340	22442
623.404	22881
623.469	22466
623.533	23037
623.597	21703
623.662	22761
623.726	20016
623.790	19288
623.854	18010
623.919	18886
623.983	19692
624.047	19687
624.111	19312
624.176	19471
624.240	19213
624.304	21881
624.368	20049
624.432	19943
624.496	20805
624.560	22061
624.625	21858
624.689	22632
624.753	23281
624.817	22236
624.881	21166
624.945	20207
625.009	18801
625.073	18799
625.137	18596
625.201	21183
625.265	20620
625.329	19676
625.393	20095
625.456	20977
625.520	20205
625.584	21203
625.648	21227
625.712	21711
625.776	22645
625.839	22832
625.903	18051
625.967	15182
626.031	20002
626.095	21611
626.158	19913
626.222	14174
626.286	14057
626.349	13456
626.413	11994
626.477	13347
626.540	12692
626.604	12860
626.668	13022
626.731	13076
626.795	11419
626.858	12655
626.922	11506
626.986	12892
627.049	11439
627.113	12912
627.176	12525
627.240	11915
627.303	11503
627.366	11949
627.430	12329
627.493	11936
627.557	10104
627.620	12756
627.684	12439
627.747	12581
627.810	9285
627.874	11192
627.937	9403
628.000	11758
628.064	10526
628.127	7666
628.190	9502
628.253	9339
628.317	9163
628.380	8353
628.443	8397
628.506	7830
628.569	7768
628.632	7280
628.696	7496
628.759	7978
628.822	7063
628.885	6809
628.948	7144
629.011	6645
629.074	6790
629.137	6071
629.200	6102
629.263	8011
629.326	5453
629.389	5993
629.452	6603
629.515	6171
629.578	6475
629.641	6801
629.704	5378
629.767	6303
629.830	7317
629.892	6067
629.955	5598
630.018	7239
630.081	5673
630.144	6342
630.207	5066
630.269	6955
630.332	5295
630.395	6212
630.458	5480
630.520	4339
630.583	6164
630.646	5879
630.708	5623
630.771	5433
630.834	6841
630.896	6184
630.959	5685
631.021	5062
631.084	5390
631.146	6012
631.209	6263
631.272	5631
631.334	6634
631.397	6000
631.459	6139
631.522	6964
631.584	7310
631.646	8298
631.709	7770
631.771	8546
631.834	7962
631.896	8004
631.958	6577
632.021	7449
632.083	4671
632.145	6881
632.208	5471
632.270	6667
632.332	5589
632.395	5977
632.457	7007
632.519	4695
632.581	6258
632.643	5137
632.706	6101
632.768	4999
632.830	7167
632.892	5802
632.954	4585
633.016	6051
633.078	5279
633.141	5762
633.203	6237
633.265	6234
633.327	5680
633.389	4607
633.451	6322
633.513	5656
633.575	6273
633.637	5236
633.698	5321
633.760	7974
633.822	6629
633.884	6670
633.946	7292
634.008	7786
634.070	8577
634.132	9515
634.193	10479
634.255	11555
634.317	10743
634.379	11138
634.441	9676
634.502	8851
634.564	8719
634.626	9005
634.687	10191
634.749	7022
634.811	5991
634.873	5046
634.934	5717
634.996	6944
635.057	5844
635.119	5077
635.181	6448
635.242	7195
635.304	3997
635.365	8403
635.427	5032
635.488	6555
635.550	6186
635.611	6146
635.673	4609
635.734	8849
635.796	8094
635.857	9480
635.918	7780
635.980	11899
636.041	10251
636.102	12065
636.164	12831
636.225	13009
636.286	8082
636.348	9791
636.409	8173
636.470	6450
636.531	6321
636.593	5065
636.654	6311
636.715	6097
636.776	4686
636.838	4204
636.899	5742
636.960	5346
637.021	4967
637.082	5661
637.143	5667
637.204	3763
637.265	3912
637.326	6261
637.387	5868
637.448	3493
637.509	4509
637.570	4176
637.631	5050
637.692	3750
637.753	3401
637.814	4952
637.875	3715
637.936	4732
637.997	3598
638.058	4160
638.119	4356
638.179	3251
638.240	3392
638.301	3840
638.362	3124
638.423	3749
638.483	5020
638.544	2356
638.605	4628
638.666	3270
638.726	4656
638.787	4041
638.848	3169
638.908	3998
638.969	4238
639.030	3517
639.090	2792
639.151	2494
639.211	4128
639.272	4537
639.332	4773
639.393	4431
639.453	3353
639.514	5093
639.574	3717
639.635	3272
639.695	3692
639.756	2461
639.816	3803
639.877	3896
639.937	4248
639.997	4826
640.058	2921
640.118	2921
640.178	3658
640.239	3322
640.299	3084
640.359	3658
640.420	3653
640.480	5450
640.540	5750
640.600	5961
640.661	5722
640.721	4791
640.781	10997
640.841	11380
640.901	6073
640.961	4415
641.021	3864
641.082	3230
641.142	3702
641.202	4164
641.262	2056
641.322	4349
641.382	2842
641.442	4601
641.502	3887
641.562	4049
641.622	3284
641.682	3484
641.742	5068
641.802	3784
641.861	3897
641.921	2916
641.981	3505
642.041	3077
642.101	2483
642.161	1742
642.221	2457
642.280	3772
642.340	3037
642.400	3233
642.460	4022
642.519	3374
642.579	2921
642.639	4517
642.698	947
642.758	6083
642.818	4251
642.877	2845
642.937	3196
642.997	3547
643.056	3764
643.116	1978
643.175	4508
643.235	3658
643.294	3758
643.354	5536
643.414	6574
643.473	8479
643.532	10951
643.592	19063
643.651	33250
643.711	62166
643.770	128227
643.830	320669
643.889	684999
643.948	154913
644.008	23202
644.067	13222
644.126	8133
644.186	6864
644.245	6640
644.304	4320
644.363	7002
644.423	3336
644.482	4936
644.541	5562
644.600	4045
644.659	7094
644.719	8459
644.778	15075
644.837	27706
644.896	61265
644.955	143336
645.014	44525
645.073	9439
645.132	5347
645.191	5830
645.250	4166
645.309	6374
645.368	4979
645.427	8429
645.486	13720
645.545	25577
645.604	6991
645.663	4689
645.722	4608
645.781	6337
645.840	7892
645.898	10838
645.957	17520
646.016	28556
646.075	56208
646.134	116617
646.192	316332
646.251	466936
646.310	63599
646.369	15083
646.427	10493
646.486	6688
646.545	6271
646.603	4656
646.662	5819
646.721	4498
646.779	3528
646.838	3479
646.896	7098
646.955	8876
647.014	15435
647.072	30319
647.131	89197
647.189	41161
647.248	5137
647.306	4181
647.365	4252
647.423	1030
647.481	4144
647.540	1111
647.598	2646
647.657	2792
647.715	3625
647.773	2124
647.832	2782
647.890	778
647.948	1441
648.007	2548
648.065	1684
648.123	1653
648.181	3800
648.240	3493
648.298	1520
648.356	2380
648.414	2505
648.472	2457
648.531	2798
648.589	1897
648.647	2291
648.705	2866
648.763	3175
648.821	2998
648.879	3122
648.937	3235
648.995	5752
649.053	6801
649.111	12556
649.169	21974
649.227	40953
649.285	89213
649.343	262506
649.401	121713
649.459	14608
649.516	8172
649.574	7019
649.632	12807
649.690	14784
649.748	9418
649.806	10834
649.863	23017
649.921	59658
649.979	38739
650.037	4680
650.094	1586
650.152	3154
650.210	1677
650.268	2928
650.325	3982
650.383	6537
650.440	1991
650.498	2082
650.556	996
650.613	1110
650.671	2417
650.728	1885
650.786	1337
650.843	2508
650.901	76
650.958	1512
651.016	1176
651.073	2029
651.131	596
651.188	260
651.246	510
651.303	483
651.360	2121
651.418	763
651.475	1352
651.532	-716
651.590	1465
651.647	-16
651.704	650
651.762	40
651.819	1186
651.876	183
651.933	314
651.990	1719
652.048	-204
652.105	45
652.162	1620
652.219	1413
652.276	993
652.333	1309
652.390	11
652.448	1290
652.505	338
652.562	731
652.619	926
652.676	2103
652.733	2924
652.790	533
652.847	-733
652.904	1320
652.961	-349
653.017	1
653.074	1615
653.131	1015
653.188	393
653.245	611
653.302	626
653.359	507
653.415	736
653.472	661
653.529	1167
653.586	355
653.642	173
653.699	673
653.756	-418
653.813	222
653.869	673
653.926	811
653.983	-674
654.039	1223
654.096	447
654.152	1382
654.209	-495
654.266	284
654.322	-74
654.379	1362
654.435	1291
654.492	-92
654.548	1012
654.605	1302
654.661	2570
654.717	253
654.774	869
654.830	989
654.887	1113
654.943	1936
655.000	3226
655.056	1825
655.112	683
655.168	-253
655.225	937
655.281	1482
655.337	1329
655.394	796
655.450	1207
655.506	737
655.562	1089
655.618	1751
655.675	-414
655.731	1532
655.787	945
655.843	2105
655.899	979
655.955	2419
656.011	2442
656.067	1407
656.123	3905
656.179	3523
656.235	5264
656.291	3366
656.347	3760
656.403	2989
656.459	2493
656.515	2627
656.571	1983
656.627	1255
656.683	1030
656.739	1706
656.795	1576
656.850	878
656.906	878
656.962	1663
657.018	61
657.074	333
657.129	1750
657.185	1828
657.241	5960
657.297	3116
657.352	1545
657.408	81
657.464	1260
657.519	85
657.575	170
657.630	-251
657.686	-504
657.742	-159
657.797	229
657.853	172
657.908	980
657.964	-203
658.019	752
658.075	898
658.130	393
658.186	-379
658.241	696
658.297	-851
658.352	46
658.407	703
658.463	156
658.518	730
658.573	476
658.629	-495
658.684	-59
658.739	1114
658.795	-12
658.850	251
658.905	-970
658.960	1171
659.016	-921
659.071	-568
659.126	16
659.181	722
659.236	935
659.291	1652
659.346	271
659.401	569
659.457	1487
659.512	-14
659.567	1260
659.622	147
659.677	-326
659.732	-618
659.787	168
659.842	377
659.897	-610
659.952	740
660.007	108
660.061	16
660.116	-457
660.171	539
660.226	349
660.281	1578
660.336	-914
660.391	839
660.445	-576
660.500	-96
660.555	-268
660.610	-340
660.664	70
660.719	71
660.774	704
660.828	832
660.883	-153
660.938	824
660.992	-1004
661.047	329
661.101	-295
661.156	-916
661.211	-536
661.265	-628
661.320	-558
661.374	447
661.429	410
661.483	1285
661.538	-136
661.592	646
661.647	713
661.701	2784
661.755	646
661.810	-254
661.864	-995
661.919	-321
661.973	-63
662.027	-650
662.081	-1123
662.136	-634
662.190	1071
662.244	552
662.299	118
662.353	-76
662.407	-960
662.461	-441
662.515	479
662.569	-553
662.624	1075
662.678	-1017
662.732	-634
662.786	-126
662.840	507
662.894	336
662.948	947
663.002	43
663.056	-150
663.110	-671
663.164	-114
663.218	79
663.272	-43
663.326	633
663.380	240
663.434	135
663.488	-487
663.542	-211
663.595	181
663.649	-29
663.703	-142
663.757	-235
663.811	-705
663.864	64
663.918	668
663.972	479
664.026	-5
664.079	-258
664.133	66
664.187	-34
664.240	-35
664.294	686
664.348	1050
664.401	297
664.455	-65
664.508	-455
664.562	-122
664.615	-1022
664.669	-643
664.722	-27
664.776	-239
664.829	296
664.883	576
664.936	-418
664.990	-391
665.043	712
665.097	-764
665.150	518
665.203	-448
665.257	204
665.310	2
665.363	271
665.417	724
665.470	446
665.523	-111
665.576	150
665.630	-262
665.683	325
665.736	432
665.789	-239
665.842	-493
665.895	-219
665.949	150
666.002	207
666.055	-72
666.108	397
666.161	206
666.214	-310
666.267	-637
666.320	55
666.373	-9
666.426	184
666.479	-265
666.532	-481
666.585	-45
666.638	-128
666.691	-803
666.744	-498
666.796	-193
666.849	-814
666.902	247
666.955	61
667.008	-351
667.060	-129
667.113	-882
667.166	-426
667.219	-498
667.271	269
667.324	-36
667.377	-396
667.430	-159
667.482	-227
667.535	86
667.587	-7
667.640	117
667.693	78
667.745	-70
667.798	-71
667.850	-231
667.903	-951
667.955	-588
668.008	-645
668.060	-332
668.113	-938
668.165	226
668.218	466
668.270	-370
668.322	-143
668.375	-606
668.427	-83
668.479	317
668.532	30
668.584	659
668.636	-329
668.689	-165
668.741	-992
668.793	65
668.845	88
668.898	-746
668.950	-930
669.002	-18
669.054	-99
669.106	-572
669.158	264
669.211	570
669.263	-116
669.315	524
669.367	1446
669.419	741
669.471	2191
669.523	2969
669.575	5915
669.627	3427
669.679	2032
669.731	1279
669.783	2118
669.835	2776
669.886	2687
669.938	119
669.990	171
670.042	-609
670.094	-239
670.146	131
670.197	-75
670.249	1003
670.301	494
670.353	1010
670.404	1896
670.456	2845
670.508	4274
670.560	8610
670.611	14143
670.663	28668
670.715	70050
670.766	111913
670.818	29001
670.869	4153
670.921	2299
670.972	2645
671.024	288
671.075	-310
671.127	-303
671.178	-501
671.230	586
671.281	-75
671.333	584
671.384	639
671.436	737
671.487	1592
671.538	3091
671.590	5720
671.641	10234
671.692	17951
671.744	35638
671.795	24729
671.846	8564
671.897	3537
671.949	1553
672.000	338
672.051	984
672.102	1187
672.153	-131
672.204	-102
672.256	44
672.307	-124
672.358	-930
672.409	-493
672.460	271
672.511	-466
672.562	-584
672.613	-585
672.664	-420
672.715	424
672.766	-1162
672.817	-339
672.868	-1126
672.919	-452
672.970	-795
673.021	-328
673.071	-898
673.122	-585
673.173	-487
673.224	-433
673.275	-599
673.326	-951
673.376	-777
673.427	-836
673.478	-422
673.528	158
673.579	-675
673.630	-1035
673.680	547
673.731	-1511
673.782	-504
673.832	-813
673.883	-817
673.934	-1292
673.984	-916
674.035	-851
674.085	-674
674.136	-169
674.186	-348
674.237	-1053
674.287	-583
674.338	-1022
674.388	-664
674.438	-709
674.489	-322
674.539	-758
674.589	-83
674.640	-234
674.690	-993
674.740	-1460
674.791	-461
674.841	-621
674.891	-497
674.942	-529
674.992	-1782
675.042	-735
675.092	-267
675.142	-1387
675.193	-1386
675.243	-946
675.293	-765
675.343	-442
675.393	-1078
675.443	-243
675.493	-969
675.543	-1375
675.593	-972
675.643	-1169
675.693	-780
675.743	-623
675.793	-647
675.843	-1058
675.893	-959
675.943	-961
675.993	-1279
676.043	-1485
676.093	-923
676.142	-2031
676.192	-1054
676.242	-1464
676.292	-467
676.341	-1342
676.391	-1414
676.441	-1385
676.491	-1000
676.540	-1101
676.590	-1589
676.640	-1124
676.689	-775
676.739	-1287
676.789	-1143
676.838	-1654
676.888	-582
676.937	-1347
676.987	-400
677.037	-1075
677.086	-1617
677.136	-657
677.185	-1110
677.235	-735
677.284	-1297
677.333	-1560
677.383	-1542
677.432	-1237
677.482	-750
677.531	-637
677.580	-1346
677.630	-860
677.679	-1426
677.728	-1467
677.778	-912
677.827	-1575
677.876	-1135
677.925	-1478
677.975	-563
678.024	-1045
678.073	-1346
678.122	-958
678.171	-1060
678.220	-1094
678.269	-745
678.319	-489
678.368	-1050
678.417	-451
678.466	-263
678.515	-825
678.564	-1434
678.613	-1852
678.662	-1073
678.711	-1209
678.760	-939
678.809	-1374
678.857	-1656
678.906	-1074
678.955	-458
679.004	-843
679.053	-622
679.102	-471
679.151	-1124
679.199	-1350
679.248	-273
679.297	-1441
679.346	-1397
679.394	-1236
679.443	-732
679.492	-1375
679.540	-1102
679.589	-2170
679.638	-779
679.686	-378
679.735	-624
679.784	-1456
679.832	-971
679.881	-1228
679.929	-1293
679.978	-792
680.026	-618
680.075	-1080
680.123	-1298
680.172	-1236
680.220	-809
680.268	-1153
680.317	-690
680.365	-1806
680.414	-1431
680.462	-842
680.510	-1031
680.559	-1577
680.607	-1296
680.655	-881
680.703	-1962
680.752	-2151
680.800	-1256
680.848	-1842
680.896	-1315
680.945	-1299
680.993	-1537
681.041	-1230
681.089	-580
681.137	-998
681.185	-998
681.233	-1661
681.258	-1356
681.281	-1076
681.329	-2172
681.377	-1174
681.380	-1152
681.425	-905
681.473	-1246
681.502	-1482
681.521	-1673
681.569	-594
681.617	-1309
681.624	-1281
681.665	-1167
681.713	-966
681.745	-1056
681.761	-1117
681.809	-1006
681.857	-1501
681.867	-1278
681.904	-523
681.952	-920
681.989	-1056
682.000	-1111
682.048	-1120
682.096	-1840
682.111	-1485
682.143	-747
682.191	-1493
682.233	-274
682.239	-107
682.286	-951
682.334	-1008
682.354	-962
682.382	-924
682.430	-969
682.476	-1245
682.477	-1259
682.525	-1424
682.572	-639
682.598	-1200
682.620	-1677
682.667	18
682.715	-134
682.720	-128
682.763	-191
682.810	-962
682.841	-1027
682.857	-1069
682.905	-600
682.952	-92
682.963	-77
683.000	-92
683.047	-948
683.085	-312
683.095	-143
683.142	-552
683.190	29
683.206	-107
683.237	-367
683.284	-198
683.328	-164
683.332	-172
683.379	-585
683.426	-1015
683.449	-464
683.473	113
683.521	-720
683.568	-67
683.571	-34
683.615	263
683.662	558
683.693	-182
683.709	-599
683.757	-373
683.804	294
683.814	215
683.851	-107
683.898	244
683.936	-347
683.945	-503
683.992	200
684.039	-206
684.057	-316
684.086	-470
684.133	-404
684.179	-230
684.180	-233
684.227	-239
684.274	-215
684.300	167
684.321	523
684.368	-57
684.415	-47
684.422	-40
684.462	-124
684.509	-190
684.543	33
684.556	76
684.603	201
684.649	53
684.665	263
684.696	775
684.743	43
684.786	508
684.790	532
684.837	69
684.883	121
684.908	186
684.930	285
684.977	288
685.023	-171
685.029	-145
685.070	63
685.117	480
685.150	499
685.164	465
685.210	344
685.257	305
685.272	324
685.303	394
685.350	521
685.393	202
685.396	170
685.443	280
685.490	552
685.514	450
685.536	384
685.583	463
685.629	580
685.636	564
685.675	413
685.722	660
685.757	389
685.768	287
685.815	409
685.861	719
685.878	515
685.908	219
685.954	410
686.000	807
686.000	810
686.047	-191
686.093	654
686.121	701
686.139	739
686.185	1250
686.232	852
686.242	1006
686.278	1423
686.324	1136
686.363	712
686.370	667
686.416	723
686.463	1540
686.484	1328
686.509	1001
686.555	723
686.601	1045
686.606	1078
686.647	1477
686.693	745
686.727	900
686.739	939
686.785	1023
686.831	1025
686.848	971
686.877	787
686.923	1015
686.969	919
686.969	919
687.015	626
687.061	1186
687.090	975
687.107	836
687.153	1262
687.199	967
687.211	1064
687.245	1335
687.291	1102
687.332	1321
687.336	1357
687.382	1538
687.428	1149
687.453	1629
687.474	1965
687.520	1662
687.565	2342
687.574	2233
687.611	2073
687.657	2612
687.695	3162
687.702	3332
687.748	4546
687.794	6805
687.816	6672
687.839	5661
687.885	4434
687.931	3220
687.937	3055
687.976	2444
688.022	1890
688.058	1751
688.067	1812
688.113	1701
688.158	1784
688.179	1818
688.204	1903
688.249	1721
688.295	1596
688.300	1653
688.340	2118
688.386	2521
688.421	1896
688.431	1704
688.477	1418
688.522	2007
688.542	2059
688.567	2188
688.613	2069
688.658	2248
688.663	2270
688.703	2463
688.749	2576
688.784	2407
688.794	2342
688.839	2015
688.884	2645
688.905	2545
688.930	2446
688.975	2262
689.020	1923
689.026	1916
689.065	1992
689.110	2698
689.146	2628
689.155	2667
689.201	3069
689.246	3415
689.267	3557
689.291	3287
689.336	2893
689.381	1952
689.388	1958
689.426	2349
689.471	2269
689.509	2145
689.516	2148
689.561	2015
689.606	2074
689.630	2181
689.651	2219
689.696	1723
689.741	2328
689.750	2212
689.785	1926
689.830	2130
689.871	2379
689.875	2410
689.920	2259
689.965	2458
689.992	2504
690.010	2553
690.054	2409
690.099	2979
690.112	2897
690.144	2663
690.189	2935
690.233	2539
690.233	2543
690.278	2498
690.323	2700
690.354	2887
690.367	3017
690.412	2826
690.457	2584
690.474	2815
690.501	3089
690.546	3091
690.590	2974
690.595	2958
690.635	3129
690.680	3440
690.716	3329
690.724	3351
690.769	3804
690.813	4654
690.836	4829
690.857	5305
690.902	6574
690.946	7619
690.957	7907
690.991	10346
691.035	13623
691.077	17297
691.080	17350
691.124	16136
691.168	15194
691.198	14729
691.213	13759
691.257	11410
691.301	8347
691.318	7270
691.346	6807
691.390	5817
691.434	4980
691.439	4869
691.478	4351
691.522	4131
691.559	3400
691.567	3364
691.611	3572
691.655	3848
691.680	3763
691.699	3625
691.743	3368
691.787	3323
691.800	3189
691.831	3185
691.875	3812
691.919	3965
691.921	3960
691.964	3690
692.008	3622
692.041	3445
692.052	3499
692.096	3596
692.139	4006
692.162	4009
692.183	3797
692.227	3341
692.271	3027
692.282	2964
692.315	3161
692.359	3367
692.402	3343
692.403	3352
692.447	3743
692.490	3726
692.523	3566
692.534	3539
692.578	4008
692.622	3836
692.643	3809
692.666	3640
692.709	3342
692.753	3213
692.763	3120
692.797	3141
692.840	3544
692.884	3615
692.884	3625
692.928	3566
692.971	3764
693.004	3473
693.015	3414
693.059	3798
693.102	3636
693.124	3954
693.146	4299
693.189	4128
693.233	4252
693.245	4330
693.276	4547
693.320	4700
693.363	4567
693.365	4564
693.407	5000
693.450	5172
693.485	5356
693.493	5584
693.537	6934
693.580	7784
693.605	8577
693.624	9858
693.667	12350
693.710	15382
693.725	16334
693.753	21087
693.797	28768
693.840	36547
693.845	37360
693.883	36262
693.926	34212
693.966	32859
693.970	32298
694.013	25828
694.056	19273
694.086	14657
694.099	13976
694.142	12028
694.185	10005
694.206	8919
694.229	8438
694.272	7620
694.315	6960
694.326	6666
694.358	6377
694.401	6546
694.444	6140
694.446	6119
694.487	6015
694.530	5711
694.566	5479
694.573	5447
694.616	5143
694.659	4703
694.686	4533
694.702	4629
694.745	5033
694.787	5113
694.806	5150
694.830	5016
694.873	4836
694.916	4562
694.926	4487
694.959	4494
695.002	4570
695.044	4444
695.046	4435
695.087	4415
695.130	3989
695.166	3868
695.172	3927
695.215	4284
695.258	4529
695.286	4543
695.301	4542
695.343	4857
695.386	5059
695.406	5050
695.428	4975
695.471	4936
695.514	4940
695.526	4897
695.556	4931
695.599	5076
695.641	5015
695.646	5018
695.684	5009
695.726	4948
695.766	4680
695.769	4680
695.811	4498
695.854	4488
695.886	4458
695.896	4553
695.938	4745
695.981	4958
696.005	5179
696.023	5393
696.065	5490
696.108	6017
696.125	6090
696.150	5891
696.192	5707
696.235	5477
696.245	5364
696.277	5468
696.319	5656
696.361	5914
696.365	5909
696.404	5759
696.446	5829
696.485	5664
696.488	5697
696.530	5885
696.572	6210
696.604	6261
696.614	6181
696.656	5924
696.698	5658
696.724	5458
696.740	5562
696.783	5711
696.825	6022
696.844	6111
696.867	6184
696.909	6254
696.951	6356
696.964	6352
696.992	6254
697.034	6141
697.076	6011
697.083	5962
697.118	6118
697.160	6362
697.202	6626
697.203	6612
697.244	6483
697.286	6249
697.323	6077
697.327	6105
697.369	6196
697.411	6312
697.442	6311
697.453	6297
697.494	6146
697.536	6150
697.562	6022
697.578	6048
697.620	6149
697.661	6262
697.682	6297
697.703	6332
697.744	6331
697.786	6348
697.801	6336
697.828	6321
697.869	6221
697.911	6138
697.921	6117
697.952	6170
697.994	6091
698.035	6124
698.040	6094
698.077	6137
698.118	6259
698.160	6323
698.160	6301
698.201	6437
698.243	6515
698.279	6580
698.284	6591
698.325	6519
698.367	6421
698.399	6286
698.408	6383
698.449	6773
698.491	7158
698.518	7395
698.532	7446
698.573	7550
698.614	7629
698.638	7648
698.656	7623
698.697	7525
698.738	7412
698.757	7338
698.779	7240
698.820	7015
698.862	6790
698.877	6684
698.903	6898
698.944	7209
698.985	7525
698.996	7591
699.026	7495
699.067	7333
699.116	7120
699.235	6837
699.354	7237
699.474	6153
699.593	6611
699.713	7336
699.832	7026
699.951	7399
700.070	7671
700.190	7395
700.309	7437
700.428	6994
700.547	6995
700.667	6844
700.786	6692
700.905	6610
701.024	6234
701.143	5951
701.262	6878
701.381	6936
701.500	6548
701.619	7585
701.738	6576
701.857	7280
701.976	6945
702.095	7174
702.214	7537
702.333	6844
702.452	5966
702.571	6973
702.690	6850
702.809	6964
702.928	7171
703.047	6624
703.165	7153
703.284	5432
703.403	6595
703.522	6498
703.640	6941
703.759	6992
703.878	6427
703.997	6009
704.115	5854
704.234	5704
704.353	6653
704.471	5515
704.590	5465
704.708	5559
704.827	6490
704.946	5552
705.064	5585
705.183	5397
705.301	5321
705.420	6421
705.538	5671
705.656	5515
705.775	6290
705.893	10084
706.012	10386
706.130	4776
706.249	5902
706.367	6492
706.485	5492
706.604	5247
706.722	6163
706.840	8758
706.958	18247
707.077	10360
707.195	6412
707.313	5645
707.431	5238
707.549	4446
707.668	4901
707.786	5734
707.904	4016
708.022	5081
708.140	5079
708.258	5161
708.376	5336
708.494	4980
708.612	5448
708.730	4307
708.848	5711
708.966	5287
709.084	5609
709.202	5060
709.320	5578
709.438	4675
709.556	4095
709.674	4966
709.791	4541
709.909	4117
710.027	5699
710.145	4799
710.263	4977
710.380	3953
710.498	5071
710.616	4615
710.733	3990
710.851	4060
710.969	4580
711.086	3498
711.204	4924
711.322	4730
711.439	4554
711.557	4094
711.674	4343
711.792	4482
711.909	5436
712.027	4793
712.144	4206
712.262	4545
712.379	5057
712.497	4671
712.614	4516
712.732	5063
712.849	4729
712.966	3435
713.084	5259
713.201	4321
713.318	4354
713.436	4746
713.553	5902
713.670	6085
713.787	4691
713.905	4435
714.022	5305
714.139	5267
714.256	8344
714.373	12565
714.490	25413
714.608	78291
714.725	351361
714.842	311920
714.959	19721
715.076	9714
715.193	6848
715.310	5737
715.427	5599
715.544	4706
715.661	5309
715.778	4899
715.895	4870
716.011	5178
716.128	5178
716.245	5064
716.362	5038
716.479	4572
716.596	5623
716.713	5235
716.829	5154
716.946	4489
717.063	4677
717.180	4382
717.296	3525
717.413	5030
717.530	4019
717.646	4412
717.763	4621
717.880	4579
717.996	3250
718.113	3647
718.229	4319
718.346	3395
718.462	3947
718.579	4758
718.695	4290
718.812	3649
718.928	3349
719.045	3591
719.161	3694
719.277	3940
719.394	4333
719.510	3759
719.626	4507
719.743	5879
719.859	9469
719.975	21450
720.092	91650
720.208	189710
720.324	18414
720.440	5061
720.557	3979
720.673	4139
720.789	4301
720.905	4356
721.021	3057
721.137	3684
721.253	3460
721.369	3401
721.486	2846
721.602	3226
721.718	3112
721.834	3468
721.950	3027
722.066	3566
722.181	3482
722.297	4257
722.413	4899
722.529	3408
722.645	3756
722.761	4000
722.877	2641
722.993	4016
723.108	4714
723.224	4360
723.340	3757
723.456	3308
723.571	3777
723.687	3606
723.803	3035
723.918	2979
724.034	3143
724.150	3241
724.265	3132
724.381	3059
724.497	2718
724.612	3185
724.728	3243
724.843	3725
724.959	3330
725.074	3531
725.190	4508
725.305	3336
725.421	3406
725.536	3293
725.651	3435
725.767	3586
725.882	3178
725.997	2395
726.113	3182
726.228	3926
726.343	3546
726.459	2583
726.574	2584
726.689	2923
726.804	2964
726.920	3049
727.035	2566
727.150	3168
727.265	3393
727.380	4412
727.495	3702
727.610	3237
727.725	3464
727.841	3927
727.956	5280
728.071	4726
728.186	3222
728.301	2561
728.416	3176
728.531	3333
728.645	3267
728.760	3667
728.875	5126
728.990	5074
729.105	5031
729.220	3416
729.335	3808
729.449	4212
729.564	3114
729.679	2617
729.794	3351
729.908	2351
730.023	3291
730.138	2757
730.253	3647
730.367	2798
730.482	3402
730.596	2535
730.711	3790
730.826	5304
730.940	6629
731.055	3044
731.169	3455
731.284	3338
731.398	3150
731.513	4800
731.627	3691
731.742	4343
731.856	3909
731.970	3964
732.085	4995
732.199	7626
732.313	13204
732.428	36462
732.542	99419
732.656	49853
732.771	9917
732.885	5304
732.999	4656
733.113	4355
733.227	5015
733.342	4619
733.456	4059
733.570	3163
733.684	3560
733.798	3396
733.912	3561
734.026	3314
734.140	4240
734.254	3416
734.368	2588
734.482	4242
734.596	2929
734.710	3332
734.824	3859
734.938	3652
735.052	3622
735.166	3712
735.280	3628
735.393	3484
735.507	2922
735.621	3843
735.735	3434
735.849	3814
735.962	3885
736.076	4021
736.190	3144
736.303	2954
736.417	3817
736.531	3387
736.644	3883
736.758	3130
736.872	3907
736.985	3549
737.099	3124
737.212	2955
737.326	3804
737.439	3258
737.553	3405
737.666	4012
737.780	3399
737.893	3719
738.007	3257
738.120	3556
738.233	3991
738.347	3309
738.460	3597
738.573	2836
738.687	3739
738.800	2844
738.913	3473
739.026	3600
739.140	3572
739.253	3156
739.366	3119
739.479	2899
739.592	2873
739.705	2443
739.818	3694
739.932	3113
740.045	3621
740.158	3151
740.271	2868
740.384	4137
740.497	4482
740.610	5578
740.723	4149
740.836	3663
740.949	5242
741.062	3074
741.174	4091
741.287	4184
741.400	4256
741.513	4658
741.626	5661
741.739	4130
741.851	4070
741.964	3276
742.077	3914
742.189	4761
742.302	9284
742.415	6667
742.527	4471
742.640	3512
742.753	4126
742.865	3049
742.978	2884
743.090	3275
743.203	3217
743.316	2936
743.428	2405
743.541	2690
743.653	2249
743.766	2865
743.878	2657
743.990	2692
744.103	7508
744.215	8855
744.327	3563
744.440	4478
744.552	3573
744.664	2450
744.777	1889
744.889	1944
745.001	2587
745.113	2181
745.226	2578
745.338	3099
745.450	2317
745.562	2192
745.674	3019
745.786	2067
745.898	2735
746.010	2988
746.122	2246
746.234	2123
746.347	2928
746.459	3584
746.570	3424
746.682	7529
746.794	13116
746.906	4835
747.018	2363
747.130	2568
747.242	2094
747.354	2462
747.466	2408
747.577	2575
747.689	1751
747.801	2349
747.913	2315
748.024	2015
748.136	1987
748.248	1759
748.359	2384
748.471	2444
748.583	1896
748.694	2477
748.806	3061
748.918	1985
749.029	2428
749.141	2368
749.252	2611
749.364	1682
749.475	1925
749.587	2041
749.698	1710
749.809	2746
749.921	2605
750.032	1928
750.144	1052
750.255	1158
750.366	1643
750.478	2013
750.589	2089
750.700	2043
750.811	2760
750.923	2732
751.034	2330
751.145	3122
751.256	1768
751.367	2474
751.479	1906
751.590	1842
751.701	2481
751.812	2259
751.923	2022
752.034	2543
752.145	2119
752.256	2190
752.367	2071
752.478	1721
752.589	2253
752.700	1898
752.811	1772
752.922	1440
753.032	3090
753.143	2253
753.254	1672
753.365	2286
753.476	2364
753.586	2171
753.697	2599
753.808	2547
753.919	2219
754.029	1811
754.140	1478
754.251	1016
754.361	1793
754.472	2251
754.582	1587
754.693	1985
754.804	2463
754.914	1385
755.025	2308
755.135	1522
755.246	2378
755.356	1964
755.466	1981
755.577	2994
755.687	1887
755.798	1383
755.908	1428
756.018	1502
756.129	2144
756.239	1958
756.349	1365
756.460	2147
756.570	3182
756.680	718
756.790	2057
756.900	2410
757.011	2112
757.121	2619
757.231	1263
757.341	1431
757.451	1780
757.561	1646
757.671	1552
757.781	1489
757.891	1566
758.001	995
758.111	2552
758.221	2271
758.331	1761
758.441	2056
758.551	1506
758.661	1413
758.771	2554
758.880	2434
758.990	2265
759.100	1886
759.210	3205
759.320	2883
759.429	2231
759.539	1955
759.649	2050
759.758	2724
759.868	3528
759.978	3256
760.087	3052
760.197	3004
760.307	3117
760.416	2250
760.526	1618
760.635	3426
760.745	2855
760.854	3233
760.964	3784
761.073	3613
761.182	3067
761.292	2735
761.401	2819
761.511	2757
761.620	2840
761.729	2849
761.839	2302
761.948	2501
762.057	3148
762.166	2420
762.276	2262
762.385	3053
762.494	3653
762.603	2495
762.712	2612
762.822	2777
762.931	2873
763.040	3164
763.149	2308
763.258	2790
763.367	2719
763.476	3707
763.585	4701
763.694	3922
763.803	4185
763.912	3731
764.021	4818
764.130	3821
764.238	5028
764.347	4952
764.456	5230
764.565	5973
764.674	6072
764.783	6400
764.891	6772
765.000	8554
765.109	9012
765.217	10679
765.326	11901
765.435	15003
765.543	18602
765.652	22902
765.761	31504
765.869	43926
765.978	69784
766.086	120456
766.195	234585
766.303	520245
766.412	871703
766.520	743921
766.629	367746
766.737	157483
766.846	87540
766.954	57330
767.062	40679
767.171	30117
767.279	23190
767.387	18427
767.496	15471
767.604	12948
767.712	12610
767.820	11000
767.928	10018
768.037	9172
768.145	9126
768.253	9127
768.361	7051
768.469	8037
768.577	8386
768.685	9362
768.793	9984
768.901	9763
769.009	12638
769.117	13363
769.225	18482
769.333	27611
769.441	45883
769.549	86718
769.657	196539
769.765	512733
769.873	705643
769.981	371705
770.088	119842
770.196	56968
770.304	36519
770.412	25029
770.519	17785
770.627	13880
770.735	11568
770.842	9778
770.950	8402
771.058	7744
771.165	7662
771.273	7086
771.380	5671
771.488	5852
771.595	5910
771.703	4538
771.810	5063
771.918	4103
772.025	3633
772.133	4323
772.240	4556
772.348	4627
772.455	3614
772.562	3606
772.670	3427
772.777	3480
772.884	3352
772.991	3006
773.099	2472
773.206	2308
773.313	3703
773.420	3399
773.528	2463
773.635	1731
773.742	2742
773.849	2501
773.956	1833
774.063	2676
774.170	2566
774.277	2050
774.384	2952
774.491	2127
774.598	2522
774.705	2299
774.812	1864
774.919	2415
775.026	2695
775.133	1465
775.239	2007
775.346	1720
775.453	2331
775.560	1717
775.667	2570
775.773	1002
775.880	2726
775.987	2037
776.093	2198
776.200	1545
776.307	2335
776.413	2465
776.520	1082
776.627	2240
776.733	3037
776.840	1554
776.946	6081
777.053	10592
777.159	22556
777.266	12274
777.372	20349
777.478	14226
777.585	6643
777.691	2204
777.798	2407
777.904	2877
778.010	2011
778.117	2232
778.223	2384
778.329	1530
778.435	1881
778.542	1728
778.648	1585
778.754	588
778.860	1800
778.966	914
779.072	1171
779.178	1447
779.284	1690
779.391	1166
779.497	1101
779.603	3428
779.708	2622
779.815	7819
779.920	28752
780.026	44288
780.132	5514
780.238	1279
780.344	1908
780.450	2126
780.556	1920
780.661	846
780.767	1456
780.873	1111
780.979	842
781.085	638
781.190	1477
781.296	1108
781.402	870
781.507	752
781.613	1545
781.719	970
781.824	1111
781.930	1701
782.035	1661
782.141	303
782.246	831
782.352	835
782.457	1218
782.563	1524
782.668	647
782.773	1093
782.879	150
782.984	1359
783.090	1925
783.195	1762
783.300	1067
783.405	1749
783.511	1933
783.616	2051
783.721	1799
783.826	1062
783.932	1570
784.037	2065
784.142	1026
784.247	967
784.352	1552
784.457	1199
784.562	1297
784.667	1731
784.772	1362
784.877	894
784.982	1957
785.087	142
785.192	1893
785.297	1265
785.402	1657
785.507	663
785.611	1579
785.716	713
785.821	484
785.926	1437
786.031	1209
786.135	446
786.240	946
786.345	-23
786.450	817
786.554	824
786.659	408
786.763	284
786.868	1595
786.973	1502
787.077	816
787.182	450
787.286	1069
787.391	807
787.495	458
787.600	107
787.704	330
787.809	53
787.913	567
788.017	697
788.122	788
788.226	901
788.330	25
788.435	615
788.539	14
788.643	539
788.747	826
788.852	637
788.956	720
789.060	1080
789.164	1154
789.268	295
789.372	1031
789.476	630
789.580	-530
789.684	-200
789.788	375
789.892	381
789.996	556
790.100	462
790.204	151
790.308	452
790.412	358
790.516	379
790.620	115
790.724	630
790.828	194
790.931	-65
791.035	1692
791.139	528
791.242	-54
791.346	1349
791.450	266
791.554	824
791.657	-112
791.761	731
791.864	890
791.968	1546
792.072	414
792.175	456
792.279	121
792.382	454
792.486	827
792.589	281
792.693	971
792.796	-505
792.899	1552
793.003	983
793.106	-466
793.209	303
793.313	1703
793.416	181
793.519	1376
793.623	2010
793.726	707
793.829	959
793.932	804
794.035	12
794.138	1365
794.242	1573
794.345	1218
794.448	1671
794.551	2724
794.654	13437
794.757	21542
794.860	3649
794.963	376
795.066	-393
795.169	1568
795.272	413
795.375	1542
795.477	24
795.580	769
795.683	-738
795.786	770
795.889	-1056
795.991	871
796.094	1252
796.197	-671
796.300	624
796.402	537
796.505	-94
796.608	7
796.710	381
796.813	92
796.915	100
797.018	168
797.120	1416
797.223	-796
797.326	990
797.428	354
797.530	-150
797.633	-558
797.735	711
797.838	633
797.940	955
798.042	-689
798.145	340
798.247	686
798.349	-573
798.452	476
798.554	-442
798.656	-628
798.758	1200
798.860	224
798.962	97
799.065	321
799.167	-372
799.269	1126
799.371	531
799.473	557
799.575	-937
799.677	235
799.779	901
799.881	-1317
799.983	146
800.085	170
800.187	-468
800.289	-235
800.390	538
800.492	62
800.594	1089
800.696	393
800.798	423
800.899	-308
801.001	315
801.103	85
801.205	-374
801.306	400
801.408	-813
801.509	482
801.611	163
801.713	-46
801.814	-314
801.916	-449
802.017	-407
802.119	-815
802.220	-18
802.322	-1392
802.423	1614
802.525	-1332
802.626	427
802.727	191
802.829	693
802.930	-1786
803.031	1316
803.133	-682
803.234	-273
803.335	-249
803.436	-623
803.538	242
803.639	-111
803.740	69
803.841	94
803.942	-304
804.043	391
804.144	-1041
804.245	-82
804.346	500
804.447	-910
804.548	-498
804.649	914
804.750	-543
804.851	-838
804.952	-198
805.053	734
805.154	-220
805.255	212
805.355	-334
805.456	-94
805.557	528
805.658	-278
805.758	656
805.859	-197
805.960	-603
806.061	-121
806.161	-872
806.262	791
806.362	-170
806.463	321
806.564	652
806.664	522
806.765	-357
806.865	67
806.966	4
807.066	-1123
807.166	1005
807.267	602
807.367	85
807.468	695
807.568	-1103
807.668	-43
807.769	-55
807.869	-823
807.969	53
808.069	-84
808.170	20
808.270	-1032
808.370	-170
808.470	-61
808.570	-1388
808.670	-278
808.770	-218
808.870	-489
808.970	395
809.070	346
809.170	-127
809.271	217
809.370	629
809.470	-145
809.570	-897
809.670	-197
809.770	572
809.870	537
809.970	371
810.070	291
810.169	89
810.269	-1348
810.369	378
810.469	-552
810.568	-195
810.668	-504
810.768	1
810.867	575
810.967	174
811.066	-508
811.166	-536
811.265	811
811.365	-325
811.464	311
811.564	-100
811.663	1061
811.763	-947
811.862	413
811.962	718
812.061	-127
812.160	-453
812.260	296
812.359	-25
812.458	346
812.557	630
812.657	180
812.756	1316
812.855	23
812.954	118
813.053	639
813.153	105
813.252	-448
813.351	1148
813.450	174
813.549	720
813.648	1514
813.747	192
813.846	1069
813.945	969
814.044	516
814.143	636
814.242	1529
814.341	925
814.439	921
814.538	885
814.637	1322
814.736	1619
814.835	1582
814.933	859
815.032	2390
815.131	1915
815.229	2440
815.328	3083
815.427	1997
815.525	2554
815.624	2072
815.722	2185
815.821	2277
815.919	3579
816.018	2174
816.116	3872
816.215	3045
816.313	4016
816.412	4161
816.510	4754
816.609	6202
816.707	5483
816.805	5940
816.904	6091
817.002	6542
817.100	9096
817.198	10184
817.296	11198
817.395	13324
817.493	17320
817.591	19223
817.689	27033
817.787	37464
817.885	57663
817.983	98828
818.081	194302
818.179	410210
818.277	802904
818.375	669125
818.473	293923
818.571	143698
818.669	96226
818.767	80083
818.865	75681
818.963	87151
819.061	117642
819.158	187072
819.256	343931
819.354	672038
819.452	1029143
819.549	749447
819.647	369291
819.745	192520
819.842	119268
819.940	81387
820.038	59243
820.135	46040
820.233	36557
820.330	27766
820.428	23275
820.525	20664
820.623	17732
820.720	14351
820.818	13052
820.915	11485
821.012	11268
821.110	9028
821.207	9102
821.304	7384
821.402	8399
821.499	10901
821.596	13668
821.693	8329
821.791	6318
821.888	4322
821.985	5796
822.082	3959
822.179	5686
822.276	6183
822.373	4211
822.470	3342
822.567	3196
822.664	1950
822.761	2769
822.858	2137
822.955	3009
823.052	2400
823.149	2070
823.246	1951
823.343	1468
823.440	2049
823.536	1416
823.633	1152
823.730	1373
823.827	2107
823.923	1786
824.020	2957
824.117	2728
824.213	3498
824.310	2139
824.407	320
824.503	1191
824.600	709
824.696	1018
824.793	2238
824.889	592
824.986	802
825.082	1040
825.179	1252
825.275	818
825.371	-199
825.468	977
825.564	220
825.660	860
825.757	855
825.853	1153
825.949	-300
826.045	489
826.142	71
826.238	-14
826.334	1297
826.430	-541
826.526	869
826.622	-438
826.718	463
826.814	-217
826.910	844
827.006	-186
827.102	-579
827.198	841
827.294	407
827.390	163
827.486	1000
827.582	-582
827.678	-849
827.774	920
827.869	-877
827.965	910
828.061	-1153
828.157	-425
828.252	507
828.348	-431
828.444	855
828.539	-631
828.635	-494
828.731	428
828.826	-1283
828.922	651
829.017	-1153
829.113	16
829.208	-1219
829.304	-446
829.399	532
829.495	-951
829.590	944
829.685	-614
829.781	-217
829.876	35
829.971	-186
830.066	-1088
830.162	-908
830.257	-835
830.352	-482
830.447	387
830.543	-253
830.638	-1273
830.733	288
830.828	-648
830.923	33
831.018	-482
831.113	-972
831.208	-1292
831.303	-141
831.398	-98
831.493	-869
831.588	-319
831.683	-693
831.778	241
831.873	-339
831.967	322
832.062	-1191
832.157	-956
832.252	378
832.346	-224
832.441	-167
832.536	-500
832.631	751
832.725	-946
832.820	-1492
832.914	-94
833.009	-893
833.104	-879
833.198	-853
833.293	-976
833.387	-430
833.482	-247
833.576	-556
833.670	157
833.765	-386
833.859	-757
833.954	25
834.048	-346
834.142	53
834.237	-56
834.331	-1065
834.425	-620
834.519	-464
834.613	-205
834.708	-466
834.802	-156
834.896	-935
834.990	-300
835.084	192
835.178	-648
835.272	-700
835.366	-934
835.460	-400
835.554	-333
835.648	-701
835.742	-1380
835.836	-752
835.930	-1494
836.024	-295
836.117	27
836.211	-803
836.305	-634
836.399	-580
836.493	-2106
836.586	187
836.680	-1079
836.774	-1427
836.867	503
836.961	-1269
837.055	-927
837.148	-725
837.242	-718
837.335	-789
837.429	-409
837.522	-399
837.616	-850
837.709	48
837.803	-1109
837.896	344
837.989	-806
838.083	-838
838.176	-172
838.269	-1274
838.363	-578
838.456	-1600
838.549	-610
838.642	-1364
838.735	-318
838.829	-458
838.922	-1815
839.015	-127
839.108	-1883
839.201	-327
839.294	-162
839.387	-783
839.480	-943
839.573	-682
839.666	-312
839.759	-1230
839.852	-1415
839.945	-203
840.038	-45
840.131	-768
840.223	-957
840.316	-347
840.409	-1283
840.502	-947
840.594	861
840.687	-1113
840.780	-181
840.873	-1353
840.965	-1146
841.058	-1282
841.150	-578
841.243	-1787
841.336	-180
841.428	-1041
841.521	-863
841.613	-1509
841.706	228
841.798	-1046
841.890	-860
841.983	-1874
842.075	-738
842.167	-492
842.260	-525
842.352	-247
842.444	-1660
842.537	-523
842.629	269
842.721	-961
842.813	-565
842.905	-1845
842.997	-490
843.090	-1440
843.182	-1048
843.274	-1608
843.366	-1225
843.458	-608
843.550	-497
843.642	-1218
843.734	-522
843.826	-804
843.918	110
844.009	-831
844.101	-1163
844.193	-433
844.285	-406
844.377	790
844.469	2299
844.560	4473
844.652	2809
844.744	594
844.835	-619
844.927	-325
845.019	-470
845.110	-658
845.202	-808
845.293	-551
845.385	-980
845.476	-1167
845.568	-224
845.659	-834
845.751	-129
845.842	-1082
845.934	-1321
846.025	-2032
846.116	-566
846.208	-1112
846.299	-938
846.390	-1298
846.482	-963
846.573	-490
846.664	-448
846.755	-2024
846.846	-527
846.937	-1773
847.029	-839
847.120	-1262
847.211	-1448
847.302	314
847.393	-1453
847.484	-112
847.575	-1310
847.666	-363
847.757	-1001
847.847	-1193
847.938	-870
848.029	-1074
848.120	-1097
848.211	-146
848.302	-717
848.392	-903
848.483	-746
848.574	-1133
848.664	-279
848.755	-1424
848.846	-586
848.936	-1334
849.027	-748
849.118	-766
849.208	-928
849.299	552
849.389	632
849.480	3023
849.570	7801
849.661	16197
849.751	27322
849.841	8426
849.932	4
850.022	-932
850.112	-187
850.203	-755
850.293	-794
850.383	-1153
850.474	-1837
850.564	-443
850.654	-325
850.744	-523
850.834	-438
850.924	-754
851.014	-723
851.104	-1509
851.194	-1207
851.284	-1013
851.374	137
851.464	-1074
851.554	-446
851.644	-780
851.734	-684
851.824	-1294
851.914	-214
852.004	-127
852.094	-1576
852.183	-1052
852.273	-575
852.363	-745
852.452	-1219
852.542	-650
852.632	-1345
852.721	-495
852.811	-882
852.901	-476
852.990	-697
853.080	-586
853.169	42
853.259	-353
853.348	-195
853.438	-266
853.527	1362
853.617	2086
853.706	6781
853.795	12897
853.885	31655
853.974	61224
854.063	113557
854.152	172243
854.242	59207
854.331	8494
854.420	2982
854.509	2150
854.598	2325
854.687	637
854.777	1157
854.866	-354
854.955	811
855.044	-1407
855.133	-981
855.222	-193
855.311	-1520
855.400	759
855.488	-582
855.577	-1024
855.666	-676
855.755	-380
855.844	-74
855.933	-758
856.021	177
856.110	-197
856.199	-1350
856.288	-820
856.376	-1166
856.465	-1006
856.554	-474
856.642	-1192
856.731	-372
856.819	-934
856.908	-807
856.996	-819
857.085	-1198
857.173	-1147
857.262	-1270
857.350	-693
857.438	-950
857.527	-1049
857.615	-1614
857.703	-49
857.792	-981
857.880	-941
857.968	-694
858.056	-1546
858.145	-1509
858.233	-730
858.321	-984
858.409	-951
858.497	-1425
858.585	-985
858.673	-421
858.761	-1693
858.849	-436
858.937	-1358
859.025	-1029
859.113	-49
859.201	-828
859.289	124
859.377	-1530
859.465	-474
859.552	-702
859.640	-2112
859.728	-671
859.816	-1382
859.903	-878
859.991	-1990
860.079	-685
860.166	-1685
860.254	-729
860.342	-2117
860.429	-1922
860.517	-1612
860.604	-997
860.692	-1009
860.779	-1442
860.867	-1394
860.954	-1023
861.042	-714
861.129	-1373
861.216	-990
861.304	-1412
861.391	-1185
861.478	-1173
861.565	-1201
861.653	-486
861.740	-1223
861.827	-1279
861.914	-1296
862.001	-762
862.089	-814
862.176	-1486
862.263	-1475
862.350	-1208
862.437	-1682
862.524	-1747
862.611	-954
862.698	219
862.785	1134
862.871	969
862.958	-807
863.045	-1028
863.132	-1396
863.219	-1053
863.306	-1977
863.392	-454
863.479	-1184
863.566	-1700
863.652	-901
863.739	-847
863.826	-717
863.912	-1250
863.999	-1976
864.086	-1483
864.172	-696
864.259	-427
864.345	-753
864.432	-935
864.518	-295
864.604	-812
864.691	-1028
864.777	-174
864.863	-455
864.950	-677
865.036	-682
865.122	19
865.209	284
865.295	-265
865.381	416
865.467	1174
865.553	1680
865.639	2462
865.726	5520
865.812	13462
865.898	27402
865.984	42027
866.070	81987
866.156	83992
866.242	20859
866.328	3430
866.414	181
866.499	456
866.585	-8
866.671	-1032
866.757	-452
866.843	-346
866.928	-407
867.014	-507
867.100	-144
867.186	-1204
867.271	-414
867.357	551
867.442	-1326
867.528	-37
867.614	761
867.699	1175
867.785	2659
867.870	5042
867.956	5286
868.041	2905
868.127	1059
868.212	2618
868.297	2032
868.383	1170
868.468	745
868.553	1018
868.639	79
868.724	337
868.809	-900
868.894	-806
868.979	-721
869.065	-308
869.150	-1086
869.235	-464
869.320	-823
869.405	-1560
869.490	-1115
869.575	-670
869.660	-1019
869.745	-490
869.830	-1420
869.915	-323
870.000	-50
870.085	-201
870.169	120
870.254	-130
870.339	-722
870.424	-633
870.509	-916
870.593	-233
870.678	-945
870.763	-970
870.847	-305
870.932	-259
871.016	-321
871.101	-344
871.186	-654
871.270	-1291
871.355	-1518
871.439	-1276
871.523	-462
871.608	-826
871.692	507
871.777	327
871.861	-349
871.945	-434
872.030	-430
872.114	-337
872.198	-592
872.282	-732
872.367	-1217
872.451	-784
872.535	-1179
872.619	-833
872.703	-1045
872.787	-1359
872.871	-1472
872.955	-1138
873.039	-1078
873.123	-681
873.207	-465
873.291	-555
873.375	-430
873.459	-389
873.543	-520
873.627	-1378
873.711	-1260
873.794	-432
873.878	-472
873.962	-1077
874.045	-1279
874.129	-645
874.137	-646
874.213	-659
874.245	-710
874.296	-792
874.352	-741
874.380	-719
874.460	-957
874.464	-968
874.547	-1074
874.568	-819
874.631	-82
874.676	-5
874.714	83
874.784	-384
874.798	-485
874.881	305
874.892	115
874.965	-1165
874.999	-708
875.048	-108
875.107	-230
875.131	-273
875.215	-51
875.215	-52
875.298	-1580
875.323	-1448
875.381	-1070
875.430	-265
875.465	287
875.538	-656
875.548	-780
875.631	-734
875.646	-880
875.714	-1635
875.753	-1110
875.798	-517
875.861	-703
875.881	-769
875.964	-297
875.968	-343
876.047	-975
876.076	-750
876.130	-434
876.183	-452
876.213	-404
876.291	-92
876.296	-87
876.379	-92
876.398	-390
876.462	-1237
876.506	-793
876.545	-507
876.613	-837
876.628	-839
876.711	-566
876.721	-511
876.794	-246
876.828	-506
876.877	-822
876.935	-319
876.960	-160
877.043	463
877.043	461
877.125	243
877.150	349
877.208	537
877.258	259
877.291	98
877.365	331
877.374	351
877.456	1050
877.472	931
877.539	586
877.579	1045
877.622	1385
877.687	833
877.704	750
877.787	1027
877.794	1017
877.869	516
877.901	377
877.952	388
878.008	223
878.034	64
878.115	193
878.117	200
878.199	108
878.222	171
878.282	417
878.329	466
878.364	407
878.437	70
878.447	31
878.529	-333
878.544	-299
878.611	-32
878.651	-116
878.694	-271
878.758	145
878.776	329
878.858	-32
878.865	35
878.941	191
878.972	-309
879.023	-819
879.078	-1064
879.105	-1165
879.185	-626
879.187	-608
879.269	-134
879.292	-146
879.351	-625
879.399	-554
879.433	-280
879.506	64
879.516	84
879.598	171
879.613	28
879.680	-673
879.720	-475
879.762	-183
879.827	-464
879.844	-529
879.926	-412
879.933	-375
880.007	-310
880.040	-661
880.089	-795
880.147	-403
880.171	-413
880.253	-581
880.254	-586
880.335	-852
880.360	-628
880.417	-294
880.467	-515
880.499	-423
880.574	-203
880.580	-251
880.662	-127
880.680	-272
880.744	-320
880.787	-291
880.825	-357
880.893	-549
880.907	-551
880.989	-323
881.000	-241
881.070	91
881.106	-176
881.152	-485
881.213	-598
881.233	-572
881.315	-366
881.319	-348
881.396	-110
881.426	-141
881.478	-414
881.532	-577
881.559	-306
881.639	388
881.641	379
881.722	-29
881.745	-344
881.803	-540
881.852	-340
881.885	-429
881.958	-605
881.966	-549
882.047	-628
882.064	-492
882.129	-749
882.171	-1116
882.210	-773
882.277	-112
882.291	-195
882.372	-583
882.383	-679
882.454	-370
882.489	-66
882.535	-161
882.596	-572
882.616	-596
882.697	-728
882.702	-722
882.778	-357
882.808	-93
882.859	-22
882.914	-593
882.940	-764
883.020	-695
883.021	-687
883.102	-349
883.127	-174
883.183	-17
883.233	-66
883.264	-139
883.339	-29
883.345	-7
883.426	-452
883.445	-363
883.507	-127
883.551	-2
883.587	56
883.657	-300
883.668	-275
883.749	226
883.763	289
883.830	182
883.869	25
883.910	-80
883.975	-215
883.991	-236
884.072	-59
884.081	-76
884.152	66
884.187	81
884.233	-161
884.292	-106
884.314	24
884.394	15
884.398	31
884.475	-16
884.504	-237
884.555	-156
884.610	128
884.636	56
884.716	12
884.716	20
884.797	405
884.821	441
884.877	87
884.927	-131
884.958	19
885.033	420
885.038	386
885.118	-406
885.139	-560
885.199	-87
885.244	82
885.279	-76
885.350	-176
885.359	-122
885.439	359
885.456	373
885.520	-140
885.561	-317
885.600	-122
885.667	254
885.680	252
885.760	-148
885.773	-160
885.840	515
885.878	822
885.920	632
885.984	114
886.000	39
886.080	80
886.089	57
886.160	-158
886.195	-239
886.240	210
886.300	618
886.320	403
886.400	-289
886.406	-348
886.480	-276
886.511	-202
886.560	-253
886.616	-393
886.640	-55
886.720	1094
886.722	1113
886.800	-63
886.827	-473
886.879	-109
886.932	108
886.959	256
887.038	939
887.039	945
887.119	697
887.143	620
887.198	430
887.248	223
887.278	338
887.354	573
887.358	564
887.437	289
887.459	206
887.517	407
887.564	508
887.596	327
887.669	64
887.676	79
887.755	155
887.774	150
887.835	47
887.880	-7
887.914	249
887.985	715
887.994	676
888.073	263
888.090	176
888.153	353
888.195	439
888.232	403
888.300	445
888.311	510
888.391	828
888.405	877
888.470	749
888.510	645
888.549	558
888.615	487
888.628	394
888.708	-239
888.720	-342
888.787	589
888.825	1069
888.866	437
888.930	-465
888.945	-299
889.024	507
889.035	619
889.103	292
889.140	66
889.182	294
889.245	679
889.261	596
889.340	136
889.349	81
889.419	557
889.454	796
889.498	607
889.559	322
889.577	414
889.656	819
889.664	854
889.735	388
889.768	162
889.814	470
889.873	874
889.978	543
890.083	1989
890.187	59
890.292	876
890.397	-299
890.501	1061
890.606	158
890.710	1477
890.815	712
890.919	1772
891.024	399
891.128	2154
891.233	966
891.337	832
891.442	-831
891.546	1042
891.650	47
891.755	1286
891.859	968
891.963	428
892.068	422
892.172	799
892.276	392
892.380	856
892.484	348
892.589	783
892.693	483
892.797	864
892.901	683
893.005	200
893.109	154
893.213	1340
893.317	201
893.421	1136
893.525	-355
893.629	207
893.733	-362
893.837	568
893.941	504
894.045	1259
894.148	363
894.252	-221
894.356	65
894.460	437
894.564	883
894.667	768
894.771	148
894.875	1769
894.978	502
895.082	-178
895.186	513
895.289	851
895.393	477
895.496	1407
895.600	-358
895.703	442
895.807	200
895.910	1174
896.014	301
896.117	359
896.221	-500
896.324	867
896.427	938
896.531	783
896.634	-501
896.737	630
896.840	-217
896.944	341
897.047	-518
897.150	900
897.253	-153
897.356	1300
897.460	699
897.563	1247
897.666	176
897.769	200
897.872	318
897.975	77
898.078	532
898.181	114
898.284	60
898.387	693
898.490	779
898.593	778
898.695	162
898.798	1329
898.901	239
899.004	640
899.107	151
899.209	828
899.312	409
899.415	577
899.518	333
899.620	520
899.723	20
899.826	1168
899.928	-269
900.031	995
900.133	574
900.236	735
900.338	57
900.441	158
900.543	-446
900.646	1077
900.748	80
900.851	466
900.953	-8
901.055	744
901.158	364
901.260	820
901.362	-131
901.465	969
901.567	158
901.669	214
901.771	-10
901.873	1155
901.976	246
902.078	1115
902.180	-210
902.282	417
902.384	263
902.486	1340
902.588	-93
902.690	1184
902.792	206
902.894	1910
902.996	717
903.098	1102
903.200	236
903.302	774
903.404	155
903.505	758
903.607	452
903.709	1243
903.811	-423
903.913	697
904.014	-506
904.116	873
904.218	287
904.319	1645
904.421	1928
904.523	4021
904.624	1981
904.726	1920
904.827	1107
904.929	2663
905.030	1531
905.132	739
905.233	68
905.335	394
905.436	891
905.537	861
905.639	1216
905.740	1374
905.841	767
905.943	2072
906.044	1786
906.145	2303
906.247	772
906.348	1106
906.449	-123
906.550	-15
906.651	994
906.752	772
906.854	511
906.955	1692
907.056	447
907.157	518
907.258	620
907.359	642
907.460	478
907.561	1083
907.662	-441
907.762	803
907.863	-649
907.964	443
908.065	73
908.166	830
908.267	89
908.367	50
908.468	-35
908.569	1474
908.670	1493
908.770	81
908.871	151
908.971	833
909.072	-319
909.173	736
909.273	104
909.374	107
909.474	177
909.575	3
909.675	67
909.776	655
909.876	-230
909.977	223
910.077	585
910.177	1140
910.278	-595
910.378	65
910.478	261
910.579	97
910.679	746
910.779	233
910.879	86
910.980	648
911.080	0
911.180	224
911.280	17
911.380	-83
911.480	-212
911.580	1162
911.680	-142
911.780	581
911.880	523
911.980	222
912.080	120
912.180	142
912.280	-361
912.380	458
912.480	123
912.580	922
912.679	-750
912.779	732
912.879	-590
912.979	84
913.078	-402
913.178	908
913.278	-748
913.377	782
913.477	-80
913.577	103
913.676	-55
913.776	457
913.875	-308
913.975	-179
914.074	498
914.174	800
914.273	-58
914.373	379
914.472	594
914.572	580
914.671	-540
914.770	539
914.870	377
914.969	721
915.068	-119
915.167	428
915.267	283
915.366	598
915.465	105
915.564	690
915.663	-395
915.763	265
915.862	502
915.961	409
916.060	-772
916.159	1126
916.258	666
916.357	898
916.456	238
916.555	741
916.654	211
916.752	448
916.851	234
916.950	1013
917.049	340
917.148	517
917.247	-579
917.345	673
917.444	-23
917.543	-267
917.642	-918
917.740	549
917.839	704
917.937	344
918.036	-293
918.135	1042
918.233	518
918.332	94
918.430	642
918.529	264
918.627	-191
918.726	-65
918.824	-408
918.923	78
919.021	-534
919.119	650
919.218	-157
919.316	611
919.414	-479
919.512	789
919.611	-295
919.709	92
919.807	442
919.905	1174
920.003	74
920.102	76
920.200	173
920.298	84
920.396	429
920.494	491
920.592	-653
920.690	872
920.788	-148
920.886	-127
920.984	399
921.082	407
921.180	58
921.277	-402
921.375	-160
921.473	961
921.571	-18
921.669	400
921.766	305
921.864	631
921.962	1048
922.060	135
922.157	37
922.255	144
922.352	-568
922.450	738
922.548	-48
922.645	844
922.743	424
922.840	743
922.938	1042
923.035	800
923.133	-276
923.230	1341
923.327	922
923.425	877
923.522	1002
923.619	1047
923.717	415
923.814	1110
923.911	437
924.008	1421
924.106	505
924.203	398
924.300	39
924.397	1000
924.494	764
924.591	719
924.688	-109
924.786	1592
924.883	525
924.979	755
925.077	395
925.173	804
925.270	80
925.367	1019
925.464	831
925.561	1123
925.658	1478
925.755	1205
925.852	1629
925.948	2138
926.045	3449
926.142	3822
926.239	3854
926.335	4577
926.432	4027
926.529	5785
926.625	5245
926.722	4678
926.818	1484
926.915	1534
927.011	1069
927.108	488
927.204	240
927.301	1543
927.397	774
927.494	790
927.590	998
927.687	1539
927.783	438
927.879	862
927.976	287
928.072	780
928.168	361
928.264	1311
928.361	681
928.457	548
928.553	-246
928.649	723
928.745	-37
928.841	937
928.937	-442
929.033	1089
929.129	312
929.225	306
929.321	265
929.417	538
929.513	459
929.609	420
929.705	-164
929.801	631
929.897	5
929.993	912
930.089	41
930.184	-6
930.280	386
930.376	672
930.471	34
930.567	387
930.663	628
930.758	154
930.854	168
930.950	145
931.045	-496
931.141	504
931.236	460
931.332	420
931.427	-311
931.523	1216
931.618	-430
931.714	693
931.809	-197
931.905	1170
932.000	-134
932.095	492
932.191	427
932.286	447
932.381	427
932.476	601
932.572	-437
932.667	1055
932.762	27
932.857	1206
932.952	-490
933.047	225
933.142	47
933.237	202
933.332	-60
933.427	672
933.522	632
933.617	246
933.712	-375
933.807	414
933.902	448
933.997	630
934.092	-426
934.187	423
934.282	-346
934.376	895
934.471	674
934.566	444
934.661	51
934.755	284
934.850	247
934.945	-527
935.039	-680
935.134	-6
935.228	694
935.323	708
935.417	110
935.512	-123
935.606	-349
935.701	-428
935.795	184
935.890	62
935.984	403
936.079	-61
936.173	-413
936.267	763
936.362	-1097
936.456	347
936.550	-230
936.644	492
936.738	-627
936.833	1042
936.927	-112
937.021	686
937.115	-1
937.209	-287
937.303	642
937.397	444
937.491	551
937.585	25
937.679	500
937.773	166
937.867	-658
937.961	1251
938.055	-290
938.149	1313
938.243	724
938.337	538
938.430	929
938.524	2458
938.618	5628
938.712	5403
938.805	1135
938.899	1490
938.993	1627
939.086	3293
939.180	6888
939.274	10531
939.367	3833
939.461	2031
939.554	551
939.648	615
939.741	549
939.835	335
939.928	-176
940.022	943
940.115	151
940.208	423
940.302	260
940.395	308
940.488	-533
940.582	1044
940.675	-483
940.768	-272
940.861	-352
940.954	1104
941.048	-363
941.141	824
941.234	249
941.327	1868
941.420	2367
941.513	1329
941.606	113
941.699	980
941.792	-297
941.885	506
941.978	36
942.071	110
942.164	-411
942.257	765
942.349	-254
942.442	133
942.535	-333
942.628	614
942.721	-386
942.813	-415
942.906	1
942.999	131
943.091	-596
943.184	178
943.277	-154
943.369	-131
943.462	-902
943.554	522
943.647	444
943.739	203
943.832	-483
943.924	-769
944.017	-267
944.109	-397
944.201	-622
944.294	-251
944.386	-317
944.478	-1108
944.571	-149
944.663	288
944.755	-246
944.847	-306
944.940	-140
945.032	-799
945.124	-46
945.216	639
945.308	-654
945.400	569
945.492	-507
945.584	-286
945.676	134
945.768	309
945.860	244
945.952	45
946.044	765
946.136	526
946.228	-420
946.320	786
946.412	-979
946.503	1114
946.595	-589
946.687	175
946.779	-715
946.870	673
946.962	-1487
947.054	679
947.145	-273
947.237	493
947.329	-1114
947.420	-445
947.512	-319
947.603	-628
947.695	144
947.786	-152
947.878	-653
947.969	309
948.061	-1471
948.152	-90
948.243	-54
948.335	463
948.426	-616
948.517	-26
948.609	26
948.700	-380
948.791	-252
948.882	38
948.973	-1549
949.065	-42
949.156	-1019
949.247	-832
949.338	-530
949.429	-700
949.520	-969
949.611	-150
949.702	150
949.793	631
949.884	-1154
949.975	-233
950.066	-376
950.157	-631
950.247	-524
950.338	268
950.429	-1147
950.520	244
950.611	-926
950.701	116
950.792	-603
950.883	-228
950.973	-750
951.064	362
951.155	-874
951.245	401
951.336	-1057
951.427	-783
951.517	204
951.608	428
951.698	-841
951.788	-722
951.879	-1017
951.969	-633
952.060	-848
952.150	-511
952.240	-58
952.331	-562
952.421	455
952.511	-234
952.602	-605
952.692	-777
952.782	-804
952.872	-370
952.962	-1155
953.052	-369
953.143	-1069
953.233	-189
953.323	-644
953.413	-37
953.503	-988
953.593	-299
953.683	-1221
953.773	-720
953.863	-974
953.953	-384
954.042	-321
954.132	352
954.222	-188
954.312	-228
954.402	-1523
954.492	332
954.581	-1380
954.671	-466
954.761	-1349
954.850	893
954.940	-573
955.030	-119
955.119	-380
955.209	-42
955.298	-902
955.388	-518
955.477	-472
955.567	-485
955.656	-1315
955.746	-98
955.835	-922
955.925	-297
956.014	-636
956.103	-298
956.193	-985
956.282	-179
956.371	-32
956.461	-510
956.550	-1141
956.639	647
956.728	-1222
956.817	217
956.906	-296
956.995	372
957.085	-900
957.174	-315
957.263	-788
957.352	140
957.441	-1109
957.530	-89
957.619	-1280
957.708	-774
957.796	-802
957.885	-158
957.974	-969
958.063	230
958.152	-1549
958.241	79
958.329	-879
958.418	-389
958.507	-1395
958.596	1097
958.684	-1565
958.773	-296
958.861	-1198
958.950	470
959.039	-702
959.127	-417
959.216	63
959.304	-668
959.393	-541
959.481	-301
959.570	-809
959.658	-389
959.746	-1052
959.835	-484
959.923	-1454
960.011	26
960.100	-784
960.188	-446
960.276	-740
960.365	-136
960.453	-517
960.541	-636
960.629	-1233
960.717	169
960.805	-1852
960.893	577
960.981	-1319
961.069	837
961.158	-842
961.245	622
961.333	-715
961.421	-548
961.509	-1236
961.597	374
961.685	-358
961.773	-325
961.861	-736
961.949	-54
962.036	-1101
962.124	568
962.212	-1845
962.299	-608
962.387	-1252
962.475	-540
962.562	-1722
962.650	600
962.738	-617
962.825	-666
962.913	-1257
963.000	-987
963.088	-1102
963.175	297
963.263	-1233
963.350	-1000
963.438	-1173
963.525	-867
963.612	-271
963.700	-373
963.787	-461
963.874	-460
963.962	-1057
964.049	30
964.136	-632
964.223	-929
964.310	-813
964.398	-667
964.485	-1043
964.572	-846
964.659	-812
964.746	-826
964.833	-1532
964.920	-188
965.007	-1539
965.094	-74
965.181	-1241
965.268	-650
965.355	-1031
965.441	-350
965.528	-712
965.615	508
965.702	-831
965.789	-1089
965.875	-1013
965.962	-245
966.049	-1527
966.136	414
966.222	-1660
966.309	-181
966.395	-1911
966.482	-383
966.569	-730
966.655	-729
966.742	-1063
966.828	-90
966.915	-538
967.001	-934
967.087	-2600
967.174	-595
967.260	-684
967.347	-661
967.433	-1421
967.519	-175
967.605	-1288
967.692	-11
967.778	-518
967.864	62
967.950	-1329
968.036	-653
968.123	-1598
968.209	212
968.295	-1476
968.381	1203
968.467	-408
968.553	-920
968.639	281
968.725	-208
968.811	-158
968.897	-1287
968.983	-1571
969.069	-1271
969.154	-583
969.240	-239
969.326	-1983
969.412	-605
969.497	-1544
969.583	-604
969.669	-750
969.755	-1426
969.840	-1587
969.926	487
970.012	-283
970.097	75
970.183	-1190
970.268	411
970.354	-1005
970.439	-1546
970.525	-707
970.610	-1092
970.696	-375
970.781	138
970.866	-1062
970.952	29
971.037	-1591
971.122	-302
971.208	-777
971.293	-1084
971.378	-1968
971.463	205
971.549	-1216
971.634	-434
971.719	-838
971.804	-965
971.889	-974
971.974	-1056
972.059	-1328
972.144	-862
972.229	-1165
972.314	-1092
972.399	-209
972.484	-761
972.569	-1392
972.654	-1081
972.739	-355
972.824	-960
972.908	-864
972.993	-236
973.078	-537
973.163	169
973.247	-491
973.332	-1256
973.417	-427
973.501	-734
973.586	-1008
973.671	53
973.755	-1401
973.840	240
973.924	-774
974.009	28
974.093	-1830
974.178	384
974.262	-1058
974.346	-404
974.431	-1561
974.515	-594
974.600	-1595
974.684	-406
974.768	-852
974.852	587
974.937	-2194
975.021	465
975.105	-950
975.189	17
975.273	-701
975.358	-449
975.442	-1337
975.526	-234
975.610	-894
975.694	-1164
975.778	2
975.862	113
975.946	-1745
976.030	494
976.114	-1467
976.198	-716
976.281	-1570
976.365	338
976.449	-936
976.533	-527
976.617	-1791
976.700	-970
976.784	-1257
976.868	-439
976.951	-944
977.035	-209
977.119	-685
977.202	-429
977.286	-733
977.369	-207
977.453	-912
977.536	-69
977.620	-1151
977.703	-81
977.787	-1560
977.870	-498
977.953	-505
978.037	-371
978.120	-585
978.203	-269
978.287	-773
978.370	-799
978.453	-1288
978.536	-28
978.620	-77
978.703	-658
978.786	-657
978.869	-730
978.952	-2005
979.035	507
979.118	31
979.201	-766
979.284	-502
979.367	-1134
979.450	-799
979.533	-1023
979.616	-966
979.699	-969
979.782	-649
979.865	-795
979.948	-1234
980.030	-1470
980.113	-29
980.196	-1196
980.279	-172
980.361	-861
980.444	-1153
980.526	574
980.609	-416
980.692	-1367
980.774	-374
980.857	-1018
980.939	-308
981.022	-301
981.104	-1168
981.187	-1623
981.269	-624
981.352	-105
981.434	-971
981.516	-374
981.599	233
981.681	-509
981.763	-1714
981.846	-455
981.928	-911
982.010	-832
982.092	-1303
982.174	246
982.256	-408
982.339	584
982.421	-1012
982.503	-110
982.585	-1197
982.667	-188
982.749	-1288
982.831	-111
982.913	-1741
982.995	151
983.077	-1642
983.158	497
983.240	-2471
983.322	-76
983.404	-369
983.486	-878
983.568	-1035
983.649	-562
983.731	-633
983.813	-84
983.894	-715
983.976	-1455
984.058	-1153
984.139	351
984.221	-985
984.302	216
984.384	-1156
984.465	-976
984.547	-1337
984.628	-1000
984.710	-434
984.791	-885
984.872	-1290
984.954	-172
985.035	-1059
985.116	-1080
985.198	-2715
985.279	417
985.360	-986
985.441	-445
985.522	-414
985.604	23
985.685	-2880
985.766	228
985.847	442
985.928	-528
986.009	-653
986.090	-41
986.171	-170
986.252	167
986.333	-772
986.414	-1030
986.495	-589
986.576	-1022
986.656	-1243
986.737	148
986.818	-1177
986.899	-600
986.980	-1384
987.060	332
987.141	-1413
987.222	-684
987.302	-800
987.383	-285
987.464	-1808
987.544	934
987.625	-1264
987.705	108
987.786	-854
987.866	-285
987.947	-1475
988.027	-338
988.108	-1460
988.188	100
988.268	-661
988.349	-266
988.429	-1314
988.509	-327
988.589	-304
988.670	-2013
988.750	-689
988.830	-365
988.910	-326
988.990	-854
989.070	-1091
989.151	-206
989.231	-1629
989.311	160
989.391	-1412
989.471	-460
989.551	-1435
989.631	117
989.711	-66
989.791	-1502
989.870	-1802
989.950	335
990.030	-1612
990.110	-212
990.190	-1721
990.269	-1036
990.349	-1057
990.429	-47
990.509	-391
990.588	-1109
990.668	-754
990.747	561
990.827	-723
990.907	578
990.986	-1476
991.066	-13
991.145	-1205
991.225	-69
991.304	-1940
991.383	67
991.463	-1221
991.542	-319
991.622	-1664
991.701	-739
991.780	-1769
991.859	-934
991.939	-1323
992.018	-1106
992.097	-1024
992.176	-130
992.256	-974
992.335	-1116
992.414	-722
992.493	-1264
992.572	-2203
992.651	-556
992.730	-1706
992.809	-504
992.888	-1040
992.967	-171
993.046	-1042
993.125	-782
993.203	-1129
993.282	149
993.361	-1488
993.440	-244
993.519	-1611
993.597	-696
993.676	-1685
993.755	399
993.834	-719
993.912	-1305
993.991	-701
994.069	-1254
994.148	-875
994.226	-802
994.305	-1398
994.384	-518
994.462	-197
994.540	-1689
994.619	-1999
994.697	-375
994.776	-1623
994.854	-130
994.932	-2093
995.011	-591
995.089	-1271
995.167	-757
995.245	-1047
995.324	-1100
995.402	-736
995.480	-1204
995.558	-1588
995.636	-650
995.714	-1553
995.792	-417
995.870	-2021
995.948	-429
996.026	-937
996.104	-1583
996.182	-472
996.260	-1053
996.338	-776
996.416	-986
996.494	-2327
996.572	-579
996.649	-1189
996.727	-1800
996.805	-1316
996.883	-874
996.960	-1165
997.038	-607
997.116	-1148
997.193	-1797
997.271	-715
997.348	-1788
997.426	-400
997.504	-1169
997.581	-548
997.658	364
997.736	-2175
997.813	-1346
997.891	-612
997.968	-1340
998.046	-1268
998.123	-846
998.200	-1079
998.277	-1465
998.355	-632
998.432	-1697
998.509	-844
998.586	-321
998.663	-1492
998.741	-1341
998.818	-1607
998.895	-1048
998.972	-999
999.049	-1382
999.126	-1164
999.203	-278
999.280	-1385
999.357	-1314
999.434	-2029
999.511	-1354
999.587	-767
999.664	-1307
999.741	-1217
999.818	-376
999.895	-1798
999.971	-1305
1000.048	-1055
1000.125	-974
1000.202	-2126
1000.278	-677
1000.355	-964
1000.431	-689
1000.508	-1717
1000.584	-512
1000.661	-2103
1000.738	-1223
1000.814	-799
1000.890	-411
1000.967	-1910
1001.043	-878
1001.120	-2428
1001.196	-617
1001.272	-2118
1001.349	-862
1001.425	-1022
1001.501	-519
1001.577	-1498
1001.654	-1088
1001.730	-1482
1001.806	-868
1001.882	-2354
1001.958	-560
1002.034	-899
1002.110	-73
1002.186	-1275
1002.262	-666
1002.338	-1237
1002.414	-288
1002.490	-1214
1002.566	-1708
1002.642	-1654
1002.718	299
1002.794	-1072
1002.870	-811
1002.945	-1751
1003.021	-1294
1003.097	-1406
1003.173	-283
1003.248	-2113
1003.324	-1280
1003.400	-1660
1003.475	-1492
1003.551	-1315
1003.626	-536
1003.702	-2512
1003.777	-501
1003.853	-2358
1003.928	-2083
1004.004	-1241
1004.079	-963
1004.155	-923
1004.230	-1605
1004.305	-313
1004.381	-2151
1004.456	-1843
1004.531	-889
1004.607	-2067
1004.682	-1704
1004.757	-442
1004.832	-1794
1004.907	-1174
1004.982	-578
1005.057	-598
1005.133	-1537
1005.208	-1380
1005.283	-1546
1005.358	-285
1005.433	-1462
1005.508	-1245
1005.583	-1955
1005.657	-2677
1005.732	-1181
1005.807	-2029
1005.882	-392
1005.957	-2029
1006.032	-60
1006.106	-2053
1006.181	-504
1006.256	-999
1006.331	-973
1006.405	-1978
1006.480	-769
1006.554	-1647
1006.629	-408
1006.704	-1453
1006.778	-1261
1006.853	-1303
1006.927	-616
1007.002	-2467
1007.076	-1418
1007.150	-1742
1007.225	-890
1007.299	-1666
1007.373	-1274
1007.448	-1255
1007.522	-427
1007.596	-1323
1007.671	-1797
1007.745	-1352
1007.819	-1489
1007.893	-1354
1007.967	286
1008.041	-2141
1008.115	-964
1008.190	-1737
1008.264	-748
1008.338	-2839
1008.412	-1060
1008.486	-980
1008.560	-1573
1008.633	-2283
1008.707	-2207
1008.781	-521
1008.855	-779
1008.929	-2145
1009.003	-1198
1009.076	-1338
1009.150	-1627
1009.224	-1408
1009.298	-1114
1009.371	-2160
1009.445	-472
1009.519	-964
1009.592	-1420
1009.666	-1745
1009.739	-1186
1009.813	-2020
1009.886	423
1009.960	-2118
1010.033	-621
1010.107	-641
1010.180	-2472
1010.253	-1144
1010.327	-759
1010.400	-321
1010.473	-1436
1010.547	-431
1010.620	-1021
1010.693	-558
1010.766	50
1010.840	-939
1010.913	24
1010.986	-1566
1011.059	-48
1011.132	-1027
1011.205	636
1011.278	-964
1011.351	356
1011.424	-133
1011.497	60
1011.570	-907
1011.643	-599
1011.716	-1753
1011.789	-976
1011.862	-1074
1011.934	-692
1012.007	-1790
1012.080	-744
1012.153	-1147
1012.225	-782
1012.298	-2667
1012.371	-1771
1012.443	-1159
1012.516	-1852
1012.588	-1499
1012.661	-285
1012.733	-2704
1012.806	-1168
1012.879	-1351
1012.951	-1057
1013.023	-1406
1013.096	-1050
1013.168	-1514
1013.241	432
1013.313	-2040
1013.385	-1253
1013.458	-1522
1013.530	33
1013.602	-2675
1013.674	-550
1013.746	-2608
1013.819	-990
1013.891	-1018
1013.963	-846
1014.035	-1386
1014.107	-1147
1014.179	-1259
1014.251	-1320
1014.323	-1465
1014.395	-1717
1014.467	-1529
1014.539	-659
1014.611	-1981
1014.683	-1021
1014.754	-932
1014.826	-1238
1014.898	-1967
1014.970	-2065
1015.042	-1307
1015.113	-1089
1015.185	-1333
1015.257	-1820
1015.328	-966
1015.400	-1809
1015.471	-1507
1015.543	-2022
1015.615	-2053
1015.686	-1223
1015.757	-1684
1015.829	-836
1015.901	-1689
1015.972	-1202
1016.043	-2116
1016.115	-1108
1016.186	-2001
1016.257	-1876
1016.328	-948
1016.400	-185
1016.471	-2079
1016.542	-1393
1016.613	-1688
1016.685	-1228
1016.756	-1077
1016.827	-173
1016.898	-2790
1016.969	-982
1017.040	-1972
1017.111	-1136
1017.182	-1657
1017.253	-894
1017.324	-1937
1017.395	-929
1017.466	-1563
1017.537	-1656
1017.608	-2641
1017.678	-1941
1017.749	-2270
1017.820	-1538
1017.891	-1719
1017.961	-1744
1018.032	-1010
1018.103	-633
1018.173	-2370
1018.244	-1639
1018.315	-1759
1018.385	-23
1018.456	-1743
1018.526	-1623
1018.597	-1102
1018.667	-1194
1018.738	-1548
1018.808	-1244
1018.878	-2130
1018.949	-1118
1019.019	-1676
1019.089	-1069
1019.160	-1973
1019.230	-1434
1019.300	-1507
1019.371	-2101
1019.441	-1483
1019.511	-1220
1019.581	-2445
1019.651	-874
1019.721	-1411
1019.791	-1473
1019.861	-2429
1019.931	-1133
1020.001	-2023
1020.071	-1354
1020.141	-1984
1020.211	-1911
1020.281	-1932
1020.351	-1038
1020.421	-1469
1020.491	-802
1020.560	-2853
1020.630	-1339
1020.700	-1842
1020.770	-1558
1020.839	-2067
1020.909	-1450
1020.979	-1568
1021.048	-879
1021.118	-1511
1021.187	-1037
1021.257	-1164
1021.326	-830
1021.396	-2050
1021.465	-1342
1021.535	-1629
1021.604	-2123
1021.674	-1048
1021.743	-1200
1021.812	-1877
1021.882	-982
1021.951	-1961
1022.020	-1294
1022.089	-1328
1022.159	-1564
1022.228	-1255
1022.297	-1467
1022.366	-1765
1022.435	-1340
1022.504	-1671
1022.573	-1784
1022.642	-1764
1022.711	-1217
1022.781	-1528
1022.849	-405
1022.918	-1770
1022.987	-1182
1023.056	-2300
1023.125	-951
1023.194	-1371
1023.263	-1093
1023.331	-1477
1023.400	-1936
1023.469	-2218
1023.538	-781
1023.606	-2447
1023.675	-527
1023.744	-1786
1023.812	-1463
1023.881	-1644
1023.949	-1203
1024.018	-2453
1024.086	-1507
1024.155	-1503
1024.223	-2012
1024.292	-2255
1024.360	-981
1024.429	-1140
1024.497	-1922
1024.565	-1040
1024.634	-1343
1024.702	-1448
1024.770	-1405
1024.838	-2301
1024.907	-2079
1024.975	-2360
1025.043	-1448
1025.111	-2420
1025.179	-1963
1025.247	-2446
1025.315	-1480
1025.383	-1622
1025.451	-1423
1025.519	-1325
1025.587	-1651
1025.655	-2457
1025.723	-1523
1025.791	-1893
1025.859	-754
1025.927	-1265
1025.995	-1639
1026.062	-1616
1026.130	-1415
1026.198	-1801
1026.266	-1607
1026.333	-1491
1026.401	-363
1026.469	-2098
1026.536	-1385
1026.604	-1890
1026.671	-2121
1026.739	-2357
1026.806	-1598
1026.874	-2434
1026.941	-1383
1027.009	-2170
1027.076	-2033
1027.144	-2005
1027.211	-1424
1027.278	-1677
1027.345	-639
1027.413	-1491
1027.480	-1468
1027.547	-1777
1027.614	-1496
1027.682	-1311
1027.749	-1457
1027.816	-2331
1027.883	-1176
1027.950	-1988
1028.017	-1354
1028.084	-1928
1028.151	-1441
1028.218	-2517
1028.285	-1936
1028.352	-1976
1028.419	-2004
1028.486	-2331
1028.553	-911
1028.619	-2903
1028.686	-1664
1028.753	-2475
1028.820	-1576
1028.886	-2598
1028.953	-1479
1029.020	-2055
1029.086	-2017
1029.153	-3512
1029.220	-1252
1029.286	-2166
1029.353	-651
1029.419	-2526
1029.486	-1747
1029.552	-2017
1029.619	-1227
1029.685	-2650
1029.751	-1098
1029.818	-1976
1029.884	-1495
1029.951	-1572
1030.017	-1823
1030.083	-1612
1030.149	-1429
1030.216	-2191
1030.282	-1327
1030.348	-2309
1030.414	-1978
1030.480	-3184
1030.546	-1449
1030.612	-1988
1030.678	-1449
1030.744	-1380
1030.810	-1181
1030.876	-2069
1030.942	-1581
1031.008	-1415
1031.074	-1997
1031.140	-2000
1031.206	-1355
1031.272	-2484
1031.337	-1475
1031.403	-2747
1031.469	-1335
1031.534	-2462
1031.600	-1499
1031.666	-2573
1031.731	-1593
1031.797	-2023
1031.863	-1713
1031.928	-1654
1031.994	-2090
1032.059	-1475
1032.125	-1621
1032.190	-2100
1032.256	-1539
1032.321	-2743
1032.386	-1723
1032.452	-2319
1032.517	-2044
1032.582	-2656
1032.647	-1388
1032.713	-1706
1032.778	-2233
1032.843	-2299
1032.908	-2283
1032.974	-2278
1033.039	-1928
1033.104	-1741
1033.169	-2625
1033.234	-1769
1033.299	-1944
1033.364	-2234
1033.429	-1919
1033.494	-1645
1033.559	-1865
1033.624	-2449
1033.688	-1268
1033.753	-2545
1033.818	-1235
1033.883	-2207
1033.948	-1685
1034.013	-2442
1034.077	-1763
1034.142	-1515
1034.207	-1339
1034.271	-1528
1034.336	-381
1034.400	-1908
1034.465	-1281
1034.530	-1957
1034.594	-1815
1034.658	-2402
1034.723	-1301
1034.787	-2240
1034.852	-1956
1034.916	-2234
1034.981	-1597
1035.045	-1909
1035.109	-1859
1035.173	-2289
1035.238	-1856
1035.302	-2048
1035.366	-1888
1035.430	-1800
1035.495	-2328
1035.559	-1927
1035.623	-1993
1035.687	-2262
1035.751	-1200
1035.815	-1800
1035.879	-2047
1035.943	-2415
1036.007	-1797
1036.071	-2654
1036.135	-1356
1036.198	-2592
1036.262	-2942
1036.326	-1812
1036.390	-1547
1036.454	-2240
1036.517	-1843
1036.581	-1699
1036.645	-1075
1036.709	-2164
1036.772	-2019
1036.836	-2243
1036.900	-1886
1036.963	-2090
1037.026	-1359
1037.090	-2445
1037.154	-1889
1037.217	-2022
1037.280	-2059
1037.344	-2044
1037.407	-2419
1037.471	-2416
1037.534	-2163
1037.597	-1728
1037.661	-2122
1037.724	-2441
1037.787	-2407
1037.850	-1915
1037.913	-1169
1037.977	-1367
1038.040	-1911
1038.103	-2024
1038.166	-1054
1038.229	-2433
1038.292	-1848
1038.355	-2120
1038.418	-984
1038.481	-2048
1038.544	-1447
1038.607	-2410
1038.670	-1084
1038.732	-2500
1038.795	-1789
1038.858	-2120
1038.921	-1005
1038.984	-2112
1039.046	-2296
1039.109	-2353
1039.172	-961
1039.234	-2472
1039.297	-2016
1039.360	-1871
1039.422	-2000
1039.485	-2754
1039.547	-2435
1039.610	-2105
1039.672	-2472
1039.734	-1435
1039.797	-1737
1039.859	-1141
1039.922	-2013
1039.984	-1871
1040.046	-1356
1040.109	-2158
1040.171	-1903
1040.233	-1675
1040.295	-1727
1040.358	-3070
1040.420	-2502
1040.482	-2311
1040.544	-1881
1040.606	-2417
1040.668	-1253
1040.730	-2431
1040.792	-2052
1040.854	-2313
1040.916	-2274
1040.978	-2712
1041.040	-1440
1041.102	-1747
1041.164	-916
1041.225	-1866
1041.287	-2258
1041.349	-1543
1041.411	-1177
1041.472	-2152
1041.534	-1410
1041.596	-2172
1041.657	-1431
1041.719	-2056
1041.781	-2339
1041.842	-2201
1041.904	-1243
1041.965	-1956
1042.027	-1608
1042.088	-2155
1042.150	-1987
1042.211	-1473
1042.272	-1471
1042.334	-2217
1042.395	-2017
1042.456	-2102
1042.518	-828
1042.579	-1539
1042.640	-1485
1042.701	-2060
1042.763	-2299
1042.824	-2151
1042.885	-1649
1042.946	-1908
1043.007	-1249
1043.068	-2087
1043.129	-1791
1043.190	-2319
1043.251	-1097
1043.312	-2730
1043.373	-1517
1043.434	-2387
1043.495	-1549
1043.556	-2000
1043.616	-1176
1043.677	-2747
1043.738	-904
1043.799	-2304
1043.859	-777
1043.920	-2817
1043.981	-2023
1044.041	-2071
1044.102	-1272
1044.162	-2559
1044.223	-1115
1044.284	-1418
1044.344	-964
1044.405	-1209
1044.465	-1239
1044.525	-1933
1044.586	-1468
1044.646	-2344
1044.707	-1026
1044.767	-2229
1044.827	-1209
1044.887	-2016
1044.948	-1779
1045.008	-2149
1045.068	-1500
1045.128	-1743
1045.188	-1268
1045.249	-1150
1045.309	-1011
1045.369	-2307
1045.429	-2087
1045.489	-1971
1045.549	-978
1045.609	-1541
1045.669	-807
1045.729	-2555
1045.789	-421
1045.848	-1360
1045.908	-915
1045.968	-1744
1046.028	-881
1046.088	-1596
1046.147	-75
1046.207	-2247
1046.267	-1546
1046.326	-1805
1046.386	-694
1046.446	-1461
1046.505	-583
1046.565	-823
1046.624	-514
1046.684	-660
1046.743	-187
1046.803	-493
1046.862	151
1046.922	0
