'Start Wavelength	183.907
'End Wavelength	1046.922
'Gate Delay	5.000
'Gate Width (ms)	1.050
'Laser Output Level	0.000
'X Position	0.000
'Y Position	0.000
'Z Position	0.000
'Grid Point Number	1.000
'Shot Number	100.000
183.907	467.000
183.977	-160.000
184.047	-204
184.116	-111
184.186	261
184.256	-259
184.325	-228
184.395	-649
184.465	322
184.534	-87
184.604	-409
184.674	-134
184.743	-197
184.813	188
184.883	557
184.952	174
185.022	582
185.092	22
185.161	354
185.231	903
185.301	0
185.370	593
185.440	180
185.509	-22
185.579	174
185.649	-104
185.718	409
185.788	263
185.857	-23
185.927	490
185.996	-225
186.066	7
186.136	-418
186.205	148
186.275	230
186.344	395
186.414	43
186.483	-327
186.553	942
186.622	821
186.692	358
186.761	291
186.831	-176
186.900	-843
186.970	497
187.039	318
187.109	1465
187.178	432
187.248	395
187.317	467
187.387	825
187.456	513
187.526	376
187.595	658
187.664	254
187.734	143
187.803	1281
187.873	413
187.942	1023
188.012	57
188.081	-183
188.150	990
188.220	443
188.289	793
188.358	471
188.428	549
188.497	100
188.567	196
188.636	-288
188.705	275
188.775	597
188.844	-390
188.913	743
188.983	-290
189.052	535
189.121	743
189.191	-285
189.260	1483
189.329	899
189.399	265
189.468	-254
189.537	234
189.606	-360
189.676	1009
189.745	1130
189.814	1192
189.883	625
189.953	788
190.022	839
190.091	3379
190.161	5503
190.230	1999
190.299	911
190.368	154
190.437	474
190.507	649
190.576	445
190.645	528
190.714	139
190.783	646
190.853	828
190.922	1296
190.991	501
191.060	1883
191.129	557
191.198	727
191.268	88
191.337	412
191.406	826
191.475	424
191.544	-49
191.613	246
191.682	-385
191.752	324
191.821	818
191.890	197
191.959	1057
192.028	800
192.097	345
192.166	478
192.235	-612
192.304	-93
192.373	48
192.442	37
192.511	363
192.580	175
192.650	629
192.719	516
192.788	-159
192.857	241
192.926	-159
192.995	694
193.064	509
193.133	904
193.202	1187
193.271	457
193.340	1162
193.409	1376
193.478	491
193.547	1534
193.615	1368
193.684	1717
193.753	738
193.822	1006
193.891	178
193.960	1119
194.029	-4
194.098	679
194.167	742
194.236	567
194.305	18
194.374	48
194.443	-51
194.512	933
194.580	88
194.649	1161
194.718	887
194.787	988
194.856	-440
194.925	911
194.994	880
195.062	790
195.131	874
195.200	1264
195.269	1816
195.338	764
195.407	983
195.475	387
195.544	1250
195.613	1431
195.682	1057
195.751	1813
195.819	1029
195.888	1804
195.957	1688
196.026	1769
196.094	1190
196.163	928
196.232	1916
196.301	1292
196.369	1641
196.438	1162
196.507	538
196.576	538
196.644	937
196.713	890
196.782	732
196.850	882
196.919	805
196.988	85
197.056	708
197.125	1340
197.194	152
197.262	895
197.331	536
197.400	475
197.468	451
197.537	258
197.606	1042
197.674	1372
197.743	4579
197.812	1866
197.880	4947
197.949	2888
198.017	3190
198.086	2219
198.155	1491
198.223	1244
198.292	4652
198.360	2589
198.429	1889
198.497	1149
198.566	2432
198.635	4419
198.703	1771
198.772	1671
198.840	4660
198.909	5905
198.977	1276
199.046	1456
199.114	797
199.183	781
199.251	675
199.320	1994
199.388	575
199.457	1229
199.525	1126
199.594	1118
199.662	541
199.731	456
199.799	801
199.867	664
199.936	753
200.004	1017
200.073	1551
200.141	510
200.210	386
200.278	545
200.346	767
200.415	1446
200.483	845
200.552	688
200.620	860
200.688	429
200.757	311
200.825	617
200.893	1166
200.962	196
201.030	1164
201.098	-215
201.167	1396
201.235	578
201.303	403
201.372	1345
201.440	1229
201.508	1422
201.577	1103
201.645	409
201.713	663
201.781	678
201.850	1525
201.918	1154
201.986	916
202.055	897
202.123	1118
202.191	1180
202.259	435
202.327	1201
202.396	569
202.464	1071
202.532	669
202.600	4565
202.669	2706
202.737	1232
202.805	858
202.873	827
202.941	1023
203.009	317
203.078	186
203.146	806
203.214	1513
203.282	795
203.350	970
203.418	209
203.487	1002
203.555	84
203.623	190
203.691	1202
203.759	260
203.827	963
203.895	1275
203.963	1880
204.031	1182
204.099	818
204.168	901
204.236	2071
204.304	1133
204.372	1071
204.440	455
204.508	325
204.576	373
204.644	101
204.712	412
204.780	369
204.848	1314
204.916	318
204.984	665
205.052	1262
205.120	809
205.188	710
205.256	646
205.324	939
205.392	465
205.460	1090
205.528	2127
205.596	361
205.664	1027
205.732	1251
205.799	6421
205.867	10678
205.935	2546
206.003	2326
206.071	1364
206.139	1314
206.207	2175
206.275	1158
206.343	611
206.411	934
206.478	1098
206.546	1670
206.614	415
206.682	1325
206.750	302
206.818	2018
206.885	1915
206.953	544
207.021	1546
207.089	1196
207.157	321
207.225	1262
207.292	866
207.360	839
207.428	1407
207.496	957
207.563	1458
207.631	768
207.699	101
207.767	576
207.834	793
207.902	905
207.970	1436
208.038	957
208.105	279
208.173	2207
208.241	2060
208.309	2303
208.376	1154
208.444	4270
208.512	2248
208.579	879
208.647	1935
208.715	1856
208.782	1630
208.850	1172
208.918	1367
208.985	1537
209.053	1095
209.120	575
209.188	930
209.256	912
209.323	791
209.391	2092
209.459	2510
209.526	1400
209.594	1598
209.661	245
209.729	1363
209.796	1556
209.864	1317
209.932	-724
209.999	2523
210.067	1891
210.134	2047
210.202	1418
210.269	3115
210.337	1999
210.404	769
210.472	621
210.539	1241
210.607	1888
210.674	1397
210.742	1781
210.809	1534
210.877	2080
210.944	2574
211.012	1279
211.079	3804
211.146	2345
211.214	1775
211.281	2388
211.349	2856
211.416	2629
211.484	1943
211.551	1794
211.618	1761
211.686	1989
211.753	1588
211.821	2232
211.888	2391
211.955	1532
212.023	1560
212.090	2133
212.157	1942
212.225	2618
212.292	6598
212.359	12169
212.427	30141
212.494	14559
212.561	4832
212.629	3173
212.696	2962
212.763	2832
212.831	1981
212.898	2168
212.965	2111
213.032	1358
213.100	2550
213.167	1854
213.234	2618
213.301	2117
213.369	1904
213.436	1722
213.503	696
213.570	1852
213.638	1596
213.705	1916
213.772	975
213.839	2991
213.906	4725
213.973	2725
214.041	2309
214.108	1990
214.175	3001
214.242	2260
214.309	2296
214.376	2534
214.444	2005
214.511	2203
214.578	2524
214.645	2619
214.712	2870
214.779	2009
214.846	1396
214.913	2262
214.980	2957
215.048	3474
215.115	3702
215.182	3044
215.249	2497
215.316	2013
215.383	1965
215.450	2206
215.517	2434
215.584	2651
215.651	2058
215.718	2427
215.785	3154
215.852	3223
215.919	4579
215.986	4477
216.053	2318
216.120	1268
216.187	2095
216.254	3265
216.321	2367
216.388	3262
216.455	3524
216.522	2696
216.589	2860
216.656	5901
216.722	5385
216.789	3623
216.856	3111
216.923	2657
216.990	2397
217.057	2872
217.124	3564
217.191	2661
217.258	3251
217.324	3655
217.391	4202
217.458	3553
217.525	2245
217.592	2131
217.659	2416
217.725	3267
217.792	4277
217.859	4573
217.926	2427
217.993	1617
218.059	1910
218.126	2051
218.193	1483
218.260	1285
218.327	2224
218.393	2150
218.460	1902
218.527	933
218.594	1925
218.660	5220
218.727	5595
218.794	2087
218.860	2665
218.927	1882
218.994	1648
219.061	1349
219.127	2873
219.194	3732
219.261	2004
219.327	1165
219.394	1640
219.461	50
219.527	2101
219.594	3986
219.661	3096
219.727	1127
219.794	2243
219.860	795
219.927	2245
219.994	3991
220.060	7145
220.127	4608
220.193	2390
220.260	1966
220.326	2833
220.393	4343
220.460	6359
220.526	4552
220.593	2569
220.659	3992
220.726	3213
220.792	11268
220.859	8404
220.925	7008
220.992	11156
221.058	14070
221.125	18034
221.191	14228
221.258	4391
221.324	3593
221.391	2604
221.457	2476
221.524	3010
221.590	4815
221.657	17559
221.723	11873
221.789	11967
221.856	11257
221.922	5865
221.989	3649
222.055	2542
222.121	1793
222.188	4859
222.254	2201
222.321	2462
222.387	1775
222.453	1862
222.520	2984
222.586	1962
222.652	3008
222.719	3279
222.785	3153
222.851	2352
222.918	2601
222.984	3779
223.050	4451
223.116	3679
223.183	2599
223.249	1204
223.315	1506
223.382	2132
223.448	1774
223.514	1263
223.580	1730
223.647	1606
223.713	405
223.779	1943
223.845	2176
223.911	3403
223.978	474
224.044	1811
224.110	1788
224.176	1681
224.242	2077
224.309	662
224.375	1792
224.441	838
224.507	1319
224.573	926
224.639	1788
224.705	1191
224.772	1397
224.838	1509
224.904	2988
224.970	2215
225.036	1712
225.102	2010
225.168	2656
225.234	2027
225.300	2032
225.366	1778
225.432	2587
225.499	1479
225.565	2493
225.631	1473
225.697	2096
225.763	2280
225.829	2351
225.895	3993
225.961	6239
226.027	5694
226.093	4244
226.159	5324
226.225	5247
226.291	9001
226.357	17075
226.423	11074
226.489	5777
226.554	3912
226.620	3387
226.686	5621
226.752	9006
226.818	10702
226.884	23750
226.950	23067
227.016	8277
227.082	5122
227.148	4171
227.214	6685
227.279	6768
227.345	5945
227.411	3713
227.477	3359
227.543	6487
227.609	7975
227.674	8439
227.740	4243
227.806	3415
227.872	3167
227.938	3444
228.003	9673
228.069	3317
228.135	2482
228.201	1532
228.267	2863
228.332	3179
228.398	4045
228.464	3795
228.530	1066
228.595	1266
228.661	2114
228.727	5046
228.792	5074
228.858	1864
228.924	2005
228.990	5664
229.055	2950
229.121	5430
229.187	2636
229.252	3428
229.318	2092
229.384	3559
229.449	5102
229.515	1296
229.581	1200
229.646	3223
229.712	3306
229.777	7147
229.843	8135
229.909	5384
229.974	7815
230.040	6629
230.105	3869
230.171	4508
230.236	8670
230.302	14032
230.368	9105
230.433	4634
230.499	5070
230.564	7817
230.630	4946
230.695	3300
230.761	2320
230.826	1829
230.892	6224
230.957	2924
231.023	1795
231.088	2619
231.154	1820
231.219	3311
231.284	3704
231.350	5114
231.415	1548
231.481	3444
231.546	2673
231.612	2605
231.677	1103
231.742	793
231.808	3659
231.873	2060
231.939	786
232.004	4240
232.069	5908
232.135	1970
232.200	1949
232.265	1975
232.331	2094
232.396	1798
232.461	1926
232.527	1897
232.592	472
232.657	2230
232.723	5463
232.788	5160
232.853	1783
232.918	1974
232.984	1559
233.049	2419
233.114	4653
233.179	5308
233.245	7090
233.310	11507
233.375	2095
233.440	3199
233.506	1998
233.571	1480
233.636	2475
233.701	2443
233.766	5876
233.832	8065
233.897	3229
233.962	3169
234.027	5134
234.092	4756
234.157	4090
234.222	4532
234.288	4963
234.353	18157
234.418	19087
234.483	9838
234.548	6261
234.613	5017
234.678	5409
234.743	4534
234.808	19829
234.873	13519
234.938	5633
235.004	3355
235.069	3102
235.134	3603
235.199	3634
235.264	3304
235.329	960
235.394	3829
235.459	4983
235.524	4329
235.589	3319
235.654	2662
235.719	1379
235.784	3307
235.849	4125
235.913	10615
235.978	12540
236.043	14348
236.108	5821
236.173	4303
236.238	5874
236.303	2500
236.368	2383
236.433	5636
236.498	12029
236.563	6226
236.627	8541
236.692	31456
236.757	26269
236.822	11273
236.887	10245
236.952	8109
237.017	5048
237.081	7225
237.146	6874
237.211	11494
237.276	28773
237.341	61392
237.405	29507
237.470	11891
237.535	10246
237.600	6129
237.664	5390
237.729	3827
237.794	4166
237.859	8566
237.923	8853
237.988	6189
238.053	8229
238.118	10281
238.182	23637
238.247	23566
238.312	12345
238.376	9210
238.441	7465
238.506	7110
238.570	3341
238.635	3886
238.700	3298
238.764	3138
238.829	10149
238.893	14778
238.958	6712
239.023	5582
239.087	3049
239.152	4247
239.216	3283
239.281	2880
239.346	3230
239.410	3171
239.475	4055
239.539	22562
239.604	19530
239.668	6071
239.733	3980
239.797	4041
239.862	10571
239.926	20327
239.991	9283
240.055	4813
240.120	3496
240.184	4199
240.249	3249
240.313	3466
240.378	4466
240.442	13705
240.507	24963
240.571	8561
240.635	11553
240.700	15271
240.764	5381
240.829	4232
240.893	3447
240.957	4926
241.022	13027
241.086	24690
241.151	14108
241.215	4939
241.279	7030
241.344	15069
241.408	7822
241.472	4376
241.537	5405
241.601	4920
241.665	3098
241.730	4028
241.794	5045
241.858	4774
241.922	4259
241.987	4341
242.051	3476
242.115	4320
242.179	5580
242.244	3783
242.308	4314
242.372	4817
242.436	7511
242.501	4717
242.565	3192
242.629	2204
242.693	3746
242.757	2399
242.822	3609
242.886	4044
242.950	5232
243.014	3760
243.078	5332
243.142	5757
243.206	4949
243.271	5184
243.335	6303
243.399	9978
243.463	32486
243.527	97809
243.591	33783
243.655	12597
243.719	7942
243.783	7985
243.847	13722
243.911	17887
243.975	18879
244.040	14117
244.104	9223
244.168	4953
244.232	8767
244.296	13900
244.360	16483
244.424	8055
244.488	6310
244.552	6113
244.615	3049
244.679	4428
244.743	5602
244.807	5437
244.871	4176
244.935	3640
244.999	2853
245.063	5209
245.127	6057
245.191	11680
245.255	11035
245.319	7551
245.383	6832
245.446	5727
245.510	3718
245.574	5812
245.638	5154
245.702	4097
245.766	14232
245.829	8962
245.893	4902
245.957	4128
246.021	5940
246.085	5514
246.149	7557
246.212	17600
246.276	26170
246.340	12188
246.404	9404
246.467	8575
246.531	14041
246.595	9133
246.659	8444
246.722	7180
246.786	10096
246.850	10120
246.913	13213
246.977	5792
247.041	5915
247.104	7185
247.168	6366
247.232	15958
247.295	33251
247.359	17980
247.423	7744
247.486	16218
247.550	10075
247.614	7204
247.677	10446
247.741	6777
247.804	5104
247.868	6489
247.932	13019
247.995	31949
248.059	11799
248.122	5617
248.186	9265
248.249	12908
248.313	48107
248.376	55120
248.440	33929
248.503	12426
248.567	11652
248.630	14451
248.694	21902
248.757	24612
248.821	54202
248.884	34259
248.948	28341
249.011	41538
249.075	62480
249.138	54988
249.202	22068
249.265	14499
249.328	18500
249.392	12885
249.455	10660
249.519	8266
249.582	10396
249.645	17185
249.709	13104
249.772	8489
249.835	7715
249.899	9869
249.962	8720
250.025	7418
250.089	19616
250.152	29560
250.215	14695
250.279	10807
250.342	12295
250.405	10422
250.468	10853
250.532	13243
250.595	21922
250.658	79473
250.721	144546
250.785	52497
250.848	26551
250.911	15450
250.974	12821
251.038	16167
251.101	32738
251.164	19261
251.227	19254
251.290	17783
251.354	28393
251.417	111793
251.480	122327
251.543	79020
251.606	207889
251.669	172055
251.732	67019
251.795	56075
251.859	57146
251.922	134458
251.985	85550
252.048	32524
252.111	24673
252.174	19507
252.237	30714
252.300	66800
252.363	80302
252.426	171122
252.489	81532
252.552	47480
252.615	33213
252.678	24915
252.741	51556
252.804	74867
252.867	176984
252.930	105851
252.993	61284
253.056	35228
253.119	33269
253.182	24314
253.245	37761
253.308	26923
253.371	22901
253.434	25374
253.497	26667
253.559	35837
253.622	30146
253.685	30693
253.748	34313
253.811	16276
253.874	20724
253.937	19866
254.000	13755
254.062	21443
254.125	35150
254.188	37726
254.251	35041
254.314	14789
254.376	25797
254.439	29344
254.502	25168
254.565	23200
254.628	41203
254.690	28354
254.753	15507
254.816	12105
254.878	14654
254.941	22416
255.004	25296
255.067	11374
255.129	12260
255.192	7088
255.255	5701
255.317	9135
255.380	6237
255.443	4581
255.505	4714
255.568	6429
255.631	9084
255.693	7343
255.756	4901
255.819	5883
255.881	4595
255.944	4365
256.006	4463
256.069	4790
256.132	4727
256.194	6778
256.257	22770
256.319	17653
256.382	16309
256.444	8630
256.507	6012
256.569	4532
256.632	5093
256.694	9425
256.757	16301
256.819	46434
256.882	20689
256.944	10432
257.007	8889
257.069	12849
257.132	11764
257.194	7019
257.257	5508
257.319	5800
257.381	5440
257.444	13191
257.506	53230
257.569	62709
257.631	36678
257.693	23306
257.756	12347
257.818	11520
257.880	6363
257.943	6279
258.005	5731
258.067	6565
258.130	6931
258.192	8107
258.254	18978
258.317	11295
258.379	7723
258.441	17772
258.503	20150
258.566	23874
258.628	37649
258.690	9564
258.753	8077
258.815	16413
258.877	9684
258.939	5757
259.001	5727
259.064	6426
259.126	7862
259.188	12470
259.250	6731
259.312	8928
259.375	22693
259.437	16308
259.499	6342
259.561	5834
259.623	7693
259.685	9808
259.747	7232
259.809	22458
259.872	49313
259.934	65481
259.996	74933
260.058	24710
260.120	9477
260.182	7320
260.244	5304
260.306	5102
260.368	6494
260.430	5892
260.492	18677
260.554	33157
260.616	18895
260.678	34046
260.740	53061
260.802	14159
260.864	11404
260.926	8253
260.988	8615
261.050	8284
261.112	26762
261.174	65113
261.236	46175
261.298	12481
261.359	21877
261.421	35941
261.483	10444
261.545	8329
261.607	5408
261.669	6367
261.731	13480
261.793	37198
261.854	15871
261.916	9747
261.978	11969
262.040	16835
262.102	8554
262.164	14534
262.225	13026
262.287	6616
262.349	17298
262.411	14996
262.472	7499
262.534	13600
262.596	36405
262.658	11377
262.719	7444
262.781	9944
262.843	33571
262.904	15802
262.966	10117
263.028	13143
263.090	56359
263.151	170882
263.213	63750
263.275	35255
263.336	14571
263.398	9574
263.459	6919
263.521	6977
263.583	17133
263.644	13310
263.706	5922
263.767	3746
263.829	4585
263.891	4324
263.952	3811
264.014	4466
264.075	12880
264.137	37773
264.198	15002
264.260	6092
264.321	6391
264.383	15774
264.444	50893
264.506	17213
264.567	8547
264.629	18360
264.690	44979
264.752	15246
264.813	8800
264.875	6172
264.936	8269
264.998	6425
265.059	3907
265.120	4047
265.182	6523
265.243	18402
265.305	19663
265.366	6533
265.427	5348
265.489	5456
265.550	2952
265.611	5974
265.673	6838
265.734	7432
265.795	4377
265.857	3360
265.918	3471
265.979	6681
266.040	33330
266.102	30033
266.163	10982
266.224	15761
266.286	7059
266.347	4737
266.408	4631
266.469	5862
266.530	4336
266.592	3903
266.653	9664
266.714	18358
266.775	5896
266.836	4321
266.898	3591
266.959	13280
267.020	9600
267.081	4954
267.142	3551
267.203	3636
267.264	2247
267.326	5114
267.387	3824
267.448	3510
267.509	3491
267.570	3333
267.631	3020
267.692	2919
267.753	3612
267.814	2991
267.875	8705
267.936	23660
267.997	19048
268.058	13260
268.119	5739
268.180	6065
268.241	4821
268.302	5062
268.363	3087
268.424	3185
268.485	7363
268.546	4610
268.607	2495
268.668	2883
268.729	2446
268.790	3423
268.851	6071
268.912	17581
268.972	19100
269.033	8656
269.094	4583
269.155	3683
269.216	3692
269.277	4694
269.338	3617
269.398	3085
269.459	4263
269.520	7255
269.581	9985
269.642	11987
269.702	7956
269.763	5684
269.824	3725
269.885	6623
269.945	10124
270.006	4122
270.067	3156
270.128	3280
270.188	3070
270.249	3779
270.310	3133
270.370	3861
270.431	3490
270.492	2825
270.553	4292
270.613	9939
270.674	22748
270.734	9901
270.795	5607
270.856	8224
270.916	7128
270.977	4214
271.038	5505
271.098	6863
271.159	9188
271.219	11367
271.280	4628
271.340	5001
271.401	6751
271.462	19228
271.522	10776
271.583	6301
271.643	6409
271.704	5611
271.764	7167
271.825	14128
271.885	44925
271.946	64243
272.006	21695
272.066	25909
272.127	48286
272.187	15316
272.248	8715
272.308	9083
272.369	33035
272.429	20557
272.489	17266
272.550	23220
272.610	17555
272.671	14333
272.731	14796
272.791	28100
272.852	12809
272.912	10640
272.972	5601
273.033	5943
273.093	12604
273.153	14085
273.214	10024
273.274	8780
273.334	36535
273.394	62392
273.455	23875
273.515	22869
273.575	57228
273.635	23511
273.696	25941
273.756	51360
273.816	20239
273.876	13447
273.936	27842
273.997	64253
274.057	16814
274.117	11563
274.177	15526
274.237	66830
274.297	63545
274.358	46276
274.418	42730
274.478	34242
274.538	14491
274.598	12164
274.658	44982
274.718	60952
274.778	24243
274.838	11630
274.898	26518
274.958	85860
275.018	57074
275.078	34738
275.138	15670
275.198	9458
275.258	7066
275.318	10086
275.378	16329
275.438	17837
275.498	12561
275.558	32032
275.618	70960
275.678	40748
275.738	25786
275.798	27631
275.858	21105
275.918	7780
275.978	7852
276.038	7233
276.098	6389
276.157	13740
276.217	38172
276.277	17745
276.337	12292
276.397	7852
276.457	9464
276.517	9084
276.576	5686
276.636	4910
276.696	8821
276.756	21975
276.815	18241
276.875	7423
276.935	8813
276.995	8207
277.055	5330
277.114	4927
277.174	7749
277.234	28938
277.293	13567
277.353	8378
277.413	5265
277.472	5446
277.532	7549
277.592	7358
277.651	20658
277.711	42654
277.771	15241
277.830	48588
277.890	43518
277.950	28320
278.009	86363
278.069	34181
278.128	26957
278.188	41886
278.248	18702
278.307	43194
278.367	30619
278.426	11054
278.486	8182
278.545	6156
278.605	5122
278.664	5199
278.724	6917
278.783	17009
278.843	49445
278.902	16539
278.962	9104
279.021	10369
279.081	10987
279.140	12060
279.199	9546
279.259	8217
279.318	8445
279.378	11413
279.437	20867
279.496	71727
279.556	219419
279.615	195321
279.675	51045
279.734	28552
279.793	38698
279.853	55269
279.912	22190
279.971	13113
280.031	11977
280.090	20041
280.149	38204
280.208	34454
280.268	162809
280.327	181902
280.386	43640
280.445	31502
280.505	31799
280.564	19094
280.623	17743
280.682	17923
280.742	28752
280.801	10098
280.860	7664
280.919	8734
280.978	8638
281.037	8879
281.097	6849
281.156	7096
281.215	5512
281.274	7875
281.333	33462
281.392	29013
281.451	7495
281.510	5893
281.569	6396
281.628	4692
281.688	5442
281.747	6891
281.806	8563
281.865	5444
281.924	4467
281.983	4620
282.042	4240
282.101	4545
282.160	4797
282.219	4224
282.278	5046
282.337	17369
282.396	14847
282.454	5132
282.513	7933
282.572	28432
282.631	16622
282.690	6123
282.749	5708
282.808	8833
282.867	9681
282.926	6843
282.985	3865
283.043	4361
283.102	4705
283.161	6544
283.220	20784
283.279	42285
283.338	13046
283.396	7052
283.455	5797
283.514	7206
283.573	10047
283.631	8466
283.690	6639
283.749	4994
283.808	10760
283.866	14713
283.925	4538
283.984	5398
284.043	7744
284.101	8979
284.160	8118
284.219	23479
284.277	12580
284.336	10984
284.395	36998
284.453	35067
284.512	11343
284.570	13066
284.629	11704
284.688	8778
284.746	9500
284.805	8752
284.863	12597
284.922	14859
284.981	15449
285.039	20329
285.098	39338
285.156	103908
285.215	282286
285.273	277860
285.332	117011
285.390	59213
285.449	37150
285.507	24995
285.566	18135
285.624	14718
285.683	11995
285.741	9537
285.799	8771
285.858	9544
285.916	7551
285.975	6283
286.033	5308
286.091	5498
286.150	4755
286.208	7035
286.267	14269
286.325	8354
286.383	11555
286.442	9557
286.500	5307
286.558	4364
286.616	4613
286.675	6989
286.733	5890
286.791	6000
286.850	7720
286.908	11452
286.966	16372
287.024	7718
287.083	5469
287.141	3991
287.199	5470
287.257	7690
287.315	6784
287.374	6799
287.432	15330
287.490	11879
287.548	8039
287.606	6687
287.664	6292
287.723	13456
287.781	24451
287.839	10823
287.897	9804
287.955	11152
288.013	17906
288.071	42199
288.129	150481
288.187	406840
288.245	201114
288.303	65488
288.361	39343
288.419	40889
288.477	29976
288.535	15805
288.593	12061
288.651	9975
288.709	7724
288.767	7395
288.825	7872
288.883	8061
288.941	8447
288.999	5137
289.057	5282
289.115	9993
289.173	8860
289.231	6163
289.289	6063
289.346	5783
289.404	6589
289.462	9282
289.520	12107
289.578	6037
289.636	4527
289.694	4991
289.751	3910
289.809	4236
289.867	4942
289.925	6055
289.983	7289
290.040	4712
290.098	3221
290.156	5187
290.214	7084
290.271	4349
290.329	3981
290.387	3370
290.444	3039
290.502	3235
290.560	4964
290.617	6535
290.675	5086
290.733	4099
290.790	5772
290.848	5112
290.906	6149
290.963	4816
291.021	6647
291.078	6283
291.136	7243
291.194	24293
291.251	57109
291.309	17198
291.366	7486
291.424	5962
291.481	5874
291.539	5462
291.596	4918
291.654	3680
291.711	3072
291.769	4972
291.826	11454
291.884	8272
291.941	3953
291.999	4957
292.056	4809
292.114	6114
292.171	3962
292.228	4750
292.286	6581
292.343	12346
292.401	14343
292.458	9930
292.515	6248
292.573	8053
292.630	7327
292.687	8143
292.745	7544
292.802	13164
292.859	40300
292.917	42718
292.974	24384
293.031	9326
293.089	6420
293.146	6090
293.203	5943
293.260	5301
293.318	7613
293.375	20961
293.432	12293
293.489	6535
293.546	5651
293.604	9328
293.661	18759
293.718	54083
293.775	38304
293.832	16032
293.889	11983
293.947	11449
294.004	8771
294.061	9297
294.118	17647
294.175	42126
294.232	65004
294.289	26978
294.346	11888
294.403	9036
294.460	9695
294.517	9215
294.574	7755
294.631	6644
294.688	9310
294.745	18572
294.802	66560
294.859	90173
294.916	35504
294.973	18248
295.030	15266
295.087	12743
295.144	9920
295.201	7487
295.258	6725
295.315	9424
295.372	21948
295.429	44045
295.486	21917
295.542	17683
295.599	40038
295.656	77736
295.713	51969
295.770	48929
295.827	20079
295.883	13223
295.940	13057
295.997	19715
296.054	19258
296.111	10187
296.167	8352
296.224	7364
296.281	6877
296.338	6199
296.394	6530
296.451	9489
296.508	23288
296.564	49532
296.621	39305
296.678	47056
296.734	74361
296.791	33961
296.848	18551
296.904	18075
296.961	31060
297.018	53085
297.074	48337
297.131	19112
297.187	13876
297.244	18088
297.301	43071
297.357	78988
297.414	29379
297.470	13416
297.527	11232
297.583	10301
297.640	10426
297.696	8658
297.753	7417
297.809	5576
297.866	5732
297.922	5236
297.979	6141
298.035	7022
298.092	11061
298.148	28124
298.204	30317
298.261	15974
298.317	26232
298.374	61958
298.430	36683
298.486	19269
298.543	15227
298.599	13470
298.656	13089
298.712	21811
298.768	57568
298.824	45888
298.881	15764
298.937	10182
298.993	10154
299.050	12742
299.106	12004
299.162	9099
299.218	8687
299.275	6912
299.331	7793
299.387	13265
299.443	41959
299.500	48541
299.556	19324
299.612	11413
299.668	10199
299.724	11621
299.780	10989
299.837	8133
299.893	13516
299.949	40468
300.005	51650
300.061	42111
300.117	74639
300.173	38400
300.229	17702
300.285	19118
300.341	23096
300.397	12911
300.453	8443
300.510	7726
300.566	9104
300.622	9230
300.678	19361
300.734	37310
300.790	38245
300.845	48658
300.901	30152
300.957	40793
301.013	36004
301.069	16294
301.125	11953
301.181	13277
301.237	9543
301.293	7933
301.349	6987
301.405	6868
301.461	6645
301.516	8121
301.572	9500
301.628	17025
301.684	17075
301.740	25826
301.796	34233
301.851	22745
301.907	34665
301.963	35564
302.019	47685
302.074	122487
302.130	121088
302.186	55658
302.242	24380
302.297	18948
302.353	18838
302.409	32161
302.464	30191
302.520	23032
302.576	49640
302.631	59007
302.687	35148
302.743	17274
302.798	11514
302.854	10180
302.910	10776
302.965	14728
303.021	24132
303.076	21364
303.132	23289
303.187	26737
303.243	16632
303.299	9738
303.354	8948
303.410	7929
303.465	8449
303.521	8016
303.576	8384
303.632	9723
303.687	14859
303.743	40436
303.798	37181
303.853	16566
303.909	11910
303.964	9996
304.020	14215
304.075	19484
304.130	17522
304.186	30954
304.241	32484
304.297	26174
304.352	16015
304.358	15505
304.407	11363
304.449	10202
304.463	9818
304.518	11264
304.539	11207
304.573	11093
304.629	11457
304.630	11616
304.684	19687
304.720	30162
304.739	35191
304.794	49296
304.811	43310
304.850	28054
304.902	16292
304.905	15599
304.960	11180
304.992	10327
305.015	9767
305.071	9179
305.083	9073
305.126	8600
305.173	7426
305.181	7281
305.236	7419
305.264	8101
305.292	8800
305.347	10299
305.354	10341
305.402	10396
305.445	10181
305.457	10212
305.512	11885
305.535	12898
305.567	14194
305.622	15286
305.626	15757
305.678	29572
305.716	51251
305.733	57828
305.788	67627
305.807	61394
305.843	52170
305.897	54789
305.898	54719
305.953	52505
305.988	37931
306.008	30612
306.063	18888
306.078	17138
306.118	14040
306.168	10397
306.173	10118
306.228	9895
306.259	9250
306.283	9022
306.338	9574
306.349	9789
306.393	10413
306.440	10399
306.448	10551
306.503	14453
306.530	18340
306.558	28272
306.613	67664
306.620	72616
306.668	95538
306.711	86182
306.723	80100
306.778	54646
306.801	41040
306.833	27510
306.888	16272
306.892	15740
306.943	13308
306.982	11993
306.997	11800
307.052	12952
307.072	14097
307.107	18956
307.162	30576
307.163	30798
307.217	55247
307.253	65722
307.272	66624
307.327	69176
307.343	61687
307.381	44712
307.434	32775
307.436	33535
307.491	67903
307.524	98715
307.546	103544
307.600	80394
307.614	70532
307.655	42440
307.704	22782
307.710	22819
307.765	31858
307.795	41136
307.819	51919
307.874	90447
307.885	91605
307.929	66347
307.975	32450
307.984	30242
308.038	29740
308.065	32447
308.093	57908
308.148	116660
308.156	128601
308.202	197366
308.246	252170
308.257	241041
308.312	125447
308.336	82838
308.366	67609
308.421	48803
308.426	46484
308.475	30561
308.517	20858
308.530	19994
308.585	18027
308.607	17540
308.639	20011
308.694	26984
308.697	27559
308.748	66151
308.787	106096
308.803	105047
308.857	77424
308.877	62183
308.912	46956
308.967	36353
308.967	36173
309.021	41392
309.058	46353
309.076	56873
309.130	94274
309.148	107900
309.185	205307
309.238	357083
309.239	358398
309.293	385719
309.328	362408
309.348	304577
309.402	133836
309.418	89353
309.457	64659
309.508	39706
309.511	39668
309.566	41722
309.598	43491
309.620	56612
309.674	92821
309.688	102364
309.729	93664
309.778	74375
309.783	72578
309.837	50186
309.868	38547
309.892	49595
309.946	78589
309.959	86617
310.001	115136
310.049	143405
310.055	138128
310.109	80055
310.139	46946
310.163	38212
310.218	23595
310.229	21102
310.272	19764
310.319	18581
310.326	18586
310.381	19769
310.409	19823
310.435	19986
310.489	20133
310.499	20334
310.543	22479
310.589	24117
310.598	24235
310.652	26410
310.679	26079
310.706	22551
310.760	15599
310.769	14605
310.814	12327
310.859	10495
310.868	10681
310.923	11621
310.948	12312
310.977	14385
311.031	18527
311.038	19078
311.085	18324
311.128	17054
311.139	16886
311.193	16038
311.218	15692
311.247	14897
311.301	13308
311.308	13091
311.356	14353
311.398	15781
311.410	15495
311.464	13762
311.488	12914
311.518	12651
311.572	12337
311.578	12294
311.626	17237
311.668	21670
311.680	22860
311.734	27995
311.758	30325
311.788	29240
311.842	26775
311.847	26496
311.896	35760
311.937	43970
311.950	43266
312.004	39863
312.027	38121
312.058	30729
312.112	17662
312.117	16352
312.165	15572
312.207	14906
312.297	31773
312.386	24846
312.476	18159
312.566	34848
312.656	17373
312.745	13800
312.835	17479
312.925	19488
313.015	20540
313.104	25513
313.194	13291
313.284	14309
313.374	16661
313.463	16600
313.553	14239
313.643	12499
313.732	11385
313.822	12660
313.912	15196
314.001	19397
314.091	23544
314.180	36782
314.270	24951
314.360	32252
314.449	22940
314.539	15132
314.628	14400
314.718	20842
314.808	31266
314.897	15194
314.987	14789
315.076	18883
315.166	27820
315.255	30106
315.345	25173
315.434	30812
315.524	25083
315.613	28607
315.703	30524
315.792	47360
315.881	151860
315.971	57603
316.060	54211
316.150	102621
316.239	107923
316.328	37747
316.418	15223
316.507	15694
316.597	20731
316.686	21447
316.775	42477
316.865	107727
316.954	21222
317.043	12800
317.133	14187
317.222	13218
317.311	13825
317.400	13137
317.490	19270
317.579	23623
317.668	19947
317.757	31912
317.847	69786
317.936	255550
318.025	92830
318.114	58300
318.203	34833
318.293	33901
318.382	62625
318.471	51148
318.560	74639
318.649	177331
318.738	39354
318.828	25347
318.917	29584
319.006	40288
319.095	105005
319.184	208655
319.273	106092
319.362	49419
319.451	20903
319.540	20807
319.629	38045
319.718	65161
319.807	36966
319.896	65764
319.985	246241
320.074	86951
320.163	32794
320.252	64310
320.341	49950
320.430	42098
320.519	38531
320.608	26117
320.697	23269
320.786	21929
320.875	24690
320.964	32163
321.053	44833
321.142	61744
321.230	67325
321.319	57383
321.408	134385
321.497	65978
321.586	56749
321.675	94499
321.764	86056
321.852	52756
321.941	73677
322.030	50996
322.119	60951
322.207	136242
322.296	146568
322.385	72899
322.474	59534
322.562	148334
322.651	91676
322.740	60001
322.829	94854
322.917	144137
323.006	62795
323.095	46383
323.183	44935
323.272	62071
323.361	95650
323.449	305828
323.538	109745
323.626	230607
323.715	144447
323.804	65108
323.892	225921
323.981	118819
324.069	41962
324.158	131160
324.246	121479
324.335	32809
324.424	44487
324.512	20009
324.601	29432
324.689	60850
324.778	123589
324.866	98786
324.954	28199
325.043	25526
325.131	61849
325.220	119247
325.308	135370
325.397	91166
325.485	52679
325.574	15494
325.662	14026
325.750	16388
325.839	13809
325.927	14273
326.015	23355
326.104	45124
326.192	67351
326.280	16820
326.369	16748
326.457	20279
326.545	35072
326.634	16832
326.722	11397
326.810	13017
326.898	12586
326.987	16596
327.075	36546
327.163	52573
327.251	31239
327.340	42870
327.428	67371
327.516	17423
327.604	15621
327.692	20528
327.781	28154
327.869	52484
327.957	28498
328.045	19320
328.133	13905
328.221	24588
328.309	16513
328.397	13601
328.485	16771
328.574	24095
328.662	72433
328.750	58416
328.838	29881
328.926	14654
329.014	12720
329.102	21688
329.190	66230
329.278	37103
329.366	11083
329.454	11921
329.542	13288
329.630	11036
329.718	12430
329.806	15062
329.893	16823
329.981	17107
330.069	12216
330.157	27925
330.245	79002
330.333	41179
330.421	15320
330.509	23347
330.597	84571
330.684	65308
330.772	31703
330.860	57226
330.948	72591
331.036	26990
331.123	10933
331.211	13590
331.299	23288
331.387	55460
331.475	99422
331.562	31496
331.650	14554
331.738	21813
331.825	37902
331.913	14220
332.001	12863
332.089	24095
332.176	63528
332.264	140994
332.352	106596
332.439	29046
332.527	21165
332.614	21449
332.702	32901
332.790	20056
332.877	60486
332.965	132940
333.052	29514
333.140	27676
333.228	65223
333.315	20722
333.403	23633
333.490	87833
333.578	66633
333.665	56358
333.753	29589
333.840	16195
333.928	26831
334.015	92190
334.103	103333
334.190	278554
334.278	75632
334.365	40919
334.452	29116
334.540	19718
334.627	30462
334.715	46600
334.802	84290
334.889	400092
334.977	356107
335.064	53093
335.151	24712
335.239	26279
335.326	37952
335.413	127547
335.501	171764
335.588	27796
335.675	20557
335.762	31527
335.850	58850
335.937	37842
336.024	97287
336.111	394166
336.199	170343
336.286	36683
336.373	18539
336.460	13603
336.547	14472
336.635	21313
336.722	17811
336.809	17883
336.896	27988
336.983	88480
337.070	210755
337.157	277247
337.245	253254
337.332	175906
337.419	27090
337.506	18293
337.593	26537
337.680	76066
337.767	232407
337.854	65422
337.941	86159
338.028	115601
338.115	37094
338.202	43115
338.289	79588
338.376	265933
338.463	83520
338.550	136175
338.637	138459
338.724	65430
338.811	106602
338.898	22208
338.984	14891
339.071	22344
339.158	18719
339.245	47434
339.332	34434
339.419	71762
339.506	66644
339.593	10861
339.679	11433
339.766	10906
339.853	17968
339.940	33013
340.027	14335
340.113	12525
340.200	19458
340.287	16038
340.374	17198
340.460	27708
340.547	14771
340.634	23359
340.720	82134
340.807	46242
340.894	10986
340.980	14685
341.067	11758
341.154	14140
341.240	17867
341.327	40042
341.414	11547
341.500	8506
341.587	13136
341.674	12071
341.760	26802
341.847	32575
341.933	11622
342.020	6772
342.106	6890
342.193	11200
342.279	21496
342.366	15939
342.452	27338
342.539	17066
342.625	35421
342.712	86166
342.798	36006
342.885	16260
342.971	7913
343.058	6863
343.144	8041
343.230	7793
343.317	7726
343.403	7352
343.490	7631
343.576	8337
343.662	8473
343.749	10258
343.835	14498
343.921	31519
344.008	149834
344.094	358029
344.180	78757
344.267	31800
344.353	112431
344.439	140529
344.525	48397
344.612	15425
344.698	13193
344.784	10320
344.870	7180
344.957	8866
345.043	16946
345.129	12159
345.215	26626
345.301	14114
345.387	10937
345.474	7888
345.560	10486
345.646	17862
345.732	12742
345.818	11025
345.904	10201
345.990	14204
346.076	20817
346.162	48597
346.249	15427
346.335	9169
346.421	12154
346.507	42015
346.593	151957
346.679	38004
346.765	14938
346.851	12112
346.937	11611
347.023	9644
347.108	10793
347.194	9707
347.280	9933
347.366	14163
347.452	42901
347.538	183198
347.624	130171
347.710	124930
347.796	24608
347.882	13229
347.967	11459
348.053	24285
348.139	14810
348.225	8641
348.311	8604
348.397	6813
348.482	11461
348.568	15291
348.654	8676
348.740	14476
348.825	15598
348.911	21309
348.997	82658
349.083	176545
349.168	35380
349.254	9671
349.340	10443
349.425	8564
349.511	14171
349.597	17736
349.682	29415
349.768	97889
349.854	48142
349.939	15608
350.025	9980
350.110	7721
350.196	6650
350.282	6196
350.367	9559
350.453	29450
350.538	28698
350.624	16822
350.709	17414
350.795	9286
350.880	9079
350.966	10890
351.051	26018
351.137	21970
351.222	11741
351.308	29933
351.393	83101
351.479	19388
351.564	6568
351.649	9341
351.735	7753
351.820	7126
351.906	8320
351.991	16084
352.076	56441
352.162	80815
352.247	16917
352.332	11505
352.418	18667
352.503	25490
352.588	117469
352.673	95663
352.759	20814
352.844	11667
352.929	12563
353.014	16900
353.100	11032
353.185	15958
353.270	29980
353.355	30434
353.441	11056
353.526	17087
353.611	29996
353.696	32627
353.781	19240
353.866	8564
353.952	10736
354.037	26964
354.122	62232
354.207	54785
354.292	21717
354.377	9720
354.462	8699
354.547	13119
354.632	13839
354.717	20631
354.802	16815
354.887	8229
354.972	7298
355.057	6896
355.142	6097
355.227	9927
355.312	17941
355.397	39270
355.482	97591
355.567	47096
355.652	34580
355.737	36491
355.822	115578
355.907	91927
355.991	15071
356.076	9844
356.161	9270
356.246	7613
356.331	10557
356.416	27663
356.501	181336
356.585	188741
356.670	24991
356.755	16703
356.840	24854
356.924	111076
357.009	432405
357.094	158630
357.179	35188
357.263	22820
357.348	25719
357.433	28126
357.517	21359
357.602	15351
357.687	11957
357.771	14786
357.856	26471
357.941	24727
358.025	86080
358.110	397663
358.195	178144
358.279	28572
358.364	20884
358.448	75639
358.533	208967
358.617	146160
358.702	151870
358.787	53856
358.871	30041
358.956	24793
359.040	9475
359.125	7576
359.209	8158
359.294	13547
359.378	21198
359.462	22931
359.547	18226
359.631	18666
359.716	9813
359.800	12247
359.885	25615
359.969	13033
360.053	8258
360.138	8171
360.222	14858
360.306	29638
360.391	23852
360.475	28461
360.559	62210
360.644	78974
360.728	60614
360.812	96030
360.896	279222
360.981	125106
361.065	72196
361.149	17533
361.233	18127
361.318	15376
361.402	18122
361.486	13773
361.570	10935
361.654	15966
361.739	39812
361.823	172611
361.907	267580
361.991	45919
362.075	26526
362.159	60717
362.243	43310
362.327	44458
362.411	56673
362.495	36197
362.580	18826
362.664	12357
362.748	12089
362.832	16199
362.916	26351
363.000	84078
363.084	244928
363.168	330427
363.252	76328
363.336	31775
363.420	44050
363.503	179935
363.587	204498
363.671	35133
363.755	25063
363.839	34252
363.923	16540
364.007	33812
364.091	47570
364.175	74051
364.258	278801
364.342	181632
364.426	191827
364.510	108321
364.594	55437
364.677	58640
364.761	239501
364.845	165174
364.929	53494
365.013	42263
365.096	36391
365.180	45664
365.264	74016
365.347	276228
365.431	125260
365.515	38466
365.598	15959
365.682	13913
365.766	42028
365.849	52548
365.933	22079
366.017	32066
366.100	29306
366.184	12117
366.267	13519
366.351	8967
366.435	8450
366.518	6948
366.602	6781
366.685	9250
366.769	13081
366.852	33303
366.936	52230
367.019	24143
367.103	30136
367.186	58638
367.270	14817
367.353	6661
367.436	9588
367.520	8730
367.603	11881
367.687	19294
367.770	37071
367.853	21527
367.937	71097
368.020	120295
368.104	29770
368.187	26588
368.270	37452
368.353	33768
368.437	72083
368.520	210835
368.603	98152
368.687	87385
368.770	161629
368.853	37975
368.936	46866
369.020	53407
369.103	17195
369.186	9944
369.269	11807
369.352	24578
369.436	40339
369.519	23669
369.602	10872
369.685	13473
369.768	15598
369.851	13051
369.934	9466
370.018	14242
370.101	32176
370.184	27065
370.267	22254
370.350	32204
370.433	54253
370.516	133343
370.599	186327
370.682	62742
370.765	84768
370.848	99905
370.931	201613
371.014	82823
371.097	17387
371.180	11636
371.263	7372
371.346	6475
371.429	8273
371.511	10705
371.594	21898
371.677	40980
371.760	57652
371.843	31265
371.926	130532
372.009	319406
372.091	96551
372.174	77313
372.257	188299
372.340	71420
372.423	75066
372.505	96894
372.588	36204
372.671	55197
372.754	190510
372.836	92302
372.919	93455
373.002	187354
373.085	49374
373.167	30081
373.250	76580
373.332	177382
373.415	210818
373.498	447978
373.580	158616
373.663	245808
373.746	315649
373.828	68921
373.911	33837
373.993	40324
374.076	178468
374.159	169014
374.241	60192
374.324	162950
374.406	100677
374.489	126672
374.571	382421
374.654	151857
374.736	72411
374.819	241909
374.901	319913
374.983	326143
375.066	57107
375.148	27981
375.231	135856
375.313	263943
375.395	104267
375.478	23151
375.560	14706
375.643	20830
375.725	71820
375.807	310154
375.890	295860
375.972	175432
376.054	86391
376.136	177227
376.219	65216
376.301	83361
376.383	262642
376.465	92165
376.548	60318
376.630	70647
376.712	221389
376.794	96393
376.877	13333
376.959	9477
377.041	14496
377.123	48329
377.205	57709
377.287	10598
377.369	8208
377.452	8186
377.534	8386
377.616	8775
377.698	8749
377.780	5929
377.862	9236
377.944	9720
378.026	6109
378.108	7409
378.190	8462
378.272	7512
378.354	6158
378.436	7080
378.518	24699
378.600	92988
378.682	60671
378.764	109179
378.846	84020
378.928	29821
379.010	34745
379.091	16783
379.173	9686
379.255	8806
379.337	14945
379.419	50558
379.501	158942
379.583	62820
379.664	17946
379.746	38740
379.828	105219
379.910	142800
379.991	124153
380.073	22932
380.155	16266
380.237	10735
380.318	7414
380.400	9899
380.482	23490
380.564	37591
380.645	33389
380.727	30859
380.809	19447
380.890	13798
380.972	9938
381.053	10234
381.135	14815
381.217	36145
381.298	112373
381.380	55390
381.461	45697
381.543	212333
381.624	259232
381.706	46767
381.787	29644
381.869	27700
381.951	82821
382.032	342899
382.113	205857
382.195	48390
382.276	31566
382.358	62412
382.439	196033
382.521	202740
382.602	325729
382.684	140166
382.765	280284
382.846	284694
382.928	395110
383.009	206970
383.090	134128
383.172	542384
383.253	842813
383.334	286519
383.416	308839
383.497	148459
383.578	66250
383.659	124029
383.741	455763
383.822	1227782
383.903	602036
383.984	212868
384.066	364708
384.147	219540
384.228	46602
384.309	35133
384.390	26444
384.471	20522
384.553	23713
384.634	35916
384.715	32713
384.796	17239
384.877	22225
384.958	96577
385.039	117070
385.120	39330
385.201	20366
385.282	34755
385.363	40876
385.444	27445
385.525	39209
385.606	153455
385.687	133274
385.768	41166
385.849	47003
385.930	150663
386.011	263609
386.092	68510
386.173	20647
386.254	22037
386.335	21605
386.416	19247
386.496	65634
386.577	114081
386.658	55756
386.739	33919
386.820	39116
386.901	33168
386.981	25402
387.062	15566
387.143	25453
387.224	108330
387.304	104285
387.385	43164
387.466	34980
387.547	44844
387.627	25593
387.708	42566
387.789	185946
387.869	231804
387.950	60643
388.031	14729
388.111	21508
388.192	71189
388.273	106230
388.353	53223
388.434	21118
388.514	35532
388.595	172062
388.676	221889
388.756	102806
388.837	99793
388.917	59840
388.998	16093
389.078	13968
389.159	11946
389.239	11885
389.320	20910
389.400	20092
389.480	48647
389.561	125319
389.641	56182
389.722	22068
389.802	35716
389.883	49795
389.963	144029
390.043	110770
390.124	49154
390.204	40908
390.284	122371
390.365	84616
390.445	153010
390.525	414137
390.605	319706
390.686	76070
390.766	23684
390.846	13872
390.927	10601
391.007	13245
391.087	18199
391.167	19753
391.247	16951
391.328	42516
391.408	60553
391.488	39584
391.568	13196
391.648	17688
391.728	24426
391.808	23535
391.888	25796
391.969	62712
392.049	105246
392.129	57681
392.209	58519
392.289	133501
392.369	82203
392.449	102447
392.529	59172
392.609	39081
392.689	47326
392.769	138136
392.849	121080
392.929	103635
393.009	236371
393.089	180578
393.169	182209
393.248	533564
393.328	1637847
393.408	1727718
393.488	580945
393.568	180546
393.648	88661
393.728	56205
393.807	39568
393.887	33912
393.967	26836
394.047	28336
394.127	29259
394.206	37207
394.286	100464
394.366	501807
394.446	534774
394.525	106979
394.605	31868
394.685	41408
394.764	122088
394.844	209223
394.924	134445
395.003	33546
395.083	20756
395.163	18674
395.242	17560
395.322	18252
395.402	13404
395.481	22657
395.561	78173
395.640	214250
395.720	144648
395.799	221709
395.879	156010
395.958	51456
396.038	139339
396.117	653189
396.197	717172
396.276	219014
396.356	97228
396.435	96703
396.515	63046
396.594	74540
396.673	147508
396.753	520851
396.832	1490082
396.912	1127590
396.991	297855
397.070	88831
397.150	48281
397.229	33812
397.308	40110
397.388	65501
397.467	33588
397.546	18421
397.625	13685
397.705	19769
397.784	20783
397.863	12938
397.942	11393
398.022	15160
398.101	69892
398.180	213430
398.259	114401
398.338	28979
398.417	17614
398.497	14868
398.576	15507
398.655	9545
398.734	9161
398.813	12396
398.892	60694
398.971	216308
399.050	99588
399.129	14219
399.208	7655
399.287	9142
399.366	7573
399.445	9212
399.524	10031
399.603	8488
399.682	18733
399.761	59266
399.840	216393
399.919	162172
399.998	23512
400.077	8188
400.156	7201
400.235	14378
400.313	12017
400.392	16264
400.471	54746
400.550	89746
400.629	26236
400.708	14374
400.786	20287
400.865	65098
400.944	65334
401.023	23811
401.102	6619
401.180	7050
401.259	11052
401.338	16178
401.416	16968
401.495	15626
401.574	15104
401.652	12328
401.731	17549
401.810	15182
401.888	6602
401.967	4737
402.046	6954
402.124	15800
402.203	22275
402.281	11908
402.360	19953
402.438	75715
402.517	54050
402.596	18733
402.674	19823
402.753	11713
402.831	8442
402.910	9671
402.988	32118
403.066	98640
403.145	51903
403.223	28381
403.302	66497
403.380	48189
403.459	45608
403.537	22055
403.615	13327
403.694	5071
403.772	4607
403.850	4745
403.929	4267
404.007	6735
404.085	11532
404.164	10833
404.242	5343
404.320	7223
404.398	13485
404.477	45568
404.555	259844
404.633	220345
404.711	28548
404.789	9007
404.868	7753
404.946	5846
405.024	4520
405.102	5151
405.180	3280
405.258	4595
405.336	6419
405.415	8424
405.493	23951
405.571	15935
405.649	5201
405.727	7665
405.805	14824
405.883	12297
405.961	15409
406.039	24964
406.117	9977
406.195	12444
406.273	57110
406.351	233525
406.429	140139
406.507	34108
406.585	13903
406.663	8507
406.740	12796
406.818	12603
406.896	8323
406.974	8692
407.052	18813
407.130	131667
407.208	185987
407.285	33741
407.363	7162
407.441	7239
407.519	6270
407.596	9693
407.674	29881
407.752	117415
407.830	121355
407.907	44378
407.985	12755
408.063	6949
408.141	4794
408.218	19883
408.296	17367
408.373	7417
408.451	8717
408.529	8905
408.606	4231
408.684	3583
408.762	3067
408.839	3109
408.917	2842
408.994	4099
409.072	4280
409.149	5227
409.227	9394
409.304	12036
409.382	9499
409.459	11692
409.537	17831
409.614	15210
409.692	10087
409.769	10987
409.846	18911
409.924	26229
410.001	16437
410.079	11454
410.156	8723
410.233	8597
410.311	9515
410.388	6319
410.465	7281
410.543	7647
410.620	4950
410.697	6257
410.775	10080
410.852	4992
410.929	8458
411.006	11983
411.083	7671
411.161	16515
411.238	24552
411.315	17694
411.392	6632
411.469	9499
411.547	9148
411.624	4857
411.701	5311
411.778	7702
411.855	18357
411.932	10437
412.009	6608
412.086	5965
412.163	9305
412.240	13225
412.317	16112
412.394	14325
412.471	5696
412.548	3433
412.625	4634
412.702	11216
412.779	19734
412.856	10608
412.933	5126
413.010	4902
413.087	8798
413.164	50246
413.241	70603
413.318	17518
413.395	10185
413.471	15659
413.548	7101
413.625	5855
413.702	11623
413.779	10079
413.855	3069
413.932	2836
414.009	3456
414.086	3247
414.162	3640
414.239	10986
414.316	51006
414.393	112101
414.469	37462
414.546	5627
414.623	3625
414.699	4191
414.776	6005
414.853	4957
414.929	5900
415.006	7351
415.082	13444
415.159	8787
415.236	4656
415.312	5337
415.389	11677
415.465	17641
415.542	8321
415.618	5288
415.695	10662
415.771	8185
415.848	7557
415.924	9149
416.000	8382
416.077	5430
416.153	2439
416.230	1878
416.306	3345
416.383	5750
416.459	4777
416.535	2749
416.612	3664
416.688	3465
416.764	3336
416.841	3956
416.917	5104
416.993	5676
417.069	8049
417.146	11280
417.222	11541
417.298	7548
417.374	4690
417.451	6559
417.527	7828
417.603	9268
417.679	6326
417.755	4848
417.831	2295
417.908	2739
417.984	3140
418.060	2808
418.136	13358
418.212	18689
418.288	7371
418.364	4927
418.440	6206
418.516	11285
418.592	22510
418.668	31391
418.744	33920
418.820	24161
418.896	7652
418.972	2704
419.048	4323
419.124	15143
419.200	10921
419.276	3719
419.352	1536
419.428	3197
419.504	4660
419.579	7186
419.655	4203
419.731	5386
419.807	21312
419.883	41288
419.959	26562
420.034	9070
420.110	16770
420.186	67791
420.262	50006
420.337	11616
420.413	8978
420.489	4298
420.565	4726
420.640	4477
420.716	4671
420.792	3386
420.867	4494
420.943	4287
421.019	10880
421.094	8577
421.170	4382
421.245	4085
421.321	4631
421.397	5651
421.472	18429
421.548	61176
421.623	37165
421.699	9931
421.774	8603
421.850	7990
421.925	14877
422.001	12471
422.076	8518
422.152	11201
422.227	19181
422.302	21760
422.378	29256
422.453	54831
422.529	132448
422.604	423193
422.679	718809
422.755	466734
422.830	148804
422.905	53754
422.981	28813
423.056	19210
423.131	14965
423.207	11738
423.282	12471
423.357	23133
423.432	15706
423.508	13288
423.583	34693
423.658	25259
423.733	11587
423.808	15633
423.883	13749
423.959	10525
424.034	8552
424.109	7289
424.184	3781
424.259	3840
424.334	4307
424.409	3619
424.484	3884
424.559	6730
424.634	4692
424.709	8285
424.784	9366
424.859	6320
424.934	12266
425.009	46265
425.084	77031
425.159	28456
425.234	5523
425.309	2722
425.384	4566
425.459	6061
425.534	5407
425.609	8801
425.683	6304
425.758	4045
425.833	5999
425.908	8315
425.983	28261
426.058	81567
426.132	34617
426.207	11648
426.282	22856
426.357	22830
426.431	6303
426.506	6087
426.581	7676
426.655	6032
426.730	4096
426.805	3763
426.879	5407
426.954	6840
427.029	16411
427.103	74877
427.178	190958
427.253	82176
427.327	13376
427.402	17867
427.476	35037
427.551	13916
427.625	11523
427.700	11863
427.774	7193
427.849	11464
427.923	6022
427.998	6472
428.072	8158
428.147	21210
428.221	67473
428.296	194974
428.370	94108
428.444	18668
428.519	30262
428.593	64177
428.667	49889
428.742	65169
428.816	51503
428.890	148716
428.965	199176
429.039	73666
429.113	73636
429.188	25041
429.262	6549
429.336	14193
429.410	42020
429.485	30322
429.559	51482
429.633	39022
429.707	11973
429.781	32193
429.855	175482
429.930	239759
430.004	156527
430.078	254622
430.152	190717
430.226	241654
430.300	225572
430.374	36414
430.448	17251
430.522	72870
430.596	216494
430.670	110834
430.744	205243
430.818	290106
430.892	55836
430.966	11422
431.040	6766
431.114	4768
431.188	5294
431.262	8019
431.336	8596
431.410	26232
431.484	76037
431.557	39811
431.631	6595
431.705	7579
431.779	32663
431.853	162728
431.927	108957
432.000	13314
432.074	6848
432.148	13597
432.222	11793
432.295	4866
432.369	4454
432.443	12527
432.516	80701
432.590	193524
432.664	69527
432.737	10451
432.811	2871
432.885	1730
432.958	2671
433.032	1909
433.106	2357
433.179	822
433.253	978
433.326	1825
433.400	1681
433.473	2936
433.547	1733
433.620	2898
433.694	8265
433.767	10969
433.841	7566
433.914	2877
433.988	2104
434.061	2663
434.134	2162
434.208	1171
434.281	1249
434.355	2193
434.428	3298
434.501	2692
434.575	2943
434.648	4515
434.721	1782
434.795	1166
434.868	1012
434.941	1135
435.014	1066
435.088	1663
435.161	3765
435.234	8376
435.307	9916
435.381	6059
435.454	7027
435.527	9231
435.600	8900
435.673	6242
435.746	3976
435.819	3404
435.892	2565
435.966	2792
436.039	4532
436.112	4248
436.185	1579
436.258	1124
436.331	645
436.404	844
436.477	866
436.550	816
436.623	1705
436.696	1036
436.769	3347
436.842	3721
436.915	5838
436.987	9979
437.060	4366
437.133	1510
437.206	2456
437.279	3496
437.352	1404
437.425	2407
437.498	1772
437.570	9749
437.643	7983
437.716	2312
437.789	1468
437.861	6567
437.934	18048
438.007	8252
438.080	2281
438.152	3918
438.225	11110
438.298	90585
438.370	252004
438.443	90583
438.516	18127
438.588	4429
438.661	2824
438.734	3647
438.806	4774
438.879	6719
438.951	5257
439.024	9672
439.096	4161
439.169	2558
439.241	1009
439.314	3185
439.386	12496
439.459	20601
439.531	28765
439.604	9313
439.676	2237
439.749	1769
439.821	1109
439.893	2713
439.966	4649
440.038	6352
440.110	5313
440.183	2868
440.255	2526
440.327	7981
440.400	43982
440.472	173292
440.544	98863
440.617	12291
440.689	8181
440.761	10304
440.833	15174
440.905	9749
440.978	2283
441.050	2171
441.122	2331
441.194	1738
441.266	1851
441.338	2241
441.411	6827
441.483	48159
441.555	69283
441.627	15866
441.699	17433
441.771	21254
441.843	7299
441.915	2333
441.987	2523
442.059	2671
442.131	6185
442.203	12596
442.275	14912
442.347	12422
442.419	14584
442.491	66777
442.563	165102
442.635	72530
442.706	68391
442.778	48180
442.850	7877
442.922	4251
442.994	7636
443.066	14729
443.137	9935
443.209	6986
443.281	11963
443.353	26754
443.425	92182
443.496	304969
443.568	263110
443.640	85449
443.711	19479
443.783	7978
443.855	6322
443.926	4174
443.998	6975
444.070	12798
444.141	8809
444.213	10507
444.285	12229
444.356	17923
444.428	19104
444.499	6577
444.571	2325
444.642	3081
444.714	5387
444.785	10097
444.857	18701
444.928	57774
445.000	31963
445.071	38099
445.143	42287
445.214	17520
445.285	33923
445.357	102873
445.428	221616
445.500	463670
445.571	278564
445.642	131795
445.714	71392
445.785	83699
445.856	23168
445.928	12423
445.999	9736
446.070	7189
446.141	7749
446.213	10604
446.284	8087
446.355	12697
446.426	10135
446.497	6740
446.569	17201
446.640	23509
446.711	11200
446.782	6444
446.853	17603
446.924	15845
446.995	6207
447.066	7752
447.138	22200
447.209	11644
447.280	2309
447.351	1150
447.422	2680
447.493	8802
447.564	9284
447.635	9958
447.706	3839
447.777	1939
447.847	2189
447.918	2893
447.989	10800
448.060	15904
448.131	39611
448.202	30391
448.273	15223
448.344	7888
448.414	3417
448.485	2982
448.556	2492
448.627	1682
448.698	2512
448.768	2162
448.839	4992
448.910	19519
448.981	16221
449.051	5410
449.122	1549
449.193	1229
449.263	2596
449.334	2584
449.405	3590
449.475	12605
449.546	10500
449.616	22064
449.687	17583
449.758	4790
449.828	2902
449.899	2114
449.969	1109
450.040	3610
450.110	8913
450.181	12796
450.251	4723
450.322	1655
450.392	4059
450.463	4142
450.533	1260
450.604	3619
450.674	3255
450.744	3567
450.815	3063
450.885	3186
450.955	2804
451.026	3228
451.096	4221
451.166	7877
451.237	24567
451.307	62389
451.377	23259
451.447	4766
451.518	3208
451.588	3847
451.658	4204
451.728	11708
451.799	62318
451.869	68491
451.939	15336
452.009	4206
452.079	2602
452.149	4591
452.219	16310
452.289	72610
452.360	51109
452.430	9166
452.500	6254
452.570	7846
452.640	13410
452.710	46636
452.780	69862
452.850	33663
452.920	22035
452.990	8216
453.060	6704
453.129	10677
453.199	15777
453.269	61875
453.339	125747
453.409	189664
453.479	215283
453.549	304333
453.619	346024
453.688	130556
453.758	20429
453.828	7577
453.898	5181
453.968	5569
454.037	4005
454.087	4561
454.107	4775
454.168	2939
454.177	2655
454.247	1685
454.249	1738
454.316	2607
454.330	3596
454.386	7342
454.411	18118
454.456	35457
454.492	44544
454.525	52738
454.574	26131
454.595	14654
454.655	5537
454.665	4164
454.734	6710
454.736	7077
454.804	18784
454.817	27876
454.873	63332
454.898	68374
454.943	76521
454.979	54067
455.013	34125
455.060	19054
455.082	13207
455.141	13830
455.152	13472
455.221	41504
455.222	42094
455.291	75758
455.303	66922
455.360	28371
455.384	22817
455.430	14940
455.465	19998
455.499	23080
455.546	48397
455.569	58994
455.627	40380
455.638	37409
455.707	6500
455.708	6509
455.777	4281
455.789	4459
455.846	5378
455.869	4831
455.916	3655
455.950	4597
455.985	5333
456.031	5575
456.054	5743
456.112	3565
456.124	3211
456.193	3572
456.193	3542
456.262	6535
456.274	7488
456.332	11094
456.355	13212
456.401	15979
456.436	12812
456.470	9782
456.516	4967
456.540	2958
456.597	2410
456.609	2296
456.678	2454
456.678	2438
456.747	2649
456.759	2492
456.817	1878
456.840	2118
456.886	2307
456.920	2535
456.955	3158
457.001	3399
457.024	4022
457.082	7372
457.093	8029
457.162	15392
457.163	15472
457.232	22289
457.243	21156
457.301	13680
457.324	9484
457.370	3522
457.405	3045
457.439	2902
457.485	2685
457.508	2595
457.566	4000
457.577	4194
457.646	4490
457.647	4504
457.715	5655
457.727	6059
457.784	8209
457.808	10985
457.853	15490
457.889	18392
457.922	20092
457.969	13036
457.991	10933
458.050	11762
458.060	11843
458.129	22636
458.130	22875
458.198	30351
458.211	27149
458.267	12991
458.292	9826
458.336	6287
458.372	6138
458.405	7194
458.453	9888
458.474	11515
458.533	19897
458.543	20861
458.611	44386
458.614	44250
458.680	30262
458.694	25208
458.749	10558
458.775	8619
458.818	6343
458.855	6007
458.887	5959
458.936	5768
458.955	5605
459.016	6674
459.024	6736
459.093	6669
459.097	6592
459.162	5417
459.177	5688
459.230	6776
459.257	7210
459.299	7408
459.338	7045
459.368	6941
459.418	7167
459.437	7103
459.499	6610
459.505	6568
459.574	5640
459.579	5656
459.643	5658
459.659	5500
459.711	5353
459.740	5645
459.780	6399
459.820	7153
459.849	7695
459.900	9014
459.917	8981
459.981	8719
459.986	8620
460.054	5737
460.061	5539
460.123	5536
460.141	5634
460.191	6243
460.222	6705
460.260	7267
460.302	8405
460.328	8295
460.382	7116
460.397	7055
460.462	6145
460.465	6110
460.534	6555
460.543	6647
460.602	12303
460.623	14626
460.671	20011
460.703	28143
460.739	31653
460.783	28812
460.808	25839
460.864	10489
460.876	8628
460.944	7752
460.945	7727
461.013	7854
461.024	7589
461.081	6493
461.104	6644
461.150	6965
461.184	6990
461.218	6888
461.264	6307
461.286	6438
461.345	7235
461.355	7261
461.423	8047
461.425	8047
461.491	8940
461.505	9238
461.559	19148
461.585	24073
461.628	41277
461.665	59356
461.696	67142
461.745	90039
461.764	82558
461.825	28965
461.832	27367
461.901	10510
461.905	10283
461.969	9092
461.985	8861
462.037	8671
462.065	8857
462.105	11109
462.145	13248
462.173	20234
462.225	34007
462.241	37579
462.305	57823
462.310	56543
462.378	35782
462.385	31522
462.446	14051
462.465	10560
462.514	8720
462.545	8996
462.582	9153
462.625	9490
462.650	9304
462.705	9047
462.718	9595
462.785	12732
462.786	12881
462.854	21200
462.865	22846
462.922	29114
462.945	32272
462.990	25128
463.025	15674
463.058	13169
463.104	10437
463.126	9695
463.184	9778
463.194	9795
463.262	9646
463.264	9642
463.330	10141
463.344	10272
463.398	12234
463.424	13108
463.466	13779
463.504	14915
463.533	15026
463.583	14470
463.601	14943
463.663	16146
463.669	16538
463.737	22004
463.743	22515
463.805	37591
463.823	42010
463.873	67292
463.903	83863
463.940	89999
463.982	100838
464.008	84127
464.062	36278
464.076	32834
464.142	12651
464.144	12402
464.211	10404
464.221	10389
464.279	10915
464.301	11076
464.347	12535
464.381	13736
464.414	16603
464.461	20399
464.482	21268
464.540	25081
464.550	23834
464.617	12795
464.620	12373
464.685	11945
464.699	12080
464.753	11963
464.779	12035
464.820	12750
464.859	13213
464.888	15001
464.938	18332
464.956	19069
465.018	22025
465.023	21521
465.091	14304
465.098	13416
465.158	11921
465.177	11699
465.226	12121
465.257	12366
465.293	13266
465.336	14441
465.361	14929
465.416	15812
465.428	18250
465.495	31657
465.496	31939
465.563	68878
465.575	75492
465.631	92497
465.654	100389
465.698	61964
465.734	26073
465.765	20385
465.813	11944
465.833	11341
465.893	12274
465.900	12192
465.968	11483
465.972	11410
466.035	10359
466.052	10093
466.102	10685
466.131	10982
466.170	11512
466.210	12034
466.237	11886
466.290	11577
466.304	11869
466.369	12880
466.372	12947
466.439	14464
466.449	14645
466.506	16180
466.528	16757
466.573	26696
466.607	34107
466.641	58126
466.687	91582
466.708	102727
466.766	134265
466.775	123236
466.842	37924
466.845	33797
466.909	19630
466.925	16588
466.977	15601
467.004	15270
467.044	15194
467.083	15107
467.111	15520
467.163	16218
467.178	16199
467.242	16007
467.245	16032
467.312	16025
467.321	16001
467.379	19087
467.400	20153
467.446	24126
467.480	26925
467.559	22510
467.638	17047
467.717	18013
467.796	18869
467.875	20517
467.955	22698
468.034	38570
468.113	110246
468.192	164802
468.271	40523
468.350	16633
468.429	17416
468.508	18093
468.588	17528
468.667	18174
468.746	17581
468.825	17993
468.904	15910
468.983	22478
469.062	45481
469.141	58024
469.220	19236
469.299	17056
469.378	17282
469.456	14360
469.535	15404
469.614	16048
469.693	20222
469.772	31295
469.851	50046
469.930	32452
470.009	14270
470.088	12831
470.166	13561
470.245	18240
470.324	19208
470.403	15230
470.482	13413
470.560	13519
470.639	13797
470.718	16347
470.797	15125
470.875	20594
470.954	34253
471.033	41901
471.111	14867
471.190	12090
471.269	12567
471.347	12578
471.426	15609
471.505	19273
471.583	15671
471.662	14090
471.740	13604
471.819	13341
471.898	13100
471.976	14590
472.055	13510
472.133	18973
472.212	30556
472.290	35215
472.369	19294
472.447	14464
472.526	13217
472.604	12525
472.683	13577
472.761	14232
472.839	13858
472.918	13707
472.996	16099
473.075	23003
473.153	20834
473.231	15156
473.310	20248
473.388	19295
473.466	16380
473.545	14826
473.623	17129
473.701	18086
473.780	13648
473.858	12711
473.936	14497
474.014	14081
474.093	16702
474.171	34336
474.249	55217
474.327	35663
474.405	12122
474.484	12667
474.562	12670
474.640	13768
474.718	15144
474.796	14717
474.874	11552
474.952	10467
475.030	11178
475.108	11845
475.187	11647
475.265	12810
475.343	15633
475.421	17360
475.499	14357
475.577	17354
475.655	25482
475.733	65969
475.811	125726
475.889	116239
475.966	78017
476.044	17495
476.122	20171
476.200	21732
476.278	20516
476.356	20030
476.434	20420
476.512	22581
476.590	25551
476.667	23991
476.745	18658
476.823	19395
476.901	21091
476.979	22950
477.056	20677
477.134	20955
477.212	18968
477.290	18909
477.367	17505
477.445	18350
477.523	19699
477.601	18531
477.678	18715
477.756	27235
477.834	32157
477.911	20543
477.989	18586
478.066	21193
478.144	23285
478.222	21583
478.299	20576
478.377	20407
478.454	17138
478.532	16148
478.609	15313
478.687	17098
478.764	16863
478.842	16374
478.919	18563
478.997	18954
479.074	17723
479.152	24530
479.229	33755
479.307	24164
479.384	14856
479.461	15676
479.539	19841
479.616	25766
479.694	19180
479.771	22690
479.848	24453
479.926	36373
480.003	39868
480.080	18140
480.157	16786
480.235	18122
480.312	18045
480.389	25204
480.467	47982
480.544	59361
480.621	28094
480.698	24003
480.775	28444
480.853	31475
480.930	24106
481.007	24745
481.084	29181
481.161	30867
481.238	29018
481.315	22170
481.392	20149
481.470	20749
481.547	21316
481.624	22053
481.701	22003
481.778	25209
481.855	26166
481.932	40880
482.009	74626
482.086	55070
482.163	21797
482.240	22010
482.317	24761
482.393	24445
482.470	21708
482.547	23461
482.624	20104
482.701	21889
482.778	20923
482.855	18119
482.932	17410
483.009	17607
483.085	19591
483.162	22035
483.239	21677
483.316	19036
483.393	19511
483.469	19097
483.546	24400
483.623	27969
483.699	20208
483.776	21330
483.853	23368
483.930	33674
484.006	97864
484.083	171824
484.160	57345
484.236	26838
484.313	25784
484.389	24251
484.466	22937
484.543	21567
484.619	23230
484.696	26334
484.772	34727
484.849	40887
484.925	25833
485.002	22789
485.078	25243
485.155	26434
485.231	23795
485.308	24892
485.384	27342
485.461	37660
485.537	89832
485.614	119652
485.690	33289
485.766	22770
485.843	23242
485.919	28516
485.995	32391
486.072	22716
486.148	22436
486.224	20379
486.301	24718
486.377	31011
486.453	29839
486.530	24251
486.606	26242
486.682	30592
486.758	63463
486.835	86693
486.911	57163
486.987	107449
487.063	85145
487.139	62063
487.215	44291
487.292	25372
487.368	21494
487.444	23698
487.520	28121
487.596	24439
487.672	29648
487.748	66704
487.824	104557
487.900	48206
487.976	25837
488.052	29487
488.128	32995
488.204	28193
488.280	28218
488.356	33639
488.432	102915
488.508	182517
488.584	52700
488.660	20656
488.736	20237
488.812	20452
488.888	24683
488.964	28535
489.039	55288
489.115	90127
489.191	62400
489.267	24925
489.343	26385
489.418	19729
489.494	17973
489.570	18654
489.646	21280
489.722	20804
489.797	22946
489.873	45828
489.949	132058
490.024	123366
490.100	24113
490.176	20039
490.251	23674
490.327	26969
490.403	19835
490.478	17434
490.554	14756
490.629	16320
490.705	16237
490.781	19154
490.856	20728
490.932	21349
491.007	20913
491.083	21415
491.158	21923
491.234	33515
491.309	100604
491.385	117061
491.460	27799
491.536	25460
491.611	18783
491.686	20356
491.762	23120
491.837	42847
491.913	79169
491.988	114112
492.063	127159
492.139	70472
492.214	47626
492.289	17137
492.365	15804
492.440	20324
492.515	25595
492.590	25192
492.666	18408
492.741	30229
492.816	58981
492.891	32786
492.967	13840
493.042	15086
493.117	12871
493.192	13300
493.267	14959
493.342	18131
493.418	21633
493.493	13636
493.568	14300
493.643	14714
493.718	23093
493.793	42571
493.868	37731
493.943	18234
494.018	15637
494.093	18166
494.168	18313
494.243	13070
494.318	13571
494.393	14302
494.468	12734
494.543	12220
494.618	14732
494.693	15489
494.768	16770
494.842	17246
494.917	12552
494.992	12358
495.067	11642
495.142	11975
495.217	13452
495.292	15109
495.366	18910
495.441	27347
495.516	33676
495.591	37203
495.665	86821
495.740	197109
495.815	111204
495.890	34615
495.964	29292
496.039	29731
496.114	27733
496.188	28293
496.263	28691
496.338	29197
496.412	33609
496.487	38596
496.561	33272
496.636	33124
496.710	28705
496.785	34503
496.860	42513
496.934	30543
497.009	27802
497.083	27057
497.158	27964
497.232	35311
497.307	43739
497.381	31473
497.455	42200
497.530	64150
497.604	39022
497.679	37551
497.753	64121
497.827	81273
497.902	56245
497.976	59888
498.050	131639
498.125	573341
498.199	717162
498.273	99865
498.348	46072
498.422	36833
498.496	36370
498.570	34884
498.645	31102
498.719	35564
498.793	48418
498.867	83381
498.941	107019
499.016	238455
499.090	704952
499.164	354365
499.238	37938
499.312	29863
499.386	31364
499.460	35817
499.534	35143
499.609	42819
499.683	74745
499.757	72406
499.831	110825
499.905	472726
499.979	561760
500.053	112933
500.127	93208
500.201	46746
500.275	36610
500.349	36862
500.422	40757
500.496	51117
500.570	82240
500.644	254891
500.718	570820
500.792	182818
500.866	41554
500.940	59079
501.013	50308
501.087	43293
501.161	57799
501.235	85677
501.309	203039
501.382	539941
501.456	551921
501.530	121667
501.603	215261
501.677	102390
501.751	35369
501.825	41630
501.898	74514
501.972	244726
502.046	189544
502.119	45921
502.193	95911
502.266	267890
502.340	161356
502.413	116594
502.487	256940
502.561	168361
502.634	49917
502.708	28963
502.781	26105
502.855	23415
502.928	22855
503.002	24100
503.075	24233
503.149	28814
503.222	28963
503.295	32645
503.369	40987
503.442	52105
503.516	164115
503.589	473853
503.662	352141
503.736	99969
503.809	215126
503.882	192482
503.956	224546
504.029	238437
504.102	72139
504.175	79545
504.249	40302
504.322	36863
504.395	37395
504.468	24814
504.542	28469
504.615	20873
504.688	18155
504.761	18347
504.834	24436
504.907	22610
504.980	31600
505.053	26754
505.127	22027
505.200	33514
505.273	45087
505.346	31926
505.419	22258
505.492	20423
505.565	17902
505.638	16491
505.711	18180
505.784	18439
505.857	17436
505.930	20824
506.003	19261
506.076	21730
506.149	31345
506.221	44038
506.294	33658
506.367	78522
506.440	300072
506.513	203115
506.586	46290
506.659	27522
506.731	18566
506.804	22154
506.877	28088
506.950	27341
507.022	17719
507.095	28220
507.168	37891
507.241	19975
507.313	13984
507.386	16549
507.459	20972
507.531	14964
507.604	14529
507.677	16140
507.749	11702
507.822	14551
507.894	21147
507.967	21891
508.040	14317
508.112	13771
508.185	15769
508.257	12946
508.330	18632
508.402	16608
508.475	17419
508.547	20905
508.620	20750
508.692	42328
508.765	25485
508.837	14418
508.909	13963
508.982	13682
509.054	15044
509.127	12800
509.199	12539
509.271	14008
509.344	11565
509.416	13008
509.488	13436
509.560	14061
509.633	13183
509.705	14060
509.777	15137
509.849	19353
509.922	13930
509.994	12573
510.066	12992
510.138	10531
510.210	15249
510.283	16303
510.355	15625
510.427	14314
510.499	13222
510.571	13467
510.643	12185
510.715	18887
510.787	16796
510.859	15554
510.931	20776
511.003	19577
511.076	20001
511.148	13124
511.219	14248
511.291	34434
511.363	50065
511.435	16520
511.507	11119
511.579	13738
511.651	12268
511.723	12663
511.795	11865
511.867	13409
511.939	19469
512.010	59623
512.082	52828
512.154	14884
512.226	14166
512.298	13063
512.369	18048
512.441	16031
512.513	16576
512.585	13505
512.656	15304
512.728	18674
512.800	12642
512.871	14179
512.943	14078
513.015	10360
513.086	11634
513.158	13487
513.230	12585
513.301	18254
513.373	22588
513.444	13915
513.516	10401
513.588	11900
513.659	12404
513.731	14993
513.802	13352
513.874	24123
513.945	43029
514.016	19291
514.088	11970
514.159	11719
514.231	18164
514.302	17402
514.374	15298
514.445	18781
514.516	61787
514.588	53062
514.659	22882
514.730	57859
514.802	39396
514.873	13146
514.944	14786
515.016	13308
515.087	17022
515.158	31048
515.229	60688
515.301	18132
515.372	15587
515.443	12299
515.514	10819
515.585	10069
515.656	11822
515.728	10662
515.799	9448
515.870	11492
515.941	12418
516.012	10547
516.083	12372
516.154	14454
516.225	21236
516.296	19970
516.367	16179
516.438	17238
516.509	22452
516.580	29448
516.651	74695
516.722	278604
516.793	199179
516.864	47458
516.935	49338
517.006	49409
517.077	58730
517.148	93734
517.219	260224
517.289	583017
517.360	375962
517.431	164180
517.502	32619
517.573	31141
517.643	27671
517.714	28362
517.785	29720
517.856	30164
517.926	35364
517.997	37084
518.068	40135
518.138	49725
518.209	58462
518.280	165188
518.350	693398
518.421	430291
518.492	53767
518.562	38472
518.633	41827
518.703	33562
518.774	44682
518.845	89151
518.915	110701
518.986	51096
519.056	42243
519.127	53995
519.197	89978
519.268	295441
519.338	264028
519.408	55511
519.479	39961
519.549	32324
519.620	26624
519.690	21535
519.760	22755
519.831	22145
519.901	24682
519.971	21079
520.042	24156
520.112	32230
520.182	28405
520.253	28619
520.323	23063
520.393	23476
520.463	26496
520.534	24364
520.604	43513
520.674	33048
520.744	33777
520.814	44260
520.885	44828
520.955	88167
521.025	375889
521.095	206898
521.165	32272
521.235	28642
521.305	23950
521.375	20219
521.445	21370
521.515	23154
521.585	25316
521.655	24764
521.725	24001
521.795	24941
521.865	19800
521.935	39947
522.005	39924
522.075	22235
522.145	24174
522.215	29198
522.285	44906
522.355	58929
522.424	133503
522.494	117114
522.564	40192
522.634	42980
522.704	101830
522.774	57793
522.843	22423
522.913	20455
522.983	21931
523.053	19798
523.122	20846
523.192	20572
523.262	52098
523.331	64879
523.401	21533
523.471	15486
523.540	18164
523.610	14341
523.680	15996
523.749	17558
523.819	26208
523.888	30441
523.958	17944
524.027	19748
524.097	23910
524.166	19723
524.236	18837
524.305	22825
524.375	19018
524.444	17903
524.514	21443
524.583	21793
524.653	30532
524.722	34583
524.791	23015
524.861	20967
524.930	17868
524.999	17992
525.069	25410
525.138	26734
525.207	37053
525.277	24358
525.346	20492
525.415	19869
525.484	19049
525.554	28266
525.623	26872
525.692	19387
525.761	22064
525.830	21053
525.900	21626
525.969	32846
526.038	39145
526.107	46703
526.176	135942
526.245	149758
526.314	60627
526.383	78915
526.452	114786
526.522	152565
526.591	252068
526.660	88686
526.729	44550
526.797	41752
526.867	63801
526.935	253878
527.004	433310
527.073	326658
527.142	44310
527.211	23176
527.280	21393
527.349	22569
527.418	15238
527.487	18052
527.555	14623
527.624	15107
527.693	13913
527.762	16563
527.831	14123
527.899	16913
527.968	16791
528.037	16380
528.106	18450
528.174	27688
528.243	32266
528.312	42868
528.380	53664
528.449	23550
528.518	17329
528.586	12981
528.655	14629
528.723	14196
528.792	14668
528.861	16941
528.929	16717
528.998	15725
529.066	13255
529.135	13471
529.203	13772
529.272	13412
529.340	13911
529.409	16282
529.477	15513
529.545	23283
529.614	27704
529.682	25625
529.751	36897
529.819	29738
529.887	22745
529.956	14374
530.024	17258
530.092	12961
530.161	13592
530.229	20133
530.297	15994
530.365	14086
530.434	12830
530.502	12197
530.570	12943
530.638	11590
530.707	12978
530.775	17599
530.843	13929
530.911	14616
530.979	13246
531.047	13470
531.115	14941
531.183	15116
531.252	14637
531.320	14826
531.388	15229
531.456	14721
531.524	12329
531.592	14682
531.660	16463
531.728	14149
531.796	13802
531.864	13864
531.932	14942
532.000	13903
532.067	14360
532.135	14758
532.203	17030
532.271	16156
532.339	21422
532.407	47218
532.475	36480
532.542	20729
532.610	20472
532.678	22956
532.746	62678
532.814	201301
532.881	72568
532.949	18820
533.017	16330
533.084	16183
533.152	14185
533.220	13980
533.287	15413
533.355	13773
533.423	14218
533.490	13117
533.558	14615
533.625	15950
533.693	16004
533.761	15964
533.828	16589
533.896	14392
533.963	20509
534.031	24647
534.098	32013
534.166	22860
534.233	14532
534.300	15599
534.368	15251
534.435	15040
534.503	14646
534.570	14589
534.637	14302
534.705	15184
534.772	16421
534.840	19250
534.907	57855
534.974	115668
535.041	28883
535.109	28180
535.176	17178
535.243	13303
535.310	13202
535.378	12924
535.445	13162
535.512	12444
535.579	13134
535.646	14147
535.714	14126
535.781	15072
535.848	14626
535.915	17118
535.982	15150
536.049	15324
536.116	17141
536.183	15018
536.250	15033
536.317	16040
536.384	18466
536.451	22629
536.518	24970
536.585	18645
536.652	23423
536.719	28802
536.786	25213
536.853	19282
536.920	27522
536.987	44744
537.053	32473
537.120	89799
537.187	107279
537.254	21136
537.321	16746
537.388	17998
537.454	14261
537.521	15156
537.588	14240
537.654	15838
537.721	14674
537.788	16151
537.855	13497
537.921	14966
537.988	14653
538.055	16503
538.121	15321
538.188	15540
538.254	18529
538.321	35509
538.388	29233
538.454	16707
538.521	15254
538.587	14105
538.654	13252
538.720	14133
538.787	13482
538.853	16309
538.920	22634
538.986	25804
539.053	21505
539.119	19089
539.185	16633
539.252	18627
539.318	23024
539.385	21772
539.451	17025
539.517	17514
539.583	19066
539.650	34493
539.716	87813
539.782	36600
539.849	16510
539.915	17124
539.981	15326
540.047	18532
540.114	18452
540.180	19105
540.246	15850
540.312	19465
540.378	34182
540.444	40422
540.510	31239
540.576	84113
540.643	44482
540.709	17284
540.775	16938
540.841	17713
540.907	23989
540.973	38066
541.039	24007
541.105	26158
541.171	16888
541.237	15092
541.303	17656
541.369	18749
541.435	19721
541.500	31650
541.566	24555
541.632	15951
541.698	14439
541.764	15759
541.830	15442
541.896	15486
541.961	16043
542.027	15615
542.093	14855
542.159	15241
542.224	17112
542.290	21101
542.356	29272
542.421	40570
542.487	21589
542.553	18211
542.618	22701
542.684	18655
542.750	16423
542.815	20855
542.881	29998
542.947	76820
543.012	69997
543.078	18902
543.143	14536
543.209	17202
543.274	16972
543.340	17637
543.405	29195
543.471	51525
543.536	21122
543.602	17936
543.667	17362
543.732	16216
543.798	14552
543.863	17086
543.928	15085
543.994	13991
544.059	14132
544.124	14592
544.190	13879
544.255	14576
544.320	15348
544.386	15205
544.451	20299
544.516	23526
544.581	20783
544.646	45147
544.712	85965
544.777	29017
544.842	26260
544.907	32461
544.972	26278
545.037	24689
545.102	27682
545.168	29038
545.233	28813
545.298	29266
545.363	32708
545.428	31307
545.493	37635
545.558	72185
545.623	47745
545.688	29196
545.753	25891
545.818	26480
545.883	27480
545.947	26332
546.012	30557
546.077	32558
546.142	28040
546.207	25988
546.272	30108
546.337	31868
546.401	27340
546.466	26733
546.531	26198
546.596	28798
546.661	27427
546.725	25962
546.790	24639
546.855	26164
546.919	24978
546.984	27225
547.049	30891
547.113	39445
547.178	33539
547.243	35407
547.307	37445
547.372	42251
547.436	51574
547.501	36702
547.565	34145
547.630	36417
547.695	39257
547.759	54036
547.823	47421
547.888	32671
547.952	32345
548.017	35284
548.081	39743
548.146	59690
548.210	52040
548.274	34997
548.339	32683
548.403	32466
548.468	29550
548.532	30725
548.596	31007
548.660	32558
548.725	33839
548.789	42912
548.853	47872
548.917	35213
548.982	52845
549.046	61253
549.110	33580
549.174	31579
549.238	32203
549.303	30284
549.367	32682
549.431	32463
549.495	31419
549.559	32331
549.623	32327
549.687	37680
549.751	45640
549.815	44118
549.879	41182
549.943	37420
550.007	41142
550.071	42172
550.135	42359
550.199	40653
550.263	39299
550.327	42242
550.391	60262
550.455	45437
550.519	39728
550.582	42128
550.646	47409
550.710	51338
550.774	44174
550.838	44278
550.901	46190
550.965	48791
551.029	51063
551.093	56069
551.156	71372
551.220	134747
551.284	176979
551.347	89554
551.411	154863
551.475	200514
551.538	59364
551.602	43469
551.666	40098
551.729	37195
551.793	38248
551.856	38390
551.920	35421
551.983	37606
552.047	37083
552.110	35528
552.174	35645
552.237	36385
552.301	35697
552.364	34409
552.428	34586
552.491	36147
552.554	35638
552.618	36438
552.681	37277
552.745	36398
552.808	46277
552.871	57991
552.934	43177
552.998	37328
553.061	41287
553.124	37405
553.187	34072
553.251	35344
553.314	38325
553.377	35414
553.440	36566
553.503	39125
553.567	39416
553.630	35702
553.693	36428
553.756	37408
553.819	33752
553.882	34276
553.945	34394
554.008	32868
554.071	32439
554.134	33796
554.197	31254
554.260	30194
554.323	33402
554.386	34261
554.449	33935
554.512	34350
554.575	32129
554.638	34873
554.701	33391
554.764	31694
554.827	32491
554.889	31240
554.952	28149
555.015	29696
555.078	29810
555.141	30266
555.203	28857
555.266	29146
555.329	30361
555.391	28512
555.454	28124
555.517	30760
555.580	29573
555.642	25849
555.705	26269
555.768	26877
555.830	29300
555.893	26862
555.955	26061
556.018	28062
556.080	27750
556.143	26269
556.206	27157
556.268	30629
556.330	28856
556.393	28013
556.455	29663
556.518	46125
556.580	53144
556.643	27850
556.705	26166
556.767	26051
556.830	27587
556.892	27665
556.955	33716
557.017	31093
557.079	26964
557.142	26046
557.204	27826
557.266	40695
557.328	42063
557.391	27058
557.453	24809
557.515	25784
557.577	28422
557.639	29449
557.701	25508
557.764	24740
557.826	27021
557.888	29709
557.950	28914
558.012	29287
558.074	32094
558.136	50733
558.198	131900
558.260	76341
558.322	34064
558.384	33008
558.446	35004
558.508	39084
558.570	46650
558.632	58877
558.694	82598
558.756	78372
558.818	182311
558.880	641227
558.942	275707
559.003	138754
559.065	95491
559.127	39966
559.189	38735
559.251	40757
559.312	47637
559.374	92220
559.436	359156
559.498	267557
559.559	48446
559.621	40825
559.683	43136
559.744	68440
559.806	169436
559.868	325250
559.929	91835
559.991	50833
560.052	55587
560.114	125460
560.176	110175
560.237	70977
560.299	139422
560.360	55251
560.422	35051
560.483	33591
560.545	32668
560.606	31904
560.667	30384
560.729	30439
560.790	29280
560.852	30332
560.913	29409
560.974	28975
561.036	28736
561.097	29086
561.158	29632
561.220	29082
561.281	29518
561.342	30021
561.403	31762
561.465	33459
561.526	53241
561.587	71938
561.648	35479
561.709	30164
561.771	28251
561.832	29097
561.893	28080
561.954	27555
562.015	27186
562.076	27941
562.137	27729
562.198	28164
562.259	28139
562.320	28503
562.381	28313
562.442	34313
562.503	31508
562.564	27468
562.625	25987
562.686	27605
562.747	27793
562.808	28489
562.869	30559
562.930	42534
562.991	39757
563.051	35067
563.112	32432
563.173	29292
563.234	28737
563.294	28068
563.355	28044
563.416	28755
563.477	28713
563.537	31134
563.598	32615
563.659	30602
563.720	30474
563.780	30236
563.841	31230
563.901	30763
563.962	29185
564.023	30559
564.083	29966
564.144	31202
564.204	30317
564.265	32849
564.325	37005
564.386	72170
564.446	74829
564.507	31553
564.567	28311
564.628	28140
564.688	27773
564.749	28950
564.809	34352
564.869	43084
564.930	29879
564.990	27045
565.050	25517
565.111	27481
565.171	24955
565.231	25587
565.292	24920
565.352	24011
565.412	26986
565.472	26811
565.532	26469
565.593	24713
565.653	23994
565.713	25621
565.773	26579
565.833	27794
565.893	32494
565.953	27287
566.013	24451
566.074	28125
566.134	38953
566.194	66439
566.254	66534
566.314	41415
566.374	27790
566.434	28280
566.494	28461
566.554	26092
566.614	25966
566.673	25992
566.733	28514
566.793	28787
566.853	27843
566.913	27119
566.973	28478
567.033	29078
567.092	28537
567.152	28600
567.212	29704
567.272	29450
567.331	32320
567.391	29709
567.451	31529
567.511	45846
567.570	50598
567.630	28036
567.690	26534
567.749	25588
567.809	25923
567.868	26842
567.928	28381
567.988	32795
568.047	29597
568.107	28033
568.166	29050
568.226	33103
568.285	42344
568.345	36243
568.404	32183
568.464	29790
568.523	28755
568.582	28699
568.642	29943
568.701	31857
568.761	38822
568.820	55538
568.879	57668
568.939	55833
568.998	40309
569.057	29606
569.116	28330
569.176	25412
569.235	23280
569.294	23688
569.353	22822
569.413	25256
569.472	26968
569.531	23430
569.590	24466
569.649	23487
569.708	21933
569.767	23908
569.827	25097
569.886	24368
569.945	21938
570.004	23100
570.063	24574
570.122	24635
570.181	26894
570.240	31867
570.299	30842
570.358	25972
570.417	23066
570.475	22301
570.534	23157
570.593	23212
570.652	23551
570.711	23308
570.770	24559
570.829	29050
570.887	23677
570.946	25041
571.005	21834
571.064	22626
571.122	24039
571.181	29089
571.240	25477
571.299	23097
571.357	27135
571.416	28715
571.475	30525
571.533	35423
571.592	25002
571.650	28906
571.709	21736
571.768	22067
571.826	21392
571.885	21332
571.943	21341
572.002	23343
572.060	24390
572.119	20257
572.177	20146
572.236	18528
572.294	18711
572.352	19027
572.411	19823
572.469	19033
572.528	19682
572.586	20064
572.644	21091
572.703	22598
572.761	21863
572.819	21900
572.877	20440
572.936	19731
572.994	18830
573.052	19487
573.110	18785
573.169	19352
573.227	18485
573.285	18115
573.343	18515
573.401	19898
573.459	19610
573.517	19580
573.576	19359
573.634	19711
573.692	19286
573.750	19346
573.808	19274
573.866	22427
573.924	30669
573.982	31014
574.040	21518
574.098	20471
574.155	19087
574.213	18082
574.271	16913
574.329	18267
574.387	18287
574.445	17550
574.503	17019
574.560	15530
574.618	15942
574.676	16205
574.734	16842
574.792	17703
574.849	17262
574.907	15513
574.965	17129
575.022	15173
575.080	15518
575.138	16691
575.195	17470
575.253	16602
575.311	18380
575.368	16036
575.426	16726
575.483	15724
575.541	16479
575.598	16212
575.656	17034
575.713	18563
575.771	16553
575.828	16645
575.886	17679
575.943	19234
576.001	19783
576.058	19709
576.115	20710
576.173	26067
576.230	30031
576.287	28109
576.345	23162
576.402	21952
576.459	21080
576.517	22482
576.574	24432
576.631	29414
576.688	22987
576.746	19900
576.803	20516
576.860	19142
576.917	20211
576.974	19848
577.031	18544
577.089	19525
577.146	20269
577.203	20185
577.260	20913
577.317	23126
577.374	28149
577.431	26402
577.488	20765
577.545	18053
577.602	18046
577.659	17905
577.716	17948
577.773	17382
577.830	16925
577.886	18292
577.943	17266
578.000	17216
578.057	19139
578.114	19459
578.171	16466
578.227	17960
578.284	15785
578.341	18594
578.398	17904
578.454	20173
578.511	24873
578.568	29159
578.625	25373
578.681	19085
578.738	17074
578.794	16464
578.851	17035
578.908	15780
578.964	17276
579.021	17000
579.077	16125
579.134	16820
579.190	15965
579.247	15191
579.303	16954
579.360	15481
579.416	15211
579.473	15343
579.529	14963
579.586	15376
579.642	15927
579.698	16406
579.755	17658
579.811	16051
579.867	16197
579.924	14742
579.980	14924
580.036	16485
580.093	15793
580.149	16382
580.205	17161
580.261	16513
580.317	18118
580.374	20966
580.430	27046
580.486	23106
580.542	17509
580.598	17074
580.619	16672
580.654	15985
580.692	15881
580.710	15850
580.765	15863
580.767	15874
580.823	16621
580.838	16827
580.879	17395
580.911	16319
580.935	15583
580.984	16255
580.991	16354
581.047	17233
581.057	17312
581.103	17706
581.130	18037
581.159	18419
581.203	17721
581.215	17560
581.270	18381
581.276	18357
581.326	18181
581.349	18812
581.382	19752
581.422	19322
581.438	19166
581.494	20404
581.494	20388
581.550	19585
581.567	19620
581.606	19660
581.640	19765
581.661	19889
581.713	19355
581.717	19314
581.773	18788
581.786	19058
581.829	19976
581.859	19462
581.885	19054
581.932	18919
581.940	18902
581.996	20185
582.004	20019
582.052	19057
582.077	18831
582.107	18557
582.150	19507
582.163	19814
582.219	19685
582.223	19652
582.274	19399
582.296	20076
582.330	21081
582.368	21136
582.386	21148
582.441	18923
582.441	18921
582.497	18325
582.514	18581
582.552	19265
582.587	18549
582.608	18079
582.659	18397
582.663	18420
582.719	19006
582.732	18954
582.774	18925
582.805	19236
582.830	19438
582.877	19448
582.885	19431
582.941	18294
582.950	18295
582.996	18356
583.023	18483
583.052	18787
583.095	18488
583.107	18375
583.162	19553
583.168	19632
583.218	20100
583.240	19903
583.273	19712
583.313	19200
583.328	19046
583.384	19028
583.385	19027
583.439	18694
583.458	18595
583.494	18496
583.531	18768
583.549	19016
583.603	19582
583.605	19586
583.660	18928
583.676	18876
583.715	19031
583.748	19583
583.770	20023
583.820	21554
583.825	21638
583.881	19866
583.893	19721
583.936	19704
583.965	19835
583.991	19841
584.038	20120
584.046	20213
584.101	20795
584.110	20744
584.156	20126
584.183	19971
584.211	19751
584.255	19321
584.266	19265
584.321	18972
584.328	19065
584.376	20322
584.400	20452
584.431	20162
584.472	19169
584.486	19013
584.541	19900
584.545	19887
584.596	19506
584.617	20049
584.651	21517
584.689	22457
584.706	22523
584.761	21878
584.762	21871
584.816	22451
584.834	22406
584.871	22474
584.906	22612
584.926	22645
584.978	22803
584.980	22846
585.035	24639
585.051	25045
585.090	25962
585.123	26309
585.145	26463
585.195	27094
585.200	27239
585.254	29664
585.267	29903
585.309	30517
585.340	31714
585.364	33165
585.412	35276
585.419	35613
585.473	38242
585.484	39087
585.528	46115
585.556	51595
585.583	68790
585.628	102724
585.637	118562
585.692	236114
585.700	257607
585.747	308900
585.772	280962
585.801	185273
585.845	62867
585.856	53564
585.910	37045
585.917	35227
585.965	32141
585.989	31172
586.019	30893
586.061	30060
586.074	29971
586.128	30159
586.133	30239
586.183	32472
586.205	33382
586.237	34500
586.277	35345
586.292	35331
586.346	34133
586.349	34070
586.401	34577
586.421	34996
586.455	36757
586.493	39896
586.509	44202
586.564	60738
586.565	61382
586.618	98770
586.637	102539
586.672	82579
586.709	53541
586.727	45414
586.781	38961
586.781	38996
586.835	35028
586.853	33965
586.889	33140
586.925	32201
586.944	32175
586.996	33158
586.998	33231
587.052	34288
587.068	34403
587.106	35007
587.140	34919
587.161	34824
587.212	35127
587.215	35241
587.269	37264
587.284	37451
587.323	37186
587.356	36969
587.377	37262
587.427	37887
587.431	37981
587.485	38096
587.499	38258
587.539	39547
587.571	40337
587.593	40972
587.643	42149
587.648	42377
587.702	43393
587.715	43850
587.755	45181
587.786	45603
587.810	45426
587.858	44199
587.864	44492
587.917	47681
587.930	48449
587.971	52181
588.001	54567
588.025	55286
588.073	55346
588.079	55693
588.133	57743
588.145	58347
588.187	62103
588.217	64342
588.241	67423
588.288	73321
588.295	74460
588.348	82895
588.360	84488
588.402	93070
588.431	99270
588.456	106190
588.503	118618
588.510	120995
588.564	138142
588.575	141777
588.617	162721
588.646	176188
588.671	197832
588.718	240094
588.725	254888
588.778	370645
588.789	395630
588.832	660033
588.861	848696
588.886	1127619
588.932	1682272
588.939	1705630
588.993	1795159
589.004	1784337
589.047	1262002
589.075	898649
589.100	697981
589.147	358596
589.154	346571
589.207	261592
589.218	244230
589.261	232701
589.290	225218
589.314	239525
589.361	268447
589.368	285934
589.421	429095
589.433	460916
589.475	809056
589.504	1062498
589.528	1273847
589.576	1681668
589.582	1634026
589.635	1055140
589.647	922464
589.689	530388
589.718	273450
589.742	230946
589.790	152572
589.795	151080
589.849	135417
589.861	132448
589.902	133283
589.932	130262
589.955	116014
590.004	82524
590.009	81529
590.062	72768
590.075	70375
590.115	67195
590.146	64726
590.168	64131
590.218	62279
590.222	62462
590.275	62687
590.289	62599
590.328	62246
590.360	61237
590.381	60406
590.431	58334
590.435	58485
590.488	58368
590.503	58167
590.541	58730
590.574	58854
590.594	58313
590.645	56393
590.647	56533
590.700	55808
590.716	55553
590.753	54994
590.787	54076
590.806	54071
590.859	53695
590.859	53841
590.912	53447
590.930	53173
590.965	54276
591.001	55191
591.018	55043
591.071	53902
591.072	53734
591.124	54182
591.143	54256
591.177	55215
591.214	55714
591.230	56100
591.283	57111
591.285	56977
591.336	58758
591.356	59335
591.389	58708
591.427	57058
591.442	56476
591.495	54295
591.498	53954
591.547	54116
591.569	54077
591.600	53890
591.640	53138
591.653	53782
591.706	56084
591.711	56150
591.759	60514
591.782	62656
591.811	65503
591.853	69005
591.864	67686
591.917	59570
591.924	58255
591.969	58145
591.995	57871
592.022	58760
592.066	59784
592.075	61310
592.127	69632
592.137	71005
592.180	78054
592.208	82123
592.233	76203
592.279	64008
592.285	63722
592.338	59990
592.350	58962
592.390	58416
592.421	57706
592.443	58234
592.491	58821
592.495	59075
592.548	60027
592.562	60107
592.600	60201
592.633	59918
592.653	60013
592.704	59445
592.705	59787
592.775	59732
592.846	60107
592.916	62232
592.987	63175
593.058	62891
593.128	60315
593.199	60408
593.270	58726
593.341	57845
593.411	60200
593.482	59411
593.553	59910
593.623	59823
593.694	62132
593.764	67737
593.835	61808
593.906	60577
593.976	62445
594.047	65855
594.117	77150
594.188	78000
594.258	62859
594.329	61300
594.399	63580
594.470	61441
594.540	63031
594.611	64769
594.681	64333
594.751	67192
594.822	69515
594.892	72289
594.963	74652
595.033	74112
595.103	75153
595.174	81498
595.244	110415
595.314	128692
595.384	78525
595.455	76708
595.525	78374
595.595	80562
595.665	80869
595.736	78382
595.806	78780
595.876	78371
595.946	77454
596.016	77239
596.087	81903
596.157	80344
596.227	81332
596.297	85240
596.367	89526
596.437	97061
596.507	120906
596.577	136510
596.647	96134
596.717	92187
596.787	95235
596.857	91992
596.927	94449
596.997	93212
597.067	92542
597.137	96434
597.207	96269
597.277	95431
597.347	94534
597.417	90355
597.487	92268
597.557	94984
597.626	96636
597.696	102365
597.766	117839
597.836	134782
597.906	97822
597.975	88052
598.045	87148
598.115	88955
598.185	93205
598.254	102610
598.324	108123
598.394	107977
598.464	106324
598.533	103574
598.603	96644
598.672	96326
598.742	96631
598.812	96104
598.881	97528
598.951	98677
599.020	97683
599.090	99013
599.159	101025
599.229	96778
599.299	94483
599.368	98929
599.437	95633
599.507	91292
599.576	90886
599.646	89816
599.715	89859
599.785	90689
599.854	92940
599.924	97913
599.993	92738
600.062	89046
600.132	88903
600.201	95101
600.270	104011
600.340	104443
600.409	101078
600.478	101743
600.547	104351
600.617	98312
600.686	85946
600.755	79650
600.824	77386
600.894	76057
600.963	75723
601.032	73118
601.101	72827
601.170	70696
601.239	69871
601.308	70884
601.378	69368
601.447	69145
601.516	67213
601.585	68187
601.654	71552
601.723	70430
601.792	70151
601.861	71353
601.930	73367
601.999	77745
602.068	73028
602.137	75165
602.206	74859
602.275	74454
602.343	80560
602.412	79378
602.481	75159
602.550	74663
602.619	75482
602.688	78784
602.756	77823
602.825	75324
602.894	77794
602.963	81067
603.032	82081
603.100	79114
603.169	80591
603.238	82072
603.307	79746
603.375	80044
603.444	83383
603.513	82213
603.581	82359
603.650	83971
603.719	83536
603.787	84897
603.856	86645
603.924	89166
603.993	92389
604.061	92036
604.130	96400
604.198	96858
604.267	97748
604.335	98025
604.404	100124
604.472	100033
604.541	103275
604.609	101909
604.678	101982
604.746	101012
604.815	105292
604.883	105942
604.951	106373
605.020	108114
605.088	111267
605.156	112999
605.225	114211
605.293	114057
605.361	115990
605.429	114489
605.498	117032
605.566	119780
605.634	124670
605.702	131218
605.771	131120
605.839	131772
605.907	128192
605.975	124170
606.043	121540
606.111	122460
606.180	121419
606.248	120782
606.316	121351
606.384	123909
606.452	135319
606.520	136007
606.588	129407
606.656	127617
606.724	124355
606.792	116061
606.860	106755
606.928	97493
606.996	97279
607.064	93787
607.132	97673
607.200	103707
607.267	104934
607.335	105407
607.403	107614
607.471	105205
607.539	102130
607.607	103199
607.674	92571
607.742	95533
607.810	96705
607.878	93799
607.946	93611
608.013	98753
608.081	100614
608.149	98825
608.216	102468
608.284	105787
608.352	107448
608.419	111399
608.487	125956
608.555	108157
608.622	103028
608.690	109255
608.757	118771
608.825	122255
608.893	119377
608.960	117284
609.028	122001
609.095	135538
609.163	111826
609.230	99380
609.298	94430
609.365	94299
609.432	100736
609.500	108323
609.567	124387
609.635	137539
609.702	145357
609.769	139640
609.837	118031
609.904	102254
609.971	101663
610.039	116150
610.106	159991
610.173	324354
610.241	742574
610.308	345326
610.375	125046
610.442	105692
610.509	98358
610.577	98956
610.644	101618
610.711	102916
610.778	105490
610.845	109820
610.912	116396
610.980	118692
611.047	119168
611.114	119354
611.181	112344
611.248	112348
611.315	119934
611.382	120856
611.449	125381
611.516	125922
611.583	126299
611.650	127802
611.717	130200
611.784	132152
611.851	141640
611.918	155227
611.984	188658
612.051	294491
612.118	650452
612.185	1641727
612.252	842390
612.319	202525
612.386	166668
612.452	154383
612.519	151446
612.586	171087
612.653	152242
612.719	146407
612.786	139088
612.853	129673
612.919	128143
612.986	129071
613.053	120939
613.120	114448
613.186	111224
613.253	112092
613.319	111700
613.386	112078
613.453	115624
613.519	119120
613.586	123893
613.652	136452
613.719	128215
613.785	124876
613.852	117609
613.918	114008
613.985	114553
614.051	119156
614.118	121443
614.184	115850
614.250	111833
614.317	114586
614.383	113768
614.449	116298
614.516	117242
614.582	119260
614.648	115475
614.715	112454
614.781	110972
614.847	115555
614.914	115992
614.980	111209
615.046	110519
615.112	110997
615.179	112037
615.245	114642
615.311	115901
615.377	125046
615.443	124593
615.509	121598
615.575	124581
615.642	121978
615.708	127131
615.774	136404
615.840	153496
615.906	173204
615.972	221916
616.038	371459
616.104	830429
616.170	2050077
616.236	1468018
616.302	308445
616.368	232828
616.434	168256
616.500	158810
616.565	179380
616.631	222774
616.697	173014
616.763	186126
616.829	296862
616.895	528469
616.961	451038
617.026	181179
617.092	134072
617.158	127447
617.224	124270
617.289	117468
617.355	116804
617.421	118324
617.487	116620
617.552	108789
617.618	106568
617.684	105997
617.749	108621
617.815	102141
617.880	100239
617.946	100367
618.012	101913
618.077	102782
618.143	99935
618.208	99588
618.274	108395
618.339	111221
618.405	93985
618.470	95795
618.536	98154
618.601	105861
618.667	96506
618.732	90626
618.798	87248
618.863	86208
618.928	87273
618.994	92777
619.059	96193
619.124	105269
619.190	94035
619.255	89329
619.320	88889
619.386	89158
619.451	86521
619.516	86007
619.581	86305
619.647	87335
619.712	86140
619.777	84206
619.842	84856
619.907	87644
619.972	87798
620.038	87302
620.103	85198
620.168	82840
620.233	85868
620.298	85086
620.363	85352
620.428	88117
620.493	87690
620.558	87854
620.623	89455
620.688	88492
620.753	86879
620.818	89453
620.883	89667
620.948	90072
621.013	89114
621.078	89444
621.143	92648
621.207	95199
621.272	94818
621.337	95340
621.402	99919
621.467	121876
621.532	120207
621.596	103120
621.661	95741
621.726	93134
621.791	94385
621.855	95857
621.920	98339
621.985	105112
622.049	112111
622.114	107098
622.179	101154
622.243	108720
622.308	106602
622.373	109763
622.437	106950
622.502	101475
622.566	101397
622.631	101347
622.695	102465
622.760	101872
622.824	99173
622.889	100118
622.953	105002
623.018	119807
623.082	118550
623.147	105799
623.211	100890
623.276	101118
623.340	95608
623.404	93059
623.469	93355
623.533	94569
623.597	92405
623.662	92471
623.726	87189
623.790	85019
623.854	86501
623.919	87081
623.983	86351
624.047	88207
624.111	85149
624.176	88495
624.240	91091
624.304	94607
624.368	87763
624.432	88586
624.496	92335
624.560	94321
624.625	98060
624.689	91204
624.753	92228
624.817	89803
624.881	88410
624.945	81859
625.009	82527
625.073	81880
625.137	87873
625.201	94370
625.265	93059
625.329	82954
625.393	88165
625.456	86510
625.520	90707
625.584	96798
625.648	112209
625.712	156984
625.776	305649
625.839	318913
625.903	132871
625.967	93206
626.031	138613
626.095	195011
626.158	94008
626.222	69405
626.286	65975
626.349	65513
626.413	63179
626.477	66280
626.540	61951
626.604	63779
626.668	63208
626.731	62265
626.795	67552
626.858	66741
626.922	63002
626.986	62089
627.049	60248
627.113	63149
627.176	59432
627.240	61036
627.303	59720
627.366	60217
627.430	59517
627.493	62098
627.557	63719
627.620	62796
627.684	62831
627.747	63227
627.810	59029
627.874	56615
627.937	55603
628.000	60258
628.064	58261
628.127	50398
628.190	53492
628.253	52737
628.317	50018
628.380	50421
628.443	49890
628.506	50131
628.569	47346
628.632	45292
628.696	47124
628.759	46449
628.822	43400
628.885	44626
628.948	44193
629.011	45763
629.074	44236
629.137	42192
629.200	43914
629.263	46154
629.326	40665
629.389	41461
629.452	44515
629.515	45597
629.578	42759
629.641	44088
629.704	44021
629.767	43611
629.830	40874
629.892	42345
629.955	40240
630.018	43056
630.081	41902
630.144	48007
630.207	42267
630.269	44932
630.332	48881
630.395	43139
630.458	38635
630.520	39107
630.583	39070
630.646	37372
630.708	38266
630.771	38465
630.834	37962
630.896	36704
630.959	36933
631.021	36863
631.084	38939
631.146	43270
631.209	46821
631.272	38718
631.334	37320
631.397	37818
631.459	36354
631.522	38859
631.584	41472
631.646	41452
631.709	43771
631.771	51378
631.834	43598
631.896	40392
631.958	35420
632.021	36517
632.083	36322
632.145	38303
632.208	35553
632.270	35748
632.332	34615
632.395	34611
632.457	35910
632.519	35061
632.581	34053
632.643	32769
632.706	34709
632.768	32987
632.830	33479
632.892	33695
632.954	34581
633.016	36326
633.078	32425
633.141	32690
633.203	34147
633.265	34359
633.327	33445
633.389	32455
633.451	37359
633.513	40565
633.575	41313
633.637	38896
633.698	35801
633.760	34514
633.822	34627
633.884	34722
633.946	34847
634.008	37229
634.070	36813
634.132	38324
634.193	41777
634.255	43926
634.317	43939
634.379	43899
634.441	40799
634.502	37587
634.564	33526
634.626	32432
634.687	32538
634.749	33318
634.811	31173
634.873	29460
634.934	31373
634.996	32807
635.057	30345
635.119	31087
635.181	31922
635.242	32775
635.304	29128
635.365	32632
635.427	31182
635.488	31409
635.550	30779
635.611	31791
635.673	30908
635.734	36788
635.796	35798
635.857	38504
635.918	37968
635.980	42075
636.041	43866
636.102	46976
636.164	44710
636.225	44578
636.286	39974
636.348	36718
636.409	33346
636.470	31162
636.531	32126
636.593	35920
636.654	33516
636.715	27292
636.776	27646
636.838	27391
636.899	29882
636.960	27139
637.021	25978
637.082	26557
637.143	27482
637.204	24300
637.265	25389
637.326	25679
637.387	25977
637.448	24768
637.509	25842
637.570	25846
637.631	25497
637.692	23348
637.753	22503
637.814	24684
637.875	23779
637.936	25786
637.997	24395
638.058	25612
638.119	26877
638.179	25151
638.240	24771
638.301	24797
638.362	23338
638.423	25259
638.483	25534
638.544	22498
638.605	24587
638.666	22781
638.726	24284
638.787	23693
638.848	22818
638.908	22533
638.969	22418
639.030	23600
639.090	20832
639.151	21581
639.211	23822
639.272	27365
639.332	35878
639.393	26459
639.453	24308
639.514	25066
639.574	22770
639.635	20734
639.695	22090
639.756	20450
639.816	22096
639.877	25194
639.937	34035
639.997	37199
640.058	22347
640.118	20980
640.178	20448
640.239	20135
640.299	20404
640.359	21752
640.420	21288
640.480	23587
640.540	25699
640.600	25505
640.661	23726
640.721	23453
640.781	27546
640.841	23766
640.901	23138
640.961	21318
641.021	23319
641.082	24926
641.142	28437
641.202	23268
641.262	17552
641.322	20351
641.382	19204
641.442	21357
641.502	20446
641.562	21714
641.622	19353
641.682	21882
641.742	23376
641.802	23089
641.861	22556
641.921	22661
641.981	23498
642.041	23350
642.101	25310
642.161	19440
642.221	19354
642.280	19140
642.340	19074
642.400	19560
642.460	19754
642.519	20065
642.579	19153
642.639	20548
642.698	17473
642.758	21737
642.818	20796
642.877	19158
642.937	21383
642.997	23322
643.056	26947
643.116	18878
643.175	21941
643.235	19825
643.294	19872
643.354	22250
643.414	23888
643.473	27026
643.532	32343
643.592	44370
643.651	71649
643.711	125746
643.770	254525
643.830	639287
643.889	1257994
643.948	237768
644.008	47439
644.067	33978
644.126	25995
644.186	24385
644.245	21927
644.304	18106
644.363	21248
644.423	18861
644.482	19634
644.541	21440
644.600	18573
644.659	25875
644.719	30688
644.778	43220
644.837	70042
644.896	143178
644.955	303666
645.014	86273
645.073	26592
645.132	23438
645.191	22337
645.250	19183
645.309	22645
645.368	22486
645.427	27472
645.486	40438
645.545	61386
645.604	22501
645.663	20194
645.722	19558
645.781	21001
645.840	24874
645.898	28587
645.957	42845
646.016	63779
646.075	116013
646.134	231464
646.192	652540
646.251	848981
646.310	105711
646.369	34629
646.427	29808
646.486	23791
646.545	21411
646.603	19650
646.662	19151
646.721	18628
646.779	17257
646.838	18539
646.896	22705
646.955	28113
647.014	41670
647.072	76077
647.131	195604
647.189	79698
647.248	19566
647.306	16738
647.365	17416
647.423	13744
647.481	16705
647.540	13807
647.598	15045
647.657	13388
647.715	15465
647.773	13977
647.832	15442
647.890	13535
647.948	14780
648.007	15068
648.065	13243
648.123	13865
648.181	15363
648.240	15279
648.298	13141
648.356	14377
648.414	16083
648.472	15463
648.531	15671
648.589	14883
648.647	13958
648.705	15057
648.763	15669
648.821	14758
648.879	14841
648.937	17876
648.995	19726
649.053	23721
649.111	34506
649.169	53689
649.227	95087
649.285	196967
649.343	547810
649.401	219874
649.459	50917
649.516	32247
649.574	19750
649.632	22293
649.690	22848
649.748	26115
649.806	31852
649.863	52451
649.921	138183
649.979	80365
650.037	18192
650.094	13785
650.152	15014
650.210	12548
650.268	13972
650.325	13553
650.383	13996
650.440	12100
650.498	13008
650.556	12890
650.613	12049
650.671	12442
650.728	13222
650.786	14554
650.843	14900
650.901	11843
650.958	12283
651.016	11998
651.073	12201
651.131	11228
651.188	12540
651.246	13060
651.303	11827
651.360	11945
651.418	11543
651.475	11685
651.532	10113
651.590	11620
651.647	10344
651.704	12483
651.762	11617
651.819	11183
651.876	11731
651.933	11371
651.990	11488
652.048	10018
652.105	10652
652.162	11320
652.219	10777
652.276	10915
652.333	10334
652.390	8840
652.448	10164
652.505	10362
652.562	10099
652.619	9922
652.676	10433
652.733	11089
652.790	10154
652.847	8028
652.904	10615
652.961	8935
653.017	9439
653.074	10258
653.131	10272
653.188	9043
653.245	9463
653.302	10582
653.359	10389
653.415	9853
653.472	10197
653.529	9954
653.586	9668
653.642	9686
653.699	10319
653.756	9483
653.813	9843
653.869	10325
653.926	9901
653.983	9213
654.039	10148
654.096	9288
654.152	11042
654.209	8980
654.266	12219
654.322	10000
654.379	12789
654.435	13253
654.492	13109
654.548	17853
654.605	24602
654.661	13477
654.717	11451
654.774	12466
654.830	11411
654.887	10404
654.943	12183
655.000	12150
655.056	11163
655.112	11879
655.168	11322
655.225	12149
655.281	13781
655.337	18128
655.394	29121
655.450	19699
655.506	17997
655.562	29281
655.618	21575
655.675	9935
655.731	10843
655.787	10819
655.843	11483
655.899	9137
655.955	11446
656.011	11017
656.067	8950
656.123	10860
656.179	12045
656.235	11384
656.291	10221
656.347	11887
656.403	11072
656.459	12343
656.515	12714
656.571	13319
656.627	11658
656.683	10791
656.739	11513
656.795	10733
656.850	11090
656.906	12693
656.962	11290
657.018	9047
657.074	12520
657.129	11549
657.185	15057
657.241	21631
657.297	14253
657.352	11571
657.408	9740
657.464	12321
657.519	10641
657.575	9785
657.630	10452
657.686	8803
657.742	9833
657.797	9438
657.853	10769
657.908	11716
657.964	8622
658.019	10288
658.075	10825
658.130	10731
658.186	8323
658.241	9214
658.297	9549
658.352	9598
658.407	10010
658.463	9792
658.518	10148
658.573	9865
658.629	8189
658.684	9027
658.739	9688
658.795	7300
658.850	9609
658.905	10289
658.960	9438
659.016	8751
659.071	9758
659.126	9854
659.181	10342
659.236	14402
659.291	14369
659.346	10850
659.401	11905
659.457	9200
659.512	9210
659.567	11308
659.622	9714
659.677	10074
659.732	10026
659.787	10968
659.842	12947
659.897	15576
659.952	10795
660.007	9560
660.061	10780
660.116	9562
660.171	9716
660.226	9331
660.281	10101
660.336	8633
660.391	9383
660.445	9223
660.500	10043
660.555	9635
660.610	9179
660.664	10060
660.719	9800
660.774	9986
660.828	9880
660.883	10007
660.938	10346
660.992	9043
661.047	8873
661.101	8535
661.156	8773
661.211	9148
661.265	9788
661.320	10248
661.374	9394
661.429	8198
661.483	10223
661.538	10090
661.592	10860
661.647	10077
661.701	10806
661.755	9773
661.810	10506
661.864	10250
661.919	8801
661.973	10958
662.027	10172
662.081	8528
662.136	9866
662.190	10186
662.244	12188
662.299	9916
662.353	9644
662.407	9358
662.461	10629
662.515	11244
662.569	11742
662.624	10341
662.678	11067
662.732	10335
662.786	10394
662.840	11225
662.894	10936
662.948	9358
663.002	8757
663.056	10153
663.110	9190
663.164	9667
663.218	8752
663.272	10186
663.326	9940
663.380	11415
663.434	10634
663.488	10427
663.542	11432
663.595	11021
663.649	10239
663.703	10775
663.757	10840
663.811	10505
663.864	10177
663.918	10828
663.972	9383
664.026	9769
664.079	9525
664.133	10375
664.187	9852
664.240	10330
664.294	10342
664.348	10405
664.401	10183
664.455	9637
664.508	10179
664.562	9792
664.615	10556
664.669	8962
664.722	9671
664.776	9538
664.829	10726
664.883	9446
664.936	10679
664.990	11519
665.043	12332
665.097	13399
665.150	15208
665.203	11859
665.257	11853
665.310	11515
665.363	11951
665.417	12218
665.470	12663
665.523	11948
665.576	11593
665.630	11218
665.683	11864
665.736	12312
665.789	12481
665.842	11140
665.895	11527
665.949	10697
666.002	10884
666.055	12422
666.108	12413
666.161	11476
666.214	12470
666.267	12305
666.320	13135
666.373	12622
666.426	11560
666.479	11740
666.532	14924
666.585	15410
666.638	15454
666.691	13360
666.744	14555
666.796	15490
666.849	13450
666.902	11550
666.955	11305
667.008	10553
667.060	10215
667.113	10017
667.166	10530
667.219	10604
667.271	10934
667.324	11375
667.377	10956
667.430	10431
667.482	10811
667.535	10919
667.587	12263
667.640	11660
667.693	14266
667.745	16875
667.798	16662
667.850	11267
667.903	11833
667.955	12689
668.008	12932
668.060	14530
668.113	14695
668.165	14294
668.218	14369
668.270	13545
668.322	13711
668.375	12796
668.427	13013
668.479	12434
668.532	13118
668.584	12928
668.636	12568
668.689	13334
668.741	13692
668.793	12376
668.845	12637
668.898	13001
668.950	11588
669.002	12770
669.054	12294
669.106	12258
669.158	13699
669.211	12050
669.263	13198
669.315	13607
669.367	12361
669.419	12157
669.471	13751
669.523	13508
669.575	15080
669.627	13234
669.679	12104
669.731	11996
669.783	12484
669.835	12143
669.886	11468
669.938	12081
669.990	11925
670.042	10698
670.094	11882
670.146	11138
670.197	11499
670.249	11675
670.301	11971
670.353	12999
670.404	14192
670.456	15195
670.508	18623
670.560	22958
670.611	32334
670.663	48162
670.715	106861
670.766	152542
670.818	44510
670.869	15503
670.921	13940
670.972	12500
671.024	12004
671.075	12318
671.127	13174
671.178	11367
671.230	12983
671.281	12138
671.333	13093
671.384	14592
671.436	16003
671.487	18123
671.538	20395
671.590	25433
671.641	35730
671.692	57373
671.744	97697
671.795	53400
671.846	22783
671.897	17825
671.949	16812
672.000	13707
672.051	14772
672.102	14345
672.153	13689
672.204	13725
672.256	12628
672.307	13256
672.358	14053
672.409	13207
672.460	12912
672.511	12622
672.562	13779
672.613	12979
672.664	12187
672.715	12625
672.766	12577
672.817	12453
672.868	11818
672.919	10895
672.970	11656
673.021	13253
673.071	11550
673.122	11953
673.173	13547
673.224	12002
673.275	12022
673.326	10500
673.376	11281
673.427	11280
673.478	11334
673.528	11410
673.579	10660
673.630	11348
673.680	12500
673.731	10840
673.782	10619
673.832	11647
673.883	12448
673.934	11371
673.984	11053
674.035	11461
674.085	11647
674.136	11700
674.186	13107
674.237	16030
674.287	21008
674.338	13037
674.388	11519
674.438	11842
674.489	12179
674.539	11765
674.589	12844
674.640	12164
674.690	11988
674.740	14943
674.791	13808
674.841	12481
674.891	13889
674.942	11902
674.992	11796
675.042	10387
675.092	11316
675.142	10998
675.193	10970
675.243	10198
675.293	12026
675.343	11766
675.393	12510
675.443	11985
675.493	10223
675.543	10337
675.593	11754
675.643	11255
675.693	11104
675.743	11716
675.793	10655
675.843	10362
675.893	10636
675.943	10340
675.993	10568
676.043	10917
676.093	10997
676.142	10809
676.192	11764
676.242	9843
676.292	9135
676.341	10945
676.391	11920
676.441	9683
676.491	10040
676.540	9006
676.590	10177
676.640	9974
676.689	9731
676.739	9085
676.789	8599
676.838	9291
676.888	9864
676.937	9505
676.987	9662
677.037	8506
677.086	8308
677.136	8628
677.185	9327
677.235	7734
677.284	9429
677.333	9131
677.383	9002
677.432	6968
677.482	8271
677.531	9011
677.580	8375
677.630	8031
677.679	8058
677.728	9723
677.778	9163
677.827	8003
677.876	8495
677.925	8157
677.975	7983
678.024	9787
678.073	10441
678.122	10895
678.171	10203
678.220	11195
678.269	12429
678.319	11325
678.368	10371
678.417	10727
678.466	11126
678.515	11544
678.564	11400
678.613	10392
678.662	9569
678.711	10133
678.760	9287
678.809	8803
678.857	10514
678.906	10218
678.955	9252
679.004	10741
679.053	10370
679.102	9809
679.151	10108
679.199	9525
679.248	9094
679.297	10681
679.346	9562
679.394	9263
679.443	10358
679.492	9785
679.540	9571
679.589	10378
679.638	9441
679.686	9037
679.735	9547
679.784	10718
679.832	10767
679.881	8805
679.929	8407
679.978	8972
680.026	8885
680.075	9018
680.123	8280
680.172	8422
680.220	7361
680.268	7802
680.317	8475
680.365	8078
680.414	7849
680.462	8322
680.510	9689
680.559	6972
680.607	7406
680.655	7977
680.703	9028
680.752	8713
680.800	7271
680.848	7302
680.896	7092
680.945	7841
680.993	7317
681.041	7710
681.089	7532
681.137	6976
681.185	7288
681.233	8096
681.258	7661
681.281	7199
681.329	7354
681.377	7831
681.380	7884
681.425	7867
681.473	10337
681.502	10035
681.521	9723
681.569	8935
681.617	8637
681.624	8787
681.665	9339
681.713	9487
681.745	8912
681.761	8560
681.809	8848
681.857	9403
681.867	9214
681.904	8385
681.952	10579
681.989	9522
682.000	9129
682.048	8843
682.096	9162
682.111	9487
682.143	10027
682.191	9218
682.233	10387
682.239	10508
682.286	10148
682.334	9605
682.354	9741
682.382	9841
682.430	10471
682.476	9763
682.477	9700
682.525	9519
682.572	9745
682.598	9463
682.620	9190
682.667	9782
682.715	11170
682.720	11186
682.763	10803
682.810	10730
682.841	10209
682.857	9891
682.905	10127
682.952	10856
682.963	10971
683.000	11206
683.047	11146
683.085	12062
683.095	12221
683.142	10974
683.190	10997
683.206	10827
683.237	10545
683.284	11759
683.328	11065
683.332	10961
683.379	11011
683.426	10386
683.449	10778
683.473	11121
683.521	12020
683.568	11247
683.571	11286
683.615	11207
683.662	10820
683.693	11217
683.709	11433
683.757	11128
683.804	11955
683.814	11976
683.851	11829
683.898	11721
683.936	11659
683.945	11615
683.992	11876
684.039	12089
684.057	12172
684.086	12242
684.133	11665
684.179	12063
684.180	12044
684.227	12759
684.274	12170
684.300	12309
684.321	12325
684.368	12153
684.415	13391
684.422	13209
684.462	12016
684.509	11804
684.543	12588
684.556	12834
684.603	12161
684.649	12346
684.665	12542
684.696	13090
684.743	13436
684.786	13706
684.790	13706
684.837	14027
684.883	15538
684.908	15993
684.930	16275
684.977	17553
685.023	16152
685.029	16077
685.070	14861
685.117	15486
685.150	15863
685.164	16180
685.210	16993
685.257	17369
685.272	17277
685.303	16616
685.350	16651
685.393	16418
685.396	16389
685.443	16555
685.490	17039
685.514	17090
685.536	17134
685.583	16847
685.629	16809
685.636	16783
685.675	16387
685.722	15971
685.757	17280
685.768	17754
685.815	17450
685.861	17886
685.878	17775
685.908	17652
685.954	17592
686.000	19820
686.000	19851
686.047	20265
686.093	23057
686.121	22773
686.139	21737
686.185	20141
686.232	19010
686.242	18814
686.278	18458
686.324	17047
686.363	16737
686.370	16793
686.416	16881
686.463	18110
686.484	17700
686.509	17028
686.555	17057
686.601	17206
686.606	17185
686.647	17234
686.693	17153
686.727	17359
686.739	17378
686.785	17172
686.831	17640
686.848	17580
686.877	17392
686.923	16520
686.969	16924
686.969	16925
687.015	16773
687.061	17635
687.090	18010
687.107	18120
687.153	17970
687.199	17609
687.211	17373
687.245	16999
687.291	17556
687.332	18626
687.336	18728
687.382	19410
687.428	18857
687.453	18687
687.474	18192
687.520	18017
687.565	17364
687.574	17292
687.611	17638
687.657	17378
687.695	17876
687.702	17994
687.748	18658
687.794	19151
687.816	19022
687.839	18475
687.885	17373
687.931	17094
687.937	17046
687.976	17517
688.022	17864
688.058	18421
688.067	18502
688.113	18759
688.158	18038
688.179	18159
688.204	18475
688.249	18826
688.295	19308
688.300	19369
688.340	20038
688.386	20974
688.421	20706
688.431	20418
688.477	19670
688.522	19198
688.542	19138
688.567	19409
688.613	18934
688.658	19076
688.663	18994
688.703	18832
688.749	20016
688.784	20172
688.794	20044
688.839	19548
688.884	18713
688.905	18591
688.930	18751
688.975	19066
689.020	19632
689.026	19635
689.065	19968
689.110	19831
689.146	19871
689.155	19724
689.201	19008
689.246	18338
689.267	18150
689.291	18627
689.336	19015
689.381	20124
689.388	20148
689.426	19652
689.471	19260
689.509	19245
689.516	19298
689.561	19094
689.606	19056
689.630	19052
689.651	19156
689.696	19100
689.741	20000
689.750	19969
689.785	19743
689.830	19286
689.871	18878
689.875	18841
689.920	18969
689.965	18189
689.992	18029
690.010	18221
690.054	18558
690.099	19332
690.112	19277
690.144	18886
690.189	18611
690.233	18220
690.233	18240
690.278	18653
690.323	18164
690.354	17980
690.367	18113
690.412	18808
690.457	19500
690.474	19641
690.501	19409
690.546	18615
690.590	18305
690.595	18254
690.635	18484
690.680	18292
690.716	18515
690.724	18575
690.769	18844
690.813	19117
690.836	18580
690.857	18206
690.902	18745
690.946	19015
690.957	18955
690.991	18937
691.035	19029
691.077	19522
691.080	19606
691.124	20264
691.168	21624
691.198	21594
691.213	21391
691.257	21883
691.301	21463
691.318	21511
691.346	21181
691.390	20112
691.434	19314
691.439	19245
691.478	19893
691.522	20390
691.559	20145
691.567	20104
691.611	20584
691.655	20504
691.680	20397
691.699	20366
691.743	20604
691.787	20367
691.800	20429
691.831	21405
691.875	22400
691.919	23845
691.921	23839
691.964	23922
692.008	24049
692.041	24023
692.052	24045
692.096	23841
692.139	24063
692.162	23687
692.183	23275
692.227	23416
692.271	23036
692.282	22978
692.315	22983
692.359	22471
692.402	22231
692.403	22270
692.447	22047
692.490	22222
692.523	22295
692.534	22545
692.578	23350
692.622	23818
692.643	24047
692.666	23750
692.709	23022
692.753	22593
692.763	22432
692.797	22230
692.840	21907
692.884	21358
692.884	21401
692.928	22200
692.971	22371
693.004	22894
693.015	22927
693.059	23003
693.102	22735
693.124	22500
693.146	22675
693.189	23129
693.233	23735
693.245	23817
693.276	23880
693.320	23911
693.363	23746
693.365	23704
693.407	23745
693.450	23729
693.485	23345
693.493	23323
693.537	23629
693.580	23501
693.605	23331
693.624	23041
693.667	22569
693.710	21666
693.725	21473
693.753	21945
693.797	22456
693.840	22968
693.845	22989
693.883	22549
693.926	21592
693.966	20919
693.970	20927
694.013	20553
694.056	20235
694.086	20143
694.099	20663
694.142	22193
694.185	23250
694.206	23776
694.229	23906
694.272	24304
694.315	24567
694.326	24559
694.358	24155
694.401	23457
694.444	22977
694.446	22910
694.487	23381
694.530	23341
694.566	23663
694.573	23570
694.616	22253
694.659	21117
694.686	20460
694.702	20512
694.745	20311
694.787	20199
694.806	20092
694.830	20376
694.873	21068
694.916	21431
694.926	21432
694.959	21030
695.002	20834
695.044	20352
695.046	20304
695.087	21258
695.130	21614
695.166	22258
695.172	22386
695.215	22600
695.258	23022
695.286	23251
695.301	23274
695.343	23198
695.386	22910
695.406	22720
695.428	22414
695.471	21952
695.514	21318
695.526	21150
695.556	21684
695.599	22350
695.641	22794
695.646	22782
695.684	22427
695.726	22115
695.766	21947
695.769	22042
695.811	22507
695.854	23097
695.886	23404
695.896	23194
695.938	22094
695.981	20953
696.005	20295
696.023	20734
696.065	21685
696.108	22701
696.125	22983
696.150	23051
696.192	23439
696.235	23460
696.245	23439
696.277	22939
696.319	22079
696.361	21358
696.365	21251
696.404	21554
696.446	21702
696.485	21671
696.488	21722
696.530	21804
696.572	22019
696.604	22116
696.614	22091
696.656	21544
696.698	21267
696.724	20842
696.740	20919
696.783	21276
696.825	21495
696.844	21555
696.867	21812
696.909	22220
696.951	22614
696.964	22662
696.992	22012
697.034	21063
697.076	19963
697.083	19750
697.118	20576
697.160	21578
697.202	22420
697.203	22390
697.244	21966
697.286	21407
697.323	20877
697.327	20921
697.369	20783
697.411	20722
697.442	20647
697.453	20888
697.494	21603
697.536	22356
697.562	22749
697.578	22638
697.620	22209
697.661	21637
697.682	21377
697.703	21527
697.744	21738
697.786	21971
697.801	21941
697.828	22173
697.869	22563
697.911	22922
697.921	22948
697.952	22832
697.994	22595
698.035	22414
698.040	22327
698.077	21613
698.118	20763
698.160	19924
698.160	19868
698.201	20427
698.243	20999
698.279	21480
698.284	21551
698.325	21655
698.367	21778
698.399	21777
698.408	21689
698.449	21057
698.491	20423
698.518	19946
698.532	20103
698.573	20445
698.614	20759
698.638	20873
698.656	21183
698.697	21794
698.738	22416
698.757	22649
698.779	23052
698.820	23694
698.862	24349
698.877	24525
698.903	24670
698.944	24810
698.985	24950
698.996	24927
699.026	24439
699.067	23670
699.116	22698
699.235	22489
699.354	21022
699.474	22468
699.593	26171
699.713	24301
699.832	22230
699.951	21700
700.070	21499
700.190	21856
700.309	21874
700.428	25151
700.547	21792
700.667	21714
700.786	24559
700.905	20644
701.024	23553
701.143	20412
701.262	18730
701.381	18865
701.500	20239
701.619	18134
701.738	17896
701.857	19026
701.976	17517
702.095	18123
702.214	20148
702.333	19420
702.452	19608
702.571	17908
702.690	17438
702.809	17815
702.928	15892
703.047	17695
703.165	17224
703.284	16769
703.403	17946
703.522	22173
703.640	19505
703.759	24372
703.878	34128
703.997	18533
704.115	17227
704.234	16941
704.353	15537
704.471	16406
704.590	15619
704.708	16270
704.827	15174
704.946	17166
705.064	18805
705.183	18153
705.301	28262
705.420	45808
705.538	36370
705.656	28656
705.775	25677
705.893	28862
706.012	31787
706.130	30780
706.249	30170
706.367	32239
706.485	33383
706.604	31465
706.722	30901
706.840	37194
706.958	33772
707.077	28188
707.195	26526
707.313	27042
707.431	26172
707.549	26784
707.668	25801
707.786	27102
707.904	26368
708.022	26074
708.140	24153
708.258	24863
708.376	25915
708.494	25549
708.612	32229
708.730	52550
708.848	46652
708.966	39053
709.084	36255
709.202	35572
709.320	38674
709.438	39564
709.556	38725
709.674	37374
709.791	37138
709.909	36483
710.027	36596
710.145	35703
710.263	36947
710.380	35985
710.498	35986
710.616	35462
710.733	35047
710.851	36196
710.969	35869
711.086	35305
711.204	33702
711.322	33898
711.439	34455
711.557	33761
711.674	33187
711.792	33671
711.909	31795
712.027	30474
712.144	31103
712.262	32387
712.379	41300
712.497	63735
712.614	59334
712.732	46356
712.849	44534
712.966	45350
713.084	52895
713.201	47552
713.318	47776
713.436	45865
713.553	46365
713.670	46861
713.787	50946
713.905	49936
714.022	44388
714.139	43406
714.256	46271
714.373	49395
714.490	57894
714.608	105350
714.725	335288
714.842	215937
714.959	46730
715.076	40643
715.193	39581
715.310	36917
715.427	37611
715.544	36977
715.661	37089
715.778	38641
715.895	44052
716.011	41283
716.128	37837
716.245	37332
716.362	37873
716.479	39798
716.596	35855
716.713	37475
716.829	35437
716.946	34268
717.063	34184
717.180	34344
717.296	33049
717.413	34844
717.530	32876
717.646	31618
717.763	32836
717.880	30948
717.996	31378
718.113	31177
718.229	30734
718.346	28933
718.462	30165
718.579	33505
718.695	37762
718.812	39373
718.928	42586
719.045	31152
719.161	27547
719.277	27121
719.394	26399
719.510	29774
719.626	30251
719.743	38518
719.859	34273
719.975	45115
720.092	109726
720.208	146650
720.324	38210
720.440	29625
720.557	33362
720.673	38516
720.789	61324
720.905	121928
721.021	41896
721.137	27806
721.253	28989
721.369	30453
721.486	32731
721.602	43195
721.718	25766
721.834	23434
721.950	26025
722.066	24138
722.181	24176
722.297	25536
722.413	22817
722.529	23723
722.645	23368
722.761	22772
722.877	22845
722.993	22398
723.108	24882
723.224	22705
723.340	24097
723.456	21105
723.571	22946
723.687	21301
723.803	21991
723.918	20310
724.034	21367
724.150	21521
724.265	25367
724.381	53624
724.497	53740
724.612	21135
724.728	19686
724.843	21160
724.959	24947
725.074	48602
725.190	47980
725.305	21480
725.421	18810
725.536	17381
725.651	17006
725.767	17269
725.882	16951
725.997	16794
726.113	16097
726.228	17231
726.343	16652
726.459	15369
726.574	19242
726.689	15783
726.804	16307
726.920	17668
727.035	17075
727.150	17895
727.265	15958
727.380	17999
727.495	15860
727.610	14591
727.725	16050
727.841	14782
727.956	14884
728.071	19478
728.186	15142
728.301	13550
728.416	15820
728.531	13771
728.645	13520
728.760	15571
728.875	15636
728.990	14221
729.105	14243
729.220	13890
729.335	14258
729.449	12873
729.564	11930
729.679	11821
729.794	12462
729.908	16099
730.023	13827
730.138	11416
730.253	12629
730.367	11221
730.482	11745
730.596	11589
730.711	12976
730.826	12355
730.940	11104
731.055	13020
731.169	10644
731.284	10966
731.398	11611
731.513	14574
731.627	12852
731.742	16447
731.856	15675
731.970	11165
732.085	12758
732.199	14264
732.313	16587
732.428	35988
732.542	98038
732.656	39765
732.771	12530
732.885	11479
732.999	13377
733.113	13589
733.227	13489
733.342	11551
733.456	11639
733.570	10879
733.684	11219
733.798	11405
733.912	10821
734.026	9921
734.140	11362
734.254	12865
734.368	26595
734.482	27740
734.596	10217
734.710	10190
734.824	10438
734.938	10139
735.052	9924
735.166	12777
735.280	11332
735.393	9684
735.507	9962
735.621	15686
735.735	29620
735.849	11771
735.962	10366
736.076	11297
736.190	12356
736.303	17401
736.417	20334
736.531	9523
736.644	9765
736.758	8469
736.872	8352
736.985	8717
737.099	8294
737.212	8146
737.326	9044
737.439	9109
737.553	8720
737.666	7952
737.780	7867
737.893	7915
738.007	7195
738.120	6647
738.233	8226
738.347	8178
738.460	7806
738.573	8672
738.687	6921
738.800	7700
738.913	8677
739.026	8138
739.140	8580
739.253	7248
739.366	8141
739.479	6947
739.592	7359
739.705	8095
739.818	7667
739.932	6732
740.045	6982
740.158	6547
740.271	8204
740.384	6502
740.497	7611
740.610	7995
740.723	7333
740.836	6880
740.949	7507
741.062	9339
741.174	7711
741.287	7781
741.400	5837
741.513	7734
741.626	8950
741.739	6736
741.851	6353
741.964	5782
742.077	6681
742.189	6877
742.302	7742
742.415	6922
742.527	6649
742.640	6945
742.753	6128
742.865	6025
742.978	5888
743.090	6444
743.203	5841
743.316	5376
743.428	5486
743.541	5487
743.653	5203
743.766	6319
743.878	6756
743.990	10892
744.103	8089
744.215	5702
744.327	5405
744.440	7091
744.552	8393
744.664	4969
744.777	6050
744.889	4764
745.001	5558
745.113	5332
745.226	4986
745.338	4615
745.450	6109
745.562	5709
745.674	4500
745.786	4867
745.898	5218
746.010	5169
746.122	4521
746.234	4272
746.347	4775
746.459	5024
746.570	4600
746.682	5547
746.794	4327
746.906	4635
747.018	4365
747.130	5683
747.242	5013
747.354	4380
747.466	6235
747.577	4733
747.689	5188
747.801	3828
747.913	4373
748.024	4660
748.136	4425
748.248	4009
748.359	4543
748.471	4890
748.583	4866
748.694	4155
748.806	6258
748.918	9018
749.029	5838
749.141	4913
749.252	5225
749.364	5028
749.475	9340
749.587	8429
749.698	5178
749.809	4414
749.921	4204
750.032	4233
750.144	3950
750.255	3588
750.366	4730
750.478	4207
750.589	4497
750.700	4025
750.811	4203
750.923	6168
751.034	9351
751.145	8383
751.256	3340
751.367	3879
751.479	4189
751.590	3162
751.701	3425
751.812	3225
751.923	4005
752.034	4759
752.145	2964
752.256	4495
752.367	3001
752.478	3866
752.589	3642
752.700	3573
752.811	3587
752.922	4066
753.032	3703
753.143	3766
753.254	2938
753.365	5040
753.476	3398
753.586	3555
753.697	3902
753.808	3315
753.919	3684
754.029	2919
754.140	4124
754.251	3859
754.361	2815
754.472	3423
754.582	3231
754.693	3315
754.804	4302
754.914	2927
755.025	3263
755.135	3283
755.246	3157
755.356	2645
755.466	3148
755.577	3380
755.687	2968
755.798	3422
755.908	3316
756.018	2576
756.129	3064
756.239	2614
756.349	3179
756.460	3040
756.570	3625
756.680	3130
756.790	4182
756.900	3998
757.011	2790
757.121	3465
757.231	2703
757.341	3387
757.451	2698
757.561	3090
757.671	3164
757.781	2307
757.891	3923
758.001	3456
758.111	3657
758.221	3521
758.331	3690
758.441	2959
758.551	5040
758.661	4081
758.771	3985
758.880	6151
758.990	5577
759.100	4358
759.210	4268
759.320	4562
759.429	4396
759.539	3968
759.649	4505
759.758	4990
759.868	4353
759.978	4086
760.087	4911
760.197	4476
760.307	4261
760.416	3755
760.526	3698
760.635	4947
760.745	4730
760.854	4649
760.964	4903
761.073	4886
761.182	4216
761.292	4690
761.401	5862
761.511	3972
761.620	3591
761.729	4448
761.839	4280
761.948	4537
762.057	4189
762.166	4343
762.276	3187
762.385	4434
762.494	3801
762.603	4464
762.712	5351
762.822	4895
762.931	5722
763.040	4357
763.149	4659
763.258	4354
763.367	5562
763.476	5531
763.585	4953
763.694	4978
763.803	5058
763.912	5521
764.021	5273
764.130	5119
764.238	5080
764.347	4519
764.456	4695
764.565	4208
764.674	4814
764.783	5628
764.891	4294
765.000	5142
765.109	5781
765.217	4623
765.326	6722
765.435	6859
765.543	5506
765.652	5491
765.761	6201
765.869	6199
765.978	7871
766.086	14897
766.195	30007
766.303	97669
766.412	345757
766.520	139190
766.629	17265
766.737	10515
766.846	8240
766.954	7961
767.062	7827
767.171	8364
767.279	7244
767.387	6323
767.496	7081
767.604	6178
767.712	5698
767.820	5745
767.928	6945
768.037	6566
768.145	7118
768.253	5894
768.361	6266
768.469	6053
768.577	6390
768.685	7389
768.793	6254
768.901	6216
769.009	6312
769.117	6235
769.225	6428
769.333	8069
769.441	9684
769.549	15209
769.657	36567
769.765	141193
769.873	220573
769.981	27447
770.088	8383
770.196	7137
770.304	8237
770.412	7489
770.519	8107
770.627	7604
770.735	7102
770.842	6482
770.950	6832
771.058	5574
771.165	7075
771.273	6909
771.380	6989
771.488	7228
771.595	6688
771.703	6628
771.810	7255
771.918	6254
772.025	7084
772.133	7508
772.240	7382
772.348	7557
772.455	7766
772.562	6817
772.670	6144
772.777	6983
772.884	6862
772.991	6558
773.099	7175
773.206	6128
773.313	6866
773.420	6369
773.528	5807
773.635	6410
773.742	6973
773.849	5960
773.956	5975
774.063	6434
774.170	6281
774.277	7113
774.384	6576
774.491	6340
774.598	7644
774.705	6652
774.812	8040
774.919	8968
775.026	8243
775.133	7650
775.239	7859
775.346	6697
775.453	6350
775.560	6403
775.667	6768
775.773	6743
775.880	7291
775.987	7365
776.093	7246
776.200	6864
776.307	7055
776.413	6756
776.520	6745
776.627	7121
776.733	7278
776.840	6000
776.946	7879
777.053	6385
777.159	7076
777.266	5215
777.372	7485
777.478	7369
777.585	6635
777.691	6367
777.798	5790
777.904	7279
778.010	7937
778.117	7552
778.223	6530
778.329	6402
778.435	6317
778.542	6754
778.648	6842
778.754	5405
778.860	6553
778.966	6249
779.072	7032
779.178	6010
779.284	6130
779.391	5304
779.497	4874
779.603	7081
779.708	4432
779.815	5422
779.920	6326
780.026	5617
780.132	5073
780.238	4497
780.344	5654
780.450	6073
780.556	4407
780.661	5422
780.767	4723
780.873	4741
780.979	6334
781.085	5215
781.190	5245
781.296	4552
781.402	5917
781.507	4552
781.613	4779
781.719	5271
781.824	5384
781.930	4550
782.035	5460
782.141	4889
782.246	5143
782.352	4832
782.457	4691
782.563	4952
782.668	5029
782.773	5125
782.879	4758
782.984	5597
783.090	6332
783.195	6869
783.300	5132
783.405	4651
783.511	5478
783.616	5393
783.721	5504
783.826	4482
783.932	5753
784.037	4831
784.142	4562
784.247	3996
784.352	4243
784.457	4792
784.562	4501
784.667	5025
784.772	5130
784.877	4588
784.982	4155
785.087	4023
785.192	5604
785.297	5161
785.402	5205
785.507	4280
785.611	4237
785.716	4172
785.821	4437
785.926	3552
786.031	4085
786.135	5205
786.240	3934
786.345	3612
786.450	4382
786.554	4440
786.659	3662
786.763	2815
786.868	3905
786.973	4929
787.077	3286
787.182	4298
787.286	3942
787.391	3772
787.495	3732
787.600	3425
787.704	2390
787.809	2775
787.913	4058
788.017	4108
788.122	4479
788.226	3576
788.330	3065
788.435	3649
788.539	3384
788.643	2756
788.747	3299
788.852	3107
788.956	3540
789.060	3800
789.164	2643
789.268	2396
789.372	3447
789.476	3332
789.580	3125
789.684	2429
789.788	3842
789.892	3260
789.996	4512
790.100	2596
790.204	2623
790.308	3499
790.412	3336
790.516	3959
790.620	3987
790.724	4583
790.828	3514
790.931	3074
791.035	4652
791.139	2644
791.242	2716
791.346	4086
791.450	3228
791.554	2489
791.657	1511
791.761	3670
791.864	4321
791.968	2941
792.072	3480
792.175	3134
792.279	3509
792.382	3229
792.486	3875
792.589	3514
792.693	4048
792.796	1819
792.899	2758
793.003	3408
793.106	2187
793.209	2916
793.313	4193
793.416	1801
793.519	4372
793.623	4775
793.726	4676
793.829	2738
793.932	2953
794.035	1821
794.138	3646
794.242	3827
794.345	3564
794.448	4266
794.551	4434
794.654	4330
794.757	3597
794.860	5948
794.963	4531
795.066	1823
795.169	3860
795.272	1649
795.375	2032
795.477	2273
795.580	2123
795.683	1449
795.786	2482
795.889	1987
795.991	3271
796.094	4951
796.197	2168
796.300	3250
796.402	1612
796.505	1515
796.608	1793
796.710	2287
796.813	1949
796.915	1851
797.018	3105
797.120	2189
797.223	289
797.326	2961
797.428	2228
797.530	1949
797.633	2935
797.735	4358
797.838	8432
797.940	6030
798.042	1361
798.145	2199
798.247	3254
798.349	1022
798.452	2605
798.554	1178
798.656	1145
798.758	2214
798.860	2361
798.962	1066
799.065	1920
799.167	781
799.269	3198
799.371	2575
799.473	3238
799.575	3809
799.677	4255
799.779	4307
799.881	2224
799.983	2111
800.085	2389
800.187	1998
800.289	1625
800.390	1948
800.492	2442
800.594	2246
800.696	1250
800.798	2409
800.899	1255
801.001	922
801.103	1351
801.205	1318
801.306	2074
801.408	669
801.509	702
801.611	992
801.713	2019
801.814	1552
801.916	1872
802.017	1756
802.119	1659
802.220	2417
802.322	1208
802.423	5931
802.525	1702
802.626	1496
802.727	1528
802.829	1510
802.930	400
803.031	3270
803.133	1753
803.234	1277
803.335	1498
803.436	772
803.538	1954
803.639	433
803.740	2278
803.841	913
803.942	1526
804.043	2173
804.144	1044
804.245	1108
804.346	1273
804.447	1678
804.548	2740
804.649	2567
804.750	1283
804.851	157
804.952	377
805.053	809
805.154	360
805.255	1839
805.355	1103
805.456	440
805.557	722
805.658	-26
805.758	2015
805.859	946
805.960	156
806.061	-152
806.161	77
806.262	840
806.362	1357
806.463	1439
806.564	2470
806.664	1501
806.765	2910
806.865	2305
806.966	1119
807.066	680
807.166	1848
807.267	1351
807.367	787
807.468	1277
807.568	-566
807.668	1297
807.769	1457
807.869	244
807.969	1219
808.069	1051
808.170	1512
808.270	1066
808.370	731
808.470	1751
808.570	769
808.670	151
808.770	800
808.870	-7
808.970	1505
809.070	620
809.170	580
809.271	1917
809.370	-5
809.470	1437
809.570	-145
809.670	782
809.770	841
809.870	1475
809.970	806
810.070	599
810.169	1232
810.269	-905
810.369	2214
810.469	972
810.568	210
810.668	640
810.768	79
810.867	281
810.967	521
811.066	715
811.166	386
811.265	923
811.365	-89
811.464	-131
811.564	1205
811.663	852
811.763	-568
811.862	62
811.962	1080
812.061	189
812.160	54
812.260	565
812.359	-139
812.458	490
812.557	1303
812.657	433
812.756	1423
812.855	305
812.954	335
813.053	380
813.153	915
813.252	81
813.351	1599
813.450	563
813.549	-302
813.648	152
813.747	968
813.846	1198
813.945	39
814.044	1280
814.143	102
814.242	1134
814.341	310
814.439	746
814.538	1066
814.637	-367
814.736	820
814.835	1439
814.933	505
815.032	653
815.131	564
815.229	1484
815.328	1656
815.427	691
815.525	929
815.624	1109
815.722	527
815.821	1058
815.919	1381
816.018	807
816.116	1355
816.215	1339
816.313	982
816.412	988
816.510	1602
816.609	2435
816.707	1748
816.805	1512
816.904	468
817.002	1114
817.100	2212
817.198	2014
817.296	1059
817.395	1080
817.493	2171
817.591	1122
817.689	1517
817.787	1878
817.885	3602
817.983	7076
818.081	17336
818.179	45079
818.277	100247
818.375	44539
818.473	7517
818.571	3700
818.669	3101
818.767	3366
818.865	3584
818.963	3967
819.061	7107
819.158	14853
819.256	37750
819.354	99301
819.452	175793
819.549	56357
819.647	10345
819.745	4340
819.842	4149
819.940	3126
820.038	1704
820.135	1996
820.233	2766
820.330	944
820.428	1019
820.525	1440
820.623	2120
820.720	952
820.818	1988
820.915	1388
821.012	1404
821.110	661
821.207	2257
821.304	958
821.402	1437
821.499	1563
821.596	2048
821.693	1124
821.791	1782
821.888	1886
821.985	4090
822.082	2210
822.179	1340
822.276	796
822.373	1308
822.470	453
822.567	899
822.664	273
822.761	2256
822.858	584
822.955	1598
823.052	723
823.149	1452
823.246	1064
823.343	-299
823.440	1463
823.536	810
823.633	1029
823.730	554
823.827	1166
823.923	281
824.020	2087
824.117	924
824.213	887
824.310	1590
824.407	735
824.503	1540
824.600	486
824.696	701
824.793	710
824.889	-79
824.986	552
825.082	-591
825.179	898
825.275	732
825.371	53
825.468	598
825.564	-344
825.660	704
825.757	911
825.853	1287
825.949	517
826.045	826
826.142	190
826.238	-258
826.334	1227
826.430	689
826.526	316
826.622	191
826.718	977
826.814	74
826.910	1157
827.006	-135
827.102	770
827.198	1375
827.294	200
827.390	1020
827.486	907
827.582	-774
827.678	-563
827.774	1421
827.869	-794
827.965	1233
828.061	566
828.157	267
828.252	-126
828.348	-523
828.444	1568
828.539	493
828.635	-565
828.731	774
828.826	65
828.922	372
829.017	1085
829.113	1818
829.208	-229
829.304	-184
829.399	1782
829.495	536
829.590	1301
829.685	-990
829.781	278
829.876	390
829.971	267
830.066	496
830.162	886
830.257	-325
830.352	860
830.447	1097
830.543	1294
830.638	777
830.733	763
830.828	-44
830.923	1243
831.018	709
831.113	296
831.208	11
831.303	202
831.398	-659
831.493	945
831.588	565
831.683	-726
831.778	458
831.873	519
831.967	835
832.062	-148
832.157	-734
832.252	1069
832.346	436
832.441	843
832.536	683
832.631	3306
832.725	2273
832.820	529
832.914	-70
833.009	-213
833.104	412
833.198	1577
833.293	-230
833.387	1120
833.482	-331
833.576	-79
833.670	1113
833.765	-724
833.859	-269
833.954	587
834.048	-847
834.142	461
834.237	-779
834.331	113
834.425	122
834.519	-744
834.613	714
834.708	615
834.802	436
834.896	-419
834.990	234
835.084	467
835.178	35
835.272	-88
835.366	185
835.460	135
835.554	286
835.648	222
835.742	-489
835.836	64
835.930	-196
836.024	-243
836.117	1279
836.211	1195
836.305	2768
836.399	4135
836.493	-151
836.586	358
836.680	-655
836.774	-602
836.867	618
836.961	-312
837.055	-547
837.148	282
837.242	346
837.335	157
837.429	390
837.522	453
837.616	1418
837.709	5316
837.803	2690
837.896	1443
837.989	1262
838.083	3177
838.176	8313
838.269	5998
838.363	741
838.456	-379
838.549	1504
838.642	1797
838.735	3726
838.829	1166
838.922	-302
839.015	-274
839.108	-489
839.201	529
839.294	956
839.387	657
839.480	976
839.573	2462
839.666	3657
839.759	315
839.852	-1139
839.945	214
840.038	600
840.131	260
840.223	990
840.316	1375
840.409	-346
840.502	-329
840.594	654
840.687	1
840.780	433
840.873	-269
840.965	985
841.058	2303
841.150	6607
841.243	3830
841.336	432
841.428	-113
841.521	833
841.613	339
841.706	1070
841.798	-194
841.890	1225
841.983	218
842.075	651
842.167	564
842.260	1476
842.352	2828
842.444	4404
842.537	8704
842.629	11075
842.721	1540
842.813	516
842.905	34
842.997	694
843.090	1401
843.182	3088
843.274	8206
843.366	19519
843.458	36075
843.550	21185
843.642	1972
843.734	1333
843.826	1820
843.918	1726
844.009	999
844.101	-209
844.193	-34
844.285	-136
844.377	590
844.469	1096
844.560	-31
844.652	677
844.744	495
844.835	390
844.927	902
845.019	1958
845.110	646
845.202	38
845.293	103
845.385	72
845.476	176
845.568	1059
845.659	136
845.751	1014
845.842	-356
845.934	316
846.025	-119
846.116	287
846.208	1165
846.299	509
846.390	292
846.482	404
846.573	1142
846.664	1841
846.755	2886
846.846	2329
846.937	-1006
847.029	-291
847.120	-505
847.211	226
847.302	1438
847.393	-748
847.484	415
847.575	24
847.666	373
847.757	416
847.847	294
847.938	50
848.029	-66
848.120	-249
848.211	256
848.302	-484
848.392	-392
848.483	649
848.574	-634
848.664	-251
848.755	-97
848.846	453
848.936	-524
849.027	-63
849.118	369
849.208	236
849.299	1576
849.389	2587
849.480	5810
849.570	11230
849.661	19196
849.751	30581
849.841	7873
849.932	421
850.022	389
850.112	577
850.203	-515
850.293	-192
850.383	4
850.474	267
850.564	-447
850.654	253
850.744	323
850.834	905
850.924	-6
851.014	-140
851.104	-75
851.194	884
851.284	458
851.374	54
851.464	-187
851.554	568
851.644	1010
851.734	1649
851.824	1234
851.914	237
852.004	133
852.094	-222
852.183	-555
852.273	-103
852.363	-32
852.452	194
852.542	88
852.632	-241
852.721	451
852.811	-366
852.901	616
852.990	-377
853.080	957
853.169	376
853.259	1487
853.348	619
853.438	954
853.527	1614
853.617	2925
853.706	5694
853.795	12575
853.885	32775
853.974	58743
854.063	113026
854.152	160163
854.242	45936
854.331	5899
854.420	1509
854.509	1558
854.598	2075
854.687	2182
854.777	1944
854.866	622
854.955	1056
855.044	-24
855.133	122
855.222	13
855.311	82
855.400	63
855.488	-81
855.577	-341
855.666	500
855.755	452
855.844	58
855.933	-808
856.021	-467
856.110	-173
856.199	-703
856.288	38
856.376	158
856.465	-531
856.554	818
856.642	-22
856.731	450
856.819	312
856.908	-734
856.996	-539
857.085	-46
857.173	-328
857.262	-436
857.350	26
857.438	-318
857.527	24
857.615	-439
857.703	12
857.792	-417
857.880	-75
857.968	81
858.056	-450
858.145	187
858.233	-1574
858.321	-409
858.409	-405
858.497	-260
858.585	-293
858.673	-111
858.761	-947
858.849	-334
858.937	-774
859.025	542
859.113	609
859.201	-569
859.289	603
859.377	-284
859.465	145
859.552	25
859.640	293
859.728	-3
859.816	-65
859.903	-125
859.991	-206
860.079	-688
860.166	-344
860.254	-309
860.342	-195
860.429	-22
860.517	-411
860.604	-394
860.692	-276
860.779	-979
860.867	-1064
860.954	-967
861.042	-568
861.129	209
861.216	278
861.304	-361
861.391	-375
861.478	-536
861.565	-786
861.653	-604
861.740	-311
861.827	-550
861.914	-620
862.001	-149
862.089	-28
862.176	-403
862.263	-768
862.350	-462
862.437	-1413
862.524	-715
862.611	-799
862.698	-796
862.785	-703
862.871	-901
862.958	84
863.045	-943
863.132	-628
863.219	-5
863.306	-1277
863.392	-432
863.479	-702
863.566	-509
863.652	-550
863.739	-674
863.826	157
863.912	-408
863.999	-1239
864.086	-845
864.172	-596
864.259	-450
864.345	-693
864.432	-535
864.518	-70
864.604	-801
864.691	-347
864.777	-410
864.863	511
864.950	-34
865.036	400
865.122	1003
865.209	929
865.295	490
865.381	670
865.467	866
865.553	2225
865.639	3008
865.726	6587
865.812	14830
865.898	29320
865.984	41874
866.070	83905
866.156	78351
866.242	15141
866.328	3235
866.414	1087
866.499	1312
866.585	1557
866.671	1606
866.757	613
866.843	83
866.928	81
867.014	-278
867.100	814
867.186	250
867.271	1380
867.357	1975
867.442	2548
867.528	914
867.614	-308
867.699	787
867.785	399
867.870	357
867.956	40
868.041	1399
868.127	1466
868.212	900
868.297	883
868.383	809
868.468	1181
868.553	1327
868.639	1622
868.724	4416
868.809	3454
868.894	-119
868.979	-98
869.065	649
869.150	-609
869.235	509
869.320	29
869.405	-224
869.490	336
869.575	-433
869.660	-666
869.745	67
869.830	-574
869.915	-66
870.000	-448
870.085	202
870.169	99
870.254	295
870.339	-88
870.424	-1050
870.509	-200
870.593	273
870.678	-116
870.763	-805
870.847	71
870.932	163
871.016	-79
871.101	-675
871.186	531
871.270	511
871.355	-570
871.439	-452
871.523	-69
871.608	-385
871.692	-170
871.777	-118
871.861	70
871.945	-136
872.030	-82
872.114	-1293
872.198	-849
872.282	75
872.367	-392
872.451	-747
872.535	-379
872.619	249
872.703	29
872.787	583
872.871	-239
872.955	-736
873.039	-455
873.123	78
873.207	122
873.291	81
873.375	-395
873.459	1
873.543	-653
873.627	-745
873.711	-898
873.794	-354
873.878	-375
873.962	-1001
874.045	344
874.129	-303
874.137	-310
874.213	-377
874.245	-516
874.296	-739
874.352	-983
874.380	-1107
874.460	-1076
874.464	-1075
874.547	-601
874.568	-421
874.631	113
874.676	143
874.714	170
874.784	-69
874.798	-120
874.881	-151
874.892	-111
874.965	190
874.999	125
875.048	10
875.107	-641
875.131	-890
875.215	-363
875.215	-363
875.298	-451
875.323	-656
875.381	-1042
875.430	-692
875.465	-489
875.538	-127
875.548	-72
875.631	-448
875.646	-442
875.714	-470
875.753	-546
875.798	-596
875.861	-1078
875.881	-1247
875.964	-528
875.968	-522
876.047	-303
876.076	-167
876.130	-39
876.183	-320
876.213	-396
876.291	656
876.296	714
876.379	194
876.398	-15
876.462	-665
876.506	-471
876.545	-245
876.613	-301
876.628	-317
876.711	-338
876.721	-287
876.794	-22
876.828	-168
876.877	-271
876.935	-267
876.960	-311
877.043	-602
877.043	-602
877.125	-56
877.150	114
877.208	232
877.258	-106
877.291	-220
877.365	-393
877.374	-424
877.456	147
877.472	137
877.539	180
877.579	-46
877.622	-438
877.687	-243
877.704	-123
877.787	452
877.794	399
877.869	-295
877.901	-268
877.952	-207
878.008	-421
878.034	-506
878.115	-226
878.117	-219
878.199	-336
878.222	-264
878.282	-107
878.329	24
878.364	141
878.437	198
878.447	189
878.529	-746
878.544	-697
878.611	-403
878.651	-329
878.694	-126
878.758	-342
878.776	-460
878.858	224
878.865	226
878.941	105
878.972	-107
879.023	-194
879.078	-51
879.105	-45
879.185	-21
879.187	-19
879.269	499
879.292	270
879.351	-273
879.399	-122
879.433	-116
879.506	-449
879.516	-449
879.598	328
879.613	250
879.680	-238
879.720	-204
879.762	-132
879.827	-295
879.844	-368
879.926	-181
879.933	-199
880.007	-89
880.040	-29
880.089	124
880.147	504
880.171	505
880.253	268
880.254	270
880.335	1136
880.360	1181
880.417	1575
880.467	3032
880.499	3990
880.574	4125
880.580	4014
880.662	684
880.680	369
880.744	112
880.787	34
880.825	-318
880.893	-573
880.907	-466
880.989	-15
881.000	72
881.070	57
881.106	-155
881.152	-300
881.213	-222
881.233	-122
881.315	501
881.319	498
881.396	166
881.426	159
881.478	97
881.532	145
881.559	292
881.639	160
881.641	149
881.722	104
881.745	-33
881.803	72
881.852	243
881.885	105
881.958	175
881.966	232
882.047	226
882.064	297
882.129	527
882.171	665
882.210	734
882.277	732
882.291	704
882.372	86
882.383	39
882.454	129
882.489	294
882.535	195
882.596	147
882.616	204
882.697	-105
882.702	-100
882.778	484
882.808	640
882.859	318
882.914	-136
882.940	-139
883.020	-27
883.021	-25
883.102	-260
883.127	-208
883.183	150
883.233	214
883.264	251
883.339	198
883.345	151
883.426	-244
883.445	-377
883.507	-5
883.551	77
883.587	-160
883.657	217
883.668	380
883.749	818
883.763	865
883.830	42
883.869	-144
883.910	153
883.975	280
883.991	275
884.072	244
884.081	239
884.152	196
884.187	119
884.233	-111
884.292	-412
884.314	-382
884.394	32
884.398	30
884.475	223
884.504	404
884.555	232
884.610	-49
884.636	19
884.716	406
884.716	409
884.797	44
884.821	-94
884.877	-24
884.927	40
884.958	218
885.033	633
885.038	636
885.118	573
885.139	529
885.199	180
885.244	50
885.279	156
885.350	224
885.359	231
885.439	309
885.456	292
885.520	207
885.561	315
885.600	588
885.667	743
885.680	675
885.760	280
885.773	276
885.840	1078
885.878	1274
885.920	950
885.984	592
886.000	626
886.080	868
886.089	877
886.160	595
886.195	348
886.240	260
886.300	526
886.320	598
886.400	402
886.406	410
886.480	502
886.511	473
886.560	487
886.616	340
886.640	364
886.720	466
886.722	465
886.800	598
886.827	668
886.879	741
886.932	707
886.959	630
887.038	591
887.039	603
887.119	1055
887.143	1202
887.198	745
887.248	406
887.278	558
887.354	830
887.358	826
887.437	672
887.459	644
887.517	870
887.564	850
887.596	528
887.669	40
887.676	109
887.755	868
887.774	1033
887.835	622
887.880	398
887.914	519
887.985	581
887.994	485
888.073	-376
888.090	-533
888.153	262
888.195	739
888.232	867
888.300	1128
888.311	1069
888.391	563
888.405	477
888.470	910
888.510	1151
888.549	1054
888.615	973
888.628	904
888.708	354
888.720	269
888.787	403
888.825	444
888.866	101
888.930	-314
888.945	-130
889.024	770
889.035	886
889.103	815
889.140	777
889.182	883
889.245	1026
889.261	977
889.340	739
889.349	707
889.419	958
889.454	1070
889.498	1007
889.559	922
889.577	915
889.656	872
889.664	867
889.735	469
889.768	282
889.814	786
889.873	1453
889.978	1473
890.083	403
890.187	434
890.292	300
890.397	414
890.501	750
890.606	-150
890.710	1626
890.815	543
890.919	1081
891.024	1016
891.128	1483
891.233	721
891.337	1066
891.442	696
891.546	1030
891.650	596
891.755	717
891.859	1338
891.963	912
892.068	218
892.172	932
892.276	505
892.380	1329
892.484	-64
892.589	1140
892.693	752
892.797	443
892.901	1093
893.005	877
893.109	458
893.213	894
893.317	619
893.421	251
893.525	891
893.629	605
893.733	410
893.837	584
893.941	637
894.045	2416
894.148	567
894.252	1665
894.356	878
894.460	1255
894.564	392
894.667	-532
894.771	317
894.875	136
894.978	672
895.082	146
895.186	1316
895.289	1876
895.393	-56
895.496	926
895.600	525
895.703	578
895.807	14
895.910	1175
896.014	542
896.117	1086
896.221	1181
896.324	-3
896.427	716
896.531	643
896.634	827
896.737	1269
896.840	350
896.944	269
897.047	617
897.150	897
897.253	869
897.356	1276
897.460	659
897.563	669
897.666	487
897.769	949
897.872	154
897.975	1081
898.078	477
898.181	1075
898.284	539
898.387	645
898.490	207
898.593	1164
898.695	-27
898.798	1045
898.901	969
899.004	652
899.107	10
899.209	1175
899.312	337
899.415	1016
899.518	59
899.620	1584
899.723	689
899.826	635
899.928	724
900.031	231
900.133	470
900.236	479
900.338	-361
900.441	974
900.543	79
900.646	799
900.748	307
900.851	526
900.953	555
901.055	887
901.158	550
901.260	1082
901.362	212
901.465	409
901.567	480
901.669	449
901.771	105
901.873	220
901.976	20
902.078	691
902.180	337
902.282	155
902.384	174
902.486	1332
902.588	379
902.690	1779
902.792	847
902.894	573
902.996	-216
903.098	1030
903.200	225
903.302	241
903.404	589
903.505	66
903.607	130
903.709	742
903.811	311
903.913	424
904.014	-333
904.116	27
904.218	-160
904.319	365
904.421	-116
904.523	676
904.624	628
904.726	922
904.827	667
904.929	450
905.030	-130
905.132	189
905.233	158
905.335	474
905.436	329
905.537	654
905.639	-276
905.740	106
905.841	-14
905.943	502
906.044	328
906.145	255
906.247	-182
906.348	69
906.449	497
906.550	39
906.651	188
906.752	549
906.854	290
906.955	1009
907.056	112
907.157	395
907.258	659
907.359	-297
907.460	-51
907.561	-9
907.662	3
907.762	113
907.863	317
907.964	554
908.065	879
908.166	311
908.267	-921
908.367	552
908.468	-571
908.569	1060
908.670	547
908.770	1066
908.871	1402
908.971	1789
909.072	1122
909.173	-194
909.273	-226
909.374	-164
909.474	-275
909.575	548
909.675	-227
909.776	247
909.876	-97
909.977	1071
910.077	767
910.177	-184
910.278	-437
910.378	-379
910.478	-584
910.579	472
910.679	57
910.779	324
910.879	-76
910.980	2
911.080	-887
911.180	123
911.280	-1119
911.380	323
911.480	248
911.580	-225
911.680	-280
911.780	1201
911.880	362
911.980	429
912.080	-376
912.180	195
912.280	-203
912.380	676
912.480	-455
912.580	437
912.679	-727
912.779	-564
912.879	-419
912.979	-513
913.078	-799
913.178	-222
913.278	-928
913.377	-322
913.477	-444
913.577	321
913.676	478
913.776	145
913.875	-610
913.975	-110
914.074	-1326
914.174	170
914.273	-962
914.373	4
914.472	-407
914.572	97
914.671	-753
914.770	-349
914.870	-578
914.969	98
915.068	-811
915.167	-289
915.267	-650
915.366	-294
915.465	-302
915.564	-74
915.663	271
915.763	52
915.862	653
915.961	-394
916.060	-2
916.159	-303
916.258	-832
916.357	-55
916.456	147
916.555	-841
916.654	-440
916.752	652
916.851	-918
916.950	-193
917.049	-4
917.148	164
917.247	139
917.345	584
917.444	-299
917.543	614
917.642	-416
917.740	-573
917.839	178
917.937	411
918.036	-538
918.135	10
918.233	-139
918.332	9
918.430	-1213
918.529	652
918.627	-483
918.726	274
918.824	154
918.923	-336
919.021	-646
919.119	210
919.218	-461
919.316	27
919.414	-645
919.512	-171
919.611	-546
919.709	376
919.807	-979
919.905	133
920.003	-919
920.102	264
920.200	-360
920.298	3
920.396	-1083
920.494	-398
920.592	-760
920.690	676
920.788	-1351
920.886	-730
920.984	-47
921.082	-1224
921.180	-153
921.277	99
921.375	-436
921.473	444
921.571	-572
921.669	-659
921.766	-1074
921.864	398
921.962	-259
922.060	52
922.157	-436
922.255	-740
922.352	-88
922.450	269
922.548	-516
922.645	441
922.743	172
922.840	204
922.938	-240
923.035	113
923.133	234
923.230	-572
923.327	-84
923.425	647
923.522	173
923.619	-338
923.717	-736
923.814	400
923.911	343
924.008	187
924.106	87
924.203	83
924.300	-69
924.397	-20
924.494	611
924.591	770
924.688	-229
924.786	-102
924.883	-92
924.979	1553
925.077	428
925.173	740
925.270	-1145
925.367	991
925.464	-172
925.561	1052
925.658	64
925.755	833
925.852	100
925.948	114
926.045	-198
926.142	234
926.239	-118
926.335	-73
926.432	801
926.529	1048
926.625	-411
926.722	892
926.818	-398
926.915	38
927.011	-647
927.108	1309
927.204	-31
927.301	-279
927.397	-851
927.494	-16
927.590	-293
927.687	-76
927.783	612
927.879	102
927.976	-741
928.072	-375
928.168	652
928.264	-353
928.361	191
928.457	1414
928.553	-764
928.649	-271
928.745	-451
928.841	540
928.937	211
929.033	-334
929.129	-292
929.225	590
929.321	-222
929.417	297
929.513	-727
929.609	-650
929.705	133
929.801	138
929.897	-259
929.993	-44
930.089	-324
930.184	-360
930.280	259
930.376	-359
930.471	-393
930.567	207
930.663	-622
930.758	-173
930.854	-230
930.950	-753
931.045	-229
931.141	390
931.236	503
931.332	102
931.427	-603
931.523	-88
931.618	-506
931.714	-775
931.809	-155
931.905	-402
932.000	-884
932.095	222
932.191	95
932.286	-338
932.381	-652
932.476	212
932.572	-696
932.667	585
932.762	-1100
932.857	-289
932.952	-160
933.047	132
933.142	-161
933.237	-99
933.332	-409
933.427	-58
933.522	-418
933.617	-310
933.712	-469
933.807	-77
933.902	-884
933.997	473
934.092	-674
934.187	180
934.282	-1016
934.376	-763
934.471	-179
934.566	-512
934.661	-357
934.755	-50
934.850	-941
934.945	-418
935.039	-1338
935.134	523
935.228	-1079
935.323	348
935.417	-762
935.512	6
935.606	-372
935.701	-664
935.795	-280
935.890	62
935.984	-1429
936.079	-1461
936.173	-1180
936.267	-33
936.362	-692
936.456	290
936.550	-156
936.644	-327
936.738	-691
936.833	338
936.927	-822
937.021	-202
937.115	-683
937.209	-1217
937.303	-388
937.397	-245
937.491	-402
937.585	658
937.679	-743
937.773	-939
937.867	-731
937.961	691
938.055	-762
938.149	132
938.243	-319
938.337	-61
938.430	-618
938.524	81
938.618	-666
938.712	28
938.805	-754
938.899	-389
938.993	268
939.086	-630
939.180	-338
939.274	398
939.367	-567
939.461	211
939.554	-1010
939.648	-601
939.741	-427
939.835	818
939.928	-126
940.022	-207
940.115	-1460
940.208	-362
940.302	-567
940.395	-810
940.488	-459
940.582	53
940.675	-564
940.768	217
940.861	-1858
940.954	162
941.048	-1615
941.141	-555
941.234	-1446
941.327	-55
941.420	372
941.513	192
941.606	-411
941.699	299
941.792	-597
941.885	-627
941.978	-62
942.071	-5
942.164	-1017
942.257	-443
942.349	-667
942.442	-333
942.535	-756
942.628	-731
942.721	-229
942.813	-1315
942.906	-564
942.999	-671
943.091	-527
943.184	-624
943.277	-2045
943.369	341
943.462	-1192
943.554	-553
943.647	-917
943.739	276
943.832	-426
943.924	-1203
944.017	-24
944.109	-1499
944.201	-1317
944.294	-82
944.386	-993
944.478	173
944.571	-1106
944.663	-187
944.755	-511
944.847	-372
944.940	-626
945.032	-1833
945.124	-1197
945.216	-33
945.308	-351
945.400	231
945.492	-1287
945.584	-815
945.676	-501
945.768	-1111
945.860	-1118
945.952	-1087
946.044	-1425
946.136	-56
946.228	-1131
946.320	-1035
946.412	-455
946.503	-43
946.595	-229
946.687	383
946.779	-1625
946.870	-579
946.962	-930
947.054	181
947.145	-636
947.237	-232
947.329	-179
947.420	-173
947.512	-1125
947.603	-869
947.695	-807
947.786	-955
947.878	-1242
947.969	45
948.061	-175
948.152	-1663
948.243	-997
948.335	-271
948.426	-1834
948.517	-637
948.609	-575
948.700	-1075
948.791	-1283
948.882	-1279
948.973	-1160
949.065	153
949.156	-458
949.247	-603
949.338	-1005
949.429	-1040
949.520	-896
949.611	-1005
949.702	-213
949.793	-377
949.884	-190
949.975	-1101
950.066	-489
950.157	-534
950.247	-597
950.338	-925
950.429	-1286
950.520	-71
950.611	-215
950.701	-302
950.792	17
950.883	415
950.973	-712
951.064	-487
951.155	-556
951.245	-288
951.336	-249
951.427	-1121
951.517	-456
951.608	567
951.698	-884
951.788	-296
951.879	-1014
951.969	-875
952.060	-1191
952.150	-593
952.240	-291
952.331	-1441
952.421	207
952.511	-1269
952.602	-769
952.692	-359
952.782	-735
952.872	-771
952.962	-823
953.052	-261
953.143	-1082
953.233	51
953.323	-935
953.413	-910
953.503	-1045
953.593	-417
953.683	-1058
953.773	-727
953.863	-788
953.953	-1124
954.042	-744
954.132	-1246
954.222	-501
954.312	-879
954.402	-155
954.492	1299
954.581	3187
954.671	253
954.761	-1639
954.850	-511
954.940	-1051
955.030	109
955.119	-1336
955.209	-393
955.298	-1913
955.388	-177
955.477	-17
955.567	-1069
955.656	-1141
955.746	-647
955.835	-1174
955.925	-1549
956.014	-978
956.103	-949
956.193	-1448
956.282	-792
956.371	-892
956.461	-669
956.550	-1763
956.639	281
956.728	-1309
956.817	-1429
956.906	-1009
956.995	-41
957.085	-1432
957.174	-209
957.263	-1247
957.352	-182
957.441	-995
957.530	-1365
957.619	-951
957.708	-315
957.796	-1118
957.885	-353
957.974	-1262
958.063	-920
958.152	-1894
958.241	-587
958.329	-976
958.418	-1096
958.507	-1676
958.596	-186
958.684	-1601
958.773	19
958.861	-847
958.950	-57
959.039	-1008
959.127	-1249
959.216	-865
959.304	-1209
959.393	-1239
959.481	-591
959.570	-822
959.658	-477
959.746	50
959.835	1679
959.923	3934
960.011	1059
960.100	-940
960.188	-1274
960.276	-1673
960.365	-623
960.453	-768
960.541	-1273
960.629	-602
960.717	-364
960.805	-1782
960.893	-395
960.981	-2238
961.069	75
961.158	-1821
961.245	-550
961.333	-1355
961.421	-1243
961.509	-1128
961.597	-475
961.685	-504
961.773	-700
961.861	-1290
961.949	-758
962.036	-1548
962.124	221
962.212	-915
962.299	-612
962.387	-1543
962.475	-1065
962.562	-1598
962.650	-97
962.738	-1316
962.825	-210
962.913	-535
963.000	-1516
963.088	-1011
963.175	-803
963.263	-775
963.350	-123
963.438	-49
963.525	909
963.612	3570
963.700	10973
963.787	23302
963.874	7943
963.962	141
964.049	-114
964.136	-1184
964.223	-873
964.310	-289
964.398	-901
964.485	-1015
964.572	983
964.659	2308
964.746	2105
964.833	-1011
964.920	-551
965.007	-828
965.094	39
965.181	-860
965.268	-149
965.355	-969
965.441	-315
965.528	-1542
965.615	-129
965.702	-1060
965.789	-574
965.875	-685
965.962	-631
966.049	-764
966.136	-73
966.222	-1378
966.309	-740
966.395	-677
966.482	-787
966.569	-998
966.655	-865
966.742	-1331
966.828	-620
966.915	-1130
967.001	-171
967.087	-188
967.174	292
967.260	1143
967.347	2616
967.433	7872
967.519	15245
967.605	3390
967.692	-1137
967.778	-823
967.864	-1058
967.950	-1529
968.036	-1283
968.123	-452
968.209	-663
968.295	-2119
968.381	802
968.467	-1223
968.553	-1515
968.639	-611
968.725	-331
968.811	1916
968.897	1931
968.983	-1267
969.069	-1401
969.154	-237
969.240	-329
969.326	-1265
969.412	-1157
969.497	-1065
969.583	-1084
969.669	175
969.755	195
969.840	-1151
969.926	-557
970.012	-665
970.097	-193
970.183	-311
970.268	-129
970.354	1371
970.439	5297
970.525	9962
970.610	1925
970.696	64
970.781	-627
970.866	-1961
970.952	-42
971.037	-1479
971.122	-761
971.208	-1183
971.293	-871
971.378	-1391
971.463	-634
971.549	-67
971.634	-575
971.719	-508
971.804	-461
971.889	619
971.974	-317
972.059	-815
972.144	-183
972.229	-1293
972.314	-783
972.399	-520
972.484	-377
972.569	622
972.654	292
972.739	5231
972.824	5193
972.908	-301
972.993	-443
973.078	-548
973.163	-965
973.247	-1267
973.332	-2246
973.417	-783
973.501	-995
973.586	-601
973.671	-681
973.755	-575
973.840	362
973.924	21
974.009	375
974.093	-163
974.178	2251
974.262	3304
974.346	3281
974.431	-568
974.515	-765
974.600	-833
974.684	334
974.768	-2048
974.852	-289
974.937	-2558
975.021	57
975.105	-905
975.189	-1091
975.273	-637
975.358	-1143
975.442	-1284
975.526	-495
975.610	-1305
975.694	-1808
975.778	51
975.862	-551
975.946	-2432
976.030	609
976.114	-1466
976.198	-547
976.281	-1300
976.365	-8
976.449	-865
976.533	-771
976.617	-1214
976.700	-361
976.784	-943
976.868	488
976.951	1881
977.035	274
977.119	-517
977.202	-777
977.286	-1330
977.369	-613
977.453	-781
977.536	-1089
977.620	-1927
977.703	-715
977.787	-1103
977.870	317
977.953	284
978.037	-1854
978.120	480
978.203	2435
978.287	4029
978.370	1702
978.453	-429
978.536	-389
978.620	1135
978.703	1757
978.786	-99
978.869	-1226
978.952	-3098
979.035	245
979.118	-1089
979.201	-1719
979.284	-1525
979.367	-748
979.450	-803
979.533	-963
979.616	-933
979.699	-973
979.782	-1540
979.865	-1798
979.948	-1222
980.030	-1252
980.113	-1152
980.196	-1975
980.279	-1363
980.361	-1487
980.444	-1482
980.526	-1085
980.609	-1639
980.692	-950
980.774	-1142
980.857	-1685
980.939	46
981.022	-1050
981.104	-1317
981.187	-1262
981.269	-1221
981.352	-885
981.434	-2132
981.516	-2009
981.599	-106
981.681	-776
981.763	-1862
981.846	-1171
981.928	-1573
982.010	-1442
982.092	-1760
982.174	-984
982.256	-1816
982.339	-1157
982.421	-1485
982.503	-765
982.585	-1528
982.667	-561
982.749	-1761
982.831	-857
982.913	-2357
982.995	47
983.077	-1040
983.158	847
983.240	-3153
983.322	-589
983.404	-410
983.486	-1657
983.568	-554
983.649	-1644
983.731	-1222
983.813	-1445
983.894	-1110
983.976	-1814
984.058	-1731
984.139	-230
984.221	-2756
984.302	40
984.384	-1630
984.465	-1919
984.547	-1047
984.628	-1152
984.710	-1619
984.791	-777
984.872	-1528
984.954	-853
985.035	-1259
985.116	-1284
985.198	-1922
985.279	-549
985.360	-1258
985.441	-1931
985.522	-1834
985.604	-1604
985.685	-2507
985.766	-729
985.847	-509
985.928	-2275
986.009	-1257
986.090	-1120
986.171	-817
986.252	-1854
986.333	-1074
986.414	-1667
986.495	-1279
986.576	-1633
986.656	-1451
986.737	-521
986.818	-1135
986.899	-1635
986.980	-1644
987.060	-385
987.141	-1829
987.222	-826
987.302	-1466
987.383	-523
987.464	-1851
987.544	-1180
987.625	-1052
987.705	-93
987.786	-1435
987.866	-1736
987.947	-2331
988.027	-1690
988.108	-1901
988.188	-1139
988.268	-1902
988.349	-1380
988.429	-1467
988.509	-669
988.589	-1309
988.670	-2639
988.750	-654
988.830	-991
988.910	-1201
988.990	-943
989.070	-1424
989.151	-477
989.231	-1890
989.311	-1033
989.391	-1796
989.471	-1467
989.551	-1464
989.631	-1679
989.711	-729
989.791	-1376
989.870	-1964
989.950	361
990.030	-1973
990.110	-1268
990.190	-1675
990.269	-1798
990.349	-1846
990.429	-545
990.509	-1148
990.588	-1399
990.668	-1637
990.747	-1252
990.827	-2028
990.907	-625
990.986	-2336
991.066	-1370
991.145	-1732
991.225	-1106
991.304	-1388
991.383	-502
991.463	-1733
991.542	-751
991.622	-2158
991.701	-1157
991.780	-1776
991.859	-1923
991.939	-2085
992.018	-1142
992.097	-1337
992.176	-1619
992.256	-1487
992.335	-1528
992.414	-1311
992.493	-1593
992.572	-1928
992.651	405
992.730	-1513
992.809	-1391
992.888	-1598
992.967	-1375
993.046	-193
993.125	-1843
993.203	-1940
993.282	-998
993.361	-979
993.440	-1605
993.519	-2608
993.597	-1100
993.676	-2199
993.755	-1315
993.834	-2061
993.912	-2073
993.991	-942
994.069	-1810
994.148	-1999
994.226	-1559
994.305	-1031
994.384	-1753
994.462	-859
994.540	-1556
994.619	-1344
994.697	-1393
994.776	-1901
994.854	-976
994.932	-2266
995.011	-1352
995.089	-2363
995.167	-934
995.245	-1411
995.324	-2614
995.402	-1191
995.480	-1366
995.558	-1958
995.636	-1641
995.714	-2578
995.792	86
995.870	-2335
995.948	-1372
996.026	-1144
996.104	-1867
996.182	-1145
996.260	-1732
996.338	-868
996.416	-2373
996.494	-2426
996.572	-393
996.649	-2510
996.727	-2470
996.805	-1188
996.883	-1627
996.960	-2332
997.038	-1276
997.116	-1614
997.193	-2062
997.271	-1701
997.348	-1135
997.426	-1453
997.504	-2111
997.581	-1289
997.658	-987
997.736	-2583
997.813	-2193
997.891	-804
997.968	-1811
998.046	-1878
998.123	-1843
998.200	-501
998.277	-1788
998.355	-1520
998.432	-1279
998.509	-1506
998.586	-1688
998.663	-527
998.741	-1205
998.818	-2562
998.895	-2101
998.972	-2008
999.049	-1784
999.126	-2226
999.203	-1235
999.280	-1671
999.357	-1511
999.434	-2301
999.511	-721
999.587	-656
999.664	-889
999.741	-932
999.818	-622
999.895	-2375
999.971	-1719
1000.048	-1934
1000.125	-237
1000.202	-1749
1000.278	-1165
1000.355	-2397
1000.431	178
1000.508	-1609
1000.584	-1347
1000.661	-1658
1000.738	-1033
1000.814	-1464
1000.890	-1048
1000.967	-1710
1001.043	-1416
1001.120	-2155
1001.196	-2077
1001.272	-2180
1001.349	-1271
1001.425	-1518
1001.501	-921
1001.577	-2249
1001.654	-1250
1001.730	-1957
1001.806	-1135
1001.882	-2811
1001.958	-1610
1002.034	-1125
1002.110	-830
1002.186	-1991
1002.262	-1673
1002.338	-1643
1002.414	-1681
1002.490	-1490
1002.566	-2189
1002.642	-2254
1002.718	-447
1002.794	-2234
1002.870	-1944
1002.945	-1281
1003.021	-1683
1003.097	-2102
1003.173	-982
1003.248	-1841
1003.324	-1825
1003.400	-1581
1003.475	-1995
1003.551	-2202
1003.626	-1892
1003.702	-2443
1003.777	-1764
1003.853	-1844
1003.928	-1005
1004.004	-1196
1004.079	-975
1004.155	-1944
1004.230	-3009
1004.305	-714
1004.381	-2042
1004.456	-1764
1004.531	-1491
1004.607	-1861
1004.682	-1186
1004.757	-1647
1004.832	-1146
1004.907	-2003
1004.982	-1474
1005.057	-1724
1005.133	-1299
1005.208	-1996
1005.283	-2366
1005.358	-1171
1005.433	-1699
1005.508	-1635
1005.583	-2741
1005.657	-1779
1005.732	-948
1005.807	-1788
1005.882	-1474
1005.957	-2312
1006.032	-691
1006.106	-2434
1006.181	-866
1006.256	-1434
1006.331	-1685
1006.405	-2409
1006.480	-1612
1006.554	-1668
1006.629	-1186
1006.704	-2845
1006.778	-1645
1006.853	-1517
1006.927	-1197
1007.002	-1813
1007.076	-912
1007.150	-2156
1007.225	-1415
1007.299	-1481
1007.373	-1764
1007.448	-1908
1007.522	-10
1007.596	-2731
1007.671	-1088
1007.745	-1125
1007.819	-1249
1007.893	-1922
1007.967	-962
1008.041	-1934
1008.115	-697
1008.190	-2808
1008.264	-1030
1008.338	-2396
1008.412	-2616
1008.486	-1430
1008.560	-2081
1008.633	-2419
1008.707	-1834
1008.781	-1228
1008.855	-2173
1008.929	-1714
1009.003	-1703
1009.076	-2514
1009.150	-1014
1009.224	-1440
1009.298	-1039
1009.371	-1672
1009.445	-575
1009.519	-1995
1009.592	-2518
1009.666	-1834
1009.739	-1476
1009.813	-3313
1009.886	-791
1009.960	-2220
1010.033	-999
1010.107	-1713
1010.180	-2560
1010.253	-2616
1010.327	-2217
1010.400	-1576
1010.473	-1725
1010.547	-1151
1010.620	-1514
1010.693	-416
1010.766	-2295
1010.840	-1650
1010.913	-1308
1010.986	-2885
1011.059	-1554
1011.132	-2251
1011.205	-1373
1011.278	-2700
1011.351	-1506
1011.424	-1804
1011.497	-1402
1011.570	-1605
1011.643	-2037
1011.716	-1631
1011.789	-1703
1011.862	-970
1011.934	-1451
1012.007	-2407
1012.080	-1456
1012.153	-2137
1012.225	-1685
1012.298	-2094
1012.371	-1683
1012.443	-1979
1012.516	-1653
1012.588	-1359
1012.661	-1339
1012.733	-1776
1012.806	25
1012.879	-2413
1012.951	-1550
1013.023	-1918
1013.096	-1807
1013.168	-2136
1013.241	-1474
1013.313	-2038
1013.385	-1801
1013.458	-1834
1013.530	-815
1013.602	-2525
1013.674	-1377
1013.746	-2515
1013.819	-2833
1013.891	-1431
1013.963	-2555
1014.035	-1957
1014.107	-1554
1014.179	-1293
1014.251	-1665
1014.323	-1400
1014.395	-1157
1014.467	-2039
1014.539	-2029
1014.611	-1994
1014.683	-1021
1014.754	-1891
1014.826	-1563
1014.898	-1378
1014.970	-2088
1015.042	-853
1015.113	-974
1015.185	-1937
1015.257	-2678
1015.328	-1669
1015.400	-1797
1015.471	-2113
1015.543	-2297
1015.615	-2233
1015.686	-1438
1015.757	-1477
1015.829	-1241
1015.901	-1685
1015.972	-1325
1016.043	-1583
1016.115	-932
1016.186	-1942
1016.257	-2309
1016.328	-1227
1016.400	-1340
1016.471	-2548
1016.542	-2122
1016.613	-1797
1016.685	-1343
1016.756	-1350
1016.827	-888
1016.898	-2812
1016.969	-1709
1017.040	-1380
1017.111	-1747
1017.182	-1749
1017.253	-1886
1017.324	-1851
1017.395	-1009
1017.466	-1058
1017.537	-921
1017.608	-1151
1017.678	-1866
1017.749	-1932
1017.820	-1573
1017.891	-2376
1017.961	-2003
1018.032	-1938
1018.103	-1778
1018.173	-1902
1018.244	-1330
1018.315	-1983
1018.385	-1334
1018.456	-2302
1018.526	-1658
1018.597	-2049
1018.667	-1834
1018.738	-1847
1018.808	-1481
1018.878	-2619
1018.949	-1421
1019.019	-1649
1019.089	-1249
1019.160	-1825
1019.230	-1463
1019.300	-1814
1019.371	-2603
1019.441	-1363
1019.511	-1204
1019.581	-2042
1019.651	-1087
1019.721	-2096
1019.791	-1129
1019.861	-1238
1019.931	-795
1020.001	-1185
1020.071	-964
1020.141	-2388
1020.211	-2115
1020.281	-2006
1020.351	-1657
1020.421	-1866
1020.491	-1453
1020.560	-1829
1020.630	-919
1020.700	-2275
1020.770	-839
1020.839	-2562
1020.909	-1437
1020.979	-721
1021.048	-1987
1021.118	-2088
1021.187	-1663
1021.257	-1589
1021.326	-912
1021.396	-1608
1021.465	-1088
1021.535	-1549
1021.604	-979
1021.674	-2092
1021.743	-1907
1021.812	-1843
1021.882	-832
1021.951	-1702
1022.020	-1132
1022.089	-1555
1022.159	-1846
1022.228	-2179
1022.297	-1391
1022.366	-1366
1022.435	-2207
1022.504	-2187
1022.573	-2522
1022.642	-1074
1022.711	-1523
1022.781	-1967
1022.849	-1099
1022.918	-2576
1022.987	-1570
1023.056	-1590
1023.125	-1008
1023.194	-1409
1023.263	-1277
1023.331	-1349
1023.400	-1493
1023.469	-1660
1023.538	-928
1023.606	-2302
1023.675	-1679
1023.744	-1918
1023.812	-2067
1023.881	-1681
1023.949	-1459
1024.018	-2553
1024.086	-2131
1024.155	-1270
1024.223	-1971
1024.292	-1446
1024.360	-1394
1024.429	-1910
1024.497	-1976
1024.565	-2170
1024.634	-1661
1024.702	-974
1024.770	-1120
1024.838	-1420
1024.907	-1141
1024.975	-2174
1025.043	-280
1025.111	-2614
1025.179	-1078
1025.247	-1371
1025.315	-734
1025.383	-1183
1025.451	-1746
1025.519	-1857
1025.587	-1033
1025.655	-1856
1025.723	-1849
1025.791	-1564
1025.859	-1081
1025.927	-1170
1025.995	-2079
1026.062	-1507
1026.130	-1138
1026.198	-2395
1026.266	-1209
1026.333	-1374
1026.401	-2240
1026.469	-2027
1026.536	-1875
1026.604	-1388
1026.671	-1303
1026.739	-2208
1026.806	-1543
1026.874	-2342
1026.941	-1022
1027.009	-1298
1027.076	-1343
1027.144	-1543
1027.211	-1599
1027.278	-1794
1027.345	-1606
1027.413	-1750
1027.480	-1604
1027.547	-2183
1027.614	-1121
1027.682	-2257
1027.749	-1919
1027.816	-1873
1027.883	-1204
1027.950	-1787
1028.017	-1436
1028.084	-1149
1028.151	-2129
1028.218	-1978
1028.285	-1110
1028.352	-2242
1028.419	-1713
1028.486	-2148
1028.553	-1326
1028.619	-1906
1028.686	-1264
1028.753	-2464
1028.820	-2152
1028.886	-2720
1028.953	-1455
1029.020	-1870
1029.086	-964
1029.153	-2404
1029.220	-2189
1029.286	-1783
1029.353	-1554
1029.419	-2079
1029.486	-1116
1029.552	-2356
1029.619	-1437
1029.685	-1583
1029.751	-1270
1029.818	-774
1029.884	-1864
1029.951	-613
1030.017	-1687
1030.083	-2362
1030.149	-1619
1030.216	-2473
1030.282	-1279
1030.348	-999
1030.414	-1374
1030.480	-2153
1030.546	-1769
1030.612	-2342
1030.678	-1234
1030.744	-2212
1030.810	-1285
1030.876	-1807
1030.942	-2008
1031.008	-1337
1031.074	-1661
1031.140	-1520
1031.206	-1177
1031.272	-2298
1031.337	-1596
1031.403	-1384
1031.469	-2188
1031.534	-2185
1031.600	-1681
1031.666	-1853
1031.731	-2012
1031.797	-2247
1031.863	-1610
1031.928	-2189
1031.994	-1709
1032.059	-2313
1032.125	-1414
1032.190	-1604
1032.256	-2062
1032.321	-2130
1032.386	-1437
1032.452	-781
1032.517	-1895
1032.582	-1337
1032.647	-1663
1032.713	-1660
1032.778	-1589
1032.843	-1810
1032.908	-1159
1032.974	-1824
1033.039	-1218
1033.104	-1662
1033.169	-1422
1033.234	-2149
1033.299	-1164
1033.364	-1414
1033.429	-1211
1033.494	-1978
1033.559	-1168
1033.624	-1802
1033.688	-1682
1033.753	-1833
1033.818	-1654
1033.883	-1686
1033.948	-2124
1034.013	-2375
1034.077	-1073
1034.142	-2026
1034.207	-1571
1034.271	-1302
1034.336	-726
1034.400	-1454
1034.465	-1451
1034.530	-1754
1034.594	-1153
1034.658	-1462
1034.723	-1299
1034.787	-2347
1034.852	-1155
1034.916	-1891
1034.981	-1821
1035.045	-1578
1035.109	-807
1035.173	-1278
1035.238	-2301
1035.302	-1385
1035.366	-850
1035.430	-2350
1035.495	-2256
1035.559	-2139
1035.623	-1585
1035.687	-1872
1035.751	-1419
1035.815	-2048
1035.879	-1672
1035.943	-1895
1036.007	-1838
1036.071	-2450
1036.135	-2302
1036.198	-1465
1036.262	-3166
1036.326	-1955
1036.390	-1171
1036.454	-2420
1036.517	-1191
1036.581	-2156
1036.645	-1344
1036.709	-1893
1036.772	-1833
1036.836	-2370
1036.900	-2166
1036.963	-1958
1037.026	-1526
1037.090	-2443
1037.154	-1759
1037.217	-1436
1037.280	-1651
1037.344	-1785
1037.407	-2189
1037.471	-1743
1037.534	-2424
1037.597	-2352
1037.661	-1441
1037.724	-2148
1037.787	-1445
1037.850	-2339
1037.913	-1805
1037.977	-2090
1038.040	-1939
1038.103	-2937
1038.166	-1718
1038.229	-939
1038.292	-1016
1038.355	-2164
1038.418	-1237
1038.481	-1440
1038.544	-1736
1038.607	-1817
1038.670	-1377
1038.732	-1751
1038.795	-1204
1038.858	-2459
1038.921	-1750
1038.984	-1102
1039.046	-1687
1039.109	-1385
1039.172	-1248
1039.234	-2153
1039.297	-1144
1039.360	-2162
1039.422	-1159
1039.485	-2423
1039.547	-2679
1039.610	-2027
1039.672	-1122
1039.734	-1881
1039.797	-1831
1039.859	-2487
1039.922	-2139
1039.984	-2699
1040.046	-2152
1040.109	-2132
1040.171	-1104
1040.233	-2017
1040.295	-2230
1040.358	-2369
1040.420	-1463
1040.482	-2044
1040.544	-2081
1040.606	-1949
1040.668	-2432
1040.730	-1731
1040.792	-2059
1040.854	-2592
1040.916	-2314
1040.978	-1969
1041.040	-1638
1041.102	-2107
1041.164	-2029
1041.225	-2106
1041.287	-2151
1041.349	-2183
1041.411	-1600
1041.472	-1942
1041.534	-1374
1041.596	-2746
1041.657	-1107
1041.719	-1830
1041.781	-1913
1041.842	-1753
1041.904	-1165
1041.965	-1779
1042.027	-891
1042.088	-1877
1042.150	-1599
1042.211	-1483
1042.272	-1654
1042.334	-2723
1042.395	-2445
1042.456	-2118
1042.518	-2553
1042.579	-1983
1042.640	-1611
1042.701	-2013
1042.763	-1547
1042.824	-2204
1042.885	-2312
1042.946	-2403
1043.007	-2310
1043.068	-2501
1043.129	-1578
1043.190	-2409
1043.251	-2348
1043.312	-2135
1043.373	-1319
1043.434	-2147
1043.495	-2347
1043.556	-2159
1043.616	-2080
1043.677	-2779
1043.738	-2145
1043.799	-1419
1043.859	-1353
1043.920	-1737
1043.981	-1658
1044.041	-1785
1044.102	-2305
1044.162	-1974
1044.223	-2580
1044.284	-2345
1044.344	-1337
1044.405	-1954
1044.465	-1832
1044.525	-2148
1044.586	-2164
1044.646	-2156
1044.707	-1549
1044.767	-2442
1044.827	-2167
1044.887	-1189
1044.948	-990
1045.008	-1485
1045.068	-1787
1045.128	-1354
1045.188	-1323
1045.249	-1731
1045.309	-2582
1045.369	-1843
1045.429	-1847
1045.489	-1461
1045.549	-2068
1045.609	-2491
1045.669	-986
1045.729	-2233
1045.789	-2030
1045.848	-2378
1045.908	-1681
1045.968	-2135
1046.028	-1590
1046.088	-1957
1046.147	-1860
1046.207	-1529
1046.267	-1453
1046.326	-1327
1046.386	-1825
1046.446	-1157
1046.505	-749
1046.565	-1105
1046.624	-99
1046.684	-1089
1046.743	-889
1046.803	-1028
1046.862	-406
1046.922	0
