'Start Wavelength	183.907
'End Wavelength	1046.922
'Gate Delay	5.000
'Gate Width (ms)	1.050
'Laser Output Level	0.000
'X Position	0.000
'Y Position	0.000
'Z Position	0.000
'Grid Point Number	1.000
'Shot Number	100.000
183.907	78.000
183.977	-461.000
184.047	-718
184.116	-185
184.186	-79
184.256	76
184.325	-66
184.395	-953
184.465	1016
184.534	456
184.604	-1005
184.674	692
184.743	-676
184.813	-56
184.883	-231
184.952	344
185.022	-25
185.092	532
185.161	70
185.231	24
185.301	-195
185.370	151
185.440	-698
185.509	7
185.579	-707
185.649	367
185.718	-509
185.788	390
185.857	-340
185.927	186
185.996	-133
186.066	144
186.136	-941
186.205	-250
186.275	-369
186.344	161
186.414	-702
186.483	-438
186.553	1118
186.622	633
186.692	245
186.761	-185
186.831	242
186.900	-263
186.970	-221
187.039	528
187.109	163
187.178	321
187.248	-139
187.317	567
187.387	-580
187.456	285
187.526	-316
187.595	292
187.664	-750
187.734	499
187.803	88
187.873	-170
187.942	-469
188.012	-51
188.081	-370
188.150	29
188.220	-284
188.289	839
188.358	-224
188.428	270
188.497	-319
188.567	732
188.636	-711
188.705	436
188.775	314
188.844	-326
188.913	-96
188.983	52
189.052	-354
189.121	190
189.191	18
189.260	209
189.329	19
189.399	532
189.468	-9
189.537	-881
189.606	-45
189.676	1222
189.745	232
189.814	-109
189.883	80
189.953	434
190.022	-13
190.091	202
190.161	-828
190.230	327
190.299	-119
190.368	-83
190.437	35
190.507	94
190.576	-533
190.645	150
190.714	-533
190.783	-519
190.853	794
190.922	350
190.991	-337
191.060	964
191.129	-998
191.198	813
191.268	68
191.337	10
191.406	87
191.475	-204
191.544	-509
191.613	302
191.682	-247
191.752	340
191.821	-142
191.890	-263
191.959	-565
192.028	331
192.097	-487
192.166	209
192.235	-842
192.304	666
192.373	-581
192.442	397
192.511	-599
192.580	624
192.650	-349
192.719	534
192.788	155
192.857	198
192.926	-107
192.995	2
193.064	-144
193.133	-455
193.202	-548
193.271	-257
193.340	-275
193.409	538
193.478	-210
193.547	43
193.615	141
193.684	124
193.753	26
193.822	-295
193.891	-145
193.960	-427
194.029	-338
194.098	-407
194.167	-439
194.236	-157
194.305	-148
194.374	-279
194.443	-584
194.512	597
194.580	449
194.649	-362
194.718	-183
194.787	567
194.856	97
194.925	742
194.994	-148
195.062	330
195.131	-888
195.200	-526
195.269	730
195.338	480
195.407	-68
195.475	165
195.544	172
195.613	-296
195.682	-363
195.751	57
195.819	-166
195.888	410
195.957	678
196.026	387
196.094	201
196.163	-750
196.232	-377
196.301	58
196.369	-450
196.438	457
196.507	-454
196.576	-479
196.644	-759
196.713	-152
196.782	-551
196.850	154
196.919	-973
196.988	181
197.056	-379
197.125	1328
197.194	565
197.262	-329
197.331	-587
197.400	155
197.468	-374
197.537	335
197.606	-290
197.674	-438
197.743	-507
197.812	-287
197.880	-645
197.949	-212
198.017	-845
198.086	-23
198.155	-613
198.223	-166
198.292	-489
198.360	-567
198.429	-456
198.497	554
198.566	-940
198.635	271
198.703	843
198.772	570
198.840	-358
198.909	-78
198.977	-638
199.046	420
199.114	46
199.183	-322
199.251	429
199.320	195
199.388	-368
199.457	-535
199.525	-33
199.594	262
199.662	-654
199.731	-27
199.799	-139
199.867	386
199.936	-245
200.004	503
200.073	-416
200.141	-59
200.210	-168
200.278	-600
200.346	176
200.415	-65
200.483	-801
200.552	144
200.620	-303
200.688	834
200.757	-496
200.825	-197
200.893	-357
200.962	-78
201.030	-821
201.098	-108
201.167	-688
201.235	-34
201.303	-424
201.372	242
201.440	33
201.508	560
201.577	195
201.645	336
201.713	-536
201.781	714
201.850	150
201.918	477
201.986	-1122
202.055	748
202.123	-35
202.191	-497
202.259	693
202.327	-766
202.396	0
202.464	-414
202.532	505
202.600	1623
202.669	821
202.737	489
202.805	-253
202.873	736
202.941	62
203.009	36
203.078	-614
203.146	681
203.214	-1149
203.282	-83
203.350	-493
203.418	57
203.487	-183
203.555	318
203.623	93
203.691	343
203.759	-476
203.827	-433
203.895	-612
203.963	-537
204.031	-240
204.099	743
204.168	-884
204.236	-30
204.304	-449
204.372	-231
204.440	-318
204.508	-905
204.576	-637
204.644	811
204.712	-438
204.780	309
204.848	-113
204.916	-240
204.984	-145
205.052	141
205.120	-211
205.188	-82
205.256	25
205.324	614
205.392	-1510
205.460	1123
205.528	-582
205.596	121
205.664	-914
205.732	-126
205.799	-263
205.867	205
205.935	-607
206.003	1386
206.071	-1233
206.139	-179
206.207	-504
206.275	-86
206.343	-993
206.411	-188
206.478	-389
206.546	-4
206.614	-752
206.682	329
206.750	-261
206.818	253
206.885	299
206.953	-640
207.021	487
207.089	427
207.157	-752
207.225	146
207.292	-729
207.360	-463
207.428	-1262
207.496	355
207.563	-299
207.631	-4
207.699	-1061
207.767	387
207.834	-333
207.902	144
207.970	-174
208.038	447
208.105	-609
208.173	-402
208.241	-266
208.309	943
208.376	-163
208.444	163
208.512	-777
208.579	-204
208.647	-105
208.715	1383
208.782	-187
208.850	93
208.918	-365
208.985	42
209.053	-401
209.120	-236
209.188	-305
209.256	-320
209.323	-1560
209.391	-333
209.459	598
209.526	352
209.594	-764
209.661	376
209.729	230
209.796	728
209.864	50
209.932	-1519
209.999	571
210.067	535
210.134	-65
210.202	-202
210.269	486
210.337	1070
210.404	-665
210.472	-313
210.539	-51
210.607	-369
210.674	-384
210.742	267
210.809	-241
210.877	200
210.944	413
211.012	-56
211.079	676
211.146	-472
211.214	-379
211.281	376
211.349	157
211.416	459
211.484	276
211.551	-813
211.618	375
211.686	-109
211.753	-294
211.821	-1
211.888	-410
211.955	47
212.023	-76
212.090	-422
212.157	-236
212.225	-822
212.292	-41
212.359	368
212.427	465
212.494	-189
212.561	37
212.629	-455
212.696	-398
212.763	356
212.831	-1326
212.898	904
212.965	-853
213.032	-230
213.100	-229
213.167	-499
213.234	-72
213.301	-192
213.369	-558
213.436	-557
213.503	-870
213.570	568
213.638	-1174
213.705	-692
213.772	-626
213.839	740
213.906	256
213.973	-622
214.041	-928
214.108	544
214.175	-842
214.242	-847
214.309	-102
214.376	420
214.444	-800
214.511	-166
214.578	-692
214.645	114
214.712	-373
214.779	-145
214.846	-502
214.913	323
214.980	863
215.048	610
215.115	1316
215.182	522
215.249	-433
215.316	-678
215.383	119
215.450	940
215.517	-565
215.584	352
215.651	-183
215.718	299
215.785	-677
215.852	-700
215.919	-14
215.986	168
216.053	-995
216.120	-864
216.187	-338
216.254	341
216.321	-1031
216.388	-662
216.455	227
216.522	596
216.589	-660
216.656	-261
216.722	-682
216.789	-38
216.856	-560
216.923	-255
216.990	-162
217.057	159
217.124	-422
217.191	-50
217.258	-220
217.324	319
217.391	222
217.458	-979
217.525	-960
217.592	466
217.659	-1105
217.725	570
217.792	-654
217.859	1236
217.926	-665
217.993	-89
218.059	-81
218.126	166
218.193	-929
218.260	226
218.327	-624
218.393	-803
218.460	-841
218.527	-1195
218.594	-320
218.660	12
218.727	394
218.794	-1159
218.860	-339
218.927	455
218.994	-1080
219.061	-320
219.127	-431
219.194	-196
219.261	-213
219.327	-591
219.394	-174
219.461	-949
219.527	-356
219.594	-149
219.661	-959
219.727	-755
219.794	-79
219.860	-938
219.927	370
219.994	1375
220.060	1640
220.127	2779
220.193	1038
220.260	239
220.326	210
220.393	1039
220.460	-1336
220.526	-401
220.593	-903
220.659	1236
220.726	-440
220.792	6
220.859	-675
220.925	78
220.992	-286
221.058	417
221.125	-211
221.191	-13
221.258	-815
221.324	-131
221.391	352
221.457	-1058
221.524	-747
221.590	-259
221.657	470
221.723	189
221.789	-888
221.856	769
221.922	-676
221.989	-81
222.055	-1015
222.121	-1184
222.188	916
222.254	365
222.321	-776
222.387	-48
222.453	173
222.520	16
222.586	-1212
222.652	101
222.719	-1421
222.785	348
222.851	-46
222.918	-45
222.984	-1423
223.050	131
223.116	-1761
223.183	970
223.249	-740
223.315	119
223.382	-662
223.448	-217
223.514	-1231
223.580	-630
223.647	-1098
223.713	-664
223.779	-83
223.845	-22
223.911	-395
223.978	-708
224.044	-437
224.110	-800
224.176	-424
224.242	84
224.309	-1380
224.375	-66
224.441	-480
224.507	-403
224.573	-1569
224.639	781
224.705	-920
224.772	82
224.838	-711
224.904	679
224.970	-1221
225.036	-262
225.102	-1390
225.168	127
225.234	-136
225.300	68
225.366	-526
225.432	-181
225.499	-792
225.565	27
225.631	-479
225.697	-325
225.763	-255
225.829	-380
225.895	-395
225.961	-95
226.027	234
226.093	-981
226.159	104
226.225	757
226.291	-851
226.357	191
226.423	-348
226.489	925
226.554	242
226.620	-76
226.686	-161
226.752	-306
226.818	-156
226.884	1207
226.950	569
227.016	485
227.082	553
227.148	403
227.214	741
227.279	63
227.345	-459
227.411	1014
227.477	1927
227.543	4562
227.609	4944
227.674	3605
227.740	2155
227.806	891
227.872	474
227.938	770
228.003	-988
228.069	502
228.135	-657
228.201	-64
228.267	-815
228.332	642
228.398	-1384
228.464	111
228.530	-743
228.595	-74
228.661	-1277
228.727	-962
228.792	-249
228.858	-729
228.924	-1875
228.990	1231
229.055	-1689
229.121	350
229.187	-486
229.252	-733
229.318	-516
229.384	85
229.449	136
229.515	-2008
229.581	-1414
229.646	696
229.712	-374
229.777	-181
229.843	-731
229.909	638
229.974	74
230.040	238
230.105	-637
230.171	-847
230.236	-240
230.302	238
230.368	-632
230.433	-864
230.499	-355
230.564	587
230.630	-582
230.695	384
230.761	255
230.826	-1623
230.892	278
230.957	-910
231.023	-518
231.088	-566
231.154	-995
231.219	527
231.284	-758
231.350	1044
231.415	-1560
231.481	147
231.546	-248
231.612	243
231.677	-581
231.742	-1555
231.808	196
231.873	-892
231.939	-2564
232.004	513
232.069	165
232.135	-423
232.200	-1417
232.265	523
232.331	-1115
232.396	-29
232.461	-1126
232.527	-920
232.592	-1780
232.657	507
232.723	137
232.788	-177
232.853	204
232.918	541
232.984	-961
233.049	61
233.114	-615
233.179	319
233.245	986
233.310	-167
233.375	-1516
233.440	-191
233.506	-1646
233.571	-879
233.636	-331
233.701	-378
233.766	-621
233.832	-6
233.897	-1108
233.962	-1943
234.027	410
234.092	-179
234.157	-44
234.222	71
234.288	-262
234.353	-138
234.418	259
234.483	801
234.548	-901
234.613	-518
234.678	-764
234.743	-612
234.808	248
234.873	-887
234.938	788
235.004	-461
235.069	-1231
235.134	-622
235.199	-255
235.264	-487
235.329	-2551
235.394	540
235.459	-495
235.524	-1587
235.589	-212
235.654	99
235.719	-1582
235.784	64
235.849	-1061
235.913	661
235.978	-1006
236.043	1
236.108	-22
236.173	-1001
236.238	23
236.303	-835
236.368	-597
236.433	405
236.498	-1637
236.563	504
236.627	-267
236.692	2100
236.757	1452
236.822	409
236.887	-855
236.952	280
237.017	-1777
237.081	1404
237.146	-1320
237.211	806
237.276	1233
237.341	4177
237.405	675
237.470	546
237.535	470
237.600	285
237.664	71
237.729	-683
237.794	-1191
237.859	518
237.923	149
237.988	-163
238.053	477
238.118	-535
238.182	-53
238.247	1724
238.312	-1518
238.376	616
238.441	-1711
238.506	1111
238.570	-1161
238.635	959
238.700	100
238.764	207
238.829	-602
238.893	99
238.958	56
239.023	14
239.087	-374
239.152	381
239.216	-675
239.281	743
239.346	-397
239.410	-332
239.475	-186
239.539	1184
239.604	-603
239.668	1557
239.733	1754
239.797	5239
239.862	9206
239.926	8865
239.991	4008
240.055	2172
240.120	-140
240.184	1432
240.249	-624
240.313	303
240.378	-270
240.442	816
240.507	518
240.571	-143
240.635	-542
240.700	177
240.764	195
240.829	493
240.893	-974
240.957	607
241.022	410
241.086	727
241.151	-1943
241.215	128
241.279	386
241.344	-537
241.408	-232
241.472	-128
241.537	1066
241.601	836
241.665	-1289
241.730	-29
241.794	569
241.858	-442
241.922	-222
241.987	163
242.051	-797
242.115	-1079
242.179	-291
242.244	-625
242.308	138
242.372	-674
242.436	-994
242.501	1021
242.565	-2023
242.629	-552
242.693	386
242.757	-616
242.822	183
242.886	658
242.950	326
243.014	-1068
243.078	-112
243.142	-637
243.206	-1042
243.271	1149
243.335	-1036
243.399	1530
243.463	-422
243.527	1713
243.591	-1507
243.655	26
243.719	-484
243.783	1387
243.847	-228
243.911	-25
243.975	-394
244.040	-576
244.104	1048
244.168	269
244.232	-592
244.296	402
244.360	209
244.424	-1089
244.488	1
244.552	511
244.615	-1201
244.679	-467
244.743	-982
244.807	-498
244.871	146
244.935	195
244.999	-1898
245.063	56
245.127	-2
245.191	-72
245.255	-305
245.319	-129
245.383	-1532
245.446	1410
245.510	-1092
245.574	557
245.638	831
245.702	-954
245.766	415
245.829	1383
245.893	-1630
245.957	-456
246.021	711
246.085	-168
246.149	-502
246.212	1375
246.276	924
246.340	1051
246.404	-81
246.467	1626
246.531	-2308
246.595	1080
246.659	962
246.722	-1135
246.786	319
246.850	395
246.913	-520
246.977	-1137
247.041	-36
247.104	1292
247.168	-627
247.232	522
247.295	2313
247.359	1483
247.423	-137
247.486	972
247.550	79
247.614	170
247.677	445
247.741	721
247.804	-789
247.868	898
247.932	-430
247.995	3319
248.059	227
248.122	-51
248.186	1228
248.249	223
248.313	3346
248.376	5196
248.440	2172
248.503	-752
248.567	2315
248.630	246
248.694	40
248.757	1716
248.821	3588
248.884	2933
248.948	1137
249.011	3469
249.075	4400
249.138	5292
249.202	1728
249.265	-183
249.328	954
249.392	-766
249.455	14
249.519	199
249.582	50
249.645	1206
249.709	-152
249.772	-296
249.835	636
249.899	1122
249.962	166
250.025	-472
250.089	93
250.152	2449
250.215	657
250.279	-471
250.342	1002
250.405	461
250.468	-816
250.532	-87
250.595	1040
250.658	2667
250.721	7521
250.785	1696
250.848	1454
250.911	-357
250.974	415
251.038	460
251.101	2352
251.164	558
251.227	963
251.290	872
251.354	441
251.417	4724
251.480	5622
251.543	2137
251.606	9546
251.669	7378
251.732	1972
251.795	2498
251.859	2406
251.922	6905
251.985	4066
252.048	2853
252.111	-291
252.174	-2
252.237	994
252.300	5948
252.363	3284
252.426	10454
252.489	2676
252.552	2059
252.615	-74
252.678	1682
252.741	3540
252.804	3593
252.867	10007
252.930	5442
252.993	2007
253.056	1960
253.119	488
253.182	-86
253.245	-45
253.308	1141
253.371	-751
253.434	849
253.497	955
253.559	2196
253.622	770
253.685	605
253.748	391
253.811	740
253.874	787
253.937	425
254.000	-411
254.062	1236
254.125	2988
254.188	2079
254.251	1118
254.314	664
254.376	173
254.439	1137
254.502	595
254.565	1729
254.628	2988
254.690	1383
254.753	234
254.816	224
254.878	637
254.941	1467
255.004	1920
255.067	1550
255.129	-686
255.192	224
255.255	-923
255.317	502
255.380	-238
255.443	101
255.505	130
255.568	308
255.631	-353
255.693	1304
255.756	-551
255.819	1479
255.881	676
255.944	1140
256.006	-894
256.069	-488
256.132	-88
256.194	384
256.257	-491
256.319	1249
256.382	11
256.444	2047
256.507	804
256.569	-30
256.632	148
256.694	154
256.757	555
256.819	4162
256.882	-559
256.944	836
257.007	821
257.069	158
257.132	-326
257.194	574
257.257	-301
257.319	-679
257.381	-646
257.444	1336
257.506	3061
257.569	5258
257.631	1314
257.693	1915
257.756	518
257.818	-56
257.880	298
257.943	1237
258.005	-982
258.067	784
258.130	-244
258.192	732
258.254	-402
258.317	-175
258.379	276
258.441	485
258.503	1313
258.566	65
258.628	1926
258.690	-221
258.753	507
258.815	897
258.877	-359
258.939	466
259.001	881
259.064	312
259.126	-431
259.188	594
259.250	722
259.312	249
259.375	217
259.437	456
259.499	-258
259.561	766
259.623	895
259.685	-499
259.747	469
259.809	1151
259.872	1009
259.934	2315
259.996	2990
260.058	948
260.120	-1231
260.182	1005
260.244	417
260.306	393
260.368	487
260.430	641
260.492	-104
260.554	757
260.616	-437
260.678	1266
260.740	1118
260.802	288
260.864	802
260.926	-165
260.988	46
261.050	-157
261.112	-266
261.174	2248
261.236	823
261.298	840
261.359	1386
261.421	1445
261.483	-489
261.545	1169
261.607	-380
261.669	978
261.731	763
261.793	1666
261.854	-642
261.916	1558
261.978	717
262.040	598
262.102	602
262.164	119
262.225	211
262.287	765
262.349	451
262.411	841
262.472	842
262.534	240
262.596	387
262.658	856
262.719	-703
262.781	948
262.843	378
262.904	915
262.966	172
263.028	1145
263.090	883
263.151	2844
263.213	1147
263.275	601
263.336	882
263.398	1428
263.459	383
263.521	770
263.583	354
263.644	1529
263.706	273
263.767	150
263.829	598
263.891	349
263.952	649
264.014	-104
264.075	-436
264.137	1179
264.198	963
264.260	220
264.321	465
264.383	501
264.444	537
264.506	450
264.567	147
264.629	1704
264.690	-841
264.752	553
264.813	579
264.875	32
264.936	1317
264.998	626
265.059	852
265.120	970
265.182	136
265.243	706
265.305	1372
265.366	1232
265.427	772
265.489	1086
265.550	-644
265.611	640
265.673	317
265.734	992
265.795	18
265.857	133
265.918	-357
265.979	1263
266.040	2340
266.102	2278
266.163	1132
266.224	963
266.286	31
266.347	477
266.408	603
266.469	1005
266.530	515
266.592	-16
266.653	703
266.714	2084
266.775	919
266.836	1810
266.898	219
266.959	1788
267.020	998
267.081	2596
267.142	1459
267.203	1550
267.264	700
267.326	2541
267.387	1354
267.448	1541
267.509	1332
267.570	1535
267.631	754
267.692	733
267.753	969
267.814	1110
267.875	791
267.936	1659
267.997	-229
268.058	1333
268.119	810
268.180	765
268.241	-248
268.302	897
268.363	183
268.424	1133
268.485	468
268.546	38
268.607	-23
268.668	498
268.729	-479
268.790	351
268.851	12
268.912	485
268.972	960
269.033	281
269.094	-225
269.155	536
269.216	59
269.277	416
269.338	610
269.398	706
269.459	-412
269.520	1222
269.581	606
269.642	415
269.702	23
269.763	1133
269.824	1018
269.885	1309
269.945	-341
270.006	922
270.067	-406
270.128	550
270.188	155
270.249	368
270.310	-794
270.370	1093
270.431	-87
270.492	606
270.553	67
270.613	341
270.674	1537
270.734	655
270.795	-511
270.856	1018
270.916	-301
270.977	1381
271.038	746
271.098	933
271.159	-88
271.219	664
271.280	845
271.340	694
271.401	142
271.462	1429
271.522	998
271.583	300
271.643	195
271.704	1580
271.764	976
271.825	1484
271.885	4011
271.946	7076
272.006	2402
272.066	3108
272.127	6229
272.187	7405
272.248	4005
272.308	2662
272.369	3795
272.429	3022
272.489	2076
272.550	2440
272.610	2339
272.671	1444
272.731	1123
272.791	1946
272.852	1927
272.912	2902
272.972	1609
273.033	2338
273.093	1689
273.153	3331
273.214	2578
273.274	2590
273.334	4481
273.394	7653
273.455	4870
273.515	5529
273.575	5522
273.635	5303
273.696	5705
273.756	8681
273.816	5093
273.876	4741
273.936	3728
273.997	4854
274.057	2652
274.117	2247
274.177	2714
274.237	5903
274.297	6016
274.358	3431
274.418	4410
274.478	3402
274.538	1225
274.598	1141
274.658	2107
274.718	2711
274.778	1763
274.838	1848
274.898	1010
274.958	2527
275.018	4525
275.078	4287
275.138	1929
275.198	1238
275.258	1238
275.318	1513
275.378	582
275.438	1365
275.498	1477
275.558	1387
275.618	2500
275.678	4025
275.738	2956
275.798	1304
275.858	681
275.918	1577
275.978	544
276.038	1974
276.098	965
276.157	1209
276.217	3006
276.277	2024
276.337	1172
276.397	1537
276.457	1103
276.517	2571
276.576	1852
276.636	2010
276.696	929
276.756	1949
276.815	1525
276.875	2623
276.935	1382
276.995	2502
277.055	2514
277.114	2872
277.174	2417
277.234	2875
277.293	1861
277.353	1255
277.413	1971
277.472	1617
277.532	2553
277.592	4047
277.651	11246
277.711	26779
277.771	10718
277.830	24241
277.890	25646
277.950	18753
278.009	47743
278.069	24917
278.128	19558
278.188	30450
278.248	15842
278.307	31173
278.367	21816
278.426	7324
278.486	4732
278.545	4571
278.605	3636
278.664	2998
278.724	2691
278.783	4696
278.843	8179
278.902	4612
278.962	2826
279.021	4536
279.081	7766
279.140	7649
279.199	5836
279.259	6499
279.318	7211
279.378	10783
279.437	16100
279.496	37591
279.556	98128
279.615	95231
279.675	38561
279.734	20598
279.793	18682
279.853	23001
279.912	12071
279.971	10056
280.031	8663
280.090	11044
280.149	16610
280.208	22389
280.268	69913
280.327	84349
280.386	29243
280.445	15571
280.505	10585
280.564	8747
280.623	5845
280.682	6259
280.742	5882
280.801	4222
280.860	3914
280.919	4065
280.978	3707
281.037	4156
281.097	3050
281.156	5596
281.215	3714
281.274	3122
281.333	5371
281.392	4449
281.451	2533
281.510	3334
281.569	2698
281.628	3953
281.688	2837
281.747	3346
281.806	2667
281.865	3670
281.924	2077
281.983	2836
282.042	2220
282.101	2349
282.160	2272
282.219	3149
282.278	2388
282.337	3594
282.396	2524
282.454	2567
282.513	3001
282.572	3626
282.631	2898
282.690	3709
282.749	2592
282.808	3811
282.867	3126
282.926	4158
282.985	3622
283.043	3766
283.102	2831
283.161	3877
283.220	3908
283.279	6195
283.338	4293
283.396	4190
283.455	4297
283.514	5039
283.573	4858
283.631	5306
283.690	5352
283.749	4955
283.808	5834
283.866	6212
283.925	5642
283.984	7448
284.043	7125
284.101	7779
284.160	7960
284.219	9498
284.277	9850
284.336	10280
284.395	13276
284.453	13595
284.512	14825
284.570	15896
284.629	18565
284.688	23964
284.746	27001
284.805	33876
284.863	39797
284.922	51679
284.981	62112
285.039	75809
285.098	87097
285.156	79002
285.215	47624
285.273	39532
285.332	71198
285.390	90007
285.449	82145
285.507	69015
285.566	54284
285.624	45172
285.683	36311
285.741	29951
285.799	25366
285.858	22802
285.916	18207
285.975	16483
286.033	14366
286.091	13197
286.150	12466
286.208	11286
286.267	9137
286.325	9464
286.383	8329
286.442	7954
286.500	7314
286.558	7175
286.616	5663
286.675	6449
286.733	5618
286.791	5275
286.850	5632
286.908	4987
286.966	4607
287.024	5087
287.083	4053
287.141	3979
287.199	4209
287.257	5547
287.315	4323
287.374	4054
287.432	3708
287.490	4480
287.548	2891
287.606	3516
287.664	3158
287.723	3355
287.781	3041
287.839	3292
287.897	2488
287.955	2907
288.013	2850
288.071	4628
288.129	8910
288.187	31291
288.245	14749
288.303	5817
288.361	3375
288.419	3696
288.477	2797
288.535	3510
288.593	1997
288.651	2915
288.709	1404
288.767	1487
288.825	1972
288.883	2966
288.941	1827
288.999	1560
289.057	1940
289.115	2344
289.173	2184
289.231	3022
289.289	1651
289.346	1970
289.404	2066
289.462	2455
289.520	1118
289.578	2633
289.636	1737
289.694	2161
289.751	1571
289.809	2093
289.867	2140
289.925	2946
289.983	1385
290.040	2288
290.098	1486
290.156	1900
290.214	963
290.271	1486
290.329	2039
290.387	2469
290.444	1197
290.502	1360
290.560	952
290.617	1620
290.675	267
290.733	1850
290.790	1483
290.848	2183
290.906	1989
290.963	1547
291.021	1701
291.078	1400
291.136	1364
291.194	2655
291.251	2407
291.309	2002
291.366	1643
291.424	1497
291.481	1818
291.539	2400
291.596	4266
291.654	2138
291.711	2316
291.769	1805
291.826	1628
291.884	1743
291.941	1564
291.999	1734
292.056	1552
292.114	2218
292.171	972
292.228	2220
292.286	2667
292.343	1881
292.401	1644
292.458	2642
292.515	996
292.573	1596
292.630	2209
292.687	1868
292.745	1007
292.802	1101
292.859	2826
292.917	4752
292.974	2513
293.031	2257
293.089	1727
293.146	1381
293.203	1734
293.260	1644
293.318	1440
293.375	1736
293.432	1351
293.489	2664
293.546	2512
293.604	2811
293.661	4405
293.718	10657
293.775	6788
293.832	5470
293.889	6628
293.947	6018
294.004	3298
294.061	3126
294.118	2707
294.175	6609
294.232	9075
294.289	7769
294.346	4236
294.403	3492
294.460	2086
294.517	2457
294.574	1888
294.631	1874
294.688	2028
294.745	2122
294.802	6767
294.859	5716
294.916	2762
294.973	1879
295.030	1020
295.087	1443
295.144	2348
295.201	2302
295.258	795
295.315	2142
295.372	3320
295.429	5681
295.486	2748
295.542	2170
295.599	1718
295.656	3029
295.713	2624
295.770	4585
295.827	2977
295.883	1562
295.940	544
295.997	1626
296.054	1292
296.111	1998
296.167	1677
296.224	1254
296.281	523
296.338	2025
296.394	1802
296.451	1820
296.508	2323
296.564	3860
296.621	2837
296.678	5414
296.734	9215
296.791	3974
296.848	1886
296.904	1941
296.961	2677
297.018	4923
297.074	3849
297.131	2526
297.187	1596
297.244	2651
297.301	4691
297.357	12708
297.414	5426
297.470	3134
297.527	1010
297.583	1896
297.640	1423
297.696	1487
297.753	279
297.809	1884
297.866	1344
297.922	1549
297.979	1022
298.035	2041
298.092	1077
298.148	3070
298.204	3752
298.261	2161
298.317	3553
298.374	7785
298.430	6122
298.486	2986
298.543	1898
298.599	2120
298.656	1458
298.712	1631
298.768	1937
298.824	2612
298.881	1402
298.937	1383
298.993	1038
299.050	2181
299.106	1288
299.162	2182
299.218	1721
299.275	2177
299.331	2783
299.387	3884
299.443	9036
299.500	19782
299.556	17988
299.612	7467
299.668	6292
299.724	14151
299.780	21168
299.837	10272
299.893	6139
299.949	13011
300.005	21452
300.061	15806
300.117	26000
300.173	14654
300.229	5313
300.285	4549
300.341	3754
300.397	3706
300.453	2729
300.510	3141
300.566	3622
300.622	8139
300.678	22174
300.734	34041
300.790	16433
300.845	14065
300.901	15105
300.957	23049
301.013	12362
301.069	5384
301.125	4541
301.181	3015
301.237	2933
301.293	2577
301.349	2598
301.405	1806
301.461	2182
301.516	2995
301.572	833
301.628	2067
301.684	1443
301.740	2591
301.796	2555
301.851	3370
301.907	3388
301.963	4381
302.019	5883
302.074	17533
302.130	19497
302.186	10896
302.242	3496
302.297	3233
302.353	2615
302.409	3325
302.464	3608
302.520	3242
302.576	5234
302.631	7545
302.687	3816
302.743	2379
302.798	1592
302.854	1533
302.910	2015
302.965	1310
303.021	1635
303.076	2067
303.132	1808
303.187	2320
303.243	1670
303.299	1879
303.354	1385
303.410	1691
303.465	534
303.521	1608
303.576	1516
303.632	1725
303.687	2562
303.743	6749
303.798	6930
303.853	3381
303.909	1225
303.964	2063
304.020	1772
304.075	2591
304.130	1017
304.186	2056
304.241	3717
304.297	2838
304.352	1967
304.358	1951
304.407	1823
304.449	2102
304.463	2201
304.518	2105
304.539	1707
304.573	1052
304.629	1877
304.630	1888
304.684	2423
304.720	4238
304.739	5121
304.794	8158
304.811	7294
304.850	5290
304.902	2348
304.905	2156
304.960	2452
304.992	2362
305.015	2273
305.071	1902
305.083	1850
305.126	1683
305.173	1904
305.181	1944
305.236	805
305.264	1289
305.292	1769
305.347	1354
305.354	1443
305.402	2067
305.445	1655
305.457	1504
305.512	1343
305.535	1343
305.567	1486
305.622	1728
305.626	1752
305.678	2155
305.716	4018
305.733	4755
305.788	6028
305.807	5363
305.843	4303
305.897	5529
305.898	5537
305.953	6334
305.988	4863
306.008	4099
306.063	2221
306.078	2034
306.118	1780
306.168	1975
306.173	1985
306.228	1843
306.259	1689
306.283	1589
306.338	1565
306.349	1621
306.393	1772
306.440	1517
306.448	1494
306.503	2007
306.530	1879
306.558	1713
306.613	2098
306.620	2025
306.668	1783
306.711	3579
306.723	3915
306.778	3800
306.801	3197
306.833	2615
306.888	1778
306.892	1768
306.943	1668
306.982	1329
306.997	1226
307.052	1542
307.072	1404
307.107	1261
307.162	1568
307.163	1576
307.217	2466
307.253	2468
307.272	2327
307.327	1791
307.343	1817
307.381	2055
307.434	1985
307.436	1999
307.491	3190
307.524	3338
307.546	3290
307.600	3500
307.614	3483
307.655	3029
307.704	2470
307.710	2500
307.765	2405
307.795	2841
307.819	3031
307.874	3378
307.885	3331
307.929	3163
307.975	3795
307.984	3979
308.038	4657
308.065	5160
308.093	7359
308.148	13212
308.156	14675
308.202	21680
308.246	28630
308.257	28748
308.312	15797
308.336	11445
308.366	9041
308.421	6776
308.426	6660
308.475	6178
308.517	6293
308.530	6273
308.585	6055
308.607	6099
308.639	6541
308.694	7390
308.697	7423
308.748	7737
308.787	8327
308.803	8550
308.857	8698
308.877	8940
308.912	10101
308.967	12303
308.967	12358
309.021	19165
309.058	24109
309.076	26878
309.130	38214
309.148	41452
309.185	54914
309.238	76245
309.239	76482
309.293	91557
309.328	94940
309.348	89889
309.402	64668
309.418	57215
309.457	46496
309.508	36839
309.511	36890
309.566	42867
309.598	48115
309.620	56252
309.674	81948
309.688	89189
309.729	91283
309.778	84120
309.783	82560
309.837	57753
309.868	44400
309.892	38320
309.946	27065
309.959	25246
310.001	21248
310.049	16589
310.055	16100
310.109	13133
310.139	11235
310.163	9943
310.218	8062
310.229	7677
310.272	6862
310.319	6371
310.326	6201
310.381	4868
310.409	4473
310.435	4406
310.489	3874
310.499	3872
310.543	3629
310.589	2983
310.598	3013
310.652	3711
310.679	3858
310.706	3419
310.760	3033
310.769	2913
310.814	3430
310.859	4169
310.868	4133
310.923	3657
310.948	3475
310.977	3464
311.031	3417
311.038	3431
311.085	3060
311.128	2532
311.139	2571
311.193	2959
311.218	3062
311.247	3133
311.301	3421
311.308	3430
311.356	2877
311.398	2494
311.410	2564
311.464	2886
311.488	3027
311.518	2908
311.572	2626
311.578	2602
311.626	2508
311.668	2354
311.680	2429
311.734	2861
311.758	3012
311.788	2656
311.842	2039
311.847	1976
311.896	2436
311.937	2874
311.950	2797
312.004	2429
312.027	2287
312.058	2042
312.112	1592
312.117	1551
312.165	2212
312.207	2784
312.297	2748
312.386	2251
312.476	2235
312.566	2797
312.656	2511
312.745	2494
312.835	2936
312.925	2352
313.015	2960
313.104	2484
313.194	2736
313.284	2578
313.374	2772
313.463	2864
313.553	3151
313.643	3695
313.732	4156
313.822	3216
313.912	3827
314.001	4187
314.091	5478
314.180	3770
314.270	5195
314.360	4173
314.449	4927
314.539	3307
314.628	5026
314.718	4673
314.808	5605
314.897	4625
314.987	5870
315.076	5052
315.166	5718
315.255	5130
315.345	4512
315.434	4908
315.524	5791
315.613	6381
315.703	8294
315.792	21487
315.881	64104
315.971	20567
316.060	7806
316.150	6203
316.239	5234
316.328	4739
316.418	4781
316.507	4138
316.597	6945
316.686	6320
316.775	6248
316.865	5847
316.954	4941
317.043	4267
317.133	4773
317.222	4084
317.311	4482
317.400	3382
317.490	4785
317.579	5585
317.668	6940
317.757	11406
317.847	36285
317.936	97133
318.025	31447
318.114	23953
318.203	11381
318.293	5899
318.382	8688
318.471	9480
318.560	7964
318.649	9061
318.738	4602
318.828	3760
318.917	2861
319.006	3165
319.095	4188
319.184	5995
319.273	5115
319.362	3207
319.451	3177
319.540	2893
319.629	4006
319.718	4345
319.807	3392
319.896	3763
319.985	7903
320.074	4278
320.163	3174
320.252	3708
320.341	4455
320.430	3231
320.519	4477
320.608	4089
320.697	5184
320.786	6096
320.875	6954
320.964	6855
321.053	7684
321.142	8252
321.230	9920
321.319	9309
321.408	11014
321.497	10658
321.586	10181
321.675	8050
321.764	8095
321.852	6975
321.941	8268
322.030	7976
322.119	9407
322.207	10873
322.296	12257
322.385	13011
322.474	15265
322.562	15690
322.651	11069
322.740	9043
322.829	8075
322.917	6541
323.006	6316
323.095	6266
323.183	5331
323.272	5151
323.361	5920
323.449	6704
323.538	4214
323.626	5558
323.715	4375
323.804	3376
323.892	5644
323.981	3609
324.069	3846
324.158	4585
324.246	4049
324.335	3876
324.424	3812
324.512	3357
324.601	3544
324.689	3558
324.778	3769
324.866	3360
324.954	3153
325.043	2825
325.131	2634
325.220	3779
325.308	2696
325.397	2943
325.485	3393
325.574	2626
325.662	3299
325.750	2522
325.839	3532
325.927	2730
326.015	3878
326.104	2945
326.192	2628
326.280	3010
326.369	2671
326.457	2974
326.545	3178
326.634	2342
326.722	2936
326.810	2854
326.898	3675
326.987	3958
327.075	3036
327.163	3930
327.251	3241
327.340	3783
327.428	5792
327.516	5808
327.604	4986
327.692	3379
327.781	3028
327.869	2511
327.957	2934
328.045	1641
328.133	2648
328.221	1594
328.309	2872
328.397	2832
328.485	3080
328.574	6409
328.662	8032
328.750	5318
328.838	3545
328.926	3108
329.014	3804
329.102	1943
329.190	2677
329.278	2615
329.366	2780
329.454	2341
329.542	2361
329.630	2159
329.718	2764
329.806	2567
329.893	2859
329.981	1827
330.069	2975
330.157	2912
330.245	3921
330.333	2694
330.421	3250
330.509	3013
330.597	3424
330.684	3150
330.772	3052
330.860	2250
330.948	3208
331.036	2780
331.123	2261
331.211	2595
331.299	2851
331.387	2322
331.475	3360
331.562	2673
331.650	3585
331.738	2932
331.825	3200
331.913	2955
332.001	3316
332.089	1787
332.176	3324
332.264	2871
332.352	3038
332.439	2436
332.527	2994
332.614	2882
332.702	2371
332.790	3112
332.877	5738
332.965	13066
333.052	12411
333.140	13883
333.228	32869
333.315	10551
333.403	5267
333.490	6578
333.578	15701
333.665	48672
333.753	22075
333.840	6464
333.928	5780
334.015	6639
334.103	9665
334.190	14095
334.278	14263
334.365	16590
334.452	17365
334.540	12536
334.627	12507
334.715	16216
334.802	22864
334.889	35003
334.977	42029
335.064	25965
335.151	14413
335.239	10386
335.326	10030
335.413	11439
335.501	11668
335.588	9835
335.675	11949
335.762	15109
335.850	19466
335.937	26940
336.024	40811
336.111	58621
336.199	50608
336.286	24893
336.373	14708
336.460	9913
336.547	8337
336.635	7043
336.722	6138
336.809	5344
336.896	5305
336.983	6133
337.070	7850
337.157	9035
337.245	6453
337.332	6286
337.419	5024
337.506	4733
337.593	4144
337.680	3887
337.767	6613
337.854	3945
337.941	4060
338.028	4221
338.115	3212
338.202	4362
338.289	4691
338.376	4919
338.463	4260
338.550	3721
338.637	4275
338.724	3621
338.811	4010
338.898	3211
338.984	3120
339.071	2396
339.158	3440
339.245	2940
339.332	3291
339.419	3134
339.506	3506
339.593	1741
339.679	3286
339.766	2715
339.853	3249
339.940	3152
340.027	3187
340.113	3026
340.200	2466
340.287	2769
340.374	1728
340.460	2328
340.547	1932
340.634	2889
340.720	5135
340.807	2724
340.894	3023
340.980	3022
341.067	3297
341.154	2720
341.240	2465
341.327	3244
341.414	3796
341.500	2132
341.587	3512
341.674	3005
341.760	3662
341.847	2314
341.933	3004
342.020	1805
342.106	2876
342.193	3020
342.279	3150
342.366	2352
342.452	3787
342.539	2463
342.625	2817
342.712	3746
342.798	2726
342.885	1681
342.971	3087
343.058	2495
343.144	2813
343.230	3035
343.317	3990
343.403	2065
343.490	2938
343.576	2187
343.662	2544
343.749	1626
343.835	2861
343.921	4075
344.008	13202
344.094	20592
344.180	5555
344.267	3116
344.353	4639
344.439	4755
344.525	3079
344.612	2201
344.698	2343
344.784	1484
344.870	2465
344.957	1989
345.043	4266
345.129	2110
345.215	3157
345.301	2500
345.387	2643
345.474	2069
345.560	2415
345.646	1742
345.732	2540
345.818	2245
345.904	2908
345.990	1903
346.076	2708
346.162	2042
346.249	3067
346.335	1920
346.421	2723
346.507	3134
346.593	7026
346.679	2155
346.765	4408
346.851	5882
346.937	4002
347.023	4317
347.108	3222
347.194	2074
347.280	4063
347.366	5004
347.452	12649
347.538	17325
347.624	9869
347.710	5862
347.796	2632
347.882	3153
347.967	3299
348.053	2588
348.139	2472
348.225	1880
348.311	2407
348.397	2465
348.482	4020
348.568	3668
348.654	5628
348.740	16242
348.825	16787
348.911	9065
348.997	7718
349.083	9140
349.168	3544
349.254	3476
349.340	3183
349.425	3032
349.511	3597
349.597	3019
349.682	2263
349.768	5278
349.854	3649
349.939	2528
350.025	2345
350.110	2973
350.196	2689
350.282	1805
350.367	3736
350.453	2525
350.538	2055
350.624	1966
350.709	3099
350.795	1715
350.880	2054
350.966	4149
351.051	2031
351.137	2136
351.222	2993
351.308	2904
351.393	4863
351.479	2920
351.564	2213
351.649	3121
351.735	3088
351.820	2881
351.906	2907
351.991	1368
352.076	3947
352.162	4272
352.247	3297
352.332	2542
352.418	2382
352.503	2296
352.588	4650
352.673	3422
352.759	2460
352.844	2028
352.929	2372
353.014	1454
353.100	3604
353.185	2717
353.270	2405
353.355	2995
353.441	3271
353.526	2882
353.611	2574
353.696	2078
353.781	3932
353.866	1432
353.952	3568
354.037	2165
354.122	3861
354.207	2485
354.292	2572
354.377	2683
354.462	2622
354.547	2750
354.632	3486
354.717	3280
354.802	1968
354.887	2692
354.972	2550
355.057	2345
355.142	2701
355.227	3389
355.312	2754
355.397	2505
355.482	4491
355.567	2855
355.652	4108
355.737	3476
355.822	4640
355.907	3573
355.991	4047
356.076	2035
356.161	4007
356.246	3456
356.331	2813
356.416	3512
356.501	12159
356.585	9318
356.670	2754
356.755	4692
356.840	3904
356.924	9239
357.009	23827
357.094	8641
357.179	2959
357.263	2882
357.348	3886
357.433	2885
357.517	3803
357.602	3035
357.687	2585
357.771	3103
357.856	4435
357.941	3707
358.025	9928
358.110	31247
358.195	12784
358.279	4365
358.364	3961
358.448	5463
358.533	8880
358.617	6053
358.702	6378
358.787	3531
358.871	3565
358.956	3383
359.040	4196
359.125	2305
359.209	3229
359.294	3524
359.378	7151
359.462	5749
359.547	3334
359.631	3066
359.716	2826
359.800	3360
359.885	4369
359.969	2498
360.053	3719
360.138	2621
360.222	3634
360.306	2701
360.391	4259
360.475	3676
360.559	3527
360.644	4945
360.728	3288
360.812	8069
360.896	15453
360.981	6264
361.065	3930
361.149	4692
361.233	3912
361.318	3110
361.402	4286
361.486	4649
361.570	4325
361.654	4584
361.739	5503
361.823	12778
361.907	17885
361.991	7926
362.075	8882
362.159	12508
362.243	23448
362.327	49704
362.411	63020
362.495	25696
362.580	15732
362.664	13944
362.748	16750
362.832	27436
362.916	55163
363.000	129571
363.084	151946
363.168	65866
363.252	24240
363.336	14517
363.420	11663
363.503	12120
363.587	12504
363.671	9627
363.755	8733
363.839	12079
363.923	11144
364.007	15217
364.091	21046
364.175	33122
364.258	73180
364.342	153628
364.426	223060
364.510	113616
364.594	40754
364.677	22174
364.761	22473
364.845	15091
364.929	8450
365.013	6733
365.096	6695
365.180	4899
365.264	6735
365.347	11020
365.431	6207
365.515	3674
365.598	4377
365.682	6065
365.766	3789
365.849	4490
365.933	4349
366.017	6314
366.100	3987
366.184	3946
366.267	5240
366.351	4302
366.435	3578
366.518	3664
366.602	4623
366.685	4265
366.769	3876
366.852	4398
366.936	5468
367.019	3965
367.103	2752
367.186	4563
367.270	4942
367.353	3583
367.436	5579
367.520	4532
367.603	5491
367.687	3355
367.770	4676
367.853	4897
367.937	7697
368.020	7799
368.104	3196
368.187	5267
368.270	4686
368.353	4006
368.437	4351
368.520	5295
368.603	4230
368.687	4515
368.770	6811
368.853	3773
368.936	4412
369.020	4275
369.103	4241
369.186	2393
369.269	3364
369.352	3882
369.436	3992
369.519	3706
369.602	2914
369.685	4908
369.768	2426
369.851	3873
369.934	3857
370.018	2804
370.101	3881
370.184	5936
370.267	4790
370.350	3941
370.433	5796
370.516	16140
370.599	35714
370.682	14951
370.765	8729
370.848	8372
370.931	9290
371.014	6871
371.097	3861
371.180	4683
371.263	5489
371.346	4672
371.429	6358
371.511	4080
371.594	5596
371.677	5489
371.760	7069
371.843	7118
371.926	19792
372.009	31413
372.091	17310
372.174	10128
372.257	14116
372.340	9350
372.423	9249
372.505	10013
372.588	6901
372.671	8236
372.754	9523
372.836	7604
372.919	7601
373.002	9463
373.085	6754
373.167	7071
373.250	8145
373.332	11989
373.415	21636
373.498	34255
373.580	22071
373.663	58010
373.746	52767
373.828	11750
373.911	8102
373.993	5826
374.076	7965
374.159	7470
374.241	5791
374.324	9071
374.406	7959
374.489	13601
374.571	23324
374.654	9773
374.736	8821
374.819	16140
374.901	26766
374.983	23314
375.066	8590
375.148	6213
375.231	8523
375.313	10130
375.395	7382
375.478	6228
375.560	7374
375.643	6167
375.725	9240
375.807	18727
375.890	14569
375.972	5614
376.054	6743
376.136	5414
376.219	5145
376.301	9312
376.383	13839
376.465	6324
376.548	5260
376.630	5816
376.712	11579
376.794	6103
376.877	4528
376.959	2969
377.041	4909
377.123	3438
377.205	4411
377.287	3083
377.369	4846
377.452	3695
377.534	4036
377.616	3923
377.698	4088
377.780	3252
377.862	4678
377.944	4841
378.026	3307
378.108	5305
378.190	3521
378.272	4991
378.354	4502
378.436	4153
378.518	3893
378.600	3693
378.682	5180
378.764	6082
378.846	6264
378.928	3370
379.010	3818
379.091	4838
379.173	4696
379.255	3284
379.337	3941
379.419	5037
379.501	9071
379.583	4998
379.664	5011
379.746	3633
379.828	8607
379.910	6743
379.991	7280
380.073	4802
380.155	4865
380.237	4766
380.318	4972
380.400	4667
380.482	6029
380.564	5651
380.645	5895
380.727	4712
380.809	6700
380.890	4502
380.972	4154
381.053	5408
381.135	6621
381.217	6813
381.298	9113
381.380	7085
381.461	8218
381.543	14084
381.624	16041
381.706	8558
381.787	8681
381.869	9679
381.951	15090
382.032	29288
382.113	22048
382.195	9796
382.276	13637
382.358	14893
382.439	21608
382.521	28639
382.602	39401
382.684	37473
382.765	67418
382.846	169528
382.928	305479
383.009	182993
383.090	186689
383.172	400024
383.253	410445
383.334	169275
383.416	85544
383.497	69002
383.578	86201
383.659	163558
383.741	382358
383.822	524203
383.903	293165
383.984	116284
384.066	66521
384.147	39901
384.228	28322
384.309	22410
384.390	20908
384.471	18719
384.553	16757
384.634	15663
384.715	15810
384.796	14031
384.877	15099
384.958	18629
385.039	15138
385.120	12354
385.201	12758
385.282	11537
385.363	15624
385.444	17998
385.525	18108
385.606	19604
385.687	16919
385.768	12408
385.849	12192
385.930	22404
386.011	27964
386.092	13517
386.173	11581
386.254	9367
386.335	9465
386.416	9111
386.496	10657
386.577	10580
386.658	8584
386.739	8675
386.820	10327
386.901	8949
386.981	10057
387.062	11035
387.143	12460
387.224	13750
387.304	15325
387.385	13526
387.466	11965
387.547	13596
387.627	13102
387.708	14275
387.789	19062
387.869	16757
387.950	14235
388.031	10783
388.111	8426
388.192	11890
388.273	12760
388.353	10521
388.434	8197
388.514	7940
388.595	15005
388.676	13861
388.756	9252
388.837	8528
388.917	6839
388.998	4637
389.078	8016
389.159	5824
389.239	5783
389.320	7119
389.400	4798
389.480	7518
389.561	9018
389.641	9131
389.722	5836
389.802	5305
389.883	7811
389.963	9979
390.043	6935
390.124	4481
390.204	6029
390.284	7728
390.365	6564
390.445	7758
390.525	7984
390.605	7867
390.686	6198
390.766	6729
390.846	7154
390.927	6161
391.007	5430
391.087	7397
391.167	6190
391.247	5205
391.328	8125
391.408	8265
391.488	7976
391.568	6037
391.648	8324
391.728	9301
391.808	9784
391.888	9014
391.969	12002
392.049	12091
392.129	11449
392.209	13825
392.289	16706
392.369	15987
392.449	17474
392.529	17229
392.609	21441
392.689	24055
392.769	29635
392.849	35577
392.929	45889
393.009	63037
393.089	92452
393.169	172733
393.248	370639
393.328	582256
393.408	508277
393.488	295305
393.568	146407
393.648	81098
393.728	52507
393.807	36279
393.887	30327
393.967	23407
394.047	19711
394.127	16364
394.206	16825
394.286	22899
394.366	56524
394.446	51727
394.525	16608
394.605	11716
394.685	11116
394.764	13976
394.844	21495
394.924	24428
395.003	13402
395.083	9486
395.163	9768
395.242	7842
395.322	9153
395.402	7059
395.481	12002
395.561	12858
395.640	34695
395.720	59712
395.799	32924
395.879	15397
395.958	13400
396.038	26480
396.117	79134
396.197	73246
396.276	27849
396.356	21670
396.435	28929
396.515	40164
396.594	61845
396.673	133042
396.753	331870
396.832	509007
396.912	361820
396.991	153722
397.070	71955
397.150	40417
397.229	36704
397.308	58601
397.388	92406
397.467	46008
397.546	19800
397.625	11556
397.705	13914
397.784	10254
397.863	9307
397.942	9018
398.022	8749
398.101	7666
398.180	10575
398.259	7151
398.338	7181
398.417	5165
398.497	6082
398.576	6396
398.655	4696
398.734	6174
398.813	5600
398.892	6025
398.971	8498
399.050	5320
399.129	3743
399.208	4612
399.287	5739
399.366	3082
399.445	4412
399.524	4104
399.603	2891
399.682	4094
399.761	4781
399.840	8619
399.919	7513
399.998	3392
400.077	2779
400.156	2826
400.235	6179
400.313	2693
400.392	2653
400.471	4638
400.550	4478
400.629	1863
400.708	3278
400.786	2262
400.865	3334
400.944	2122
401.023	4383
401.102	2175
401.180	3340
401.259	2125
401.338	3405
401.416	3084
401.495	2385
401.574	3098
401.652	2125
401.731	3475
401.810	1328
401.888	2913
401.967	1435
402.046	2180
402.124	2843
402.203	2009
402.281	3029
402.360	2550
402.438	3400
402.517	1112
402.596	3155
402.674	2038
402.753	3339
402.831	2167
402.910	3568
402.988	3910
403.066	8044
403.145	6006
403.223	5472
403.302	6797
403.380	6691
403.459	6150
403.537	4084
403.615	3514
403.694	2424
403.772	3798
403.850	3538
403.929	2396
404.007	3089
404.085	3953
404.164	3783
404.242	1873
404.320	4439
404.398	5892
404.477	5449
404.555	14834
404.633	10900
404.711	5761
404.789	3627
404.868	1642
404.946	2102
405.024	1863
405.102	2413
405.180	928
405.258	1161
405.336	2393
405.415	1466
405.493	2134
405.571	3258
405.649	2078
405.727	1833
405.805	2903
405.883	4731
405.961	3332
406.039	2502
406.117	1133
406.195	2898
406.273	3179
406.351	9688
406.429	5946
406.507	2679
406.585	870
406.663	3185
406.740	2212
406.818	1819
406.896	1664
406.974	2686
407.052	896
407.130	6552
407.208	6115
407.285	3547
407.363	1322
407.441	2373
407.519	1581
407.596	2495
407.674	3017
407.752	7631
407.830	5876
407.907	3112
407.985	1465
408.063	2517
408.141	1370
408.218	3768
408.296	1052
408.373	2109
408.451	3211
408.529	3099
408.606	2631
408.684	3112
408.762	3635
408.839	3492
408.917	4025
408.994	4737
409.072	4458
409.149	7876
409.227	10606
409.304	16123
409.382	17460
409.459	21210
409.537	24807
409.614	22551
409.692	18810
409.769	19677
409.846	26644
409.924	29951
410.001	21395
410.079	16407
410.156	12839
410.233	10037
410.311	7740
410.388	7725
410.465	7116
410.543	5745
410.620	6469
410.697	6152
410.775	5018
410.852	4705
410.929	6185
411.006	6769
411.083	4930
411.161	3998
411.238	4274
411.315	4541
411.392	3282
411.469	5188
411.547	4193
411.624	1779
411.701	2410
411.778	3401
411.855	2238
411.932	3436
412.009	2917
412.086	3112
412.163	2221
412.240	1599
412.317	2386
412.394	2494
412.471	2125
412.548	2546
412.625	1799
412.702	2293
412.779	2123
412.856	2137
412.933	1073
413.010	2251
413.087	2890
413.164	2416
413.241	2780
413.318	855
413.395	2210
413.471	1408
413.548	2287
413.625	2280
413.702	790
413.779	1920
413.855	1717
413.932	1388
414.009	628
414.086	1791
414.162	1784
414.239	1540
414.316	2509
414.393	4960
414.469	1327
414.546	1284
414.623	1264
414.699	1924
414.776	779
414.853	1735
414.929	1739
415.006	1455
415.082	1076
415.159	1700
415.236	2406
415.312	1592
415.389	1594
415.465	1207
415.542	783
415.618	728
415.695	1760
415.771	750
415.848	880
415.924	1650
416.000	1602
416.077	2824
416.153	179
416.230	1365
416.306	728
416.383	595
416.459	1377
416.535	1027
416.612	1155
416.688	2030
416.764	1535
416.841	1421
416.917	975
416.993	2216
417.069	2168
417.146	1369
417.222	1163
417.298	2148
417.374	447
417.451	2007
417.527	864
417.603	1104
417.679	1222
417.755	1612
417.831	953
417.908	1655
417.984	1832
418.060	130
418.136	2642
418.212	1699
418.288	1528
418.364	2009
418.440	88
418.516	2596
418.592	1093
418.668	2351
418.744	1727
418.820	1982
418.896	1355
418.972	1148
419.048	1398
419.124	2046
419.200	454
419.276	2363
419.352	1083
419.428	2086
419.504	683
419.579	3319
419.655	1728
419.731	2139
419.807	1863
419.883	2363
419.959	2262
420.034	3311
420.110	2563
420.186	3770
420.262	3786
420.337	3651
420.413	3793
420.489	3889
420.565	4852
420.640	4459
420.716	4802
420.792	3753
420.867	5364
420.943	4739
421.019	5699
421.094	5352
421.170	6462
421.245	6546
421.321	7242
421.397	8570
421.472	10474
421.548	12577
421.623	12609
421.699	13886
421.774	14560
421.850	17754
421.925	20269
422.001	24466
422.076	29445
422.152	37881
422.227	51509
422.302	71782
422.378	103795
422.453	164013
422.529	246911
422.604	258181
422.679	193984
422.755	236392
422.830	230101
422.905	160213
422.981	105680
423.056	75006
423.131	55498
423.207	42243
423.282	32651
423.357	28210
423.432	22331
423.508	20811
423.583	15887
423.658	15708
423.733	13631
423.808	13128
423.883	11807
423.959	13375
424.034	14812
424.109	13666
424.184	9557
424.259	8414
424.334	6623
424.409	6387
424.484	5332
424.559	6757
424.634	5076
424.709	4435
424.784	4321
424.859	4597
424.934	2951
425.009	4828
425.084	4802
425.159	3220
425.234	3869
425.309	3401
425.384	2318
425.459	3171
425.534	3109
425.609	2102
425.683	2666
425.758	2605
425.833	2518
425.908	3188
425.983	1917
426.058	4648
426.132	2632
426.207	2344
426.282	3213
426.357	2329
426.431	1692
426.506	2181
426.581	1478
426.655	1881
426.730	1925
426.805	1855
426.879	2433
426.954	1983
427.029	1854
427.103	4308
427.178	6016
427.253	4100
427.327	1629
427.402	1290
427.476	1602
427.551	1790
427.625	1730
427.700	2118
427.774	1546
427.849	2341
427.923	1235
427.998	2377
428.072	2960
428.147	10436
428.221	48025
428.296	120411
428.370	54688
428.444	9407
428.519	4150
428.593	3348
428.667	4439
428.742	5947
428.816	19255
428.890	81396
428.965	97961
429.039	23756
429.113	5396
429.188	2927
429.262	1938
429.336	2726
429.410	2786
429.485	3129
429.559	2961
429.633	4057
429.707	5063
429.781	17413
429.855	75928
429.930	88147
430.004	23906
430.078	18972
430.152	59747
430.226	165702
430.300	134568
430.374	33259
430.448	11175
430.522	7719
430.596	10142
430.670	28631
430.744	98764
430.818	85576
430.892	16828
430.966	4236
431.040	2405
431.114	1639
431.188	725
431.262	955
431.336	662
431.410	2746
431.484	1233
431.557	2696
431.631	2491
431.705	8076
431.779	39500
431.853	117168
431.927	64292
432.000	10172
432.074	2877
432.148	1529
432.222	783
432.295	1342
432.369	779
432.443	930
432.516	3213
432.590	6352
432.664	1379
432.737	1077
432.811	-189
432.885	-44
432.958	333
433.032	-481
433.106	112
433.179	886
433.253	-219
433.326	259
433.400	-156
433.473	569
433.547	-236
433.620	388
433.694	-1
433.767	705
433.841	209
433.914	1083
433.988	-162
434.061	31
434.134	353
434.208	379
434.281	19
434.355	966
434.428	483
434.501	-181
434.575	266
434.648	132
434.721	-184
434.795	-3
434.868	-304
434.941	933
435.014	1528
435.088	1806
435.161	3005
435.234	4600
435.307	4568
435.381	5975
435.454	7799
435.527	13102
435.600	13003
435.673	12012
435.746	7194
435.819	5941
435.892	4368
435.966	2915
436.039	2256
436.112	2332
436.185	1608
436.258	1129
436.331	273
436.404	621
436.477	292
436.550	893
436.623	293
436.696	806
436.769	-178
436.842	1162
436.915	-140
436.987	1024
437.060	681
437.133	-192
437.206	-144
437.279	395
437.352	-754
437.425	-20
437.498	104
437.570	219
437.643	-329
437.716	-336
437.789	-713
437.861	29
437.934	-77
438.007	-99
438.080	-189
438.152	-6
438.225	528
438.298	5480
438.370	11023
438.443	3919
438.516	566
438.588	306
438.661	-775
438.734	612
438.806	-654
438.879	550
438.951	-414
439.024	208
439.096	21
439.169	79
439.241	-293
439.314	-284
439.386	-596
439.459	420
439.531	-115
439.604	314
439.676	-338
439.749	-409
439.821	-261
439.893	403
439.966	-235
440.038	65
440.110	-264
440.183	333
440.255	-178
440.327	1006
440.400	1908
440.472	5553
440.544	2990
440.617	346
440.689	1575
440.761	1019
440.833	-255
440.905	937
440.978	305
441.050	471
441.122	899
441.194	442
441.266	272
441.338	-70
441.411	811
441.483	2125
441.555	2324
441.627	692
441.699	1171
441.771	994
441.843	1483
441.915	884
441.987	1319
442.059	2445
442.131	2616
442.203	3256
442.275	4958
442.347	10143
442.419	25541
442.491	109286
442.563	177354
442.635	66482
442.706	16276
442.778	7193
442.850	4975
442.922	4223
442.994	4221
443.066	5341
443.137	6684
443.209	9679
443.281	14870
443.353	38872
443.425	127527
443.496	287643
443.568	267507
443.640	110968
443.711	28544
443.783	12929
443.855	7823
443.926	5713
443.998	3539
444.070	3878
444.141	3015
444.213	3407
444.285	2554
444.356	2875
444.428	2261
444.499	2705
444.571	2104
444.642	3146
444.714	2711
444.785	3214
444.857	4129
444.928	3758
445.000	4824
445.071	7111
445.143	10057
445.214	15723
445.285	29077
445.357	76084
445.428	222661
445.500	318805
445.571	260850
445.642	165507
445.714	57200
445.785	21032
445.856	9206
445.928	7664
445.999	4774
446.070	4097
446.141	2763
446.213	3461
446.284	1776
446.355	2446
446.426	1355
446.497	827
446.569	652
446.640	958
446.711	373
446.782	699
446.853	586
446.924	1245
446.995	736
447.066	210
447.138	208
447.209	868
447.280	-739
447.351	370
447.422	-65
447.493	612
447.564	-40
447.635	-439
447.706	-809
447.777	395
447.847	-881
447.918	-307
447.989	-160
448.060	279
448.131	806
448.202	-463
448.273	-122
448.344	-211
448.414	-662
448.485	464
448.556	-53
448.627	-808
448.698	503
448.768	-1058
448.839	-631
448.910	-716
448.981	-289
449.051	485
449.122	-402
449.193	-88
449.263	-525
449.334	787
449.405	-164
449.475	540
449.546	79
449.616	1408
449.687	-389
449.758	911
449.828	-873
449.899	-1145
449.969	-897
450.040	-256
450.110	-438
450.181	436
450.251	-211
450.322	-359
450.392	245
450.463	215
450.533	-183
450.604	-278
450.674	-524
450.744	1289
450.815	394
450.885	1783
450.955	1202
451.026	961
451.096	22
451.166	88
451.237	715
451.307	2158
451.377	1055
451.447	140
451.518	844
451.588	561
451.658	-99
451.728	381
451.799	847
451.869	649
451.939	-501
452.009	58
452.079	-1068
452.149	1087
452.219	-243
452.289	1228
452.360	744
452.430	919
452.500	1631
452.570	4575
452.640	13389
452.710	28562
452.780	28846
452.850	15760
452.920	7021
452.990	4199
453.060	1954
453.129	1494
453.199	603
453.269	1493
453.339	2003
453.409	2520
453.479	2772
453.549	3513
453.619	3245
453.688	6
453.758	95
453.828	-178
453.898	-225
453.968	-112
454.037	-197
454.087	-829
454.107	-1111
454.168	-1448
454.177	-1528
454.247	-929
454.249	-890
454.316	-552
454.330	-390
454.386	120
454.411	-331
454.456	-1216
454.492	-392
454.525	326
454.574	254
454.595	191
454.655	-334
454.665	-447
454.734	955
454.736	983
454.804	734
454.817	775
454.873	789
454.898	964
454.943	1203
454.979	600
455.013	60
455.060	879
455.082	1196
455.141	-251
455.152	-540
455.221	1098
455.222	1125
455.291	967
455.303	1004
455.360	817
455.384	1207
455.430	1756
455.465	1208
455.499	585
455.546	427
455.569	343
455.627	1032
455.638	1151
455.707	530
455.708	556
455.777	687
455.789	568
455.846	-107
455.869	229
455.916	829
455.950	909
455.985	873
456.031	643
456.054	508
456.112	610
456.124	652
456.193	1520
456.193	1493
456.262	1313
456.274	1309
456.332	1247
456.355	1366
456.401	1594
456.436	1566
456.470	1423
456.516	1680
456.540	1761
456.597	1076
456.609	940
456.678	1563
456.678	1535
456.747	2386
456.759	2220
456.817	1420
456.840	1763
456.886	2200
456.920	2266
456.955	2641
457.001	2925
457.024	2852
457.082	3314
457.093	3339
457.162	3696
457.163	3728
457.232	3420
457.243	3394
457.301	3550
457.324	3325
457.370	2849
457.405	3631
457.439	4378
457.485	4649
457.508	4973
457.566	6849
457.577	7483
457.646	11158
457.647	11267
457.715	30700
457.727	34976
457.784	64168
457.808	82546
457.853	100349
457.889	110381
457.922	99480
457.969	63488
457.991	68266
458.050	95368
458.060	100989
458.129	171932
458.130	173900
458.198	145222
458.211	130120
458.267	67543
458.292	43830
458.336	31677
458.372	30154
458.405	46484
458.453	75492
458.474	98515
458.533	179108
458.543	184325
458.611	256395
458.614	257687
458.680	134730
458.694	102746
458.749	47175
458.775	31371
458.818	20129
458.855	15209
458.887	12706
458.936	10517
458.955	9709
459.016	8212
459.024	8106
459.093	7380
459.097	7342
459.162	6147
459.177	6192
459.230	6514
459.257	6420
459.299	6166
459.338	5946
459.368	5747
459.418	5693
459.437	5706
459.499	5971
459.505	5984
459.574	5446
459.579	5458
459.643	5032
459.659	4862
459.711	4911
459.740	5320
459.780	5460
459.820	5405
459.849	5445
459.900	5161
459.917	4962
459.981	4824
459.986	4846
460.054	5032
460.061	5081
460.123	5400
460.141	5451
460.191	5425
460.222	5391
460.260	5341
460.302	5559
460.328	5649
460.382	5568
460.397	5662
460.462	6300
460.465	6333
460.534	7253
460.543	7383
460.602	15196
460.623	18236
460.671	26601
460.703	33549
460.739	29691
460.783	22132
460.808	18173
460.864	7412
460.876	6811
460.944	5733
460.945	5722
461.013	5978
461.024	5956
461.081	5750
461.104	5951
461.150	6162
461.184	5993
461.218	6086
461.264	6181
461.286	5985
461.345	5550
461.355	5520
461.423	5804
461.425	5789
461.491	5161
461.505	5271
461.559	5997
461.585	5960
461.628	6131
461.665	6831
461.696	6970
461.745	6877
461.764	6694
461.825	5907
461.832	5938
461.901	6429
461.905	6454
461.969	5783
461.985	5601
462.037	6431
462.065	6999
462.105	6203
462.145	5324
462.173	5625
462.225	6244
462.241	6369
462.305	6659
462.310	6657
462.378	7237
462.385	7186
462.446	6788
462.465	6853
462.514	6349
462.545	5941
462.582	5997
462.625	6041
462.650	6066
462.705	6211
462.718	6266
462.785	6565
462.786	6568
462.854	6250
462.865	6230
462.922	6380
462.945	6398
462.990	6330
463.025	6441
463.058	6700
463.104	6928
463.126	6963
463.184	7228
463.194	7227
463.262	6587
463.264	6567
463.330	6401
463.344	6389
463.398	6875
463.424	7193
463.466	6992
463.504	6589
463.533	6807
463.583	7198
463.601	7091
463.663	6589
463.669	6558
463.737	6439
463.743	6387
463.805	6816
463.823	7041
463.873	7542
463.903	7655
463.940	7531
463.982	7435
464.008	7137
464.062	6504
464.076	6476
464.142	6541
464.144	6572
464.211	6910
464.221	7025
464.279	7011
464.301	6839
464.347	6914
464.381	7196
464.414	6850
464.461	6138
464.482	6407
464.540	7306
464.550	7345
464.617	7011
464.620	7008
464.685	7715
464.699	7781
464.753	6887
464.779	6531
464.820	7366
464.859	7885
464.888	7239
464.938	6469
464.956	6867
465.018	7945
465.023	7933
465.091	7675
465.098	7656
465.158	7720
465.177	7640
465.226	7674
465.257	7658
465.293	7548
465.336	7514
465.361	7727
465.416	8179
465.428	8198
465.495	8044
465.496	8063
465.563	8502
465.575	8599
465.631	8961
465.654	9075
465.698	8191
465.734	7425
465.765	7852
465.813	8282
465.833	8090
465.893	7627
465.900	7677
465.968	7974
465.972	7978
466.035	7896
466.052	7841
466.102	7997
466.131	8088
466.170	8160
466.210	8122
466.237	8101
466.290	8091
466.304	8228
466.369	8641
466.372	8640
466.439	8173
466.449	8064
466.506	8017
466.528	8017
466.573	8559
466.607	8856
466.641	9374
466.687	10185
466.708	10587
466.766	11515
466.775	11157
466.842	8316
466.845	8165
466.909	8401
466.925	8442
466.977	9065
467.004	9364
467.044	9441
467.083	9479
467.111	9574
467.163	9701
467.178	9632
467.242	9234
467.245	9273
467.312	9668
467.321	9701
467.379	10180
467.400	10318
467.446	10634
467.480	10823
467.559	11205
467.638	10781
467.717	10374
467.796	11337
467.875	12542
467.955	12553
468.034	15260
468.113	18001
468.192	23162
468.271	26074
468.350	36878
468.429	53212
468.508	58147
468.588	35248
468.667	20654
468.746	15931
468.825	14587
468.904	13552
468.983	11160
469.062	11799
469.141	13264
469.220	9598
469.299	10445
469.378	9130
469.456	11419
469.535	10936
469.614	10933
469.693	10341
469.772	12883
469.851	12549
469.930	13211
470.009	15184
470.088	18853
470.166	28180
470.245	52319
470.324	68620
470.403	43540
470.482	22862
470.560	17107
470.639	13942
470.718	13065
470.797	11418
470.875	11332
470.954	10828
471.033	10958
471.111	10952
471.190	9827
471.269	10271
471.347	9953
471.426	9522
471.505	10909
471.583	9578
471.662	10400
471.740	9709
471.819	10174
471.898	8795
471.976	10293
472.055	9483
472.133	9484
472.212	10493
472.290	9533
472.369	9722
472.447	9355
472.526	8579
472.604	10434
472.683	10355
472.761	9882
472.839	9000
472.918	10909
472.996	10867
473.075	11175
473.153	10495
473.231	11076
473.310	11155
473.388	10838
473.466	10220
473.545	11104
473.623	10635
473.701	11544
473.780	11061
473.858	9241
473.936	12754
474.014	10858
474.093	11224
474.171	11922
474.249	11352
474.327	10456
474.405	10342
474.484	10473
474.562	9392
474.640	10316
474.718	10119
474.796	10431
474.874	9168
474.952	9475
475.030	9882
475.108	10511
475.187	10354
475.265	10803
475.343	10523
475.421	11610
475.499	9403
475.577	10098
475.655	10822
475.733	11007
475.811	11547
475.889	10634
475.966	10844
476.044	10544
476.122	9356
476.200	11255
476.278	9648
476.356	9226
476.434	10294
476.512	9861
476.590	10142
476.667	11158
476.745	8839
476.823	8935
476.901	10193
476.979	10325
477.056	10164
477.134	9662
477.212	8816
477.290	10421
477.367	9738
477.445	10038
477.523	8495
477.601	9608
477.678	9539
477.756	10423
477.834	9330
477.911	9167
477.989	9498
478.066	10382
478.144	9293
478.222	10191
478.299	11272
478.377	12346
478.454	10140
478.532	9179
478.609	9175
478.687	9798
478.764	9469
478.842	10005
478.919	8661
478.997	9703
479.074	9204
479.152	9554
479.229	9910
479.307	8940
479.384	9235
479.461	9298
479.539	9376
479.616	9974
479.694	8605
479.771	9740
479.848	8620
479.926	9249
480.003	11052
480.080	9977
480.157	10183
480.235	9379
480.312	10249
480.389	10694
480.467	9760
480.544	11164
480.621	11841
480.698	12850
480.775	12861
480.853	10401
480.930	10197
481.007	10932
481.084	10301
481.161	10944
481.238	10852
481.315	10153
481.392	9491
481.470	11078
481.547	10778
481.624	10236
481.701	10462
481.778	10719
481.855	12210
481.932	12877
482.009	14348
482.086	15409
482.163	17837
482.240	19989
482.317	21035
482.393	18084
482.470	15943
482.547	14162
482.624	13995
482.701	12983
482.778	13212
482.855	13035
482.932	13662
483.009	13518
483.085	17153
483.162	17818
483.239	20485
483.316	20733
483.393	20494
483.469	18047
483.546	15518
483.623	14865
483.699	13105
483.776	12023
483.853	11354
483.930	11453
484.006	12548
484.083	15257
484.160	12838
484.236	15095
484.313	13467
484.389	13656
484.466	17228
484.543	20732
484.619	27089
484.696	31684
484.772	20630
484.849	15374
484.925	12593
485.002	13084
485.078	11490
485.155	10792
485.231	10763
485.308	10337
485.384	10950
485.461	11307
485.537	10525
485.614	12494
485.690	11153
485.766	9563
485.843	10329
485.919	11657
485.995	10894
486.072	10822
486.148	9271
486.224	10367
486.301	10695
486.377	9888
486.453	9610
486.530	11149
486.606	11683
486.682	10352
486.758	11810
486.835	12873
486.911	11813
486.987	15951
487.063	16542
487.139	19782
487.215	21140
487.292	24416
487.368	28416
487.444	37292
487.520	54729
487.596	81198
487.672	186767
487.748	600143
487.824	898218
487.900	292755
487.976	80041
488.052	42701
488.128	28877
488.204	21502
488.280	19057
488.356	17188
488.432	16113
488.508	16638
488.584	13157
488.660	14147
488.736	12355
488.812	11289
488.888	12145
488.964	12424
489.039	13420
489.115	16686
489.191	14289
489.267	11072
489.343	10305
489.418	11448
489.494	11450
489.570	9670
489.646	11864
489.722	10529
489.797	10110
489.873	12613
489.949	12974
490.024	12985
490.100	11023
490.176	11545
490.251	11907
490.327	13066
490.403	11343
490.478	11540
490.554	10694
490.629	11005
490.705	10963
490.781	10433
490.856	10583
490.932	10564
491.007	10235
491.083	9731
491.158	9732
491.234	10287
491.309	11544
491.385	10999
491.460	9514
491.536	11269
491.611	8951
491.686	10057
491.762	10270
491.837	11941
491.913	13646
491.988	15799
492.063	15868
492.139	11787
492.214	10196
492.289	10724
492.365	9699
492.440	9089
492.515	9866
492.590	9113
492.666	9660
492.741	9374
492.816	9942
492.891	9372
492.967	11273
493.042	9593
493.117	9231
493.192	10905
493.267	11102
493.342	14733
493.418	16219
493.493	10856
493.568	10333
493.643	9831
493.718	9215
493.793	10295
493.868	10921
493.943	9644
494.018	9704
494.093	9527
494.168	11116
494.243	9472
494.318	10297
494.393	10748
494.468	10195
494.543	11360
494.618	10845
494.693	11567
494.768	10385
494.842	11794
494.917	11015
494.992	11486
495.067	10478
495.142	10692
495.217	9784
495.292	11802
495.366	11617
495.441	10752
495.516	11914
495.591	12823
495.665	17831
495.740	27050
495.815	15532
495.890	11150
495.964	9150
496.039	13800
496.114	12683
496.188	14549
496.263	12341
496.338	12382
496.412	10957
496.487	12047
496.561	11436
496.636	11455
496.710	11498
496.785	11417
496.860	11226
496.934	11008
497.009	12811
497.083	11740
497.158	12426
497.232	13196
497.307	13645
497.381	17122
497.455	15043
497.530	12037
497.604	10472
497.679	12256
497.753	11699
497.827	12691
497.902	12115
497.976	13245
498.050	17562
498.125	39124
498.199	36124
498.273	14272
498.348	14961
498.422	14993
498.496	17021
498.570	19000
498.645	11962
498.719	9198
498.793	10566
498.867	11069
498.941	12481
499.016	20272
499.090	34981
499.164	18314
499.238	13076
499.312	12569
499.386	13984
499.460	15511
499.534	16589
499.609	21148
499.683	15583
499.757	10247
499.831	11587
499.905	24812
499.979	21217
500.053	11535
500.127	12099
500.201	11197
500.275	12733
500.349	13749
500.422	14506
500.496	16739
500.570	21173
500.644	31976
500.718	34698
500.792	12395
500.866	9044
500.940	8908
501.013	8736
501.087	8787
501.161	9294
501.235	8888
501.309	13812
501.382	19808
501.456	19329
501.530	10681
501.603	10062
501.677	8846
501.751	6485
501.825	9826
501.898	8718
501.972	11394
502.046	9639
502.119	7258
502.193	8496
502.266	11330
502.340	8859
502.413	9402
502.487	11518
502.561	8696
502.634	8447
502.708	9567
502.781	8088
502.855	9240
502.928	7019
503.002	9038
503.075	6577
503.149	7615
503.222	7806
503.295	8577
503.369	9208
503.442	11166
503.516	15344
503.589	21947
503.662	20071
503.736	20710
503.809	30438
503.882	37617
503.956	58043
504.029	112002
504.102	328352
504.175	468363
504.249	174321
504.322	63157
504.395	33956
504.468	23259
504.542	15890
504.615	12854
504.688	11749
504.761	9624
504.834	10450
504.907	9406
504.980	10535
505.053	8252
505.127	5547
505.200	10459
505.273	7387
505.346	6836
505.419	6171
505.492	8396
505.565	6593
505.638	6872
505.711	5765
505.784	6412
505.857	5663
505.930	6983
506.003	5111
506.076	8198
506.149	4851
506.221	4098
506.294	7684
506.367	6486
506.440	12184
506.513	8651
506.586	6241
506.659	5604
506.731	5795
506.804	5576
506.877	5949
506.950	6263
507.022	7512
507.095	4457
507.168	6225
507.241	7329
507.313	5361
507.386	5061
507.459	6771
507.531	5794
507.604	4549
507.677	6459
507.749	4290
507.822	6623
507.894	6380
507.967	7171
508.040	5122
508.112	6407
508.185	4911
508.257	3750
508.330	7610
508.402	5341
508.475	4825
508.547	6302
508.620	5146
508.692	6230
508.765	5978
508.837	5601
508.909	5442
508.982	5084
509.054	5538
509.127	5415
509.199	4958
509.271	4740
509.344	4660
509.416	5766
509.488	5413
509.560	6649
509.633	4731
509.705	5663
509.777	5816
509.849	6670
509.922	3687
509.994	5322
510.066	6991
510.138	4484
510.210	7067
510.283	5133
510.355	5760
510.427	6721
510.499	5006
510.571	5326
510.643	4231
510.715	6933
510.787	3714
510.859	7876
510.931	5585
511.003	6566
511.076	6229
511.148	4867
511.219	4409
511.291	6340
511.363	6151
511.435	5695
511.507	5150
511.579	7212
511.651	6607
511.723	4841
511.795	5243
511.867	5896
511.939	5222
512.010	6382
512.082	6827
512.154	3830
512.226	5742
512.298	7625
512.369	5232
512.441	6779
512.513	6720
512.585	5540
512.656	6775
512.728	5768
512.800	5677
512.871	6009
512.943	6172
513.015	5566
513.086	5908
513.158	6717
513.230	5052
513.301	6253
513.373	7155
513.444	6601
513.516	5303
513.588	6295
513.659	5923
513.731	6188
513.802	5962
513.874	8676
513.945	8358
514.016	5981
514.088	6755
514.159	5344
514.231	7452
514.302	7228
514.374	6845
514.445	5356
514.516	8724
514.588	6011
514.659	6101
514.730	6511
514.802	7494
514.873	4997
514.944	8200
515.016	7913
515.087	6958
515.158	6806
515.229	9218
515.301	5313
515.372	7555
515.443	6631
515.514	6544
515.585	6599
515.656	9307
515.728	8938
515.799	7561
515.870	9535
515.941	9937
516.012	9312
516.083	12728
516.154	12812
516.225	17369
516.296	23441
516.367	26097
516.438	35008
516.509	45183
516.580	71339
516.651	260927
516.722	857434
516.793	291639
516.864	63689
516.935	59905
517.006	72157
517.077	94423
517.148	209030
517.219	952172
517.289	1250182
517.360	208458
517.431	59960
517.502	33449
517.573	29505
517.643	25301
517.714	26241
517.785	28355
517.856	33435
517.926	45209
517.997	58361
518.068	79070
518.138	110136
518.209	175549
518.280	624605
518.350	1808732
518.421	700134
518.492	149627
518.562	90444
518.633	88042
518.703	114579
518.774	236465
518.845	600877
518.915	517230
518.986	150952
519.056	65249
519.127	42989
519.197	33139
519.268	27840
519.338	22334
519.408	15306
519.479	13590
519.549	12372
519.620	13307
519.690	10489
519.760	8660
519.831	9769
519.901	8362
519.971	8771
520.042	8380
520.112	8148
520.182	8690
520.253	8674
520.323	7531
520.393	6797
520.463	9125
520.534	4659
520.604	9950
520.674	8509
520.744	7031
520.814	7687
520.885	8497
520.955	8825
521.025	13084
521.095	9084
521.165	7795
521.235	6467
521.305	5970
521.375	7764
521.445	7601
521.515	6825
521.585	7963
521.655	6120
521.725	7983
521.795	8380
521.865	3987
521.935	8759
522.005	6567
522.075	6094
522.145	7881
522.215	6552
522.285	7130
522.355	7473
522.424	8608
522.494	7290
522.564	7137
522.634	8253
522.704	14314
522.774	7485
522.843	7118
522.913	7441
522.983	7570
523.053	6975
523.122	7913
523.192	8211
523.262	9528
523.331	8369
523.401	7639
523.471	7228
523.540	7607
523.610	7137
523.680	7980
523.749	8827
523.819	8956
523.888	7340
523.958	7410
524.027	8406
524.097	7920
524.166	8293
524.236	6116
524.305	10148
524.375	7139
524.444	7139
524.514	10125
524.583	8165
524.653	7106
524.722	9587
524.791	7383
524.861	9678
524.930	8342
524.999	8458
525.069	10318
525.138	8560
525.207	9718
525.277	11516
525.346	11029
525.415	12948
525.484	13875
525.554	17260
525.623	19930
525.692	27123
525.761	34800
525.830	45982
525.900	62682
525.969	99035
526.038	179687
526.107	381932
526.176	1045145
526.245	759510
526.314	236284
526.383	529092
526.452	658021
526.522	955625
526.591	778136
526.660	150362
526.729	92360
526.797	98170
526.867	132865
526.935	380806
527.004	1329511
527.073	762347
527.142	126748
527.211	51884
527.280	34608
527.349	25500
527.418	17607
527.487	18365
527.555	12657
527.624	13394
527.693	10224
527.762	12447
527.831	9762
527.899	11963
527.968	9659
528.037	8897
528.106	10482
528.174	9441
528.243	8935
528.312	10366
528.380	9509
528.449	7716
528.518	9039
528.586	6854
528.655	8064
528.723	8429
528.792	7829
528.861	7688
528.929	6803
528.998	9069
529.066	6851
529.135	7237
529.203	6877
529.272	6184
529.340	8116
529.409	9945
529.477	7978
529.545	7065
529.614	10207
529.682	6646
529.751	8454
529.819	11594
529.887	9056
529.956	8157
530.024	8903
530.092	7515
530.161	8858
530.229	8560
530.297	6637
530.365	10000
530.434	8794
530.502	8206
530.570	8947
530.638	6868
530.707	8754
530.775	10435
530.843	8651
530.911	9266
530.979	9000
531.047	8591
531.115	9186
531.183	9184
531.252	9323
531.320	8883
531.388	7768
531.456	9613
531.524	7135
531.592	10553
531.660	10253
531.728	8181
531.796	8130
531.864	9806
531.932	8526
532.000	8949
532.067	9701
532.135	9988
532.203	11530
532.271	10862
532.339	12969
532.407	14368
532.475	13383
532.542	12030
532.610	11580
532.678	11980
532.746	17532
532.814	25427
532.881	13592
532.949	12912
533.017	11482
533.084	10691
533.152	10726
533.220	10774
533.287	9879
533.355	11147
533.423	10805
533.490	11271
533.558	11913
533.625	12676
533.693	11251
533.761	11583
533.828	12399
533.896	11488
533.963	13185
534.031	14503
534.098	18142
534.166	20477
534.233	18834
534.300	22833
534.368	21584
534.435	22454
534.503	25231
534.570	27617
534.637	33952
534.705	39646
534.772	47596
534.840	95587
534.907	449743
534.974	490390
535.041	64716
535.109	31129
535.176	22370
535.243	22274
535.310	19813
535.378	19447
535.445	19254
535.512	19608
535.579	19024
535.646	17952
535.714	19231
535.781	20995
535.848	21007
535.915	20346
535.982	18990
536.049	18667
536.116	20710
536.183	17895
536.250	17511
536.317	19379
536.384	20267
536.451	20946
536.518	20601
536.585	18872
536.652	20870
536.719	22014
536.786	18822
536.853	19835
536.920	21268
536.987	20405
537.053	19725
537.120	27140
537.187	26481
537.254	22313
537.321	21273
537.388	22521
537.454	21957
537.521	20786
537.588	21220
537.654	22095
537.721	23590
537.788	22865
537.855	21712
537.921	21409
537.988	21210
538.055	21447
538.121	18658
538.188	18955
538.254	18972
538.321	20313
538.388	20638
538.454	24295
538.521	24274
538.587	24368
538.654	21698
538.720	22666
538.787	23513
538.853	23198
538.920	21242
538.986	19975
539.053	19309
539.119	21010
539.185	20418
539.252	22613
539.318	22367
539.385	26601
539.451	22345
539.517	22899
539.583	23261
539.650	23575
539.716	24809
539.782	22165
539.849	20249
539.915	21909
539.981	20799
540.047	20088
540.114	20659
540.180	22678
540.246	23305
540.312	24494
540.378	23648
540.444	24756
540.510	23935
540.576	28006
540.643	22309
540.709	20708
540.775	21489
540.841	20805
540.907	20484
540.973	21930
541.039	21270
541.105	22678
541.171	22998
541.237	24234
541.303	24398
541.369	25074
541.435	24504
541.500	24003
541.566	20024
541.632	20899
541.698	21103
541.764	24507
541.830	21744
541.896	22157
541.961	20963
542.027	21634
542.093	24319
542.159	24685
542.224	21005
542.290	24196
542.356	21552
542.421	22545
542.487	21063
542.553	20878
542.618	21124
542.684	22204
542.750	22096
542.815	23898
542.881	22360
542.947	27487
543.012	26272
543.078	21293
543.143	20974
543.209	21455
543.274	20803
543.340	21240
543.405	22786
543.471	23878
543.536	23214
543.602	22032
543.667	21247
543.732	23167
543.798	22093
543.863	23998
543.928	22275
543.994	23112
544.059	23139
544.124	24685
544.190	24304
544.255	24512
544.320	23488
544.386	23447
544.451	27308
544.516	24713
544.581	25145
544.646	26983
544.712	28456
544.777	27188
544.842	25401
544.907	26011
544.972	25454
545.037	26514
545.102	27453
545.168	27201
545.233	28281
545.298	28805
545.363	28150
545.428	31283
545.493	31991
545.558	32456
545.623	29810
545.688	31017
545.753	31949
545.818	32799
545.883	34894
545.947	35303
546.012	37168
546.077	38401
546.142	41787
546.207	41507
546.272	43692
546.337	44701
546.401	46408
546.466	49037
546.531	49524
546.596	55439
546.661	56877
546.725	61942
546.790	63801
546.855	69970
546.919	76714
546.984	86262
547.049	91521
547.113	105552
547.178	115163
547.243	131633
547.307	152165
547.372	167162
547.436	164849
547.501	179371
547.565	192426
547.630	173779
547.695	166555
547.759	168706
547.823	170321
547.888	175107
547.952	178743
548.017	186515
548.081	187718
548.146	186434
548.210	191754
548.274	209105
548.339	201086
548.403	186461
548.468	174143
548.532	171470
548.596	174249
548.660	179172
548.725	193801
548.789	209967
548.853	200662
548.917	195846
548.982	187324
549.046	171500
549.110	152720
549.174	160008
549.238	187888
549.303	204542
549.367	209255
549.431	198664
549.495	184801
549.559	186965
549.623	218583
549.687	234763
549.751	229452
549.815	276643
549.879	276836
549.943	266790
550.007	278658
550.071	274455
550.135	246409
550.199	236864
550.263	232542
550.327	217049
550.391	223011
550.455	250626
550.519	261714
550.582	277292
550.646	314828
550.710	316766
550.774	314481
550.838	317998
550.901	325007
550.965	344356
551.029	360385
551.093	385136
551.156	420221
551.220	472548
551.284	500401
551.347	394902
551.411	336611
551.475	324287
551.538	337115
551.602	312446
551.666	295847
551.729	278836
551.793	273987
551.856	266222
551.920	263595
551.983	262433
552.047	257710
552.110	260500
552.174	263071
552.237	267670
552.301	252245
552.364	241269
552.428	232945
552.491	244181
552.554	247785
552.618	248569
552.681	255849
552.745	252815
552.808	292113
552.871	327502
552.934	279013
552.998	253065
553.061	242614
553.124	230779
553.187	229505
553.251	238549
553.314	237365
553.377	238680
553.440	254692
553.503	259251
553.567	257568
553.630	254714
553.693	252207
553.756	253214
553.819	245891
553.882	236998
553.945	240254
554.008	239026
554.071	240794
554.134	246050
554.197	229536
554.260	224851
554.323	228378
554.386	230022
554.449	241054
554.512	240444
554.575	229954
554.638	228199
554.701	227632
554.764	224957
554.827	215215
554.889	208932
554.952	194498
555.015	192546
555.078	197236
555.141	198496
555.203	192399
555.266	193661
555.329	191880
555.391	183427
555.454	182886
555.517	174594
555.580	169758
555.642	162407
555.705	161846
555.768	159350
555.830	155859
555.893	148518
555.955	143146
556.018	141139
556.080	141108
556.143	145547
556.206	143032
556.268	140072
556.330	136543
556.393	132985
556.455	130756
556.518	126910
556.580	122487
556.643	117319
556.705	115724
556.767	111898
556.830	111307
556.892	109648
556.955	109137
557.017	104285
557.079	105692
557.142	102776
557.204	100996
557.266	102744
557.328	94122
557.391	89156
557.453	86214
557.515	86095
557.577	87655
557.639	88494
557.701	88898
557.764	90147
557.826	91484
557.888	96533
557.950	100454
558.012	108797
558.074	135104
558.136	302599
558.198	626432
558.260	215530
558.322	103549
558.384	102550
558.446	106236
558.508	118053
558.570	131437
558.632	151690
558.694	186240
558.756	298056
558.818	803392
558.880	1416131
558.942	627775
559.003	696148
559.065	309237
559.127	141308
559.189	133842
559.251	140969
559.312	193781
559.374	447661
559.436	1145557
559.498	533971
559.559	165331
559.621	134174
559.683	147062
559.744	228712
559.806	688674
559.868	844976
559.929	214661
559.991	148194
560.052	237343
560.114	629393
560.176	355006
560.237	381619
560.299	530695
560.360	118844
560.422	58100
560.483	46467
560.545	44330
560.606	42136
560.667	39645
560.729	37999
560.790	34846
560.852	35694
560.913	34712
560.974	33719
561.036	32733
561.097	33537
561.158	32310
561.220	32150
561.281	30015
561.342	30092
561.403	29519
561.465	30124
561.526	31206
561.587	31210
561.648	27918
561.709	27868
561.771	26885
561.832	26950
561.893	26104
561.954	25572
562.015	25690
562.076	25095
562.137	25512
562.198	25173
562.259	25569
562.320	25591
562.381	25083
562.442	25447
562.503	23115
562.564	24539
562.625	23090
562.686	24006
562.747	23569
562.808	23105
562.869	22392
562.930	22617
562.991	22020
563.051	22210
563.112	21979
563.173	20816
563.234	20540
563.294	20927
563.355	19762
563.416	21013
563.477	20248
563.537	20239
563.598	19198
563.659	20725
563.720	19404
563.780	19508
563.841	20340
563.901	20202
563.962	19169
564.023	19881
564.083	19380
564.144	19193
564.204	19214
564.265	18840
564.325	18441
564.386	19386
564.446	18770
564.507	19046
564.567	17228
564.628	18270
564.688	17176
564.749	18095
564.809	18867
564.869	17829
564.930	17403
564.990	18845
565.050	17489
565.111	18114
565.171	18599
565.231	18140
565.292	18891
565.352	16661
565.412	17724
565.472	17804
565.532	17807
565.593	17850
565.653	16292
565.713	16916
565.773	17724
565.833	18881
565.893	18538
565.953	17324
566.013	15838
566.074	16719
566.134	16717
566.194	16789
566.254	16128
566.314	16910
566.374	16414
566.434	16055
566.494	15716
566.554	16027
566.614	16353
566.673	18022
566.733	17982
566.793	17007
566.853	17708
566.913	17842
566.973	18178
567.033	18469
567.092	16222
567.152	17339
567.212	16696
567.272	18088
567.331	17915
567.391	17907
567.451	19197
567.511	18827
567.570	18911
567.630	18877
567.690	17193
567.749	17169
567.809	18434
567.868	18583
567.928	17270
567.988	17096
568.047	18089
568.107	17796
568.166	18250
568.226	18594
568.285	19513
568.345	19467
568.404	18460
568.464	18641
568.523	17679
568.582	18612
568.642	17674
568.701	17355
568.761	16711
568.820	17582
568.879	17636
568.939	18812
568.998	16876
569.057	17388
569.116	17453
569.176	17296
569.235	17463
569.294	16610
569.353	15760
569.413	16532
569.472	15692
569.531	16585
569.590	15529
569.649	16975
569.708	15322
569.767	16776
569.827	16552
569.886	15430
569.945	15647
570.004	16594
570.063	16089
570.122	17484
570.181	17157
570.240	17553
570.299	16652
570.358	17670
570.417	18169
570.475	17048
570.534	18273
570.593	18487
570.652	17774
570.711	17427
570.770	17160
570.829	17563
570.887	17973
570.946	19205
571.005	18581
571.064	20643
571.122	22725
571.181	20398
571.240	18033
571.299	17290
571.357	16651
571.416	16045
571.475	16033
571.533	17414
571.592	19700
571.650	19033
571.709	19816
571.768	22478
571.826	21991
571.885	20732
571.943	18794
572.002	18090
572.060	17597
572.119	16815
572.177	16912
572.236	17199
572.294	17664
572.352	19074
572.411	18760
572.469	17049
572.528	16850
572.586	16741
572.644	16299
572.703	16470
572.761	16397
572.819	15979
572.877	14969
572.936	16064
572.994	15262
573.052	15218
573.110	16276
573.169	17508
573.227	16220
573.285	16017
573.343	17233
573.401	17249
573.459	16212
573.517	17094
573.576	18363
573.634	17534
573.692	17899
573.750	17715
573.808	14766
573.866	15983
573.924	15812
573.982	15554
574.040	16360
574.098	15996
574.155	14939
574.213	15295
574.271	15379
574.329	17497
574.387	15256
574.445	14814
574.503	14604
574.560	13681
574.618	14509
574.676	14941
574.734	14787
574.792	14145
574.849	13174
574.907	12080
574.965	12603
575.022	11852
575.080	11558
575.138	12460
575.195	11873
575.253	11476
575.311	11263
575.368	12560
575.426	10147
575.483	12357
575.541	12977
575.598	12112
575.656	12643
575.713	12503
575.771	14295
575.828	12803
575.886	11783
575.943	11555
576.001	10340
576.058	10808
576.115	11909
576.173	12607
576.230	11832
576.287	12650
576.345	11556
576.402	12169
576.459	12557
576.517	12002
576.574	11333
576.631	11611
576.688	11041
576.746	10610
576.803	10761
576.860	11037
576.917	10372
576.974	12158
577.031	11997
577.089	11400
577.146	10238
577.203	10190
577.260	10169
577.317	9953
577.374	10100
577.431	10311
577.488	9888
577.545	10201
577.602	11013
577.659	9821
577.716	10163
577.773	10694
577.830	9416
577.886	10160
577.943	9715
578.000	10101
578.057	9246
578.114	10686
578.171	10678
578.227	10211
578.284	9726
578.341	10280
578.398	10440
578.454	10507
578.511	11279
578.568	10855
578.625	9646
578.681	10530
578.738	9919
578.794	10497
578.851	10460
578.908	10459
578.964	10426
579.021	11567
579.077	10169
579.134	10929
579.190	11119
579.247	10953
579.303	10218
579.360	10541
579.416	10345
579.473	10561
579.529	9836
579.586	10546
579.642	11009
579.698	11091
579.755	10179
579.811	11439
579.867	11055
579.924	11431
579.980	10560
580.036	12081
580.093	11192
580.149	11464
580.205	11737
580.261	12919
580.317	10804
580.374	12369
580.430	11950
580.486	12584
580.542	11207
580.598	11668
580.619	11451
580.654	11087
580.692	11534
580.710	11778
580.765	11982
580.767	12002
580.823	12346
580.838	12460
580.879	12790
580.911	12595
580.935	12486
580.984	12626
580.991	12661
581.047	13141
581.057	12870
581.103	11721
581.130	12031
581.159	12382
581.203	11330
581.215	11062
581.270	10674
581.276	10643
581.326	10443
581.349	10715
581.382	11121
581.422	11023
581.438	10990
581.494	10745
581.494	10729
581.550	10046
581.567	10393
581.606	11066
581.640	11018
581.661	11029
581.713	11648
581.717	11705
581.773	11047
581.786	11101
581.829	11310
581.859	11529
581.885	11760
581.932	11130
581.940	11007
581.996	11523
582.004	11571
582.052	11882
582.077	11382
582.107	10800
582.150	10898
582.163	10911
582.219	10280
582.223	10344
582.274	11346
582.296	11044
582.330	10530
582.368	11205
582.386	11600
582.441	11177
582.441	11179
582.497	10327
582.514	10123
582.552	10065
582.587	10927
582.608	11339
582.659	10630
582.663	10588
582.719	11863
582.732	11796
582.774	11429
582.805	10884
582.830	10591
582.877	10489
582.885	10429
582.941	10727
582.950	10692
582.996	10514
583.023	10847
583.052	11397
583.095	11145
583.107	11031
583.162	10968
583.168	10994
583.218	11165
583.240	10951
583.273	10640
583.313	10167
583.328	10033
583.384	10744
583.385	10725
583.439	10140
583.458	10244
583.494	10346
583.531	10537
583.549	10738
583.603	10197
583.605	10172
583.660	10293
583.676	10428
583.715	10879
583.748	11053
583.770	11132
583.820	10757
583.825	10722
583.881	10888
583.893	10923
583.936	10930
583.965	10725
583.991	10524
584.038	11187
584.046	11343
584.101	10681
584.110	10679
584.156	10643
584.183	10929
584.211	11208
584.255	11503
584.266	11562
584.321	11775
584.328	11767
584.376	11871
584.400	12030
584.431	12087
584.472	11850
584.486	11735
584.541	12651
584.545	12660
584.596	13084
584.617	13230
584.651	13404
584.689	13123
584.706	12997
584.761	14133
584.762	14142
584.816	14843
584.834	14938
584.871	15051
584.906	16192
584.926	16735
584.978	17745
584.980	17794
585.035	19476
585.051	20164
585.090	22165
585.123	24782
585.145	26523
585.195	29452
585.200	29775
585.254	35376
585.267	37102
585.309	42882
585.340	47491
585.364	51250
585.412	59735
585.419	61205
585.473	75791
585.484	79770
585.528	101205
585.556	126215
585.583	168374
585.628	279682
585.637	313849
585.692	643035
585.700	691117
585.747	863011
585.772	720592
585.801	461299
585.845	190741
585.856	148848
585.910	73516
585.917	66895
585.965	47863
585.989	41098
586.019	35502
586.061	30953
586.074	29866
586.128	26493
586.133	26290
586.183	24641
586.205	24367
586.237	24072
586.277	22717
586.292	22402
586.346	23021
586.349	23007
586.401	21871
586.421	21695
586.455	21778
586.493	21576
586.509	21660
586.564	22598
586.565	22640
586.618	24562
586.637	25535
586.672	28624
586.709	32966
586.727	34662
586.781	38031
586.781	38014
586.835	29694
586.853	27839
586.889	24502
586.925	22372
586.944	21818
586.996	21151
586.998	21151
587.052	20706
587.068	20957
587.106	21563
587.140	21596
587.161	21576
587.212	21890
587.215	21869
587.269	21653
587.284	21689
587.323	22389
587.356	22595
587.377	22619
587.427	23416
587.431	23455
587.485	23334
587.499	23394
587.539	24086
587.571	24827
587.593	25426
587.643	27022
587.648	27124
587.702	27210
587.715	27474
587.755	27656
587.786	27063
587.810	26794
587.858	27517
587.864	27568
587.917	27170
587.930	27207
587.971	27985
588.001	28277
588.025	27983
588.073	27727
588.079	27812
588.133	28152
588.145	28348
588.187	28368
588.217	28455
588.241	28901
588.288	29891
588.295	29995
588.348	31122
588.360	31304
588.402	31662
588.431	31886
588.456	32473
588.503	34203
588.510	34448
588.564	36802
588.575	37365
588.617	39504
588.646	40962
588.671	42263
588.718	45135
588.725	46046
588.778	55727
588.789	58562
588.832	85949
588.861	109661
588.886	155495
588.932	264120
588.939	273437
588.993	325867
589.004	319041
589.047	171030
589.075	91152
589.100	69150
589.147	45828
589.154	44992
589.207	41182
589.218	40675
589.261	41488
589.290	42246
589.314	43125
589.361	46160
589.368	47630
589.421	61962
589.433	66321
589.475	112838
589.504	152011
589.528	197314
589.576	291893
589.582	283726
589.635	141989
589.647	115338
589.689	65336
589.718	39664
589.742	36952
589.790	33027
589.795	32877
589.849	31669
589.861	31496
589.902	31142
589.932	30924
589.955	30674
590.004	30240
590.009	30170
590.062	29525
590.075	29339
590.115	29157
590.146	29109
590.168	28994
590.218	29030
590.222	29133
590.275	30385
590.289	30717
590.328	30823
590.360	30755
590.381	30970
590.431	31741
590.435	31745
590.488	31592
590.503	31646
590.541	31683
590.574	31685
590.594	32135
590.645	33308
590.647	33349
590.700	34326
590.716	34732
590.753	35790
590.787	36680
590.806	37227
590.859	39049
590.859	39046
590.912	38365
590.930	38201
590.965	38433
591.001	38615
591.018	38438
591.071	37756
591.072	37752
591.124	36769
591.143	36404
591.177	36841
591.214	37465
591.230	37757
591.283	38781
591.285	38809
591.336	37547
591.356	37191
591.389	37562
591.427	37744
591.442	37695
591.495	37786
591.498	37788
591.547	37997
591.569	38169
591.600	38690
591.640	39190
591.653	39198
591.706	39395
591.711	39415
591.759	40218
591.782	40690
591.811	41447
591.853	42479
591.864	42603
591.917	43228
591.924	43318
591.969	42976
591.995	42783
592.022	43649
592.066	45141
592.075	45152
592.127	45178
592.137	45181
592.180	45974
592.208	46513
592.233	46884
592.279	47593
592.285	47760
592.338	49224
592.350	49554
592.390	49199
592.421	48930
592.443	49332
592.491	50283
592.495	50335
592.548	51107
592.562	51329
592.600	50922
592.633	50585
592.653	50394
592.704	49663
592.705	49995
592.775	52563
592.846	54322
592.916	54207
592.987	55115
593.058	55088
593.128	55912
593.199	56375
593.270	57340
593.341	58700
593.411	61374
593.482	62549
593.553	65840
593.623	65513
593.694	66576
593.764	68422
593.835	66498
593.906	67828
593.976	68718
594.047	70563
594.117	74665
594.188	75346
594.258	75122
594.329	76511
594.399	78172
594.470	80795
594.540	83271
594.611	86131
594.681	84244
594.751	84659
594.822	88191
594.892	90331
594.963	94608
595.033	96644
595.103	98955
595.174	101036
595.244	102484
595.314	107373
595.384	109146
595.455	111595
595.525	114961
595.595	120398
595.665	118834
595.736	116015
595.806	119762
595.876	121095
595.946	122043
596.016	128150
596.087	131179
596.157	130892
596.227	132044
596.297	141009
596.367	148811
596.437	157150
596.507	156534
596.577	154912
596.647	160857
596.717	168769
596.787	173419
596.857	170739
596.927	173347
596.997	175386
597.067	175231
597.137	178653
597.207	180804
597.277	180301
597.347	172609
597.417	169500
597.487	169135
597.557	172707
597.626	175737
597.696	179500
597.766	177525
597.836	166531
597.906	157566
597.975	154535
598.045	159556
598.115	166136
598.185	179572
598.254	202124
598.324	216816
598.394	220297
598.464	211205
598.533	208614
598.603	195629
598.672	189423
598.742	192529
598.812	193627
598.881	198655
598.951	198507
599.020	201277
599.090	209819
599.159	211748
599.229	200522
599.299	199025
599.368	206489
599.437	201325
599.507	183057
599.576	177810
599.646	174905
599.715	173106
599.785	170701
599.854	166277
599.924	162020
599.993	162078
600.062	165705
600.132	169959
600.201	181817
600.270	210470
600.340	223221
600.409	218205
600.478	215601
600.547	223511
600.617	196261
600.686	155444
600.755	141982
600.824	133885
600.894	130422
600.963	130708
601.032	129805
601.101	123196
601.170	117477
601.239	113444
601.308	112996
601.378	113093
601.447	114277
601.516	113272
601.585	114873
601.654	117304
601.723	116304
601.792	121564
601.861	125375
601.930	129215
601.999	129614
602.068	127173
602.137	130801
602.206	132882
602.275	135176
602.343	136129
602.412	137291
602.481	138975
602.550	141903
602.619	145347
602.688	146260
602.756	148292
602.825	148483
602.894	155107
602.963	158146
603.032	160397
603.100	160517
603.169	158976
603.238	161941
603.307	163938
603.375	165192
603.444	168192
603.513	171433
603.581	174233
603.650	177751
603.719	173665
603.787	180238
603.856	186049
603.924	190874
603.993	196272
604.061	205619
604.130	214953
604.198	219640
604.267	222336
604.335	225681
604.404	229532
604.472	233637
604.541	234777
604.609	235865
604.678	236065
604.746	238345
604.815	246450
604.883	248149
604.951	250088
605.020	255868
605.088	258810
605.156	266932
605.225	271869
605.293	270866
605.361	271765
605.429	273210
605.498	280875
605.566	289759
605.634	302474
605.702	312403
605.771	320650
605.839	320703
605.907	316297
605.975	303148
606.043	300169
606.111	299728
606.180	297707
606.248	294421
606.316	290764
606.384	291393
606.452	295118
606.520	304279
606.588	316896
606.656	318421
606.724	311416
606.792	292127
606.860	262428
606.928	241670
606.996	233092
607.064	230591
607.132	236285
607.200	251715
607.267	257276
607.335	261728
607.403	269541
607.471	256345
607.539	251427
607.607	250846
607.674	222766
607.742	221175
607.810	218799
607.878	221059
607.946	225136
608.013	236478
608.081	241452
608.149	243100
608.216	253078
608.284	261144
608.352	260218
608.419	255679
608.487	249830
608.555	247274
608.622	255566
608.690	274104
608.757	302450
608.825	305596
608.893	295863
608.960	279396
609.028	266078
609.095	268172
609.163	267072
609.230	235609
609.298	217494
609.365	232776
609.432	251398
609.500	271800
609.567	312350
609.635	355385
609.702	368221
609.769	350365
609.837	268683
609.904	236786
609.971	245305
610.039	267061
610.106	332820
610.173	563831
610.241	1057585
610.308	642943
610.375	307598
610.442	262307
610.509	248535
610.577	248674
610.644	252875
610.711	260622
610.778	266907
610.845	279057
610.912	295356
610.980	305153
611.047	304857
611.114	301342
611.181	291884
611.248	289842
611.315	308189
611.382	314012
611.449	326533
611.516	327573
611.583	323767
611.650	327147
611.717	329997
611.784	337862
611.851	348588
611.918	365085
611.984	413749
612.051	528207
612.118	856167
612.185	1497798
612.252	1099116
612.319	524495
612.386	434925
612.452	396267
612.519	373681
612.586	363905
612.653	373944
612.719	383908
612.786	367314
612.853	340809
612.919	337218
612.986	339513
613.053	321204
613.120	301359
613.186	291967
613.253	294208
613.319	294290
613.386	296843
613.453	300012
613.519	301316
613.586	296933
613.652	299882
613.719	296372
613.785	303231
613.852	306084
613.918	301072
613.985	306927
614.051	317423
614.118	311960
614.184	299284
614.250	303934
614.317	309452
614.383	305711
614.449	312142
614.516	309074
614.582	311236
614.648	302783
614.715	304419
614.781	295104
614.847	295811
614.914	291225
614.980	285547
615.046	289477
615.112	297535
615.179	299171
615.245	304079
615.311	295595
615.377	302537
615.443	304709
615.509	309090
615.575	317521
615.642	314826
615.708	322212
615.774	335273
615.840	352322
615.906	368053
615.972	429007
616.038	579932
616.104	996506
616.170	1630276
616.236	1407309
616.302	702621
616.368	552339
616.434	419906
616.500	384239
616.565	421639
616.631	510015
616.697	435817
616.763	439965
616.829	630737
616.895	1012573
616.961	938536
617.026	489185
617.092	353046
617.158	328213
617.224	314385
617.289	289505
617.355	274892
617.421	271871
617.487	270697
617.552	258198
617.618	255294
617.684	256190
617.749	258720
617.815	243490
617.880	241932
617.946	241199
618.012	248981
618.077	250198
618.143	239505
618.208	241245
618.274	261579
618.339	256945
618.405	214250
618.470	215905
618.536	215642
618.601	212002
618.667	194243
618.732	186032
618.798	183430
618.863	184537
618.928	182405
618.994	187165
619.059	183066
619.124	183358
619.190	182083
619.255	180855
619.320	181469
619.386	182838
619.451	179350
619.516	174445
619.581	178567
619.647	183783
619.712	184406
619.777	175227
619.842	178584
619.907	178909
619.972	182284
620.038	181203
620.103	175741
620.168	176875
620.233	178869
620.298	179127
620.363	182954
620.428	189090
620.493	194560
620.558	195328
620.623	198541
620.688	196042
620.753	196774
620.818	198662
620.883	199300
620.948	199929
621.013	195054
621.078	191540
621.143	194112
621.207	196753
621.272	191844
621.337	186044
621.402	185420
621.467	182258
621.532	183483
621.596	184138
621.661	178435
621.726	177353
621.791	179472
621.855	177874
621.920	177048
621.985	180969
622.049	183934
622.114	184145
622.179	186155
622.243	190522
622.308	198065
622.373	206344
622.437	198755
622.502	188861
622.566	187800
622.631	184158
622.695	190347
622.760	189017
622.824	190788
622.889	189533
622.953	189472
623.018	202125
623.082	203348
623.147	202841
623.211	196405
623.276	195486
623.340	186684
623.404	184250
623.469	182531
623.533	186874
623.597	181131
623.662	179599
623.726	166085
623.790	155012
623.854	150998
623.919	157065
623.983	159635
624.047	160814
624.111	162115
624.176	165350
624.240	166073
624.304	171325
624.368	164640
624.432	166540
624.496	170110
624.560	179528
624.625	179263
624.689	179267
624.753	189126
624.817	177556
624.881	173860
624.945	156217
625.009	151380
625.073	154737
625.137	162734
625.201	168130
625.265	167540
625.329	162199
625.393	163266
625.456	165625
625.520	170219
625.584	172266
625.648	177016
625.712	179625
625.776	181131
625.839	167950
625.903	141802
625.967	133187
626.031	145832
626.095	172792
626.158	156089
626.222	122276
626.286	118072
626.349	110182
626.413	101535
626.477	102572
626.540	104910
626.604	103265
626.668	102694
626.731	100450
626.795	102215
626.858	100654
626.922	100663
626.986	97885
627.049	99110
627.113	104653
627.176	100330
627.240	96349
627.303	98130
627.366	97501
627.430	98761
627.493	96975
627.557	93447
627.620	96491
627.684	101901
627.747	102854
627.810	92054
627.874	84491
627.937	79985
628.000	85229
628.064	81713
628.127	71289
628.190	71143
628.253	68697
628.317	66448
628.380	63575
628.443	61255
628.506	62255
628.569	59282
628.632	56502
628.696	57098
628.759	55352
628.822	53367
628.885	53042
628.948	50939
629.011	50999
629.074	48917
629.137	46756
629.200	46184
629.263	46745
629.326	46392
629.389	46352
629.452	45235
629.515	43653
629.578	44017
629.641	45729
629.704	45432
629.767	44869
629.830	43201
629.892	42064
629.955	41880
630.018	44312
630.081	41622
630.144	43041
630.207	40876
630.269	42501
630.332	40308
630.395	41623
630.458	39118
630.520	37260
630.583	38814
630.646	39431
630.708	38827
630.771	40769
630.834	43599
630.896	41450
630.959	41984
631.021	40155
631.084	40696
631.146	41027
631.209	41569
631.272	41015
631.334	43040
631.397	42646
631.459	41773
631.522	45452
631.584	47495
631.646	50266
631.709	52174
631.771	51552
631.834	48838
631.896	47759
631.958	43048
632.021	43486
632.083	39728
632.145	40094
632.208	39379
632.270	39548
632.332	39280
632.395	37585
632.457	40463
632.519	37886
632.581	39547
632.643	37728
632.706	38904
632.768	35178
632.830	38893
632.892	39931
632.954	39184
633.016	39576
633.078	38569
633.141	39760
633.203	37707
633.265	38828
633.327	39117
633.389	38355
633.451	40318
633.513	39611
633.575	40934
633.637	38185
633.698	41417
633.760	43317
633.822	44724
633.884	46381
633.946	46899
634.008	47470
634.070	51115
634.132	53050
634.193	56652
634.255	63744
634.317	64659
634.379	63152
634.441	55451
634.502	50837
634.564	47140
634.626	43328
634.687	41176
634.749	39953
634.811	40223
634.873	38619
634.934	38668
634.996	38936
635.057	38391
635.119	38390
635.181	39990
635.242	40875
635.304	38957
635.365	43537
635.427	39121
635.488	39662
635.550	38621
635.611	40360
635.673	39476
635.734	44125
635.796	45126
635.857	51715
635.918	53951
635.980	60296
636.041	62786
636.102	68890
636.164	68362
636.225	64240
636.286	55426
636.348	49794
636.409	44895
636.470	42891
636.531	42481
636.593	37501
636.654	37538
636.715	35976
636.776	35593
636.838	34330
636.899	33185
636.960	32916
637.021	32669
637.082	31925
637.143	32927
637.204	30574
637.265	30575
637.326	30739
637.387	32364
637.448	30742
637.509	31121
637.570	31209
637.631	33109
637.692	29071
637.753	26792
637.814	28006
637.875	29186
637.936	28785
637.997	28696
638.058	27664
638.119	29043
638.179	28357
638.240	28122
638.301	28366
638.362	27046
638.423	25921
638.483	26956
638.544	24690
638.605	27349
638.666	25635
638.726	26587
638.787	27180
638.848	26741
638.908	26394
638.969	26060
639.030	23069
639.090	23006
639.151	23920
639.211	25874
639.272	25496
639.332	26025
639.393	26997
639.453	28497
639.514	29492
639.574	26697
639.635	24544
639.695	24686
639.756	22910
639.816	23069
639.877	23049
639.937	23973
639.997	24098
640.058	22368
640.118	22376
640.178	24305
640.239	23048
640.299	22531
640.359	24369
640.420	26179
640.480	29749
640.540	34136
640.600	33607
640.661	30158
640.721	27436
640.781	28644
640.841	22980
640.901	24307
640.961	24338
641.021	26007
641.082	26816
641.142	24450
641.202	23422
641.262	20208
641.322	22804
641.382	20432
641.442	21808
641.502	21776
641.562	22439
641.622	24024
641.682	25803
641.742	29864
641.802	26363
641.861	23520
641.921	21721
641.981	20984
642.041	19683
642.101	19714
642.161	18697
642.221	19746
642.280	19995
642.340	20666
642.400	18882
642.460	21527
642.519	20540
642.579	20625
642.639	22679
642.698	19837
642.758	23913
642.818	21795
642.877	20328
642.937	21989
642.997	21958
643.056	21488
643.116	19482
643.175	23730
643.235	22676
643.294	23708
643.354	25044
643.414	26958
643.473	31030
643.532	35992
643.592	48718
643.651	72788
643.711	124355
643.770	238023
643.830	543849
643.889	843144
643.948	264451
644.008	73916
644.067	45095
644.126	33637
644.186	28806
644.245	25611
644.304	23440
644.363	25585
644.423	20794
644.482	23047
644.541	23887
644.600	23779
644.659	32599
644.719	39149
644.778	58985
644.837	103101
644.896	213815
644.955	422085
645.014	127078
645.073	38086
645.132	28652
645.191	26490
645.250	25499
645.309	27346
645.368	30390
645.427	42495
645.486	77569
645.545	119097
645.604	33318
645.663	23992
645.722	22548
645.781	23608
645.840	26381
645.898	32392
645.957	45391
646.016	67017
646.075	118819
646.134	226623
646.192	559237
646.251	643087
646.310	143674
646.369	54020
646.427	44136
646.486	30371
646.545	26124
646.603	22715
646.662	20289
646.721	21169
646.779	20376
646.838	21044
646.896	27740
646.955	38440
647.014	62542
647.072	123685
647.131	312754
647.189	125365
647.248	25708
647.306	20705
647.365	18960
647.423	15311
647.481	17679
647.540	14679
647.598	15690
647.657	15578
647.715	15542
647.773	13366
647.832	14373
647.890	12696
647.948	12607
648.007	14144
648.065	11732
648.123	12416
648.181	13354
648.240	12755
648.298	11327
648.356	12460
648.414	12821
648.472	11786
648.531	11832
648.589	11636
648.647	11798
648.705	12414
648.763	11835
648.821	12592
648.879	12398
648.937	15190
648.995	16830
649.053	22309
649.111	33950
649.169	55207
649.227	102168
649.285	218438
649.343	523637
649.401	219830
649.459	40419
649.516	24854
649.574	18032
649.632	19357
649.690	20547
649.748	27638
649.806	43211
649.863	85598
649.921	236595
649.979	126421
650.037	20660
650.094	12993
650.152	12473
650.210	9870
650.268	10465
650.325	9344
650.383	8305
650.440	8286
650.498	8180
650.556	9235
650.613	8695
650.671	8889
650.728	8308
650.786	10020
650.843	15707
650.901	9951
650.958	8536
651.016	7415
651.073	7463
651.131	6970
651.188	6182
651.246	6649
651.303	6675
651.360	7243
651.418	6783
651.475	7047
651.532	6421
651.590	7166
651.647	5694
651.704	6344
651.762	6535
651.819	7131
651.876	6358
651.933	5792
651.990	6412
652.048	5046
652.105	6147
652.162	6318
652.219	5717
652.276	6135
652.333	6013
652.390	5457
652.448	5856
652.505	6017
652.562	5466
652.619	4996
652.676	5733
652.733	6419
652.790	5303
652.847	4504
652.904	5262
652.961	4052
653.017	4702
653.074	5716
653.131	5093
653.188	4602
653.245	5220
653.302	5497
653.359	4764
653.415	5313
653.472	4346
653.529	6007
653.586	3852
653.642	4529
653.699	6010
653.756	4485
653.813	4590
653.869	5339
653.926	5253
653.983	5650
654.039	5102
654.096	4756
654.152	5540
654.209	3258
654.266	5297
654.322	3821
654.379	4960
654.435	5125
654.492	3613
654.548	4003
654.605	4313
654.661	5470
654.717	4260
654.774	4172
654.830	4424
654.887	4712
654.943	4496
655.000	4538
655.056	5714
655.112	5224
655.168	4373
655.225	5349
655.281	4838
655.337	4960
655.394	3857
655.450	3963
655.506	4106
655.562	4240
655.618	4829
655.675	3909
655.731	4591
655.787	3506
655.843	5101
655.899	3472
655.955	4962
656.011	4744
656.067	3931
656.123	5631
656.179	4097
656.235	6135
656.291	2635
656.347	5893
656.403	4670
656.459	5170
656.515	5095
656.571	4058
656.627	4483
656.683	3976
656.739	4079
656.795	4244
656.850	4365
656.906	4314
656.962	5410
657.018	4402
657.074	6547
657.129	9910
657.185	16269
657.241	38202
657.297	16308
657.352	4924
657.408	4034
657.464	4967
657.519	3459
657.575	3207
657.630	3312
657.686	3884
657.742	2505
657.797	3113
657.853	3370
657.908	4662
657.964	3012
658.019	3358
658.075	3716
658.130	3582
658.186	2893
658.241	3728
658.297	2298
658.352	3319
658.407	3484
658.463	2502
658.518	3071
658.573	4494
658.629	2701
658.684	3482
658.739	3076
658.795	2518
658.850	3840
658.905	2378
658.960	2811
659.016	3172
659.071	3207
659.126	2840
659.181	2406
659.236	4067
659.291	3843
659.346	2433
659.401	3530
659.457	3757
659.512	2387
659.567	4125
659.622	3527
659.677	2627
659.732	1583
659.787	2883
659.842	1624
659.897	3124
659.952	3387
660.007	2502
660.061	2827
660.116	2145
660.171	1944
660.226	3767
660.281	3318
660.336	2358
660.391	3193
660.445	2493
660.500	2412
660.555	2372
660.610	2468
660.664	3609
660.719	1701
660.774	2806
660.828	3671
660.883	1929
660.938	3031
660.992	1749
661.047	2622
661.101	2258
661.156	2161
661.211	2189
661.265	2408
661.320	2185
661.374	1985
661.429	1841
661.483	1910
661.538	2121
661.592	2651
661.647	2452
661.701	2767
661.755	2284
661.810	2794
661.864	2748
661.919	1728
661.973	3047
662.027	2153
662.081	2183
662.136	2232
662.190	2579
662.244	2404
662.299	2668
662.353	2629
662.407	2104
662.461	2333
662.515	1999
662.569	2101
662.624	3408
662.678	1476
662.732	2533
662.786	1385
662.840	2185
662.894	2529
662.948	2656
663.002	2045
663.056	1972
663.110	1975
663.164	1970
663.218	2434
663.272	2490
663.326	2034
663.380	2645
663.434	2706
663.488	1801
663.542	2461
663.595	2743
663.649	2380
663.703	2551
663.757	2666
663.811	2120
663.864	2200
663.918	2779
663.972	1466
664.026	2210
664.079	1569
664.133	2888
664.187	2051
664.240	2472
664.294	1978
664.348	2366
664.401	2195
664.455	2100
664.508	1779
664.562	2582
664.615	2847
664.669	2288
664.722	2125
664.776	2994
664.829	2468
664.883	1773
664.936	1414
664.990	2355
665.043	3046
665.097	2060
665.150	3109
665.203	2823
665.257	2837
665.310	3291
665.363	2822
665.417	2920
665.470	2111
665.523	3098
665.576	2884
665.630	2021
665.683	2846
665.736	3128
665.789	2750
665.842	2698
665.895	1842
665.949	2950
666.002	2379
666.055	3077
666.108	3735
666.161	3618
666.214	3302
666.267	3191
666.320	3391
666.373	2802
666.426	3582
666.479	2845
666.532	3120
666.585	3358
666.638	3565
666.691	2327
666.744	3531
666.796	3003
666.849	2409
666.902	2759
666.955	2882
667.008	2467
667.060	2355
667.113	2531
667.166	3026
667.219	3246
667.271	4644
667.324	3222
667.377	2040
667.430	2959
667.482	3030
667.535	3299
667.587	3680
667.640	2519
667.693	2243
667.745	3269
667.798	3173
667.850	3480
667.903	3008
667.955	3227
668.008	2821
668.060	3007
668.113	2002
668.165	2731
668.218	3347
668.270	3758
668.322	2702
668.375	2670
668.427	3590
668.479	2821
668.532	3025
668.584	2878
668.636	2175
668.689	2664
668.741	2412
668.793	2894
668.845	2399
668.898	2940
668.950	1863
669.002	3240
669.054	2844
669.106	2305
669.158	2154
669.211	2432
669.263	2522
669.315	2861
669.367	2907
669.419	2407
669.471	3126
669.523	2522
669.575	3833
669.627	2866
669.679	1774
669.731	2113
669.783	2747
669.835	2568
669.886	2165
669.938	2178
669.990	2614
670.042	1811
670.094	2184
670.146	2744
670.197	3191
670.249	2631
670.301	2631
670.353	3091
670.404	3030
670.456	3094
670.508	4192
670.560	6066
670.611	8156
670.663	12398
670.715	30855
670.766	41073
670.818	9453
670.869	4289
670.921	3826
670.972	4447
671.024	2827
671.075	3156
671.127	3251
671.178	3585
671.230	3815
671.281	3857
671.333	4617
671.384	6284
671.436	9498
671.487	13739
671.538	20064
671.590	32466
671.641	54814
671.692	102813
671.744	182017
671.795	121289
671.846	44770
671.897	21388
671.949	13326
672.000	9155
672.051	6912
672.102	5485
672.153	4751
672.204	3799
672.256	4613
672.307	3845
672.358	2838
672.409	2451
672.460	2563
672.511	2106
672.562	2626
672.613	1393
672.664	1743
672.715	3079
672.766	2282
672.817	1508
672.868	1708
672.919	1578
672.970	2084
673.021	2238
673.071	1728
673.122	1778
673.173	1377
673.224	1474
673.275	2053
673.326	1966
673.376	2197
673.427	1603
673.478	1516
673.528	2013
673.579	2251
673.630	1995
673.680	2248
673.731	1525
673.782	1742
673.832	1428
673.883	2266
673.934	1120
673.984	1190
674.035	2095
674.085	1505
674.136	2037
674.186	1795
674.237	1783
674.287	1546
674.338	2271
674.388	1820
674.438	2618
674.489	2422
674.539	2107
674.589	2447
674.640	2931
674.690	2269
674.740	1902
674.791	2054
674.841	1523
674.891	1706
674.942	1627
674.992	1380
675.042	689
675.092	1143
675.142	1014
675.193	1720
675.243	1004
675.293	2023
675.343	1591
675.393	948
675.443	1729
675.493	2000
675.543	1279
675.593	1302
675.643	1564
675.693	1444
675.743	2296
675.793	1031
675.843	790
675.893	1204
675.943	1269
675.993	1679
676.043	1540
676.093	866
676.142	1254
676.192	767
676.242	947
676.292	322
676.341	728
676.391	1294
676.441	-272
676.491	575
676.540	743
676.590	266
676.640	906
676.689	1600
676.739	-159
676.789	648
676.838	507
676.888	990
676.937	259
676.987	1057
677.037	345
677.086	-164
677.136	439
677.185	668
677.235	452
677.284	480
677.333	1024
677.383	725
677.432	674
677.482	-108
677.531	205
677.580	792
677.630	-136
677.679	101
677.728	674
677.778	1134
677.827	606
677.876	629
677.925	790
677.975	1076
678.024	1214
678.073	1507
678.122	1072
678.171	458
678.220	1239
678.269	1924
678.319	1993
678.368	2414
678.417	1491
678.466	580
678.515	1621
678.564	689
678.613	595
678.662	363
678.711	285
678.760	229
678.809	855
678.857	437
678.906	1160
678.955	522
679.004	761
679.053	771
679.102	-226
679.151	876
679.199	163
679.248	139
679.297	487
679.346	-101
679.394	-494
679.443	326
679.492	-216
679.540	-34
679.589	386
679.638	41
679.686	1136
679.735	1679
679.784	2019
679.832	1381
679.881	633
679.929	233
679.978	880
680.026	410
680.075	1127
680.123	128
680.172	-379
680.220	634
680.268	-423
680.317	-240
680.365	-276
680.414	51
680.462	-384
680.510	1198
680.559	282
680.607	515
680.655	237
680.703	622
680.752	309
680.800	442
680.848	-87
680.896	-316
680.945	-547
680.993	-725
681.041	-530
681.089	-886
681.137	869
681.185	-481
681.233	102
681.258	318
681.281	501
681.329	329
681.377	-356
681.380	-288
681.425	541
681.473	744
681.502	580
681.521	422
681.569	1003
681.617	660
681.624	691
681.665	721
681.713	1189
681.745	766
681.761	534
681.809	776
681.857	1076
681.867	1291
681.904	1936
681.952	887
681.989	791
682.000	733
682.048	739
682.096	1070
682.111	1152
682.143	1258
682.191	1051
682.233	1215
682.239	1215
682.286	2065
682.334	565
682.354	1081
682.382	1742
682.430	1703
682.476	1194
682.477	1162
682.525	731
682.572	1234
682.598	1213
682.620	1199
682.667	1858
682.715	1782
682.720	1818
682.763	1853
682.810	961
682.841	1322
682.857	1492
682.905	1130
682.952	2212
682.963	2005
683.000	1177
683.047	2042
683.085	2331
683.095	2397
683.142	1848
683.190	2375
683.206	2130
683.237	1618
683.284	2035
683.328	1586
683.332	1533
683.379	1133
683.426	2333
683.449	2248
683.473	2138
683.521	2250
683.568	1766
683.571	1815
683.615	2192
683.662	2387
683.693	2100
683.709	1902
683.757	2510
683.804	2745
683.814	2445
683.851	1380
683.898	2050
683.936	1945
683.945	1904
683.992	2388
684.039	2685
684.057	2619
684.086	2486
684.133	2440
684.179	2310
684.180	2292
684.227	2983
684.274	3019
684.300	2709
684.321	2428
684.368	2488
684.415	2948
684.422	2948
684.462	2942
684.509	2980
684.543	3024
684.556	3008
684.603	2903
684.649	3166
684.665	3118
684.696	3014
684.743	3046
684.786	3726
684.790	3766
684.837	3345
684.883	2905
684.908	3143
684.930	3368
684.977	3634
685.023	4074
685.029	4014
685.070	3432
685.117	3387
685.150	3447
685.164	3451
685.210	4032
685.257	3618
685.272	3722
685.303	4013
685.350	3653
685.393	4127
685.396	4142
685.443	3433
685.490	3591
685.514	3345
685.536	3148
685.583	4314
685.629	3565
685.636	3646
685.675	4040
685.722	3368
685.757	3841
685.768	4016
685.815	3146
685.861	4473
685.878	4221
685.908	3812
685.954	4224
686.000	4354
686.000	4348
686.047	4094
686.093	4585
686.121	4610
686.139	4643
686.185	4604
686.232	4283
686.242	4293
686.278	4244
686.324	4404
686.363	4731
686.370	4785
686.416	4204
686.463	5086
686.484	4924
686.509	4778
686.555	3974
686.601	4606
686.606	4625
686.647	4705
686.693	4400
686.727	4594
686.739	4703
686.785	4675
686.831	5013
686.848	5111
686.877	5082
686.923	5040
686.969	4770
686.969	4770
687.015	4999
687.061	5427
687.090	5655
687.107	5585
687.153	6017
687.199	5478
687.211	5275
687.245	4871
687.291	5078
687.332	5165
687.336	5192
687.382	5335
687.428	5511
687.453	5839
687.474	6040
687.520	5270
687.565	5700
687.574	5767
687.611	6114
687.657	5755
687.695	6124
687.702	6190
687.748	6381
687.794	6493
687.816	6339
687.839	6095
687.885	6431
687.931	6138
687.937	6058
687.976	5687
688.022	6281
688.058	6105
688.067	6059
688.113	6059
688.158	5932
688.179	5937
688.204	6060
688.249	6215
688.295	6720
688.300	6731
688.340	6648
688.386	6517
688.421	6454
688.431	6498
688.477	6469
688.522	7018
688.542	7206
688.567	7447
688.613	7299
688.658	7179
688.663	7202
688.703	7298
688.749	7423
688.784	7501
688.794	7508
688.839	7165
688.884	7366
688.905	7275
688.930	7137
688.975	7360
689.020	7027
689.026	6950
689.065	6747
689.110	7242
689.146	7352
689.155	7347
689.201	6965
689.246	7216
689.267	6989
689.291	6868
689.336	7610
689.381	7057
689.388	7088
689.426	7192
689.471	7006
689.509	7544
689.516	7665
689.561	7408
689.606	7422
689.630	7212
689.651	7001
689.696	7036
689.741	7277
689.750	7334
689.785	7605
689.830	7209
689.871	7496
689.875	7533
689.920	7602
689.965	7562
689.992	7213
690.010	7040
690.054	7285
690.099	7223
690.112	7173
690.144	7006
690.189	7366
690.233	6987
690.233	6997
690.278	7243
690.323	7585
690.354	7629
690.367	7652
690.412	7902
690.457	7652
690.474	7772
690.501	7757
690.546	7786
690.590	7158
690.595	7071
690.635	7031
690.680	7814
690.716	7796
690.724	7722
690.769	7709
690.813	7540
690.836	7635
690.857	8038
690.902	8838
690.946	9068
690.957	9101
690.991	9191
691.035	9873
691.077	10354
691.080	10358
691.124	10089
691.168	9312
691.198	9098
691.213	9044
691.257	8490
691.301	8515
691.318	8469
691.346	8513
691.390	8078
691.434	7886
691.439	7837
691.478	8109
691.522	8946
691.559	8931
691.567	8883
691.611	9422
691.655	9256
691.680	9082
691.699	8866
691.743	8723
691.787	8417
691.800	8317
691.831	8353
691.875	8391
691.919	8699
691.921	8677
691.964	8573
692.008	8781
692.041	8904
692.052	8945
692.096	8659
692.139	8506
692.162	8661
692.183	8779
692.227	8754
692.271	8530
692.282	8496
692.315	8535
692.359	8554
692.402	8427
692.403	8447
692.447	8651
692.490	8394
692.523	8751
692.534	8875
692.578	9116
692.622	8880
692.643	8974
692.666	9105
692.709	9396
692.753	9063
692.763	9125
692.797	9237
692.840	9030
692.884	8834
692.884	8854
692.928	8782
692.971	9101
693.004	8808
693.015	8727
693.059	8611
693.102	8880
693.124	8856
693.146	9002
693.189	9040
693.233	9441
693.245	9411
693.276	9093
693.320	9178
693.363	8682
693.365	8668
693.407	9034
693.450	8695
693.485	8580
693.493	8694
693.537	9251
693.580	9519
693.605	9898
693.624	10084
693.667	10422
693.710	10757
693.725	10800
693.753	11756
693.797	13027
693.840	14734
693.845	14848
693.883	13688
693.926	12602
693.966	11689
693.970	11674
694.013	10961
694.056	10527
694.086	10117
694.099	10075
694.142	9576
694.185	9497
694.206	9337
694.229	9528
694.272	9800
694.315	10209
694.326	10308
694.358	10397
694.401	10359
694.444	10289
694.446	10254
694.487	10176
694.530	10335
694.566	10228
694.573	10245
694.616	10385
694.659	10472
694.686	10423
694.702	10481
694.745	10885
694.787	10902
694.806	10980
694.830	10845
694.873	10466
694.916	10051
694.926	9939
694.959	10160
695.002	10442
695.044	10731
695.046	10716
695.087	11108
695.130	11380
695.166	11604
695.172	11615
695.215	11412
695.258	11282
695.286	11279
695.301	11524
695.343	12086
695.386	12440
695.406	12674
695.428	13204
695.471	14143
695.514	15037
695.526	15303
695.556	16203
695.599	17361
695.641	18244
695.646	18323
695.684	17456
695.726	16380
695.766	15274
695.769	15277
695.811	14853
695.854	14254
695.886	13925
695.896	14135
695.938	14852
695.981	15462
696.005	15724
696.023	16081
696.065	17072
696.108	17828
696.125	18123
696.150	18197
696.192	18341
696.235	18438
696.245	18419
696.277	18697
696.319	19181
696.361	19237
696.365	19213
696.404	19060
696.446	18780
696.485	18595
696.488	18643
696.530	18521
696.572	18355
696.604	18251
696.614	18278
696.656	18243
696.698	18121
696.724	17991
696.740	18305
696.783	19063
696.825	19903
696.844	20118
696.867	19838
696.909	19412
696.951	18880
696.964	18714
696.992	19094
697.034	19365
697.076	19709
697.083	19749
697.118	20471
697.160	21115
697.202	21642
697.203	21602
697.244	21088
697.286	20498
697.323	19936
697.327	20035
697.369	20412
697.411	20813
697.442	21032
697.453	20997
697.494	20625
697.536	20255
697.562	20021
697.578	20229
697.620	20557
697.661	20940
697.682	21042
697.703	21307
697.744	21761
697.786	22283
697.801	22381
697.828	22560
697.869	22708
697.911	22934
697.921	22928
697.952	22697
697.994	22319
698.035	21885
698.040	21779
698.077	21814
698.118	21772
698.160	21718
698.160	21659
698.201	22743
698.243	23765
698.279	24698
698.284	24819
698.325	25263
698.367	25722
698.399	26003
698.408	26076
698.449	26102
698.491	26140
698.518	26069
698.532	26158
698.573	26269
698.614	26331
698.638	26318
698.656	26314
698.697	26111
698.738	25930
698.757	25786
698.779	25902
698.820	25953
698.862	26029
698.877	25986
698.903	26211
698.944	26467
698.985	26720
698.996	26721
699.026	26592
699.067	26316
699.116	25919
699.235	26093
699.354	26000
699.474	23198
699.593	24125
699.713	24442
699.832	24947
699.951	26278
700.070	24934
700.190	23647
700.309	22846
700.428	22621
700.547	21581
700.667	20955
700.786	22329
700.905	21534
701.024	21773
701.143	20613
701.262	23341
701.381	23083
701.500	23107
701.619	21119
701.738	22736
701.857	22422
701.976	20415
702.095	22847
702.214	22807
702.333	21620
702.452	22454
702.571	22593
702.690	22049
702.809	21844
702.928	21251
703.047	19699
703.165	21405
703.284	19933
703.403	20049
703.522	20235
703.640	18773
703.759	19562
703.878	18466
703.997	18708
704.115	19609
704.234	19012
704.353	18966
704.471	17129
704.590	17597
704.708	17607
704.827	17326
704.946	17203
705.064	18344
705.183	16976
705.301	17582
705.420	17040
705.538	16379
705.656	15234
705.775	15702
705.893	15938
706.012	16703
706.130	15648
706.249	17539
706.367	15429
706.485	16358
706.604	15101
706.722	14560
706.840	16100
706.958	16045
707.077	15106
707.195	15342
707.313	15397
707.431	14316
707.549	14214
707.668	12774
707.786	15452
707.904	13758
708.022	15458
708.140	13380
708.258	13676
708.376	15073
708.494	13801
708.612	14924
708.730	15494
708.848	14062
708.966	14304
709.084	14739
709.202	13840
709.320	12940
709.438	13972
709.556	13733
709.674	12668
709.791	13995
709.909	12048
710.027	12417
710.145	12712
710.263	12916
710.380	12836
710.498	11419
710.616	12028
710.733	10755
710.851	12372
710.969	12088
711.086	12093
711.204	12545
711.322	12177
711.439	11058
711.557	11146
711.674	11608
711.792	10336
711.909	10663
712.027	10439
712.144	10914
712.262	11826
712.379	11454
712.497	10549
712.614	11056
712.732	11535
712.849	10667
712.966	11211
713.084	11754
713.201	9704
713.318	11178
713.436	11467
713.553	11209
713.670	12506
713.787	12356
713.905	10843
714.022	12710
714.139	13303
714.256	16100
714.373	25960
714.490	49760
714.608	147641
714.725	576383
714.842	411827
714.959	40214
715.076	19009
715.193	15493
715.310	13639
715.427	10737
715.544	11553
715.661	11366
715.778	9395
715.895	10322
716.011	10153
716.128	10354
716.245	10590
716.362	10668
716.479	8176
716.596	9163
716.713	8811
716.829	8616
716.946	8244
717.063	8280
717.180	7891
717.296	8696
717.413	8857
717.530	8382
717.646	8180
717.763	8245
717.880	8045
717.996	7761
718.113	7984
718.229	7638
718.346	6928
718.462	7240
718.579	8449
718.695	7880
718.812	8184
718.928	8302
719.045	7264
719.161	7760
719.277	8365
719.394	9191
719.510	9203
719.626	9638
719.743	12623
719.859	21405
719.975	51025
720.092	220614
720.208	372804
720.324	36391
720.440	12113
720.557	10210
720.673	9573
720.789	7754
720.905	8151
721.021	7765
721.137	6671
721.253	6849
721.369	6950
721.486	7052
721.602	5988
721.718	7345
721.834	6675
721.950	6998
722.066	6463
722.181	7118
722.297	6920
722.413	7211
722.529	6913
722.645	6092
722.761	7555
722.877	7335
722.993	8611
723.108	10281
723.224	7580
723.340	6446
723.456	6193
723.571	6295
723.687	5423
723.803	6117
723.918	5557
724.034	5832
724.150	6373
724.265	5750
724.381	5869
724.497	4761
724.612	6218
724.728	5776
724.843	5130
724.959	5673
725.074	5779
725.190	6487
725.305	4994
725.421	5499
725.536	6107
725.651	5851
725.767	5265
725.882	6158
725.997	5632
726.113	5624
726.228	5267
726.343	5571
726.459	5438
726.574	5644
726.689	5682
726.804	5118
726.920	5395
727.035	5673
727.150	5836
727.265	5368
727.380	5427
727.495	5778
727.610	4951
727.725	3984
727.841	5329
727.956	4633
728.071	5734
728.186	5308
728.301	4802
728.416	6292
728.531	5035
728.645	4938
728.760	4907
728.875	4936
728.990	5302
729.105	4920
729.220	4825
729.335	5313
729.449	4905
729.564	4794
729.679	4744
729.794	5696
729.908	5282
730.023	5493
730.138	5465
730.253	5348
730.367	4869
730.482	5421
730.596	5402
730.711	6630
730.826	9381
730.940	8013
731.055	6417
731.169	6873
731.284	6089
731.398	6888
731.513	8018
731.627	9246
731.742	11383
731.856	14512
731.970	13223
732.085	17288
732.199	25155
732.313	46906
732.428	132738
732.542	368708
732.656	164357
732.771	33507
732.885	20136
732.999	19203
733.113	20272
733.227	19612
733.342	18038
733.456	18518
733.570	16683
733.684	15845
733.798	15734
733.912	15772
734.026	15845
734.140	16306
734.254	15099
734.368	15065
734.482	14109
734.596	14770
734.710	13525
734.824	13998
734.938	15044
735.052	13736
735.166	13653
735.280	14022
735.393	13444
735.507	13665
735.621	13331
735.735	13145
735.849	13599
735.962	12885
736.076	13001
736.190	12896
736.303	12778
736.417	12770
736.531	13196
736.644	12183
736.758	11375
736.872	12117
736.985	12027
737.099	12398
737.212	11944
737.326	11372
737.439	11964
737.553	11930
737.666	12389
737.780	10757
737.893	11376
738.007	10989
738.120	12363
738.233	10558
738.347	11344
738.460	10025
738.573	11966
738.687	10192
738.800	11089
738.913	11302
739.026	10456
739.140	9994
739.253	10501
739.366	9684
739.479	10946
739.592	9446
739.705	9657
739.818	10690
739.932	8522
740.045	11279
740.158	9521
740.271	10216
740.384	10076
740.497	8391
740.610	10068
740.723	9041
740.836	10029
740.949	9247
741.062	10196
741.174	8245
741.287	9240
741.400	9077
741.513	7782
741.626	9752
741.739	8051
741.851	8809
741.964	9864
742.077	8444
742.189	7805
742.302	9455
742.415	8890
742.527	8773
742.640	7959
742.753	7969
742.865	9457
742.978	8309
743.090	7130
743.203	8978
743.316	7732
743.428	7406
743.541	8513
743.653	7473
743.766	8191
743.878	8060
743.990	6823
744.103	8233
744.215	7230
744.327	6816
744.440	9768
744.552	8102
744.664	7516
744.777	8622
744.889	7056
745.001	8225
745.113	8618
745.226	7300
745.338	6898
745.450	8425
745.562	7023
745.674	7448
745.786	8251
745.898	7691
746.010	6603
746.122	6608
746.234	7267
746.347	7678
746.459	7350
746.570	6237
746.682	8250
746.794	8704
746.906	5915
747.018	6811
747.130	7218
747.242	5391
747.354	7434
747.466	7298
747.577	6588
747.689	6205
747.801	6517
747.913	6326
748.024	6105
748.136	6835
748.248	5870
748.359	6119
748.471	6817
748.583	5960
748.694	5640
748.806	6820
748.918	5640
749.029	5645
749.141	6596
749.252	5703
749.364	5394
749.475	5246
749.587	4874
749.698	5343
749.809	6763
749.921	5835
750.032	5149
750.144	5518
750.255	4479
750.366	5579
750.478	4120
750.589	5621
750.700	4648
750.811	5853
750.923	5662
751.034	4793
751.145	6377
751.256	4666
751.367	5486
751.479	5220
751.590	5040
751.701	4894
751.812	4657
751.923	4363
752.034	6125
752.145	4876
752.256	5839
752.367	4346
752.478	5820
752.589	5416
752.700	5624
752.811	4301
752.922	5000
753.032	4947
753.143	5973
753.254	4328
753.365	5999
753.476	6268
753.586	4608
753.697	4173
753.808	4841
753.919	4610
754.029	4012
754.140	4679
754.251	4011
754.361	5126
754.472	5075
754.582	4244
754.693	4562
754.804	5274
754.914	3924
755.025	3778
755.135	5410
755.246	5304
755.356	4052
755.466	4980
755.577	3270
755.687	4903
755.798	3970
755.908	3930
756.018	4644
756.129	5707
756.239	4659
756.349	5529
756.460	4557
756.570	4883
756.680	4499
756.790	4407
756.900	4884
757.011	3906
757.121	4104
757.231	4138
757.341	3310
757.451	3103
757.561	3790
757.671	3941
757.781	4170
757.891	4849
758.001	2932
758.111	4462
758.221	5002
758.331	5025
758.441	4777
758.551	4644
758.661	4499
758.771	5540
758.880	4462
758.990	3601
759.100	4380
759.210	5341
759.320	4827
759.429	4146
759.539	4745
759.649	5559
759.758	6210
759.868	6940
759.978	6490
760.087	7330
760.197	6275
760.307	5894
760.416	5257
760.526	4747
760.635	6021
760.745	6100
760.854	7127
760.964	7985
761.073	7548
761.182	7434
761.292	6048
761.401	4573
761.511	4510
761.620	4316
761.729	4332
761.839	3517
761.948	4558
762.057	3373
762.166	4532
762.276	2548
762.385	4581
762.494	4013
762.603	4195
762.712	4291
762.822	3437
762.931	4007
763.040	2689
763.149	4010
763.258	3498
763.367	3651
763.476	3714
763.585	3162
763.694	3231
763.803	4474
763.912	4646
764.021	3617
764.130	2857
764.238	4186
764.347	4534
764.456	3786
764.565	4627
764.674	3791
764.783	3974
764.891	3344
765.000	5297
765.109	4983
765.217	3384
765.326	5393
765.435	5708
765.543	6574
765.652	7267
765.761	9173
765.869	11130
765.978	18615
766.086	31164
766.195	63579
766.303	164280
766.412	352693
766.520	254351
766.629	81695
766.737	33337
766.846	20208
766.954	13203
767.062	10938
767.171	7288
767.279	7906
767.387	5974
767.496	5858
767.604	5312
767.712	5177
767.820	3779
767.928	4915
768.037	3838
768.145	4980
768.253	4190
768.361	4457
768.469	4987
768.577	4224
768.685	4311
768.793	4544
768.901	4562
769.009	5202
769.117	5568
769.225	7716
769.333	9108
769.441	14436
769.549	26248
769.657	60818
769.765	186138
769.873	276017
769.981	96322
770.088	26912
770.196	14539
770.304	11894
770.412	9483
770.519	7358
770.627	7631
770.735	6390
770.842	6161
770.950	6669
771.058	5790
771.165	7862
771.273	7522
771.380	8008
771.488	11872
771.595	11855
771.703	10622
771.810	9219
771.918	9602
772.025	12535
772.133	13246
772.240	12064
772.348	14696
772.455	13355
772.562	12366
772.670	11429
772.777	12507
772.884	12750
772.991	11249
773.099	12890
773.206	11057
773.313	12423
773.420	11800
773.528	11182
773.635	11255
773.742	12307
773.849	10100
773.956	10984
774.063	10258
774.170	11014
774.277	11025
774.384	10442
774.491	10233
774.598	10667
774.705	10645
774.812	11098
774.919	10678
775.026	9892
775.133	9976
775.239	11047
775.346	9016
775.453	10162
775.560	8547
775.667	9639
775.773	8824
775.880	10552
775.987	8628
776.093	10304
776.200	10756
776.307	6796
776.413	8231
776.520	11171
776.627	7923
776.733	8045
776.840	8269
776.946	11853
777.053	9307
777.159	9232
777.266	7417
777.372	9554
777.478	9484
777.585	9006
777.691	7410
777.798	9355
777.904	8212
778.010	7696
778.117	8352
778.223	7766
778.329	7549
778.435	6951
778.542	9582
778.648	7367
778.754	6713
778.860	7764
778.966	7145
779.072	7277
779.178	8270
779.284	5991
779.391	6542
779.497	7418
779.603	8064
779.708	5140
779.815	7020
779.920	10186
780.026	9242
780.132	6898
780.238	6474
780.344	6609
780.450	8743
780.556	5633
780.661	6543
780.767	7692
780.873	4380
780.979	6775
781.085	6232
781.190	6651
781.296	5790
781.402	6049
781.507	5860
781.613	4849
781.719	5903
781.824	6687
781.930	5603
782.035	6947
782.141	6774
782.246	4243
782.352	5840
782.457	5353
782.563	5434
782.668	6538
782.773	5105
782.879	3806
782.984	5576
783.090	5056
783.195	5643
783.300	6035
783.405	5768
783.511	4158
783.616	5173
783.721	5584
783.826	4989
783.932	5216
784.037	4492
784.142	5472
784.247	4570
784.352	5431
784.457	4519
784.562	4479
784.667	5011
784.772	3140
784.877	3067
784.982	5927
785.087	4952
785.192	4359
785.297	5252
785.402	5780
785.507	4487
785.611	4668
785.716	4008
785.821	4500
785.926	4896
786.031	4103
786.135	4455
786.240	5030
786.345	2520
786.450	3970
786.554	4458
786.659	3770
786.763	3627
786.868	5000
786.973	5430
787.077	3682
787.182	3192
787.286	4675
787.391	5296
787.495	3199
787.600	2813
787.704	3295
787.809	4128
787.913	3539
788.017	4102
788.122	4840
788.226	4008
788.330	2706
788.435	4395
788.539	5037
788.643	3325
788.747	2688
788.852	3942
788.956	3559
789.060	4745
789.164	3417
789.268	3148
789.372	3934
789.476	3370
789.580	3130
789.684	2520
789.788	4332
789.892	3510
789.996	2626
790.100	2451
790.204	3809
790.308	4283
790.412	2539
790.516	2841
790.620	3013
790.724	4449
790.828	3882
790.931	1233
791.035	3396
791.139	2747
791.242	3091
791.346	3513
791.450	4038
791.554	2995
791.657	2428
791.761	4549
791.864	4213
791.968	3742
792.072	4053
792.175	2498
792.279	2467
792.382	3487
792.486	2532
792.589	2841
792.693	2861
792.796	2536
792.899	3783
793.003	2726
793.106	1870
793.209	2420
793.313	3390
793.416	669
793.519	3367
793.623	3663
793.726	3168
793.829	2198
793.932	1608
794.035	1207
794.138	4317
794.242	3892
794.345	2379
794.448	1893
794.551	1070
794.654	3906
794.757	3535
794.860	2062
794.963	2879
795.066	1622
795.169	3219
795.272	2195
795.375	2917
795.477	1759
795.580	1915
795.683	1007
795.786	3504
795.889	879
795.991	3384
796.094	2749
796.197	1020
796.300	2925
796.402	2592
796.505	1204
796.608	1935
796.710	2246
796.813	2999
796.915	1589
797.018	2497
797.120	2926
797.223	1672
797.326	2685
797.428	2022
797.530	1832
797.633	1244
797.735	2468
797.838	2573
797.940	3804
798.042	1690
798.145	2258
798.247	2974
798.349	655
798.452	2756
798.554	1877
798.656	1836
798.758	3484
798.860	2551
798.962	1356
799.065	952
799.167	364
799.269	3442
799.371	2895
799.473	4052
799.575	1940
799.677	1667
799.779	2520
799.881	676
799.983	3128
800.085	2044
800.187	2046
800.289	1167
800.390	1949
800.492	2827
800.594	3273
800.696	1827
800.798	1645
800.899	1704
801.001	1476
801.103	1689
801.205	1800
801.306	1809
801.408	407
801.509	2333
801.611	2439
801.713	1693
801.814	1000
801.916	1963
802.017	760
802.119	497
802.220	2017
802.322	169
802.423	2860
802.525	96
802.626	2463
802.727	2882
802.829	1988
802.930	-107
803.031	2328
803.133	1476
803.234	1689
803.335	1959
803.436	918
803.538	1358
803.639	298
803.740	2314
803.841	1676
803.942	1625
804.043	1689
804.144	723
804.245	1359
804.346	1426
804.447	534
804.548	1098
804.649	3069
804.750	1494
804.851	476
804.952	829
805.053	1140
805.154	649
805.255	1996
805.355	1125
805.456	1594
805.557	1302
805.658	510
805.758	1554
805.859	1641
805.960	1225
806.061	-68
806.161	1100
806.262	837
806.362	1052
806.463	690
806.564	1972
806.664	1541
806.765	1824
806.865	941
806.966	397
807.066	382
807.166	2273
807.267	1240
807.367	1122
807.468	1513
807.568	-486
807.668	2185
807.769	2133
807.869	1333
807.969	943
808.069	1341
808.170	816
808.270	602
808.370	1432
808.470	1602
808.570	489
808.670	872
808.770	948
808.870	469
808.970	901
809.070	1141
809.170	723
809.271	1556
809.370	619
809.470	1263
809.570	447
809.670	-44
809.770	477
809.870	1515
809.970	1521
810.070	1233
810.169	1535
810.269	-238
810.369	1872
810.469	1047
810.568	790
810.668	474
810.768	430
810.867	666
810.967	485
811.066	928
811.166	734
811.265	1183
811.365	1547
811.464	1301
811.564	965
811.663	1160
811.763	-414
811.862	1497
811.962	2613
812.061	938
812.160	488
812.260	1058
812.359	1381
812.458	207
812.557	2212
812.657	440
812.756	1089
812.855	1194
812.954	772
813.053	1700
813.153	1174
813.252	1192
813.351	1493
813.450	404
813.549	604
813.648	121
813.747	391
813.846	1483
813.945	866
814.044	1162
814.143	1564
814.242	1506
814.341	1438
814.439	2269
814.538	1770
814.637	1253
814.736	1639
814.835	2805
814.933	1539
815.032	2520
815.131	4219
815.229	8125
815.328	11361
815.427	7438
815.525	7574
815.624	6728
815.722	6523
815.821	7382
815.919	6766
816.018	6981
816.116	7510
816.215	6655
816.313	7900
816.412	9218
816.510	9207
816.609	10843
816.707	11141
816.805	8707
816.904	8157
817.002	9093
817.100	10079
817.198	10293
817.296	7997
817.395	9054
817.493	8982
817.591	7465
817.689	8024
817.787	8295
817.885	8524
817.983	6654
818.081	8525
818.179	9358
818.277	13589
818.375	10419
818.473	8072
818.571	7440
818.669	8957
818.767	9281
818.865	7410
818.963	6838
819.061	8473
819.158	7700
819.256	11069
819.354	10752
819.452	17521
819.549	10831
819.647	8884
819.745	6368
819.842	7727
819.940	7777
820.038	6900
820.135	4990
820.233	7381
820.330	6078
820.428	6782
820.525	8330
820.623	7359
820.720	5153
820.818	7737
820.915	6875
821.012	6365
821.110	4967
821.207	6711
821.304	5642
821.402	7160
821.499	7639
821.596	6446
821.693	6832
821.791	6647
821.888	5775
821.985	7193
822.082	4171
822.179	6763
822.276	6187
822.373	5321
822.470	5836
822.567	5997
822.664	4855
822.761	6156
822.858	5487
822.955	5502
823.052	5346
823.149	5889
823.246	6522
823.343	4635
823.440	5173
823.536	7152
823.633	4920
823.730	4765
823.827	6092
823.923	5225
824.020	5753
824.117	5420
824.213	4916
824.310	4727
824.407	4152
824.503	5479
824.600	4529
824.696	4353
824.793	6172
824.889	5555
824.986	3816
825.082	3022
825.179	4248
825.275	5145
825.371	6134
825.468	4400
825.564	1720
825.660	5941
825.757	6761
825.853	4837
825.949	2996
826.045	4354
826.142	4444
826.238	4589
826.334	3853
826.430	4405
826.526	3070
826.622	2408
826.718	5186
826.814	5926
826.910	4995
827.006	1175
827.102	2205
827.198	4967
827.294	5161
827.390	5838
827.486	2700
827.582	1245
827.678	4167
827.774	5312
827.869	2127
827.965	3892
828.061	2937
828.157	5450
828.252	4565
828.348	2722
828.444	2911
828.539	2870
828.635	3507
828.731	4604
828.826	2621
828.922	4721
829.017	3949
829.113	4846
829.208	2681
829.304	2623
829.399	5500
829.495	3442
829.590	3625
829.685	3441
829.781	4627
829.876	3443
829.971	1336
830.066	1946
830.162	3897
830.257	4744
830.352	3501
830.447	3776
830.543	2979
830.638	3222
830.733	4649
830.828	2314
830.923	3389
831.018	3899
831.113	3915
831.208	2262
831.303	1478
831.398	1755
831.493	3366
831.588	5272
831.683	2088
831.778	2000
831.873	2799
831.967	4635
832.062	3665
832.157	1848
832.252	3516
832.346	2679
832.441	3533
832.536	3028
832.631	3111
832.725	2692
832.820	1675
832.914	2944
833.009	1711
833.104	1613
833.198	2121
833.293	2866
833.387	3293
833.482	2855
833.576	2452
833.670	2575
833.765	2673
833.859	2733
833.954	2919
834.048	2824
834.142	2667
834.237	1162
834.331	2531
834.425	2951
834.519	1829
834.613	2143
834.708	2076
834.802	1474
834.896	2247
834.990	2428
835.084	1917
835.178	1609
835.272	2419
835.366	3480
835.460	3504
835.554	1459
835.648	1970
835.742	1097
835.836	1222
835.930	1392
836.024	1770
836.117	3398
836.211	1506
836.305	256
836.399	2231
836.493	1523
836.586	3627
836.680	1669
836.774	867
836.867	2008
836.961	1364
837.055	735
837.148	1759
837.242	1925
837.335	1793
837.429	1542
837.522	1839
837.616	451
837.709	1898
837.803	1610
837.896	3679
837.989	2373
838.083	761
838.176	1129
838.269	222
838.363	2191
838.456	1555
838.549	2486
838.642	1469
838.735	1079
838.829	2462
838.922	810
839.015	1377
839.108	1439
839.201	1273
839.294	3102
839.387	1816
839.480	654
839.573	1200
839.666	883
839.759	1414
839.852	908
839.945	2248
840.038	1056
840.131	1233
840.223	887
840.316	2149
840.409	2481
840.502	1764
840.594	2777
840.687	-34
840.780	867
840.873	156
840.965	1042
841.058	1148
841.150	2328
841.243	-325
841.336	1164
841.428	355
841.521	1166
841.613	1106
841.706	2106
841.798	922
841.890	1491
841.983	51
842.075	1259
842.167	573
842.260	1760
842.352	1995
842.444	1551
842.537	737
842.629	1175
842.721	271
842.813	1932
842.905	687
842.997	1125
843.090	1089
843.182	267
843.274	237
843.366	879
843.458	689
843.550	1872
843.642	828
843.734	1294
843.826	630
843.918	1392
844.009	799
844.101	1136
844.193	1126
844.285	1608
844.377	1606
844.469	619
844.560	-91
844.652	303
844.744	1672
844.835	1398
844.927	1122
845.019	1699
845.110	1175
845.202	1621
845.293	126
845.385	477
845.476	1578
845.568	2304
845.659	393
845.751	810
845.842	606
845.934	895
846.025	977
846.116	1253
846.208	720
846.299	278
846.390	-348
846.482	914
846.573	1415
846.664	1426
846.755	405
846.846	2014
846.937	-401
847.029	312
847.120	325
847.211	8
847.302	2233
847.393	-279
847.484	761
847.575	121
847.666	556
847.757	557
847.847	738
847.938	1015
848.029	1093
848.120	-502
848.211	821
848.302	152
848.392	617
848.483	1173
848.574	327
848.664	457
848.755	723
848.846	368
848.936	231
849.027	1286
849.118	803
849.208	1864
849.299	1887
849.389	5379
849.480	9645
849.570	20801
849.661	42751
849.751	58147
849.841	16885
849.932	3106
850.022	1842
850.112	2033
850.203	1782
850.293	918
850.383	1241
850.474	569
850.564	-643
850.654	-137
850.744	1064
850.834	662
850.924	864
851.014	2100
851.104	933
851.194	280
851.284	641
851.374	837
851.464	537
851.554	1233
851.644	964
851.734	1639
851.824	1260
851.914	1092
852.004	829
852.094	511
852.183	168
852.273	1017
852.363	516
852.452	172
852.542	869
852.632	561
852.721	347
852.811	588
852.901	1485
852.990	693
853.080	1441
853.169	969
853.259	1839
853.348	2057
853.438	2851
853.527	4567
853.617	5633
853.706	12771
853.795	22989
853.885	45785
853.974	80976
854.063	151392
854.152	179092
854.242	64127
854.331	17009
854.420	7907
854.509	5566
854.598	4710
854.687	4437
854.777	2640
854.866	1082
854.955	2213
855.044	1311
855.133	1191
855.222	1190
855.311	705
855.400	1132
855.488	9
855.577	90
855.666	285
855.755	706
855.844	363
855.933	-135
856.021	860
856.110	265
856.199	592
856.288	-387
856.376	400
856.465	421
856.554	910
856.642	764
856.731	637
856.819	1318
856.908	899
856.996	829
857.085	620
857.173	77
857.262	105
857.350	119
857.438	-30
857.527	1645
857.615	532
857.703	1637
857.792	-200
857.880	452
857.968	719
858.056	68
858.145	8
858.233	-195
858.321	166
858.409	1069
858.497	652
858.585	-386
858.673	315
858.761	-518
858.849	-564
858.937	-652
859.025	403
859.113	422
859.201	167
859.289	849
859.377	660
859.465	226
859.552	958
859.640	7
859.728	688
859.816	322
859.903	299
859.991	34
860.079	671
860.166	248
860.254	597
860.342	293
860.429	-278
860.517	356
860.604	-187
860.692	-528
860.779	631
860.867	521
860.954	568
861.042	1266
861.129	1534
861.216	934
861.304	1099
861.391	729
861.478	224
861.565	-135
861.653	557
861.740	-360
861.827	-485
861.914	58
862.001	954
862.089	855
862.176	416
862.263	640
862.350	501
862.437	527
862.524	105
862.611	198
862.698	2062
862.785	1032
862.871	1479
862.958	437
863.045	1468
863.132	1142
863.219	-136
863.306	-615
863.392	931
863.479	140
863.566	999
863.652	1154
863.739	743
863.826	897
863.912	1497
863.999	152
864.086	1513
864.172	1430
864.259	1607
864.345	1579
864.432	1414
864.518	1601
864.604	1532
864.691	1409
864.777	1706
864.863	3085
864.950	4325
865.036	6987
865.122	12176
865.209	12111
865.295	10498
865.381	10408
865.467	10013
865.553	11109
865.639	12950
865.726	19398
865.812	32474
865.898	53395
865.984	75201
866.070	131021
866.156	109446
866.242	34598
866.328	15661
866.414	10496
866.499	10250
866.585	9457
866.671	9124
866.757	8347
866.843	8261
866.928	7171
867.014	8604
867.100	8138
867.186	8456
867.271	7446
867.357	8105
867.442	7449
867.528	8021
867.614	7327
867.699	7402
867.785	6779
867.870	6044
867.956	6925
868.041	6952
868.127	6549
868.212	6327
868.297	6876
868.383	7479
868.468	6810
868.553	6989
868.639	7021
868.724	6747
868.809	6523
868.894	5286
868.979	6637
869.065	6630
869.150	5988
869.235	6252
869.320	6181
869.405	5628
869.490	7328
869.575	5602
869.660	4754
869.745	7564
869.830	7219
869.915	5302
870.000	5705
870.085	5075
870.169	8100
870.254	7719
870.339	3711
870.424	4842
870.509	6736
870.593	7168
870.678	6368
870.763	4826
870.847	4960
870.932	6078
871.016	6160
871.101	4042
871.186	5495
871.270	6057
871.355	3932
871.439	5702
871.523	5680
871.608	4539
871.692	4783
871.777	6003
871.861	6649
871.945	4237
872.030	6296
872.114	6225
872.198	4288
872.282	4917
872.367	4395
872.451	4140
872.535	4624
872.619	3769
872.703	4384
872.787	5123
872.871	4292
872.955	3415
873.039	3399
873.123	5004
873.207	5328
873.291	2800
873.375	4033
873.459	6112
873.543	5037
873.627	3936
873.711	3598
873.794	5043
873.878	3677
873.962	2837
874.045	4251
874.129	3684
874.137	3738
874.213	4278
874.245	3931
874.296	3371
874.352	3519
874.380	3584
874.460	3373
874.464	3367
874.547	3965
874.568	4159
874.631	4725
874.676	4307
874.714	3943
874.784	4673
874.798	4820
874.881	4177
874.892	4018
874.965	2974
874.999	3734
875.048	4737
875.107	4274
875.131	4099
875.215	2692
875.215	2692
875.298	2196
875.323	2596
875.381	3584
875.430	4852
875.465	5723
875.538	4390
875.548	4187
875.631	2758
875.646	2634
875.714	2180
875.753	2847
875.798	3690
875.861	4397
875.881	4562
875.964	3300
875.968	3239
876.047	2203
876.076	2751
876.130	3870
876.183	4021
876.213	4066
876.291	4467
876.296	4487
876.379	3395
876.398	3404
876.462	3547
876.506	2826
876.545	2169
876.613	3569
876.628	3899
876.711	3195
876.721	3341
876.794	4367
876.828	4151
876.877	3630
876.935	2796
876.960	2557
877.043	2644
877.043	2646
877.125	3441
877.150	3647
877.208	3866
877.258	3006
877.291	2496
877.365	2195
877.374	2142
877.456	2432
877.472	2379
877.539	2552
877.579	3312
877.622	3945
877.687	3857
877.704	3808
877.787	3063
877.794	3094
877.869	3661
877.901	3553
877.952	3189
878.008	2266
878.034	1876
878.115	2407
878.117	2422
878.199	2388
878.222	2736
878.282	3713
878.329	4217
878.364	4478
878.437	3943
878.447	3833
878.529	2542
878.544	2375
878.611	1847
878.651	2363
878.694	3114
878.758	3565
878.776	3627
878.858	3975
878.865	3945
878.941	3242
878.972	2677
879.023	1968
879.078	2459
879.105	2803
879.185	3432
879.187	3445
879.269	3547
879.292	3593
879.351	3348
879.399	2929
879.433	2680
879.506	2722
879.516	2727
879.598	3045
879.613	2858
879.680	2371
879.720	2877
879.762	3377
879.827	2651
879.844	2389
879.926	3159
879.933	3154
880.007	3401
880.040	3176
880.089	2728
880.147	4045
880.171	4862
880.253	7464
880.254	7476
880.335	8564
880.360	9305
880.417	12582
880.467	17094
880.499	19911
880.574	21207
880.580	20772
880.662	9045
880.680	7397
880.744	3650
880.787	2755
880.825	2879
880.893	3687
880.907	3746
880.989	2455
881.000	2478
881.070	3935
881.106	4141
881.152	3262
881.213	2472
881.233	2441
881.315	2564
881.319	2559
881.396	3011
881.426	3033
881.478	2916
881.532	3778
881.559	4110
881.639	3083
881.641	3058
881.722	2860
881.745	2829
881.803	3131
881.852	2886
881.885	2523
881.958	2378
881.966	2411
882.047	3210
882.064	3160
882.129	2606
882.171	2389
882.210	2039
882.277	1914
882.291	2065
882.372	2603
882.383	2681
882.454	3398
882.489	3614
882.535	3424
882.596	3308
882.616	3422
882.697	3483
882.702	3490
882.778	2757
882.808	2561
882.859	2428
882.914	2202
882.940	2185
883.020	2511
883.021	2522
883.102	3258
883.127	3475
883.183	3931
883.233	4009
883.264	3337
883.339	1999
883.345	1998
883.426	1632
883.445	1857
883.507	2665
883.551	2830
883.587	3179
883.657	3700
883.668	3721
883.749	3674
883.763	3656
883.830	2735
883.869	2127
883.910	1844
883.975	2162
883.991	2390
884.072	2802
884.081	2884
884.152	3555
884.187	3681
884.233	4284
884.292	4919
884.314	4373
884.394	2064
884.398	1977
884.475	1860
884.504	1718
884.555	1617
884.610	1647
884.636	1858
884.716	2558
884.716	2571
884.797	3853
884.821	4177
884.877	3811
884.927	3270
884.958	2930
885.033	2451
885.038	2411
885.118	1467
885.139	1288
885.199	1758
885.244	2189
885.279	2561
885.350	3304
885.359	3481
885.439	4794
885.456	4957
885.520	3403
885.561	2580
885.600	2433
885.667	2290
885.680	2481
885.760	3665
885.773	3791
885.840	2150
885.878	1319
885.920	1428
885.984	1901
886.000	2180
886.080	3020
886.089	3114
886.160	3835
886.195	4190
886.240	3379
886.300	2217
886.320	2434
886.400	3426
886.406	3465
886.480	2203
886.511	1850
886.560	2078
886.616	2080
886.640	2136
886.720	2579
886.722	2583
886.800	2498
886.827	2433
886.879	2695
886.932	2982
886.959	3341
887.038	4204
887.039	4201
887.119	3287
887.143	2987
887.198	2806
887.248	2563
887.278	2732
887.354	3269
887.358	3268
887.437	3029
887.459	2978
887.517	3676
887.564	4110
887.596	3542
887.669	2346
887.676	2333
887.755	2148
887.774	2076
887.835	2091
887.880	2286
887.914	2599
887.985	2890
887.994	3046
888.073	4586
888.090	4860
888.153	5116
888.195	5219
888.232	4199
888.300	2491
888.311	2542
888.391	2772
888.405	2813
888.470	2625
888.510	2454
888.549	2356
888.615	2358
888.628	2574
888.708	3735
888.720	3891
888.787	3370
888.825	3095
888.866	2259
888.930	1015
888.945	1308
889.024	2783
889.035	2977
889.103	3526
889.140	3792
889.182	3480
889.245	3084
889.261	3081
889.340	2984
889.349	2969
889.419	2821
889.454	2737
889.498	2522
889.559	2237
889.577	2505
889.656	3667
889.664	3777
889.735	3560
889.768	3441
889.814	3200
889.873	2866
889.978	3890
890.083	3036
890.187	3190
890.292	3867
890.397	2371
890.501	3378
890.606	1950
890.710	3272
890.815	4133
890.919	3251
891.024	3029
891.128	3075
891.233	2589
891.337	4062
891.442	3649
891.546	2761
891.650	2270
891.755	2741
891.859	3368
891.963	3886
892.068	4132
892.172	3000
892.276	1545
892.380	2683
892.484	3758
892.589	3676
892.693	3035
892.797	1999
892.901	1793
893.005	2268
893.109	4569
893.213	4420
893.317	3253
893.421	1753
893.525	1518
893.629	2584
893.733	4118
893.837	3281
893.941	3170
894.045	1511
894.148	1975
894.252	2245
894.356	3491
894.460	5093
894.564	3103
894.667	2206
894.771	1432
894.875	1266
894.978	2422
895.082	2930
895.186	3369
895.289	2868
895.393	1980
895.496	3962
895.600	2201
895.703	2003
895.807	2952
895.910	2336
896.014	2127
896.117	1978
896.221	4184
896.324	3616
896.427	1396
896.531	1730
896.634	3006
896.737	2339
896.840	2688
896.944	4374
897.047	3071
897.150	2712
897.253	1812
897.356	1869
897.460	955
897.563	1771
897.666	2518
897.769	2994
897.872	1949
897.975	2100
898.078	1764
898.181	2396
898.284	2798
898.387	3013
898.490	3474
898.593	2606
898.695	2318
898.798	1655
898.901	1672
899.004	1466
899.107	2920
899.209	2511
899.312	4468
899.415	2419
899.518	1530
899.620	807
899.723	1245
899.826	2844
899.928	1465
900.031	2562
900.133	3180
900.236	1885
900.338	1370
900.441	2072
900.543	1582
900.646	2196
900.748	2432
900.851	3587
900.953	1817
901.055	1446
901.158	1736
901.260	1857
901.362	1479
901.465	1120
901.567	3034
901.669	2474
901.771	2307
901.873	2756
901.976	2150
902.078	2985
902.180	1702
902.282	2132
902.384	2166
902.486	3373
902.588	2412
902.690	1093
902.792	1799
902.894	2871
902.996	2828
903.098	3028
903.200	2351
903.302	1433
903.404	1973
903.505	1527
903.607	2631
903.709	3749
903.811	2779
903.913	1608
904.014	1221
904.116	1459
904.218	1536
904.319	3365
904.421	4512
904.523	3311
904.624	2267
904.726	1642
904.827	1018
904.929	750
905.030	1948
905.132	3756
905.233	2473
905.335	1568
905.436	1438
905.537	1416
905.639	1771
905.740	1531
905.841	2332
905.943	2531
906.044	1358
906.145	1694
906.247	1034
906.348	1929
906.449	2734
906.550	2735
906.651	1513
906.752	1694
906.854	1448
906.955	1591
907.056	1997
907.157	2544
907.258	2926
907.359	1479
907.460	1579
907.561	1233
907.662	1386
907.762	1824
907.863	2739
907.964	2342
908.065	1292
908.166	1325
908.267	1577
908.367	1487
908.468	1319
908.569	2220
908.670	3116
908.770	1688
908.871	2224
908.971	1549
909.072	1457
909.173	1789
909.273	1399
909.374	2379
909.474	1713
909.575	1871
909.675	1553
909.776	2240
909.876	1435
909.977	1750
910.077	2022
910.177	2431
910.278	1862
910.378	777
910.478	1259
910.579	1966
910.679	2600
910.779	2718
910.879	1795
910.980	2846
911.080	1722
911.180	1330
911.280	665
911.380	1388
911.480	1588
911.580	1677
911.680	1486
911.780	2353
911.880	2076
911.980	2062
912.080	1172
912.180	1952
912.280	1480
912.380	1715
912.480	1170
912.580	1710
912.679	1370
912.779	1789
912.879	2031
912.979	1160
913.078	1281
913.178	1425
913.278	1022
913.377	830
913.477	1119
913.577	865
913.676	2340
913.776	2839
913.875	2164
913.975	1736
914.074	1575
914.174	2793
914.273	1943
914.373	1649
914.472	1024
914.572	536
914.671	886
914.770	1413
914.870	757
914.969	1476
915.068	2097
915.167	2241
915.267	1286
915.366	1631
915.465	1510
915.564	1412
915.663	2072
915.763	1916
915.862	2392
915.961	2815
916.060	2287
916.159	1369
916.258	532
916.357	1440
916.456	2319
916.555	2349
916.654	1267
916.752	2254
916.851	1765
916.950	1448
917.049	713
917.148	1109
917.247	982
917.345	1955
917.444	1222
917.543	1625
917.642	877
917.740	1937
917.839	2301
917.937	2743
918.036	2224
918.135	1966
918.233	1663
918.332	1920
918.430	1389
918.529	1044
918.627	902
918.726	2238
918.824	1729
918.923	1896
919.021	1972
919.119	810
919.218	1367
919.316	1701
919.414	1500
919.512	2409
919.611	2219
919.709	2162
919.807	3048
919.905	3918
920.003	2962
920.102	2845
920.200	2655
920.298	2570
920.396	2240
920.494	2859
920.592	2099
920.690	2600
920.788	2702
920.886	2104
920.984	2799
921.082	2663
921.180	3854
921.277	3438
921.375	4553
921.473	5720
921.571	5200
921.669	4481
921.766	4664
921.864	5467
921.962	5575
922.060	5044
922.157	5074
922.255	5368
922.352	4863
922.450	6129
922.548	6377
922.645	7187
922.743	10303
922.840	14899
922.938	16013
923.035	14010
923.133	14701
923.230	15850
923.327	20132
923.425	17888
923.522	16692
923.619	16211
923.717	14924
923.814	14545
923.911	14684
924.008	14812
924.106	13870
924.203	14163
924.300	14325
924.397	14882
924.494	14355
924.591	13610
924.688	13227
924.786	13593
924.883	14340
924.979	13603
925.077	13246
925.173	13082
925.270	13146
925.367	12910
925.464	14500
925.561	14556
925.658	15466
925.755	12080
925.852	14498
925.948	13706
926.045	12657
926.142	14419
926.239	13853
926.335	10686
926.432	12583
926.529	14443
926.625	15058
926.722	11380
926.818	11479
926.915	13769
927.011	13134
927.108	11745
927.204	12161
927.301	10725
927.397	13411
927.494	14339
927.590	9452
927.687	10931
927.783	13932
927.879	13247
927.976	10936
928.072	10305
928.168	12695
928.264	12802
928.361	11265
928.457	12698
928.553	11046
928.649	11251
928.745	12122
928.841	9994
928.937	11088
929.033	11836
929.129	10582
929.225	12609
929.321	10458
929.417	9346
929.513	12424
929.609	10043
929.705	10213
929.801	11563
929.897	9241
929.993	9744
930.089	10295
930.184	9328
930.280	11816
930.376	12751
930.471	8992
930.567	8634
930.663	10778
930.758	8367
930.854	10050
930.950	9645
931.045	8991
931.141	9175
931.236	11998
931.332	9426
931.427	7342
931.523	11661
931.618	10979
931.714	6584
931.809	8929
931.905	11008
932.000	7124
932.095	6434
932.191	11780
932.286	12048
932.381	9880
932.476	6829
932.572	9172
932.667	7989
932.762	8297
932.857	9238
932.952	10956
933.047	9386
933.142	7164
933.237	8864
933.332	9765
933.427	10084
933.522	8205
933.617	7238
933.712	8785
933.807	10683
933.902	11582
933.997	11348
934.092	7196
934.187	7896
934.282	9496
934.376	8453
934.471	9784
934.566	7706
934.661	7706
934.755	9162
934.850	9290
934.945	7587
935.039	7103
935.134	6402
935.228	8370
935.323	12633
935.417	6129
935.512	5451
935.606	6395
935.701	9090
935.795	9419
935.890	8959
935.984	6616
936.079	5354
936.173	7831
936.267	7393
936.362	5982
936.456	8574
936.550	11428
936.644	8401
936.738	6041
936.833	6113
936.927	5094
937.021	6304
937.115	7993
937.209	7633
937.303	8105
937.397	6031
937.491	6863
937.585	8980
937.679	7660
937.773	5594
937.867	5518
937.961	5519
938.055	9706
938.149	7480
938.243	5386
938.337	4148
938.430	5820
938.524	9358
938.618	7093
938.712	5448
938.805	6021
938.899	8066
938.993	8961
939.086	6386
939.180	4528
939.274	5666
939.367	7247
939.461	8429
939.554	5806
939.648	5398
939.741	5909
939.835	6450
939.928	9262
940.022	8094
940.115	5640
940.208	7365
940.302	9449
940.395	8781
940.488	4386
940.582	5863
940.675	5449
940.768	5813
940.861	7817
940.954	7640
941.048	3935
941.141	4302
941.234	4904
941.327	6498
941.420	6401
941.513	7076
941.606	4968
941.699	5656
941.792	6842
941.885	6221
941.978	6124
942.071	6012
942.164	3642
942.257	3980
942.349	5229
942.442	7172
942.535	4093
942.628	4417
942.721	6206
942.813	4430
942.906	5810
942.999	5532
943.091	4624
943.184	4536
943.277	4502
943.369	5246
943.462	3343
943.554	5019
943.647	5306
943.739	7184
943.832	7318
943.924	2868
944.017	4128
944.109	2723
944.201	4877
944.294	5011
944.386	4999
944.478	4407
944.571	3497
944.663	3881
944.755	4776
944.847	6172
944.940	4879
945.032	2691
945.124	3612
945.216	5205
945.308	5166
945.400	4335
945.492	4949
945.584	5888
945.676	5558
945.768	5938
945.860	5767
945.952	6223
946.044	5522
946.136	4020
946.228	4179
946.320	4088
946.412	5232
946.503	6495
946.595	5140
946.687	3975
946.779	3563
946.870	3404
946.962	3464
947.054	3832
947.145	5038
947.237	4187
947.329	4649
947.420	5186
947.512	3894
947.603	2747
947.695	3667
947.786	2796
947.878	3059
947.969	4854
948.061	4548
948.152	4082
948.243	2894
948.335	2731
948.426	2386
948.517	4059
948.609	5664
948.700	4706
948.791	3704
948.882	2761
948.973	3523
949.065	3678
949.156	4030
949.247	3134
949.338	3091
949.429	2725
949.520	3417
949.611	3877
949.702	4657
949.793	3681
949.884	3524
949.975	3578
950.066	2204
950.157	4026
950.247	2952
950.338	2508
950.429	3120
950.520	3702
950.611	2171
950.701	3499
950.792	4929
950.883	5446
950.973	2931
951.064	4067
951.155	3739
951.245	4256
951.336	4707
951.427	4502
951.517	5191
951.608	4309
951.698	3638
951.788	2403
951.879	2529
951.969	2610
952.060	3241
952.150	3149
952.240	4504
952.331	3327
952.421	5564
952.511	1841
952.602	2733
952.692	2414
952.782	1867
952.872	2538
952.962	3236
953.052	2393
953.143	2553
953.233	3322
953.323	4044
953.413	4200
953.503	4341
953.593	3959
953.683	3452
953.773	1545
953.863	2044
953.953	2327
954.042	3110
954.132	3561
954.222	2988
954.312	2185
954.402	2245
954.492	2132
954.581	3116
954.671	3761
954.761	3064
954.850	3370
954.940	1068
955.030	1869
955.119	2761
955.209	2571
955.298	3441
955.388	4388
955.477	4221
955.567	1502
955.656	1898
955.746	2565
955.835	2819
955.925	2896
956.014	3187
956.103	4058
956.193	4899
956.282	3568
956.371	2754
956.461	2999
956.550	2527
956.639	2383
956.728	2236
956.817	2797
956.906	3151
956.995	3726
957.085	3029
957.174	2818
957.263	2404
957.352	2100
957.441	3268
957.530	2966
957.619	2630
957.708	2511
957.796	2687
957.885	3225
957.974	2804
958.063	2670
958.152	1125
958.241	1588
958.329	2240
958.418	3331
958.507	2325
958.596	3906
958.684	1583
958.773	3029
958.861	1512
958.950	1525
959.039	1870
959.127	2084
959.216	2340
959.304	2212
959.393	2108
959.481	3229
959.570	1410
959.658	1594
959.746	2047
959.835	1854
959.923	1895
960.011	2198
960.100	2366
960.188	3081
960.276	2314
960.365	2049
960.453	1925
960.541	983
960.629	2710
960.717	919
960.805	1326
960.893	2051
960.981	2013
961.069	3955
961.158	4777
961.245	3887
961.333	3564
961.421	2266
961.509	2422
961.597	3019
961.685	2334
961.773	2839
961.861	2387
961.949	3592
962.036	854
962.124	2055
962.212	1144
962.299	1692
962.387	156
962.475	2146
962.562	1511
962.650	2619
962.738	1331
962.825	1386
962.913	1730
963.000	1810
963.088	2550
963.175	2303
963.263	2171
963.350	1878
963.438	1583
963.525	1784
963.612	2714
963.700	606
963.787	3624
963.874	1635
963.962	1275
964.049	1785
964.136	1616
964.223	589
964.310	1633
964.398	1355
964.485	1429
964.572	2500
964.659	1903
964.746	1422
964.833	1483
964.920	1964
965.007	1218
965.094	1858
965.181	1735
965.268	1763
965.355	1678
965.441	2560
965.528	1766
965.615	2214
965.702	2036
965.789	2296
965.875	2105
965.962	2456
966.049	1241
966.136	3553
966.222	2462
966.309	3374
966.395	2702
966.482	2656
966.569	2334
966.655	2236
966.742	2631
966.828	1910
966.915	1256
967.001	2094
967.087	917
967.174	824
967.260	1530
967.347	2120
967.433	1493
967.519	1887
967.605	1398
967.692	1787
967.778	2035
967.864	1301
967.950	1955
968.036	1115
968.123	1360
968.209	2350
968.295	329
968.381	2485
968.467	1564
968.553	97
968.639	2635
968.725	1881
968.811	3452
968.897	2908
968.983	2235
969.069	669
969.154	2252
969.240	1730
969.326	89
969.412	822
969.497	1182
969.583	735
969.669	2924
969.755	2674
969.840	2008
969.926	4109
970.012	4571
970.097	5934
970.183	4114
970.268	2850
970.354	2196
970.439	1451
970.525	3286
970.610	1476
970.696	2913
970.781	1604
970.866	1080
970.952	2348
971.037	1316
971.122	1740
971.208	2416
971.293	1215
971.378	1050
971.463	2153
971.549	1822
971.634	1991
971.719	1753
971.804	1396
971.889	1455
971.974	2137
972.059	1391
972.144	2082
972.229	2514
972.314	1358
972.399	2552
972.484	913
972.569	1176
972.654	1137
972.739	1872
972.824	1344
972.908	1766
972.993	1213
973.078	972
973.163	1674
973.247	1554
973.332	640
973.417	2805
973.501	1092
973.586	2734
973.671	1717
973.755	1356
973.840	1759
973.924	2931
974.009	3056
974.093	3085
974.178	3574
974.262	2404
974.346	1216
974.431	1346
974.515	2476
974.600	1785
974.684	1787
974.768	1693
974.852	2560
974.937	1472
975.021	3263
975.105	2665
975.189	977
975.273	2631
975.358	1157
975.442	720
975.526	2545
975.610	1064
975.694	622
975.778	2456
975.862	1189
975.946	-236
976.030	3378
976.114	1890
976.198	1952
976.281	1602
976.365	2221
976.449	1153
976.533	1844
976.617	369
976.700	740
976.784	1487
976.868	353
976.951	1577
977.035	1610
977.119	862
977.202	1481
977.286	2461
977.369	2505
977.453	4611
977.536	3807
977.620	3017
977.703	3074
977.787	2090
977.870	2523
977.953	3689
978.037	837
978.120	2776
978.203	2300
978.287	2163
978.370	2093
978.453	1250
978.536	1182
978.620	2055
978.703	1953
978.786	1637
978.869	1010
978.952	1143
979.035	2785
979.118	2589
979.201	1754
979.284	2206
979.367	1095
979.450	1536
979.533	2110
979.616	783
979.699	1413
979.782	2061
979.865	2506
979.948	525
980.030	1114
980.113	1906
980.196	986
980.279	2080
980.361	858
980.444	1310
980.526	2974
980.609	3935
980.692	5172
980.774	3582
980.857	2319
980.939	4007
981.022	2352
981.104	1735
981.187	1919
981.269	2286
981.352	2553
981.434	1440
981.516	1774
981.599	2875
981.681	2908
981.763	2182
981.846	2068
981.928	2528
982.010	2548
982.092	2268
982.174	2863
982.256	1644
982.339	2973
982.421	1359
982.503	2571
982.585	1398
982.667	2303
982.749	2451
982.831	2505
982.913	1338
982.995	3309
983.077	1172
983.158	4071
983.240	1369
983.322	3971
983.404	5206
983.486	3641
983.568	4810
983.649	3764
983.731	4680
983.813	3161
983.894	2332
983.976	2990
984.058	3262
984.139	3796
984.221	1860
984.302	3054
984.384	2387
984.465	2309
984.547	2934
984.628	2072
984.710	3413
984.791	3127
984.872	3277
984.954	3720
985.035	3906
985.116	3252
985.198	2069
985.279	4157
985.360	2179
985.441	2205
985.522	3473
985.604	2896
985.685	1114
985.766	3453
985.847	3771
985.928	1929
986.009	2386
986.090	2463
986.171	3751
986.252	2624
986.333	2138
986.414	2592
986.495	3502
986.576	3394
986.656	3885
986.737	3366
986.818	3371
986.899	3374
986.980	2665
987.060	3980
987.141	2741
987.222	4111
987.302	4806
987.383	5572
987.464	4055
987.544	4405
987.625	4045
987.705	5134
987.786	5393
987.866	4777
987.947	4358
988.027	4393
988.108	3673
988.188	4000
988.268	3682
988.349	3669
988.429	3461
988.509	3729
988.589	3923
988.670	2748
988.750	4207
988.830	3312
988.910	5407
988.990	3943
989.070	3294
989.151	3846
989.231	2992
989.311	4156
989.391	2871
989.471	3042
989.551	3444
989.631	2831
989.711	3636
989.791	2915
989.870	2674
989.950	4107
990.030	3881
990.110	3037
990.190	1811
990.269	1984
990.349	2718
990.429	3474
990.509	2694
990.588	1536
990.668	2953
990.747	2339
990.827	2236
990.907	3322
990.986	3315
991.066	3193
991.145	923
991.225	3231
991.304	2554
991.383	3003
991.463	2772
991.542	2522
991.622	1929
991.701	1936
991.780	1974
991.859	2484
991.939	2890
992.018	2998
992.097	2473
992.176	2252
992.256	1544
992.335	2367
992.414	3263
992.493	1816
992.572	1150
992.651	3736
992.730	2746
992.809	2580
992.888	1303
992.967	2643
993.046	2357
993.125	1451
993.203	1709
993.282	3919
993.361	2418
993.440	2537
993.519	1228
993.597	1900
993.676	1846
993.755	2501
993.834	2037
993.912	927
993.991	2662
994.069	1047
994.148	2255
994.226	1753
994.305	1129
994.384	1030
994.462	3034
994.540	1177
994.619	819
994.697	2268
994.776	931
994.854	2653
994.932	850
995.011	1599
995.089	1503
995.167	855
995.245	2043
995.324	1141
995.402	1517
995.480	618
995.558	1063
995.636	538
995.714	907
995.792	2245
995.870	942
995.948	1556
996.026	1930
996.104	104
996.182	1665
996.260	921
996.338	1115
996.416	1119
996.494	938
996.572	1881
996.649	638
996.727	181
996.805	1682
996.883	1734
996.960	538
997.038	1551
997.116	1610
997.193	1164
997.271	466
997.348	-370
997.426	1097
997.504	715
997.581	2164
997.658	1250
997.736	-413
997.813	-299
997.891	1453
997.968	264
998.046	317
998.123	459
998.200	2117
998.277	-307
998.355	709
998.432	-256
998.509	649
998.586	1223
998.663	911
998.741	676
998.818	206
998.895	491
998.972	1219
999.049	1285
999.126	153
999.203	266
999.280	196
999.357	534
999.434	-822
999.511	418
999.587	755
999.664	198
999.741	556
999.818	1249
999.895	-265
999.971	-159
1000.048	252
1000.125	816
1000.202	118
1000.278	507
1000.355	899
1000.431	816
1000.508	-1003
1000.584	317
1000.661	543
1000.738	-304
1000.814	1068
1000.890	902
1000.967	275
1001.043	-294
1001.120	-1346
1001.196	-83
1001.272	-557
1001.349	179
1001.425	882
1001.501	423
1001.577	-407
1001.654	442
1001.730	-135
1001.806	-108
1001.882	-487
1001.958	502
1002.034	375
1002.110	109
1002.186	-1386
1002.262	-61
1002.338	-793
1002.414	1108
1002.490	867
1002.566	-116
1002.642	-473
1002.718	411
1002.794	-300
1002.870	-781
1002.945	185
1003.021	-816
1003.097	-569
1003.173	1155
1003.248	-666
1003.324	-117
1003.400	-404
1003.475	-762
1003.551	-229
1003.626	-262
1003.702	-281
1003.777	97
1003.853	346
1003.928	-225
1004.004	-886
1004.079	407
1004.155	134
1004.230	-702
1004.305	259
1004.381	-455
1004.456	-934
1004.531	-689
1004.607	-272
1004.682	-513
1004.757	-332
1004.832	-209
1004.907	-562
1004.982	183
1005.057	173
1005.133	-525
1005.208	-1252
1005.283	-261
1005.358	151
1005.433	-131
1005.508	-764
1005.583	-1185
1005.657	-941
1005.732	538
1005.807	-1293
1005.882	-1205
1005.957	-914
1006.032	-532
1006.106	-942
1006.181	-505
1006.256	-719
1006.331	-1302
1006.405	-1465
1006.480	-248
1006.554	-1649
1006.629	-712
1006.704	-1414
1006.778	254
1006.853	617
1006.927	-723
1007.002	-868
1007.076	-1246
1007.150	-1415
1007.225	249
1007.299	-218
1007.373	-1097
1007.448	-676
1007.522	339
1007.596	-870
1007.671	-1208
1007.745	-757
1007.819	-1162
1007.893	-671
1007.967	-599
1008.041	-2204
1008.115	-220
1008.190	-1199
1008.264	-580
1008.338	-1310
1008.412	-1260
1008.486	-229
1008.560	-964
1008.633	-1320
1008.707	-966
1008.781	-470
1008.855	-768
1008.929	-948
1009.003	-1049
1009.076	-923
1009.150	-1108
1009.224	-275
1009.298	847
1009.371	-2358
1009.445	-463
1009.519	-1533
1009.592	-1509
1009.666	-676
1009.739	-806
1009.813	-1220
1009.886	59
1009.960	-1442
1010.033	-82
1010.107	-413
1010.180	-1933
1010.253	-814
1010.327	-1168
1010.400	-1602
1010.473	-311
1010.547	780
1010.620	-1732
1010.693	-1029
1010.766	-1071
1010.840	-230
1010.913	-153
1010.986	-1676
1011.059	-1819
1011.132	-1370
1011.205	-568
1011.278	-1003
1011.351	160
1011.424	-1333
1011.497	-1554
1011.570	-1654
1011.643	-711
1011.716	-1382
1011.789	-1124
1011.862	-460
1011.934	-698
1012.007	-2015
1012.080	-1416
1012.153	-1184
1012.225	-385
1012.298	-1010
1012.371	-1208
1012.443	-852
1012.516	-1363
1012.588	-1929
1012.661	-1236
1012.733	-2035
1012.806	-717
1012.879	-1570
1012.951	-1607
1013.023	-1633
1013.096	-844
1013.168	-974
1013.241	31
1013.313	-1912
1013.385	-1411
1013.458	-1469
1013.530	-1109
1013.602	-1963
1013.674	-999
1013.746	-1690
1013.819	-765
1013.891	-1606
1013.963	-1721
1014.035	-1077
1014.107	-786
1014.179	-1685
1014.251	-1713
1014.323	-1244
1014.395	-1189
1014.467	-904
1014.539	-463
1014.611	-1006
1014.683	-1267
1014.754	-1519
1014.826	-1505
1014.898	-1082
1014.970	-1796
1015.042	-1118
1015.113	-656
1015.185	-1554
1015.257	-1975
1015.328	-869
1015.400	-1353
1015.471	-953
1015.543	-1258
1015.615	-1840
1015.686	-1119
1015.757	-1310
1015.829	-1277
1015.901	-1592
1015.972	-1655
1016.043	-371
1016.115	-934
1016.186	-633
1016.257	-1002
1016.328	-1386
1016.400	-1150
1016.471	-1825
1016.542	-1004
1016.613	-679
1016.685	-1137
1016.756	-1464
1016.827	-1594
1016.898	-1483
1016.969	-866
1017.040	-1488
1017.111	-1280
1017.182	-1513
1017.253	-1265
1017.324	-1140
1017.395	-1474
1017.466	-459
1017.537	-1742
1017.608	-1094
1017.678	-717
1017.749	-1470
1017.820	-782
1017.891	-1892
1017.961	-1614
1018.032	-1993
1018.103	-1189
1018.173	-1235
1018.244	-1497
1018.315	-1652
1018.385	-1344
1018.456	-1066
1018.526	-2241
1018.597	-2218
1018.667	-810
1018.738	-2009
1018.808	-1604
1018.878	-1614
1018.949	-1774
1019.019	-794
1019.089	-623
1019.160	-1292
1019.230	-1745
1019.300	-1518
1019.371	-2081
1019.441	-1207
1019.511	-459
1019.581	-1377
1019.651	-1744
1019.721	-1439
1019.791	-1691
1019.861	-1369
1019.931	46
1020.001	-1341
1020.071	-852
1020.141	-1296
1020.211	-1823
1020.281	-2168
1020.351	-1819
1020.421	-1164
1020.491	-1292
1020.560	-1816
1020.630	-1508
1020.700	-840
1020.770	-1766
1020.839	-1693
1020.909	-1448
1020.979	-1300
1021.048	-1956
1021.118	-1656
1021.187	-2008
1021.257	-936
1021.326	-1763
1021.396	-1073
1021.465	-1246
1021.535	-892
1021.604	-2420
1021.674	-1390
1021.743	-1733
1021.812	-1000
1021.882	-1288
1021.951	-1491
1022.020	-1233
1022.089	-1553
1022.159	-1821
1022.228	-662
1022.297	-881
1022.366	-1457
1022.435	-1277
1022.504	-1370
1022.573	-1898
1022.642	-1530
1022.711	-1565
1022.781	-842
1022.849	-1006
1022.918	-1437
1022.987	-1103
1023.056	-1711
1023.125	-622
1023.194	-822
1023.263	-1250
1023.331	-1708
1023.400	-1405
1023.469	-1998
1023.538	-786
1023.606	-1961
1023.675	-1085
1023.744	-1865
1023.812	-1525
1023.881	-2396
1023.949	-1214
1024.018	-1743
1024.086	-2206
1024.155	-789
1024.223	-1098
1024.292	-2190
1024.360	-663
1024.429	-1398
1024.497	-1594
1024.565	-1647
1024.634	-1860
1024.702	-1421
1024.770	-1014
1024.838	-1308
1024.907	-878
1024.975	-1924
1025.043	-767
1025.111	-2082
1025.179	-1028
1025.247	-1209
1025.315	-893
1025.383	-1515
1025.451	-1192
1025.519	-1258
1025.587	-1321
1025.655	-1541
1025.723	-1440
1025.791	-2144
1025.859	-2215
1025.927	-1500
1025.995	-1571
1026.062	-2164
1026.130	-1195
1026.198	-1263
1026.266	-1414
1026.333	-1474
1026.401	-1632
1026.469	-1760
1026.536	-840
1026.604	-2394
1026.671	-2135
1026.739	-1462
1026.806	-1550
1026.874	-2029
1026.941	-1432
1027.009	-1715
1027.076	-1377
1027.144	-1183
1027.211	-2099
1027.278	-1645
1027.345	-1301
1027.413	-1886
1027.480	-1740
1027.547	-861
1027.614	-1152
1027.682	-1794
1027.749	-1609
1027.816	-1663
1027.883	-1182
1027.950	-1594
1028.017	-1743
1028.084	-764
1028.151	-2152
1028.218	-990
1028.285	-1783
1028.352	-1742
1028.419	-2021
1028.486	-1559
1028.553	-1059
1028.619	-1315
1028.686	-1363
1028.753	-2164
1028.820	-1343
1028.886	-2219
1028.953	-1792
1029.020	-2052
1029.086	-2161
1029.153	-1912
1029.220	-2143
1029.286	-1695
1029.353	-673
1029.419	-1877
1029.486	-1887
1029.552	-2114
1029.619	-1757
1029.685	-1981
1029.751	-1648
1029.818	-1208
1029.884	-1356
1029.951	-1432
1030.017	-2186
1030.083	-1338
1030.149	-1495
1030.216	-1801
1030.282	-1471
1030.348	-2322
1030.414	-2425
1030.480	-1287
1030.546	-1925
1030.612	-1344
1030.678	-1832
1030.744	-1804
1030.810	-1936
1030.876	-1674
1030.942	-1513
1031.008	-1523
1031.074	-2009
1031.140	-1292
1031.206	-1655
1031.272	-2139
1031.337	-1618
1031.403	-1346
1031.469	-1817
1031.534	-2422
1031.600	-1024
1031.666	-2177
1031.731	-2502
1031.797	-1455
1031.863	-1493
1031.928	-2108
1031.994	-1998
1032.059	-1669
1032.125	-1490
1032.190	-1597
1032.256	-1905
1032.321	-2256
1032.386	-1972
1032.452	-2245
1032.517	-1892
1032.582	-1789
1032.647	-2125
1032.713	-1520
1032.778	-1287
1032.843	-1651
1032.908	-1787
1032.974	-1868
1033.039	-2099
1033.104	-1844
1033.169	-2371
1033.234	-1937
1033.299	-1855
1033.364	-422
1033.429	-1438
1033.494	-1456
1033.559	-1499
1033.624	-1717
1033.688	-1251
1033.753	-1818
1033.818	-1412
1033.883	-1044
1033.948	-177
1034.013	-223
1034.077	29
1034.142	468
1034.207	1103
1034.271	2598
1034.336	2970
1034.400	1493
1034.465	-53
1034.530	-405
1034.594	-1298
1034.658	-2310
1034.723	-2054
1034.787	-1425
1034.852	-1704
1034.916	-2167
1034.981	-1824
1035.045	-1783
1035.109	-2004
1035.173	-2059
1035.238	-2444
1035.302	-1615
1035.366	-1606
1035.430	-2439
1035.495	-1620
1035.559	-1655
1035.623	-1745
1035.687	-1331
1035.751	-2533
1035.815	-2616
1035.879	-1670
1035.943	-2005
1036.007	-1940
1036.071	-2237
1036.135	-2288
1036.198	-1487
1036.262	-1525
1036.326	-1285
1036.390	-1572
1036.454	-881
1036.517	-220
1036.581	-1195
1036.645	-876
1036.709	-1049
1036.772	-1860
1036.836	-1907
1036.900	-1162
1036.963	-1967
1037.026	-2145
1037.090	-1105
1037.154	-1589
1037.217	-1803
1037.280	-1728
1037.344	-1632
1037.407	-2457
1037.471	-765
1037.534	-1696
1037.597	-1469
1037.661	-1679
1037.724	-1453
1037.787	-1948
1037.850	-1846
1037.913	-1788
1037.977	-1627
1038.040	-2106
1038.103	-2265
1038.166	-2906
1038.229	-2087
1038.292	-1988
1038.355	-2079
1038.418	-2381
1038.481	-2103
1038.544	-1831
1038.607	-2172
1038.670	-2322
1038.732	-1981
1038.795	-2261
1038.858	-1649
1038.921	-1765
1038.984	-2432
1039.046	-2703
1039.109	-2559
1039.172	-2176
1039.234	-2577
1039.297	-2376
1039.360	-1985
1039.422	-1437
1039.485	-2291
1039.547	-1996
1039.610	-2303
1039.672	-1934
1039.734	-1943
1039.797	-2157
1039.859	-1845
1039.922	-2189
1039.984	-2435
1040.046	-1620
1040.109	-1840
1040.171	-2072
1040.233	-1913
1040.295	-1957
1040.358	-2187
1040.420	-1941
1040.482	-2856
1040.544	-2141
1040.606	-1906
1040.668	-2050
1040.730	-2549
1040.792	-2723
1040.854	-2609
1040.916	-1820
1040.978	-2364
1041.040	-1966
1041.102	-1579
1041.164	-2281
1041.225	-2613
1041.287	-1819
1041.349	-2164
1041.411	-2400
1041.472	-3071
1041.534	-2096
1041.596	-3569
1041.657	-2982
1041.719	-2045
1041.781	-1017
1041.842	-2071
1041.904	-1495
1041.965	-2319
1042.027	-1987
1042.088	-2262
1042.150	-1886
1042.211	-2019
1042.272	-1998
1042.334	-2591
1042.395	-2414
1042.456	-2407
1042.518	-1872
1042.579	-2579
1042.640	-1985
1042.701	-2047
1042.763	-2236
1042.824	-2180
1042.885	-2083
1042.946	-2235
1043.007	-1076
1043.068	-2461
1043.129	-1959
1043.190	-2233
1043.251	-2037
1043.312	-2182
1043.373	-1833
1043.434	-1731
1043.495	-2188
1043.556	-1204
1043.616	-1809
1043.677	-1733
1043.738	-1982
1043.799	-2519
1043.859	-1638
1043.920	-1983
1043.981	-2621
1044.041	-2487
1044.102	-2610
1044.162	-2129
1044.223	-2737
1044.284	-2985
1044.344	-1693
1044.405	-1884
1044.465	-1975
1044.525	-2145
1044.586	-1831
1044.646	-2513
1044.707	-2131
1044.767	-1822
1044.827	-1989
1044.887	-2229
1044.948	-1793
1045.008	-2067
1045.068	-2465
1045.128	-2266
1045.188	-2424
1045.249	-1399
1045.309	-2461
1045.369	-1873
1045.429	-1972
1045.489	-2444
1045.549	-3177
1045.609	-2249
1045.669	-2133
1045.729	-2311
1045.789	-2693
1045.848	-2636
1045.908	-1146
1045.968	-1606
1046.028	-1897
1046.088	-1787
1046.147	-2015
1046.207	-1212
1046.267	-1820
1046.326	-2084
1046.386	-1853
1046.446	-1275
1046.505	-2328
1046.565	-1656
1046.624	-1220
1046.684	-1591
1046.743	-562
1046.803	-1351
1046.862	-891
1046.922	0
