'Start Wavelength	183.907
'End Wavelength	1046.922
'Gate Delay	5.000
'Gate Width (ms)	1.050
'Laser Output Level	0.000
'X Position	0.000
'Y Position	0.000
'Z Position	0.000
'Grid Point Number	1.000
'Shot Number	100.000
183.907	81.000
183.977	507.000
184.047	31
184.116	638
184.186	152
184.256	455
184.325	-459
184.395	-955
184.465	825
184.534	-310
184.604	-941
184.674	103
184.743	-779
184.813	1050
184.883	-89
184.952	160
185.022	205
185.092	225
185.161	-857
185.231	-388
185.301	-425
185.370	684
185.440	-479
185.509	-778
185.579	-188
185.649	388
185.718	651
185.788	427
185.857	-225
185.927	-232
185.996	350
186.066	-54
186.136	216
186.205	-69
186.275	9
186.344	-440
186.414	-568
186.483	-154
186.553	589
186.622	215
186.692	129
186.761	320
186.831	178
186.900	514
186.970	207
187.039	816
187.109	948
187.178	778
187.248	311
187.317	270
187.387	-283
187.456	712
187.526	-87
187.595	368
187.664	246
187.734	806
187.803	271
187.873	295
187.942	207
188.012	406
188.081	419
188.150	12
188.220	-183
188.289	638
188.358	165
188.428	934
188.497	-13
188.567	839
188.636	-216
188.705	734
188.775	-175
188.844	-267
188.913	259
188.983	536
189.052	-331
189.121	690
189.191	-116
189.260	406
189.329	-323
189.399	132
189.468	707
189.537	-112
189.606	898
189.676	-80
189.745	331
189.814	250
189.883	83
189.953	632
190.022	-125
190.091	1039
190.161	818
190.230	410
190.299	-346
190.368	620
190.437	167
190.507	316
190.576	118
190.645	272
190.714	-102
190.783	234
190.853	337
190.922	863
190.991	133
191.060	1136
191.129	-72
191.198	520
191.268	-133
191.337	-89
191.406	293
191.475	256
191.544	-569
191.613	347
191.682	-166
191.752	30
191.821	187
191.890	-269
191.959	417
192.028	29
192.097	-328
192.166	804
192.235	-316
192.304	515
192.373	-175
192.442	568
192.511	-725
192.580	-314
192.650	-341
192.719	-172
192.788	111
192.857	314
192.926	191
192.995	250
193.064	544
193.133	611
193.202	880
193.271	806
193.340	1210
193.409	12
193.478	553
193.547	631
193.615	785
193.684	1046
193.753	1319
193.822	414
193.891	141
193.960	739
194.029	352
194.098	470
194.167	337
194.236	214
194.305	673
194.374	68
194.443	-111
194.512	736
194.580	200
194.649	1133
194.718	784
194.787	295
194.856	-119
194.925	451
194.994	41
195.062	1004
195.131	663
195.200	552
195.269	886
195.338	-94
195.407	1311
195.475	-159
195.544	724
195.613	-34
195.682	632
195.751	69
195.819	651
195.888	1130
195.957	559
196.026	1006
196.094	416
196.163	-169
196.232	-40
196.301	928
196.369	390
196.438	682
196.507	152
196.576	660
196.644	702
196.713	668
196.782	72
196.850	300
196.919	-309
196.988	714
197.056	182
197.125	728
197.194	705
197.262	-164
197.331	175
197.400	-445
197.468	1008
197.537	36
197.606	304
197.674	969
197.743	1086
197.812	943
197.880	731
197.949	545
198.017	1222
198.086	213
198.155	424
198.223	1115
198.292	862
198.360	419
198.429	301
198.497	575
198.566	698
198.635	1420
198.703	977
198.772	637
198.840	731
198.909	1235
198.977	890
199.046	240
199.114	255
199.183	664
199.251	626
199.320	-112
199.388	692
199.457	624
199.525	501
199.594	477
199.662	495
199.731	-150
199.799	681
199.867	312
199.936	-204
200.004	1918
200.073	721
200.141	1442
200.210	38
200.278	782
200.346	141
200.415	597
200.483	1011
200.552	660
200.620	836
200.688	1425
200.757	462
200.825	258
200.893	384
200.962	991
201.030	173
201.098	582
201.167	909
201.235	1282
201.303	-106
201.372	1286
201.440	582
201.508	1286
201.577	1027
201.645	1061
201.713	504
201.781	1236
201.850	1231
201.918	1054
201.986	669
202.055	1214
202.123	11
202.191	745
202.259	-2
202.327	-583
202.396	425
202.464	866
202.532	1175
202.600	1563
202.669	1088
202.737	662
202.805	290
202.873	840
202.941	1014
203.009	149
203.078	389
203.146	1000
203.214	752
203.282	-268
203.350	262
203.418	601
203.487	355
203.555	418
203.623	223
203.691	663
203.759	180
203.827	451
203.895	330
203.963	-321
204.031	164
204.099	627
204.168	-422
204.236	1266
204.304	1049
204.372	927
204.440	558
204.508	-1380
204.576	-305
204.644	999
204.712	-7
204.780	760
204.848	1302
204.916	-66
204.984	573
205.052	1203
205.120	90
205.188	667
205.256	-182
205.324	55
205.392	439
205.460	1166
205.528	-55
205.596	1082
205.664	451
205.732	681
205.799	1328
205.867	1930
205.935	256
206.003	1080
206.071	808
206.139	134
206.207	553
206.275	344
206.343	-39
206.411	1030
206.478	153
206.546	592
206.614	-216
206.682	73
206.750	823
206.818	402
206.885	1144
206.953	773
207.021	2068
207.089	710
207.157	47
207.225	433
207.292	-190
207.360	154
207.428	299
207.496	47
207.563	546
207.631	547
207.699	-71
207.767	1363
207.834	-105
207.902	608
207.970	101
208.038	144
208.105	442
208.173	819
208.241	825
208.309	1495
208.376	1335
208.444	1945
208.512	1294
208.579	25
208.647	1026
208.715	1446
208.782	1068
208.850	1340
208.918	680
208.985	1016
209.053	784
209.120	903
209.188	526
209.256	258
209.323	-372
209.391	984
209.459	1840
209.526	1332
209.594	302
209.661	87
209.729	97
209.796	490
209.864	290
209.932	-401
209.999	1721
210.067	615
210.134	109
210.202	959
210.269	1141
210.337	1997
210.404	1274
210.472	895
210.539	894
210.607	528
210.674	1356
210.742	1391
210.809	91
210.877	1695
210.944	1588
211.012	-217
211.079	1814
211.146	468
211.214	727
211.281	2167
211.349	1945
211.416	933
211.484	1301
211.551	250
211.618	814
211.686	703
211.753	748
211.821	1351
211.888	303
211.955	893
212.023	645
212.090	965
212.157	801
212.225	998
212.292	1703
212.359	2650
212.427	6871
212.494	3765
212.561	1235
212.629	1237
212.696	1332
212.763	1266
212.831	17
212.898	1517
212.965	90
213.032	314
213.100	647
213.167	1195
213.234	1020
213.301	1440
213.369	900
213.436	1452
213.503	-86
213.570	893
213.638	596
213.705	880
213.772	696
213.839	442
213.906	1683
213.973	1031
214.041	-149
214.108	929
214.175	917
214.242	410
214.309	884
214.376	1092
214.444	800
214.511	1030
214.578	1590
214.645	1498
214.712	1204
214.779	894
214.846	753
214.913	1971
214.980	1986
215.048	1730
215.115	1756
215.182	1083
215.249	601
215.316	719
215.383	1089
215.450	640
215.517	889
215.584	1767
215.651	974
215.718	1750
215.785	467
215.852	622
215.919	1124
215.986	745
216.053	840
216.120	755
216.187	620
216.254	1173
216.321	427
216.388	868
216.455	558
216.522	890
216.589	1435
216.656	1688
216.722	1743
216.789	1468
216.856	1546
216.923	1646
216.990	896
217.057	1377
217.124	2032
217.191	1282
217.258	2350
217.324	2149
217.391	2222
217.458	1695
217.525	1280
217.592	766
217.659	211
217.725	2044
217.792	1616
217.859	2457
217.926	333
217.993	1080
218.059	1571
218.126	613
218.193	599
218.260	1326
218.327	-52
218.393	410
218.460	744
218.527	830
218.594	1036
218.660	1247
218.727	1341
218.794	102
218.860	1466
218.927	346
218.994	777
219.061	751
219.127	712
219.194	1053
219.261	1230
219.327	1059
219.394	1599
219.461	-139
219.527	1348
219.594	1313
219.661	1475
219.727	134
219.794	1101
219.860	656
219.927	1220
219.994	1347
220.060	2358
220.127	3264
220.193	1819
220.260	1767
220.326	3121
220.393	2244
220.460	2695
220.526	2806
220.593	1084
220.659	3249
220.726	1243
220.792	4888
220.859	4538
220.925	5082
220.992	5571
221.058	5573
221.125	5644
221.191	3347
221.258	1742
221.324	2200
221.391	666
221.457	469
221.524	1814
221.590	2183
221.657	4652
221.723	2980
221.789	2393
221.856	3056
221.922	1258
221.989	1736
222.055	900
222.121	733
222.188	2699
222.254	1153
222.321	1181
222.387	446
222.453	739
222.520	672
222.586	-228
222.652	327
222.719	379
222.785	1279
222.851	329
222.918	1190
222.984	452
223.050	680
223.116	-547
223.183	1123
223.249	776
223.315	1157
223.382	774
223.448	602
223.514	-296
223.580	132
223.647	509
223.713	456
223.779	-516
223.845	922
223.911	940
223.978	-180
224.044	790
224.110	291
224.176	527
224.242	794
224.309	2
224.375	514
224.441	1585
224.507	478
224.573	27
224.639	898
224.705	720
224.772	259
224.838	-15
224.904	899
224.970	593
225.036	195
225.102	-123
225.168	1695
225.234	1968
225.300	610
225.366	196
225.432	989
225.499	486
225.565	144
225.631	583
225.697	1423
225.763	1357
225.829	1060
225.895	907
225.961	1183
226.027	2363
226.093	1842
226.159	2590
226.225	3963
226.291	6267
226.357	9798
226.423	5054
226.489	3467
226.554	2612
226.620	1799
226.686	2889
226.752	4216
226.818	6209
226.884	11254
226.950	9702
227.016	5425
227.082	3272
227.148	2518
227.214	1947
227.279	1544
227.345	1246
227.411	2487
227.477	2469
227.543	4314
227.609	4107
227.674	3741
227.740	2421
227.806	2263
227.872	1267
227.938	1399
228.003	1778
228.069	1590
228.135	798
228.201	1243
228.267	1238
228.332	1212
228.398	-208
228.464	267
228.530	-58
228.595	1365
228.661	300
228.727	879
228.792	2276
228.858	563
228.924	-225
228.990	2017
229.055	-634
229.121	1151
229.187	689
229.252	809
229.318	1018
229.384	1251
229.449	827
229.515	-466
229.581	-357
229.646	2094
229.712	1062
229.777	1753
229.843	2083
229.909	1504
229.974	1230
230.040	1772
230.105	1761
230.171	1276
230.236	2595
230.302	1878
230.368	1388
230.433	1074
230.499	1273
230.564	2731
230.630	-200
230.695	1290
230.761	807
230.826	-221
230.892	1732
230.957	-203
231.023	842
231.088	868
231.154	314
231.219	1505
231.284	231
231.350	1175
231.415	57
231.481	1182
231.546	747
231.612	1105
231.677	-23
231.742	-572
231.808	1386
231.873	438
231.939	-515
232.004	1998
232.069	2100
232.135	824
232.200	52
232.265	1228
232.331	158
232.396	95
232.461	285
232.527	383
232.592	547
232.657	354
232.723	267
232.788	176
232.853	1164
232.918	536
232.984	886
233.049	453
233.114	-17
233.179	1880
233.245	1965
233.310	2246
233.375	-423
233.440	1129
233.506	372
233.571	540
233.636	168
233.701	1135
233.766	1288
233.832	1468
233.897	961
233.962	270
234.027	1422
234.092	1714
234.157	1188
234.222	974
234.288	2042
234.353	4986
234.418	4210
234.483	3244
234.548	1893
234.613	1017
234.678	1724
234.743	1070
234.808	4929
234.873	1827
234.938	1840
235.004	2016
235.069	861
235.134	564
235.199	1578
235.264	1235
235.329	266
235.394	1435
235.459	1652
235.524	708
235.589	1198
235.654	611
235.719	-392
235.784	1635
235.849	832
235.913	2333
235.978	2505
236.043	2930
236.108	1268
236.173	680
236.238	2572
236.303	1248
236.368	460
236.433	2816
236.498	3054
236.563	3213
236.627	4838
236.692	16049
236.757	14422
236.822	5912
236.887	4565
236.952	4231
237.017	2137
237.081	3510
237.146	3498
237.211	9564
237.276	16113
237.341	24044
237.405	12530
237.470	6273
237.535	4091
237.600	2466
237.664	3120
237.729	1201
237.794	1238
237.859	6219
237.923	3752
237.988	1168
238.053	3360
238.118	3084
238.182	6199
238.247	6257
238.312	1896
238.376	2378
238.441	879
238.506	3158
238.570	595
238.635	2704
238.700	1527
238.764	1777
238.829	2384
238.893	2105
238.958	1823
239.023	1653
239.087	481
239.152	1827
239.216	868
239.281	1784
239.346	815
239.410	797
239.475	1177
239.539	7249
239.604	4681
239.668	3394
239.733	1512
239.797	5552
239.862	8240
239.926	9139
239.991	4011
240.055	2962
240.120	1715
240.184	1851
240.249	1402
240.313	1139
240.378	1444
240.442	3654
240.507	6254
240.571	2367
240.635	2907
240.700	4636
240.764	1742
240.829	1376
240.893	191
240.957	2071
241.022	4520
241.086	6094
241.151	1793
241.215	1398
241.279	2256
241.344	3024
241.408	2067
241.472	1347
241.537	2378
241.601	2499
241.665	488
241.730	715
241.794	1371
241.858	1123
241.922	1329
241.987	1756
242.051	1311
242.115	-405
242.179	1051
242.244	870
242.308	2517
242.372	1412
242.436	1796
242.501	1968
242.565	-168
242.629	1761
242.693	1634
242.757	704
242.822	707
242.886	2110
242.950	2048
243.014	469
243.078	1839
243.142	1482
243.206	774
243.271	2668
243.335	1710
243.399	2952
243.463	7742
243.527	22027
243.591	6361
243.655	3726
243.719	1506
243.783	3002
243.847	2854
243.911	4806
243.975	4206
244.040	2758
244.104	3384
244.168	2143
244.232	1516
244.296	2759
244.360	3348
244.424	1791
244.488	1517
244.552	1819
244.615	-365
244.679	1556
244.743	1242
244.807	1037
244.871	1248
244.935	1882
244.999	-619
245.063	1703
245.127	2865
245.191	3008
245.255	2250
245.319	2509
245.383	958
245.446	2221
245.510	542
245.574	1812
245.638	1098
245.702	348
245.766	3077
245.829	3824
245.893	1396
245.957	1754
246.021	2672
246.085	1198
246.149	2101
246.212	6591
246.276	6288
246.340	3017
246.404	2580
246.467	2502
246.531	1847
246.595	3180
246.659	2743
246.722	2201
246.786	2516
246.850	2192
246.913	3383
246.977	1095
247.041	1167
247.104	2073
247.168	2195
247.232	5109
247.295	9026
247.359	5178
247.423	2342
247.486	4443
247.550	3123
247.614	2010
247.677	2480
247.741	2359
247.804	2113
247.868	4079
247.932	4044
247.995	10259
248.059	3739
248.122	1437
248.186	3948
248.249	5338
248.313	14188
248.376	15424
248.440	9911
248.503	3817
248.567	4880
248.630	5315
248.694	6411
248.757	8692
248.821	16149
248.884	11292
248.948	8695
249.011	12859
249.075	18589
249.138	16199
249.202	7393
249.265	4856
249.328	6285
249.392	3601
249.455	4390
249.519	4402
249.582	3901
249.645	6374
249.709	5151
249.772	3805
249.835	3443
249.899	3618
249.962	3304
250.025	3131
250.089	6188
250.152	8635
250.215	4990
250.279	4412
250.342	4167
250.405	4261
250.468	3185
250.532	4929
250.595	6408
250.658	21470
250.721	35450
250.785	12593
250.848	8502
250.911	4488
250.974	4586
251.038	5697
251.101	11393
251.164	6189
251.227	6261
251.290	6562
251.354	8443
251.417	32543
251.480	30870
251.543	20952
251.606	56293
251.669	40955
251.732	16028
251.795	15702
251.859	15749
251.922	35519
251.985	20491
252.048	10392
252.111	7229
252.174	6696
252.237	11988
252.300	20821
252.363	22663
252.426	45498
252.489	19333
252.552	10706
252.615	7898
252.678	8430
252.741	16452
252.804	21405
252.867	47394
252.930	26288
252.993	13514
253.056	9998
253.119	6586
253.182	5658
253.245	8144
253.308	7398
253.371	6151
253.434	6124
253.497	5914
253.559	10352
253.622	7256
253.685	9117
253.748	9343
253.811	4287
253.874	6408
253.937	4828
254.000	4470
254.062	7036
254.125	10008
254.188	11516
254.251	8508
254.314	4175
254.376	7899
254.439	8473
254.502	7454
254.565	7315
254.628	12710
254.690	7941
254.753	3993
254.816	3883
254.878	4692
254.941	8140
255.004	7274
255.067	4748
255.129	3567
255.192	2518
255.255	2013
255.317	2964
255.380	2647
255.443	587
255.505	1984
255.568	901
255.631	1514
255.693	1944
255.756	1585
255.819	3020
255.881	1861
255.944	2619
256.006	1345
256.069	2088
256.132	1380
256.194	2624
256.257	5911
256.319	4992
256.382	4271
256.444	4095
256.507	2851
256.569	3017
256.632	2413
256.694	3862
256.757	11075
256.819	29593
256.882	12080
256.944	6069
257.007	4985
257.069	4509
257.132	3780
257.194	3441
257.257	2311
257.319	2213
257.381	3107
257.444	9742
257.506	32491
257.569	34618
257.631	13031
257.693	8039
257.756	4199
257.818	3593
257.880	2797
257.943	3217
258.005	1538
258.067	2442
258.130	2274
258.192	2239
258.254	5174
258.317	3525
258.379	2656
258.441	5038
258.503	4671
258.566	6687
258.628	9388
258.690	2442
258.753	3494
258.815	5788
258.877	3510
258.939	2516
259.001	2227
259.064	2135
259.126	2433
259.188	2765
259.250	3212
259.312	2515
259.375	4157
259.437	2788
259.499	2169
259.561	2076
259.623	2424
259.685	2560
259.747	2675
259.809	7135
259.872	12014
259.934	18082
259.996	17806
260.058	6182
260.120	2337
260.182	2985
260.244	1946
260.306	1613
260.368	2683
260.430	2414
260.492	5075
260.554	7171
260.616	2943
260.678	9213
260.740	10942
260.802	3463
260.864	3226
260.926	2410
260.988	3712
261.050	2848
261.112	7691
261.174	16088
261.236	10076
261.298	3726
261.359	5997
261.421	8413
261.483	2985
261.545	4296
261.607	1322
261.669	2937
261.731	4266
261.793	9123
261.854	2886
261.916	3341
261.978	2837
262.040	4661
262.102	3117
262.164	3461
262.225	3153
262.287	2941
262.349	4569
262.411	4165
262.472	2509
262.534	3743
262.596	7640
262.658	3688
262.719	1475
262.781	3844
262.843	7231
262.904	5040
262.966	3433
263.028	4505
263.090	14816
263.151	33814
263.213	11307
263.275	7448
263.336	3322
263.398	2608
263.459	1654
263.521	2791
263.583	5630
263.644	3749
263.706	2708
263.767	1813
263.829	1646
263.891	2163
263.952	1525
264.014	1596
264.075	3576
264.137	9127
264.198	4347
264.260	2166
264.321	1819
264.383	5929
264.444	12032
264.506	3890
264.567	3066
264.629	6355
264.690	9446
264.752	4724
264.813	1774
264.875	2280
264.936	2882
264.998	2400
265.059	2553
265.120	3030
265.182	3063
265.243	15840
265.305	16138
265.366	4803
265.427	2287
265.489	2809
265.550	1137
265.611	2547
265.673	2372
265.734	2413
265.795	1788
265.857	1722
265.918	2411
265.979	5736
266.040	24872
266.102	21179
266.163	6987
266.224	5149
266.286	3286
266.347	2741
266.408	2305
266.469	3089
266.530	2459
266.592	2506
266.653	3508
266.714	5619
266.775	2475
266.836	1882
266.898	1582
266.959	3229
267.020	3039
267.081	2913
267.142	1813
267.203	1915
267.264	988
267.326	2857
267.387	1440
267.448	1609
267.509	2203
267.570	1282
267.631	979
267.692	537
267.753	1652
267.814	2228
267.875	3060
267.936	6254
267.997	4043
268.058	2943
268.119	1515
268.180	2381
268.241	795
268.302	2029
268.363	1663
268.424	1988
268.485	1916
268.546	1539
268.607	1201
268.668	679
268.729	1305
268.790	2242
268.851	1274
268.912	5153
268.972	5878
269.033	2407
269.094	684
269.155	1312
269.216	955
269.277	1413
269.338	1201
269.398	2158
269.459	2373
269.520	2471
269.581	3842
269.642	3737
269.702	2478
269.763	2212
269.824	1235
269.885	2409
269.945	3421
270.006	2148
270.067	1064
270.128	2062
270.188	1165
270.249	1675
270.310	910
270.370	1594
270.431	1533
270.492	1507
270.553	2776
270.613	4206
270.674	6289
270.734	2978
270.795	2256
270.856	3273
270.916	1796
270.977	2117
271.038	2191
271.098	2661
271.159	3242
271.219	2950
271.280	2541
271.340	2012
271.401	1687
271.462	4228
271.522	3489
271.583	2824
271.643	2202
271.704	2914
271.764	3114
271.825	5708
271.885	16484
271.946	21082
272.006	7568
272.066	10707
272.127	16884
272.187	8887
272.248	5144
272.308	4330
272.369	10434
272.429	6464
272.489	5695
272.550	6666
272.610	6542
272.671	5543
272.731	4763
272.791	6716
272.852	4515
272.912	4320
272.972	2442
273.033	3116
273.093	3504
273.153	4627
273.214	2862
273.274	4061
273.334	9788
273.394	17042
273.455	7864
273.515	8808
273.575	13707
273.635	8271
273.696	9053
273.756	15549
273.816	7541
273.876	5943
273.936	9144
273.997	14951
274.057	5771
274.117	4817
274.177	6140
274.237	19894
274.297	15864
274.358	11628
274.418	12420
274.478	9984
274.538	4506
274.598	4128
274.658	11605
274.718	13909
274.778	7013
274.838	4257
274.898	6885
274.958	19038
275.018	16865
275.078	11477
275.138	5960
275.198	3531
275.258	3237
275.318	3295
275.378	6310
275.438	6038
275.498	4621
275.558	9824
275.618	17761
275.678	9999
275.738	7942
275.798	7067
275.858	3664
275.918	3307
275.978	3855
276.038	3064
276.098	2797
276.157	5173
276.217	12006
276.277	7198
276.337	5028
276.397	3751
276.457	4054
276.517	4127
276.576	3540
276.636	3354
276.696	4339
276.756	7610
276.815	5578
276.875	3975
276.935	3689
276.995	3867
277.055	3664
277.114	4383
277.174	3999
277.234	8826
277.293	5032
277.353	3279
277.413	2924
277.472	4115
277.532	4052
277.592	5006
277.651	14291
277.711	23944
277.771	9810
277.830	26556
277.890	22779
277.950	19067
278.009	45674
278.069	19291
278.128	19368
278.188	26731
278.248	12297
278.307	28196
278.367	17859
278.426	7491
278.486	4920
278.545	4817
278.605	4761
278.664	4043
278.724	4888
278.783	9044
278.843	17781
278.902	7391
278.962	6084
279.021	6621
279.081	12582
279.140	12738
279.199	7687
279.259	8486
279.318	8674
279.378	12977
279.437	17063
279.496	40032
279.556	134350
279.615	116399
279.675	39582
279.734	21583
279.793	26330
279.853	29369
279.912	13522
279.971	10852
280.031	9483
280.090	11906
280.149	15184
280.208	24938
280.268	97410
280.327	104165
280.386	30303
280.445	18947
280.505	13698
280.564	10095
280.623	7840
280.682	9335
280.742	11773
280.801	6037
280.860	5457
280.919	5099
280.978	4766
281.037	5092
281.097	3735
281.156	5264
281.215	4541
281.274	4743
281.333	11920
281.392	8367
281.451	3838
281.510	3816
281.569	3020
281.628	3696
281.688	3547
281.747	4020
281.806	3645
281.865	3421
281.924	3215
281.983	3474
282.042	2272
282.101	2530
282.160	3102
282.219	2565
282.278	3555
282.337	7968
282.396	5760
282.454	3881
282.513	3993
282.572	10851
282.631	6972
282.690	3329
282.749	2869
282.808	3431
282.867	3581
282.926	3909
282.985	3765
283.043	2829
283.102	3429
283.161	4173
283.220	6305
283.279	12536
283.338	6053
283.396	4688
283.455	3842
283.514	4408
283.573	6473
283.631	5505
283.690	4171
283.749	3771
283.808	7327
283.866	7774
283.925	3735
283.984	4541
284.043	6310
284.101	6082
284.160	5360
284.219	7597
284.277	6502
284.336	7711
284.395	15908
284.453	13711
284.512	8738
284.570	10546
284.629	11494
284.688	11408
284.746	12728
284.805	15562
284.863	19405
284.922	24356
284.981	30017
285.039	40859
285.098	57312
285.156	84524
285.215	114482
285.273	116129
285.332	92614
285.390	65598
285.449	45795
285.507	34430
285.566	25966
285.624	21496
285.683	16905
285.741	14690
285.799	12153
285.858	12705
285.916	10095
285.975	8901
286.033	7496
286.091	7407
286.150	6597
286.208	6667
286.267	6855
286.325	6689
286.383	8808
286.442	6966
286.500	4621
286.558	5640
286.616	5032
286.675	5821
286.733	5474
286.791	5473
286.850	5336
286.908	5864
286.966	7165
287.024	4385
287.083	3641
287.141	4887
287.199	5451
287.257	5647
287.315	4649
287.374	4425
287.432	7702
287.490	6168
287.548	4836
287.606	3923
287.664	3543
287.723	5324
287.781	6612
287.839	4941
287.897	5148
287.955	6667
288.013	8470
288.071	15734
288.129	50519
288.187	138659
288.245	69786
288.303	23638
288.361	12719
288.419	9713
288.477	7428
288.535	6351
288.593	4640
288.651	5295
288.709	4031
288.767	4606
288.825	3915
288.883	4528
288.941	3419
288.999	3593
289.057	2823
289.115	3893
289.173	3366
289.231	3110
289.289	2981
289.346	3745
289.404	3610
289.462	5622
289.520	5104
289.578	4044
289.636	2406
289.694	2816
289.751	2670
289.809	2747
289.867	2909
289.925	4012
289.983	2958
290.040	3627
290.098	2694
290.156	3766
290.214	3507
290.271	2475
290.329	3203
290.387	3099
290.444	2615
290.502	2350
290.560	2080
290.617	3020
290.675	2706
290.733	2710
290.790	2681
290.848	2989
290.906	3660
290.963	3359
291.021	3116
291.078	2784
291.136	3109
291.194	7747
291.251	14131
291.309	6135
291.366	3288
291.424	3063
291.481	3116
291.539	3386
291.596	3947
291.654	3579
291.711	3322
291.769	3588
291.826	5287
291.884	4142
291.941	2076
291.999	3377
292.056	2863
292.114	3626
292.171	2756
292.228	3677
292.286	3415
292.343	5445
292.401	5850
292.458	4500
292.515	3585
292.573	4551
292.630	4097
292.687	4549
292.745	3445
292.802	5265
292.859	11478
292.917	15864
292.974	8170
293.031	4752
293.089	3314
293.146	3195
293.203	2868
293.260	2293
293.318	2913
293.375	6391
293.432	4327
293.489	3631
293.546	3351
293.604	4998
293.661	12565
293.718	24948
293.775	14680
293.832	7708
293.889	6367
293.947	6061
294.004	4840
294.061	4403
294.118	6625
294.175	15544
294.232	22461
294.289	11543
294.346	6724
294.403	5702
294.460	5034
294.517	4860
294.574	4778
294.631	4782
294.688	3656
294.745	7577
294.802	23966
294.859	30556
294.916	12686
294.973	6056
295.030	5850
295.087	4714
295.144	4031
295.201	4422
295.258	4354
295.315	4613
295.372	9356
295.429	16635
295.486	10634
295.542	7205
295.599	14478
295.656	24658
295.713	16611
295.770	16845
295.827	8368
295.883	5621
295.940	4636
295.997	6140
296.054	6784
296.111	4211
296.167	3991
296.224	3189
296.281	2692
296.338	3005
296.394	3307
296.451	4959
296.508	8310
296.564	14863
296.621	11884
296.678	19712
296.734	28663
296.791	13940
296.848	8087
296.904	7361
296.961	12434
297.018	18276
297.074	14504
297.131	8431
297.187	6317
297.244	7313
297.301	16773
297.357	30832
297.414	12975
297.470	6388
297.527	4303
297.583	4637
297.640	4772
297.696	4366
297.753	2811
297.809	3023
297.866	3021
297.922	3463
297.979	2516
298.035	3527
298.092	4423
298.148	10787
298.204	11780
298.261	7132
298.317	10185
298.374	23384
298.430	15249
298.486	8006
298.543	6656
298.599	6798
298.656	7212
298.712	9942
298.768	19309
298.824	14843
298.881	7136
298.937	4062
298.993	4618
299.050	5100
299.106	4477
299.162	4277
299.218	5127
299.275	4733
299.331	3936
299.387	7366
299.443	20615
299.500	29212
299.556	15900
299.612	8273
299.668	8133
299.724	13830
299.780	14856
299.837	8524
299.893	8674
299.949	20781
300.005	27039
300.061	21834
300.117	35404
300.173	18464
300.229	9869
300.285	10641
300.341	10935
300.397	7190
300.453	5735
300.510	4757
300.566	5127
300.622	7496
300.678	21426
300.734	31959
300.790	22340
300.845	23435
300.901	19295
300.957	25415
301.013	18181
301.069	8966
301.125	6288
301.181	6580
301.237	5449
301.293	4063
301.349	3721
301.405	4518
301.461	4435
301.516	6098
301.572	5979
301.628	7708
301.684	7074
301.740	9495
301.796	13223
301.851	10982
301.907	15505
301.963	14211
302.019	21066
302.074	53020
302.130	56212
302.186	30792
302.242	13622
302.297	8620
302.353	7711
302.409	12930
302.464	12467
302.520	10144
302.576	20841
302.631	24582
302.687	15542
302.743	7914
302.798	6057
302.854	5640
302.910	5254
302.965	6123
303.021	9605
303.076	9685
303.132	10424
303.187	11595
303.243	7124
303.299	5370
303.354	4033
303.410	3773
303.465	3854
303.521	4045
303.576	3747
303.632	5405
303.687	7257
303.743	19042
303.798	18597
303.853	8854
303.909	5332
303.964	4254
304.020	6935
304.075	9655
304.130	9284
304.186	13871
304.241	13533
304.297	11842
304.352	6619
304.358	6521
304.407	5723
304.449	5657
304.463	5638
304.518	4479
304.539	4596
304.573	4776
304.629	5787
304.630	5801
304.684	6871
304.720	12713
304.739	15495
304.794	22183
304.811	19901
304.850	14413
304.902	7943
304.905	7542
304.960	6095
304.992	6236
305.015	6296
305.071	5986
305.083	5820
305.126	5151
305.173	4016
305.181	3863
305.236	4246
305.264	4791
305.292	5297
305.347	5841
305.354	5787
305.402	5559
305.445	6862
305.457	7197
305.512	7161
305.535	7082
305.567	7087
305.622	7336
305.626	7517
305.678	12654
305.716	21759
305.733	24391
305.788	26223
305.807	23259
305.843	19418
305.897	22822
305.898	22825
305.953	22308
305.988	16118
306.008	13113
306.063	8132
306.078	7389
306.118	5868
306.168	4960
306.173	4861
306.228	4711
306.259	4166
306.283	3994
306.338	5044
306.349	5247
306.393	6073
306.440	6662
306.448	6757
306.503	7810
306.530	7769
306.558	9263
306.613	17898
306.620	19106
306.668	25235
306.711	27551
306.723	26955
306.778	18935
306.801	14907
306.833	11310
306.888	6776
306.892	6658
306.943	6116
306.982	5444
306.997	5302
307.052	5201
307.072	5389
307.107	6496
307.162	8939
307.163	8974
307.217	13161
307.253	15916
307.272	16269
307.327	17087
307.343	15661
307.381	13323
307.434	11418
307.436	11637
307.491	21014
307.524	29317
307.546	30392
307.600	25569
307.614	22790
307.655	15681
307.704	10026
307.710	10048
307.765	13175
307.795	16378
307.819	18650
307.874	27528
307.885	27914
307.929	24836
307.975	19142
307.984	19534
308.038	25323
308.065	30305
308.093	49551
308.148	95533
308.156	105030
308.202	140655
308.246	162703
308.257	158032
308.312	95644
308.336	68632
308.366	52772
308.421	31836
308.426	30278
308.475	22394
308.517	17340
308.530	16364
308.585	14592
308.607	13938
308.639	14595
308.694	16700
308.697	16922
308.748	27630
308.787	38747
308.803	38508
308.857	30846
308.877	26729
308.912	25072
308.967	25281
308.967	25298
309.021	35005
309.058	42552
309.076	51679
309.130	82883
309.148	94295
309.185	143243
309.238	224623
309.239	225181
309.293	231747
309.328	217326
309.348	194156
309.402	111834
309.418	89897
309.457	68151
309.508	46941
309.511	46686
309.566	47282
309.598	48919
309.620	56818
309.674	81115
309.688	87402
309.729	81996
309.778	69380
309.783	68027
309.837	48517
309.868	38269
309.892	40153
309.946	46536
309.959	48734
310.001	52096
310.049	54152
310.055	52338
310.109	33162
310.139	22513
310.163	19522
310.218	14315
310.229	13305
310.272	11693
310.319	10593
310.326	10447
310.381	9505
310.409	9199
310.435	9339
310.489	8998
310.499	9049
310.543	9592
310.589	9908
310.598	9817
310.652	9580
310.679	9216
310.706	8447
310.760	6810
310.769	6554
310.814	6162
310.859	6035
310.868	6097
310.923	6318
310.948	6445
310.977	6952
311.031	7937
311.038	8066
311.085	7589
311.128	6932
311.139	6995
311.193	7512
311.218	7639
311.247	7324
311.301	6872
311.308	6797
311.356	7015
311.398	7194
311.410	7068
311.464	6411
311.488	6123
311.518	6420
311.572	6953
311.578	7007
311.626	8384
311.668	9579
311.680	9851
311.734	10914
311.758	11368
311.788	10594
311.842	9141
311.847	8976
311.896	13050
311.937	16577
311.950	15955
312.004	13049
312.027	11735
312.058	10357
312.112	7876
312.117	7619
312.165	7529
312.207	7438
312.297	12427
312.386	8666
312.476	9342
312.566	13474
312.656	8121
312.745	6911
312.835	8560
312.925	8070
313.015	8459
313.104	9545
313.194	11470
313.284	12264
313.374	10811
313.463	9454
313.553	8404
313.643	7991
313.732	8382
313.822	8320
313.912	9034
314.001	10224
314.091	12686
314.180	14121
314.270	12960
314.360	12778
314.449	11811
314.539	8879
314.628	9132
314.718	10629
314.808	12541
314.897	9293
314.987	9931
315.076	11411
315.166	13391
315.255	13561
315.345	14043
315.434	12516
315.524	12413
315.613	14156
315.703	21399
315.792	54182
315.881	166930
315.971	48812
316.060	24789
316.150	29197
316.239	28005
316.328	12736
316.418	10647
316.507	11205
316.597	13755
316.686	12856
316.775	19095
316.865	29325
316.954	11931
317.043	12208
317.133	9777
317.222	8814
317.311	9827
317.400	8173
317.490	12757
317.579	13649
317.668	15536
317.757	25797
317.847	88945
317.936	242923
318.025	76608
318.114	68399
318.203	29182
318.293	20905
318.382	30925
318.471	26472
318.560	37234
318.649	56405
318.738	15571
318.828	12776
318.917	11912
319.006	15341
319.095	35075
319.184	70443
319.273	35166
319.362	21818
319.451	11500
319.540	9628
319.629	19076
319.718	24068
319.807	15071
319.896	32213
319.985	82962
320.074	26804
320.163	13376
320.252	19479
320.341	17065
320.430	16054
320.519	17798
320.608	11378
320.697	13042
320.786	13388
320.875	16290
320.964	18530
321.053	23918
321.142	32185
321.230	31038
321.319	32753
321.408	54248
321.497	26452
321.586	27551
321.675	32580
321.764	29738
321.852	23277
321.941	33185
322.030	23623
322.119	32402
322.207	54999
322.296	45344
322.385	30490
322.474	34192
322.562	67293
322.651	34749
322.740	28456
322.829	34623
322.917	39040
323.006	22705
323.095	20261
323.183	19417
323.272	26033
323.361	40752
323.449	90490
323.538	31257
323.626	70696
323.715	33689
323.804	22382
323.892	65558
323.981	29155
324.069	14482
324.158	40032
324.246	28394
324.335	15340
324.424	18382
324.512	9849
324.601	12334
324.689	20278
324.778	29163
324.866	24547
324.954	9830
325.043	10452
325.131	19340
325.220	30590
325.308	31476
325.397	25051
325.485	14075
325.574	6884
325.662	7754
325.750	8013
325.839	7571
325.927	7734
326.015	10019
326.104	16260
326.192	18686
326.280	7478
326.369	8867
326.457	10425
326.545	16353
326.634	8436
326.722	7691
326.810	7691
326.898	8025
326.987	10445
327.075	17100
327.163	16938
327.251	10679
327.340	13963
327.428	16660
327.516	10564
327.604	10470
327.692	10276
327.781	12060
327.869	16264
327.957	10927
328.045	8837
328.133	7205
328.221	9929
328.309	8840
328.397	7885
328.485	10056
328.574	15755
328.662	35519
328.750	20798
328.838	10938
328.926	7674
329.014	6976
329.102	11619
329.190	24431
329.278	12613
329.366	6583
329.454	6685
329.542	7242
329.630	5968
329.718	7935
329.806	7634
329.893	8898
329.981	7411
330.069	6550
330.157	11972
330.245	20278
330.333	11286
330.421	7370
330.509	11895
330.597	36971
330.684	21842
330.772	13200
330.860	18031
330.948	22495
331.036	9669
331.123	6428
331.211	8047
331.299	9381
331.387	22942
331.475	27850
331.562	10799
331.650	8045
331.738	8698
331.825	11313
331.913	6666
332.001	7757
332.089	10544
332.176	18434
332.264	38266
332.352	25363
332.439	10831
332.527	9272
332.614	8706
332.702	10184
332.790	9502
332.877	21618
332.965	37545
333.052	15910
333.140	19794
333.228	39335
333.315	12968
333.403	12284
333.490	25716
333.578	27156
333.665	51060
333.753	22937
333.840	11129
333.928	13838
334.015	27979
334.103	42655
334.190	94493
334.278	31920
334.365	28407
334.452	23873
334.540	17971
334.627	22036
334.715	27110
334.802	46541
334.889	147413
334.977	117437
335.064	36000
335.151	22021
335.239	19108
335.326	20533
335.413	58679
335.501	55531
335.588	18106
335.675	18496
335.762	26087
335.850	35493
335.937	38448
336.024	72427
336.111	161933
336.199	79400
336.286	32138
336.373	21549
336.460	15535
336.547	14064
336.635	13653
336.722	11947
336.809	11093
336.896	15752
336.983	37945
337.070	71857
337.157	84775
337.245	76702
337.332	44236
337.419	12652
337.506	9981
337.593	12522
337.680	34428
337.767	64000
337.854	22562
337.941	26981
338.028	31014
338.115	13615
338.202	16751
338.289	28857
338.376	70509
338.463	24305
338.550	47824
338.637	36065
338.724	20093
338.811	24970
338.898	8860
338.984	9189
339.071	10867
339.158	11840
339.245	22857
339.332	14262
339.419	22097
339.506	17347
339.593	6872
339.679	8302
339.766	7744
339.853	10354
339.940	15168
340.027	8220
340.113	8734
340.200	10034
340.287	8952
340.374	10321
340.460	13945
340.547	9027
340.634	13550
340.720	35629
340.807	18091
340.894	8421
340.980	8075
341.067	7083
341.154	8836
341.240	13290
341.327	17571
341.414	10969
341.500	11674
341.587	8880
341.674	7915
341.760	14701
341.847	15332
341.933	7007
342.020	5178
342.106	5969
342.193	8572
342.279	11472
342.366	10419
342.452	14054
342.539	9379
342.625	18989
342.712	35208
342.798	16208
342.885	8800
342.971	5301
343.058	5807
343.144	6184
343.230	7002
343.317	8260
343.403	6482
343.490	5660
343.576	5802
343.662	7242
343.749	7702
343.835	8997
343.921	15391
344.008	67648
344.094	111761
344.180	24443
344.267	14636
344.353	41815
344.439	37809
344.525	19939
344.612	18652
344.698	16582
344.784	9651
344.870	7316
344.957	6941
345.043	10577
345.129	8357
345.215	13252
345.301	10274
345.387	8205
345.474	5472
345.560	6785
345.646	8528
345.732	8314
345.818	9159
345.904	7973
345.990	7882
346.076	10433
346.162	15420
346.249	8975
346.335	6806
346.421	8548
346.507	20973
346.593	48306
346.679	13918
346.765	9245
346.851	11167
346.937	9969
347.023	7967
347.108	9058
347.194	7327
347.280	8403
347.366	11634
347.452	30540
347.538	69023
347.624	48747
347.710	35996
347.796	10556
347.882	9012
347.967	9001
348.053	11385
348.139	8600
348.225	7331
348.311	7409
348.397	6714
348.482	8973
348.568	9838
348.654	10103
348.740	22249
348.825	22532
348.911	16996
348.997	36906
349.083	51486
349.168	12551
349.254	9726
349.340	9254
349.425	7058
349.511	9874
349.597	10408
349.682	17050
349.768	37135
349.854	17718
349.939	8257
350.025	7057
350.110	7026
350.196	7531
350.282	6026
350.367	7561
350.453	11949
350.538	11084
350.624	9598
350.709	9387
350.795	6603
350.880	6576
350.966	9358
351.051	12400
351.137	7980
351.222	8677
351.308	17977
351.393	33695
351.479	12612
351.564	8575
351.649	7147
351.735	6273
351.820	6487
351.906	6843
351.991	9704
352.076	26589
352.162	29741
352.247	9156
352.332	9228
352.418	15393
352.503	18583
352.588	51221
352.673	33241
352.759	11305
352.844	8089
352.929	9462
353.014	9918
353.100	7260
353.185	7381
353.270	15522
353.355	13639
353.441	8791
353.526	9332
353.611	15858
353.696	15128
353.781	10503
353.866	6777
353.952	8775
354.037	14992
354.122	26791
354.207	24461
354.292	11419
354.377	7779
354.462	8364
354.547	9046
354.632	9387
354.717	10522
354.802	7140
354.887	6123
354.972	8264
355.057	6239
355.142	6517
355.227	9119
355.312	12429
355.397	22188
355.482	41518
355.567	19969
355.652	17894
355.737	19077
355.822	46604
355.907	31001
355.991	10795
356.076	8270
356.161	9424
356.246	8050
356.331	10034
356.416	16941
356.501	74851
356.585	61796
356.670	15263
356.755	13032
356.840	16803
356.924	57279
357.009	149557
357.094	52429
357.179	18907
357.263	14539
357.348	15526
357.433	15070
357.517	15867
357.602	11741
357.687	12472
357.771	18507
357.856	41385
357.941	25308
358.025	52852
358.110	149611
358.195	62827
358.279	17667
358.364	17530
358.448	41658
358.533	82123
358.617	58591
358.702	56938
358.787	24364
358.871	17674
358.956	15518
359.040	9937
359.125	8570
359.209	11038
359.294	26505
359.378	35027
359.462	16861
359.547	10961
359.631	9572
359.716	7203
359.800	8346
359.885	12072
359.969	8410
360.053	8800
360.138	8079
360.222	11318
360.306	15467
360.391	13729
360.475	29165
360.559	43229
360.644	36027
360.728	23950
360.812	45898
360.896	93232
360.981	46002
361.065	26331
361.149	11182
361.233	11626
361.318	9793
361.402	10283
361.486	10721
361.570	9669
361.654	11909
361.739	23931
361.823	76103
361.907	92165
361.991	24179
362.075	22041
362.159	36407
362.243	41797
362.327	65091
362.411	76075
362.495	37394
362.580	22198
362.664	20721
362.748	24552
362.832	36310
362.916	69564
363.000	157020
363.084	215745
363.168	150244
363.252	45386
363.336	26301
363.420	30803
363.503	74810
363.587	66991
363.671	19862
363.755	20619
363.839	24158
363.923	20577
364.007	30254
364.091	39475
364.175	67194
364.258	161229
364.342	206303
364.426	257650
364.510	138264
364.594	58621
364.677	46528
364.761	96852
364.845	59968
364.929	29334
365.013	23386
365.096	23003
365.180	22774
365.264	38338
365.347	93722
365.431	41569
365.515	16063
365.598	10042
365.682	11633
365.766	19134
365.849	18961
365.933	13236
366.017	16681
366.100	13502
366.184	8866
366.267	10903
366.351	9135
366.435	8939
366.518	8050
366.602	8105
366.685	8807
366.769	9973
366.852	17148
366.936	21598
367.019	14226
367.103	15527
367.186	21317
367.270	9668
367.353	8101
367.436	9505
367.520	8946
367.603	11666
367.687	12857
367.770	18708
367.853	14455
367.937	33026
368.020	41410
368.104	14547
368.187	16515
368.270	20346
368.353	18763
368.437	28149
368.520	52260
368.603	29726
368.687	38835
368.770	54548
368.853	17459
368.936	21910
369.020	19779
369.103	9671
369.186	8548
369.269	9489
369.352	14596
369.436	18620
369.519	12806
369.602	8519
369.685	10653
369.768	10436
369.851	9950
369.934	8349
370.018	9863
370.101	15739
370.184	14696
370.267	12195
370.350	17874
370.433	26312
370.516	66756
370.599	110727
370.682	49749
370.765	41446
370.848	45689
370.931	69347
371.014	29542
371.097	10515
371.180	9287
371.263	8637
371.346	6831
371.429	8490
371.511	9831
371.594	14535
371.677	21823
371.760	23519
371.843	21235
371.926	70102
372.009	118641
372.091	44989
372.174	37219
372.257	64499
372.340	29305
372.423	33008
372.505	34847
372.588	17791
372.671	32388
372.754	69057
372.836	36800
372.919	39895
373.002	56576
373.085	20532
373.167	19760
373.250	38206
373.332	65488
373.415	97619
373.498	158695
373.580	79011
373.663	163312
373.746	160418
373.828	38146
373.911	20655
373.993	24391
374.076	62675
374.159	49754
374.241	30122
374.324	61328
374.406	41809
374.489	61648
374.571	127853
374.654	51781
374.736	37692
374.819	88317
374.901	123143
374.983	110301
375.066	25873
375.148	18646
375.231	57762
375.313	83011
375.395	34052
375.478	13759
375.560	12780
375.643	15151
375.725	40530
375.807	109709
375.890	88784
375.972	44937
376.054	30260
376.136	43435
376.219	22094
376.301	42126
376.383	86342
376.465	35010
376.548	27269
376.630	36698
376.712	76889
376.794	33445
376.877	9851
376.959	7609
377.041	11104
377.123	20016
377.205	20655
377.287	7645
377.369	8510
377.452	8573
377.534	8194
377.616	8337
377.698	8520
377.780	7401
377.862	8910
377.944	9159
378.026	7026
378.108	8236
378.190	7468
378.272	7950
378.354	7114
378.436	8242
378.518	15278
378.600	32062
378.682	26206
378.764	43424
378.846	33306
378.928	15229
379.010	16499
379.091	11371
379.173	8857
379.255	8094
379.337	11000
379.419	27923
379.501	57510
379.583	24425
379.664	12232
379.746	24963
379.828	53818
379.910	59420
379.991	44776
380.073	11882
380.155	10675
380.237	9440
380.318	8085
380.400	9278
380.482	16053
380.564	18686
380.645	16677
380.727	15387
380.809	13264
380.890	10393
380.972	9159
381.053	9893
381.135	12336
381.217	22270
381.298	44805
381.380	24005
381.461	27774
381.543	86359
381.624	89260
381.706	21978
381.787	17614
381.869	19296
381.951	50976
382.032	126220
382.113	76992
382.195	24553
382.276	22052
382.358	36119
382.439	75252
382.521	90570
382.602	121723
382.684	77818
382.765	141453
382.846	220831
382.928	328502
383.009	191791
383.090	192339
383.172	474745
383.253	535591
383.334	208514
383.416	145890
383.497	91536
383.578	86476
383.659	175254
383.741	452819
383.822	718752
383.903	384131
383.984	152559
384.066	159641
384.147	94597
384.228	36196
384.309	30342
384.390	26255
384.471	23146
384.553	23334
384.634	26304
384.715	24719
384.796	17820
384.877	23475
384.958	50679
385.039	51829
385.120	24187
385.201	18330
385.282	22765
385.363	24787
385.444	24376
385.525	32970
385.606	63478
385.687	50408
385.768	24638
385.849	31748
385.930	77328
386.011	100648
386.092	35199
386.173	19009
386.254	16792
386.335	20371
386.416	23959
386.496	37710
386.577	47236
386.658	25154
386.739	20362
386.820	21494
386.901	19428
386.981	19406
387.062	17740
387.143	25883
387.224	51402
387.304	46160
387.385	27661
387.466	23505
387.547	26034
387.627	21931
387.708	33956
387.789	82505
387.869	82531
387.950	31642
388.031	17078
388.111	18937
388.192	34034
388.273	40557
388.353	25485
388.434	16180
388.514	26340
388.595	72249
388.676	79238
388.756	44513
388.837	43556
388.917	27932
388.998	11176
389.078	13511
389.159	11976
389.239	11464
389.320	16566
389.400	15049
389.480	26255
389.561	46538
389.641	24448
389.722	15475
389.802	19165
389.883	29085
389.963	52828
390.043	37138
390.124	18676
390.204	25831
390.284	52883
390.365	36955
390.445	53314
390.525	93544
390.605	72409
390.686	28313
390.766	14453
390.846	13374
390.927	11192
391.007	11971
391.087	14373
391.167	13582
391.247	12121
391.328	20595
391.408	25635
391.488	20355
391.568	12407
391.648	16882
391.728	18399
391.808	20144
391.888	21873
391.969	37028
392.049	45767
392.129	32250
392.209	37907
392.289	59926
392.369	44520
392.449	47722
392.529	36933
392.609	37786
392.689	47231
392.769	77497
392.849	77987
392.929	91007
393.009	142828
393.089	163985
393.169	260385
393.248	538639
393.328	878988
393.408	835588
393.488	468082
393.568	224992
393.648	125593
393.728	83130
393.807	58415
393.887	47984
393.967	39839
394.047	36882
394.127	36632
394.206	47988
394.286	123595
394.366	341333
394.446	324605
394.525	96279
394.605	38313
394.685	35829
394.764	57585
394.844	85453
394.924	62778
395.003	27566
395.083	20731
395.163	19908
395.242	18433
395.322	19165
395.402	15811
395.481	23347
395.561	45955
395.640	99210
395.720	110431
395.799	105482
395.879	70428
395.958	62168
396.038	171305
396.117	432366
396.197	426229
396.276	167825
396.356	81562
396.435	74287
396.515	74718
396.594	106057
396.673	205157
396.753	485950
396.832	799646
396.912	620419
396.991	257229
397.070	111939
397.150	66099
397.229	53043
397.308	75660
397.388	109620
397.467	60166
397.546	28834
397.625	19916
397.705	22648
397.784	18795
397.863	16413
397.942	14207
398.022	16745
398.101	35914
398.180	69911
398.259	37949
398.338	16398
398.417	13074
398.497	12211
398.576	12319
398.655	9985
398.734	9677
398.813	11514
398.892	32314
398.971	69421
399.050	32095
399.129	9958
399.208	8715
399.287	9519
399.366	7632
399.445	8609
399.524	7717
399.603	7850
399.682	12479
399.761	30609
399.840	73755
399.919	49589
399.998	10720
400.077	6661
400.156	6223
400.235	10619
400.313	7229
400.392	10248
400.471	28504
400.550	35576
400.629	11949
400.708	9933
400.786	11227
400.865	22947
400.944	19966
401.023	11813
401.102	4576
401.180	6481
401.259	6544
401.338	8551
401.416	9348
401.495	7963
401.574	8145
401.652	8089
401.731	8997
401.810	6819
401.888	4928
401.967	4762
402.046	5662
402.124	8610
402.203	9065
402.281	8256
402.360	10687
402.438	24768
402.517	15643
402.596	9449
402.674	8113
402.753	6287
402.831	5085
402.910	7122
402.988	10137
403.066	16034
403.145	11489
403.223	11280
403.302	12954
403.380	10926
403.459	8830
403.537	8147
403.615	7221
403.694	5554
403.772	6199
403.850	5881
403.929	5847
404.007	5607
404.085	8329
404.164	6930
404.242	10573
404.320	31187
404.398	60651
404.477	64451
404.555	106480
404.633	92146
404.711	48046
404.789	26088
404.868	8515
404.946	5910
405.024	4790
405.102	5464
405.180	4992
405.258	3906
405.336	5735
405.415	5757
405.493	10404
405.571	7881
405.649	4671
405.727	7169
405.805	10588
405.883	7860
405.961	9418
406.039	10651
406.117	6479
406.195	9445
406.273	32055
406.351	84402
406.429	47543
406.507	13029
406.585	6729
406.663	7207
406.740	7690
406.818	7120
406.896	4706
406.974	6949
407.052	12353
407.130	55382
407.208	63898
407.285	15477
407.363	5450
407.441	6710
407.519	5135
407.596	7998
407.674	18321
407.752	47740
407.830	43395
407.907	15080
407.985	6028
408.063	5370
408.141	4716
408.218	8861
408.296	6533
408.373	5407
408.451	7765
408.529	7628
408.606	4945
408.684	6242
408.762	5085
408.839	5395
408.917	6015
408.994	6785
409.072	7114
409.149	9497
409.227	15264
409.304	18911
409.382	21257
409.459	23168
409.537	29087
409.614	27212
409.692	23590
409.769	24846
409.846	30368
409.924	36296
410.001	27719
410.079	22098
410.156	17202
410.233	14582
410.311	11656
410.388	9984
410.465	11009
410.543	10073
410.620	9283
410.697	9601
410.775	8931
410.852	6781
410.929	10175
411.006	11084
411.083	9220
411.161	12477
411.238	13266
411.315	9862
411.392	6826
411.469	9416
411.547	7554
411.624	5529
411.701	5217
411.778	8013
411.855	9652
411.932	7400
412.009	5764
412.086	6297
412.163	7521
412.240	8302
412.317	8781
412.394	7669
412.471	6144
412.548	4739
412.625	6074
412.702	8004
412.779	9523
412.856	7247
412.933	4018
413.010	5301
413.087	8723
413.164	24995
413.241	27676
413.318	9316
413.395	8107
413.471	8246
413.548	5251
413.625	5734
413.702	6293
413.779	4502
413.855	3615
413.932	4023
414.009	2622
414.086	4501
414.162	4898
414.239	8627
414.316	26017
414.393	43677
414.469	14608
414.546	4362
414.623	4262
414.699	3615
414.776	4362
414.853	4594
414.929	4537
415.006	4718
415.082	6268
415.159	5515
415.236	3951
415.312	5216
415.389	7303
415.465	8934
415.542	5327
415.618	4541
415.695	6686
415.771	5073
415.848	4973
415.924	4618
416.000	4926
416.077	4360
416.153	2577
416.230	2638
416.306	4085
416.383	3740
416.459	3950
416.535	3443
416.612	3684
416.688	4061
416.764	4040
416.841	4025
416.917	4117
416.993	4527
417.069	5428
417.146	8200
417.222	8625
417.298	5277
417.374	3676
417.451	5011
417.527	5496
417.603	5327
417.679	4007
417.755	3616
417.831	3141
417.908	3583
417.984	2719
418.060	3764
418.136	7448
418.212	9365
418.288	5588
418.364	4126
418.440	3167
418.516	7438
418.592	10426
418.668	12934
418.744	15361
418.820	12684
418.896	4874
418.972	3880
419.048	4662
419.124	9951
419.200	6153
419.276	4562
419.352	3070
419.428	4231
419.504	4808
419.579	6091
419.655	4427
419.731	5896
419.807	13091
419.883	19219
419.959	13374
420.034	7657
420.110	12568
420.186	31065
420.262	23012
420.337	8946
420.413	8257
420.489	6307
420.565	7626
420.640	6344
420.716	8008
420.792	6470
420.867	8065
420.943	7731
421.019	11529
421.094	10089
421.170	8904
421.245	9198
421.321	10802
421.397	12605
421.472	19906
421.548	33791
421.623	26022
421.699	18885
421.774	20519
421.850	21632
421.925	26713
422.001	31699
422.076	35106
422.152	44952
422.227	60150
422.302	82504
422.378	119363
422.453	188535
422.529	284551
422.604	353982
422.679	345121
422.755	346711
422.830	278693
422.905	179452
422.981	118901
423.056	83878
423.131	63426
423.207	47572
423.282	40025
423.357	37004
423.432	29234
423.508	27519
423.583	30162
423.658	25535
423.733	18096
423.808	18534
423.883	17885
423.959	17795
424.034	17575
424.109	17402
424.184	12419
424.259	10824
424.334	9922
424.409	9095
424.484	8445
424.559	8218
424.634	7036
424.709	8816
424.784	8696
424.859	8530
424.934	11335
425.009	26277
425.084	33154
425.159	13501
425.234	6210
425.309	7682
425.384	18191
425.459	21387
425.534	9020
425.609	6440
425.683	5693
425.758	4966
425.833	6102
425.908	7190
425.983	17582
426.058	34515
426.132	16133
426.207	7569
426.282	10757
426.357	8824
426.431	4738
426.506	5327
426.581	4891
426.655	5100
426.730	4388
426.805	4451
426.879	5135
426.954	4653
427.029	10668
427.103	38406
427.178	69970
427.253	29492
427.327	7978
427.402	14391
427.476	26622
427.551	12688
427.625	6222
427.700	6606
427.774	4577
427.849	6954
427.923	4914
427.998	5746
428.072	7937
428.147	18695
428.221	71681
428.296	154087
428.370	78249
428.444	17043
428.519	14759
428.593	23274
428.667	20041
428.742	24262
428.816	38027
428.890	117825
428.965	148294
429.039	50592
429.113	25406
429.188	10825
429.262	5533
429.336	9819
429.410	18809
429.485	16203
429.559	19344
429.633	14978
429.707	9729
429.781	33260
429.855	121805
429.930	146115
430.004	76006
430.078	92591
430.152	112346
430.226	211364
430.300	178570
430.374	43878
430.448	18401
430.522	37803
430.596	73706
430.670	64682
430.744	147685
430.818	151584
430.892	31101
430.966	8544
431.040	5750
431.114	3941
431.188	4245
431.262	4930
431.336	4984
431.410	13049
431.484	23169
431.557	14155
431.631	5922
431.705	11907
431.779	52265
431.853	143835
431.927	88747
432.000	15569
432.074	6103
432.148	6160
432.222	4938
432.295	3392
432.369	3248
432.443	9053
432.516	36599
432.590	68738
432.664	23780
432.737	4933
432.811	1965
432.885	1565
432.958	2443
433.032	2031
433.106	2169
433.179	1906
433.253	1965
433.326	2175
433.400	1416
433.473	2834
433.547	1462
433.620	2639
433.694	5350
433.767	5472
433.841	2723
433.914	3110
433.988	2760
434.061	4258
434.134	2819
434.208	2397
434.281	1831
434.355	2385
434.428	2951
434.501	2824
434.575	2434
434.648	3127
434.721	2064
434.795	2850
434.868	1952
434.941	2275
435.014	2842
435.088	4266
435.161	5551
435.234	9468
435.307	8100
435.381	7461
435.454	9002
435.527	13351
435.600	14258
435.673	13318
435.746	9717
435.819	8450
435.892	6393
435.966	5573
436.039	4542
436.112	4688
436.185	3279
436.258	2677
436.331	2340
436.404	2903
436.477	2551
436.550	2290
436.623	2502
436.696	2089
436.769	3368
436.842	3525
436.915	3466
436.987	4413
437.060	2764
437.133	2014
437.206	2427
437.279	2867
437.352	2202
437.425	2089
437.498	2851
437.570	5699
437.643	3886
437.716	2148
437.789	1704
437.861	5722
437.934	9650
438.007	3999
438.080	1618
438.152	3025
438.225	7703
438.298	45305
438.370	89670
438.443	33862
438.516	8707
438.588	2846
438.661	1439
438.734	2999
438.806	2792
438.879	3870
438.951	3592
439.024	5411
439.096	2674
439.169	1996
439.241	1767
439.314	2920
439.386	4711
439.459	6593
439.531	7616
439.604	3798
439.676	2700
439.749	1882
439.821	1682
439.893	1238
439.966	2009
440.038	2618
440.110	3000
440.183	2239
440.255	2121
440.327	6211
440.400	23246
440.472	63900
440.544	33601
440.617	5882
440.689	5834
440.761	7327
440.833	8396
440.905	4055
440.978	2249
441.050	3041
441.122	2468
441.194	2446
441.266	2125
441.338	2161
441.411	6226
441.483	23953
441.555	27009
441.627	6835
441.699	6696
441.771	6371
441.843	3017
441.915	3308
441.987	2635
442.059	3620
442.131	5998
442.203	9245
442.275	10584
442.347	14209
442.419	32038
442.491	121968
442.563	200216
442.635	84988
442.706	36047
442.778	20134
442.850	8582
442.922	6484
442.994	8134
443.066	10359
443.137	10216
443.209	13102
443.281	20943
443.353	49003
443.425	149512
443.496	326761
443.568	305194
443.640	123986
443.711	32246
443.783	15389
443.855	9230
443.926	6862
443.998	7247
444.070	7623
444.141	6761
444.213	6883
444.285	7609
444.356	8463
444.428	6718
444.499	4990
444.571	3754
444.642	5048
444.714	5328
444.785	8039
444.857	11814
444.928	20502
445.000	14896
445.071	18953
445.143	20721
445.214	21389
445.285	41403
445.357	103802
445.428	253578
445.500	379873
445.571	302114
445.642	181124
445.714	73729
445.785	41147
445.856	15990
445.928	10959
445.999	8663
446.070	7152
446.141	7227
446.213	7377
446.284	5172
446.355	5852
446.426	3750
446.497	3973
446.569	7385
446.640	8544
446.711	4895
446.782	2784
446.853	4628
446.924	4458
446.995	2445
447.066	4471
447.138	7680
447.209	3089
447.280	1476
447.351	2116
447.422	990
447.493	3835
447.564	3574
447.635	3865
447.706	1934
447.777	1071
447.847	1786
447.918	2058
447.989	4001
448.060	6052
448.131	11609
448.202	9199
448.273	4706
448.344	3278
448.414	1692
448.485	1476
448.556	1937
448.627	654
448.698	2070
448.768	2223
448.839	1705
448.910	6051
448.981	4613
449.051	2028
449.122	600
449.193	1500
449.263	1777
449.334	1692
449.405	3159
449.475	5493
449.546	4766
449.616	7263
449.687	5163
449.758	3571
449.828	716
449.899	968
449.969	643
450.040	1529
450.110	3061
450.181	3767
450.251	1246
450.322	1339
450.392	1617
450.463	1612
450.533	1658
450.604	1956
450.674	1847
450.744	2424
450.815	1919
450.885	2085
450.955	2327
451.026	1989
451.096	3104
451.166	3751
451.237	11428
451.307	18858
451.377	6305
451.447	2752
451.518	1422
451.588	2068
451.658	3011
451.728	5631
451.799	20525
451.869	18873
451.939	4232
452.009	1881
452.079	1575
452.149	3004
452.219	8013
452.289	22243
452.360	13043
452.430	4907
452.500	4705
452.570	7103
452.640	14013
452.710	36065
452.780	41255
452.850	23463
452.920	13932
452.990	7335
453.060	5136
453.129	6010
453.199	7373
453.269	30236
453.339	44848
453.409	59485
453.479	71515
453.549	98505
453.619	96428
453.688	31775
453.758	5970
453.828	3157
453.898	3005
453.968	3187
454.037	2454
454.087	2751
454.107	2842
454.168	1863
454.177	1687
454.247	1686
454.249	1748
454.316	2140
454.330	2670
454.386	4112
454.411	7640
454.456	12779
454.492	13483
454.525	14196
454.574	7379
454.595	4491
454.655	3292
454.665	3137
454.734	4771
454.736	5068
454.804	10469
454.817	13330
454.873	22404
454.898	21949
454.943	20713
454.979	14239
455.013	9055
455.060	7033
455.082	6466
455.141	8403
455.152	8510
455.221	21202
455.222	21570
455.291	28243
455.303	26988
455.360	21753
455.384	25880
455.430	30564
455.465	25194
455.499	20351
455.546	21190
455.569	20720
455.627	12095
455.638	10848
455.707	3750
455.708	3788
455.777	3761
455.789	3786
455.846	3459
455.869	3239
455.916	2978
455.950	3564
455.985	3912
456.031	3755
456.054	3689
456.112	3551
456.124	3540
456.193	3352
456.193	3305
456.262	5071
456.274	5508
456.332	6768
456.355	6862
456.401	5962
456.436	5171
456.470	4715
456.516	3505
456.540	2997
456.597	3360
456.609	3400
456.678	3441
456.678	3410
456.747	2789
456.759	2787
456.817	2951
456.840	3373
456.886	4073
456.920	4004
456.955	4420
457.001	5730
457.024	6419
457.082	8382
457.093	8706
457.162	10961
457.163	11041
457.232	8704
457.243	8210
457.301	6784
457.324	5786
457.370	4721
457.405	5100
457.439	5432
457.485	6218
457.508	6829
457.566	7872
457.577	8276
457.646	11568
457.647	11671
457.715	22485
457.727	24800
457.784	37194
457.808	47073
457.853	58532
457.889	64869
457.922	65184
457.969	47849
457.991	47154
458.050	56842
458.060	58581
458.129	96180
458.130	97148
458.198	89413
458.211	79636
458.267	45302
458.292	33754
458.336	25863
458.372	26497
458.405	35710
458.453	52129
458.474	61323
458.533	99729
458.543	102026
458.611	143666
458.614	143930
458.680	88061
458.694	70622
458.749	33928
458.775	25472
458.818	17538
458.855	14528
458.887	12397
458.936	10620
458.955	10199
459.016	10199
459.024	10214
459.093	10413
459.097	10407
459.162	9426
459.177	9418
459.230	9628
459.257	9826
459.299	10074
459.338	10442
459.368	10666
459.418	10676
459.437	10278
459.499	8785
459.505	8690
459.574	7992
459.579	7997
459.643	8106
459.659	8073
459.711	8687
459.740	9513
459.780	10609
459.820	11367
459.849	11829
459.900	13057
459.917	13019
459.981	12347
459.986	12310
460.054	12172
460.061	12175
460.123	12575
460.141	12730
460.191	13993
460.222	14977
460.260	15731
460.302	16669
460.328	15957
460.382	13867
460.397	13823
460.462	13935
460.465	14145
460.534	18979
460.543	19774
460.602	34734
460.623	40780
460.671	58190
460.703	74076
460.739	63089
460.783	39652
460.808	33253
460.864	14260
460.876	12574
460.944	10630
460.945	10595
461.013	10315
461.024	10177
461.081	9982
461.104	10269
461.150	10082
461.184	9300
461.218	9038
461.264	9465
461.286	9744
461.345	9866
461.355	9955
461.423	10831
461.425	10851
461.491	13405
461.505	14107
461.559	26565
461.585	32165
461.628	44176
461.665	56324
461.696	55644
461.745	55997
461.764	48331
461.825	15245
461.832	14735
461.901	12388
461.905	12398
461.969	11302
461.985	10934
462.037	11375
462.065	11723
462.105	14954
462.145	18502
462.173	23145
462.225	31690
462.241	34146
462.305	45666
462.310	44188
462.378	19392
462.385	16296
462.446	12394
462.465	11722
462.514	11611
462.545	11789
462.582	11672
462.625	11787
462.650	11724
462.705	11071
462.718	11799
462.785	15642
462.786	15722
462.854	20220
462.865	21074
462.922	23469
462.945	24199
462.990	17820
463.025	12328
463.058	11360
463.104	10299
463.126	10441
463.184	11213
463.194	11378
463.262	12030
463.264	12075
463.330	13331
463.344	13425
463.398	14097
463.424	14487
463.466	14305
463.504	14323
463.533	14490
463.583	14404
463.601	14935
463.663	16701
463.669	17234
463.737	23591
463.743	24156
463.805	38219
463.823	42258
463.873	60547
463.903	72173
463.940	68400
463.982	64421
464.008	50885
464.062	18833
464.076	17642
464.142	12524
464.144	12506
464.211	12525
464.221	12581
464.279	13186
464.301	13418
464.347	15359
464.381	16698
464.414	18819
464.461	21736
464.482	21850
464.540	22498
464.550	22127
464.617	18367
464.620	18223
464.685	16616
464.699	16277
464.753	18940
464.779	20194
464.820	21801
464.859	23330
464.888	23164
464.938	22658
464.956	22768
465.018	23018
465.023	22805
465.091	19627
465.098	19252
465.158	19205
465.177	19230
465.226	18796
465.257	18416
465.293	18769
465.336	19122
465.361	20837
465.416	24585
465.428	27028
465.495	40189
465.496	40398
465.563	62361
465.575	66231
465.631	69604
465.654	70924
465.698	43859
465.734	20356
465.765	18434
465.813	15814
465.833	15973
465.893	17029
465.900	17035
465.968	16765
465.972	16715
466.035	16379
466.052	16251
466.102	16339
466.131	16366
466.170	16714
466.210	16987
466.237	17293
466.290	17853
466.304	17944
466.369	18021
466.372	18086
466.439	19182
466.449	19266
466.506	22358
466.528	23555
466.573	37070
466.607	47039
466.641	63336
466.687	85978
466.708	89513
466.766	98950
466.775	90912
466.842	28572
466.845	25563
466.909	20994
466.925	19960
466.977	20181
467.004	20276
467.044	21618
467.083	22894
467.111	24158
467.163	26374
467.178	26855
467.242	28604
467.245	28573
467.312	26721
467.321	26422
467.379	27519
467.400	27833
467.446	31531
467.480	34096
467.559	27133
467.638	25099
467.717	26619
467.796	28316
467.875	29858
467.955	32207
468.034	57684
468.113	104049
468.192	133660
468.271	35262
468.350	36728
468.429	41695
468.508	41101
468.588	32646
468.667	30884
468.746	31230
468.825	28105
468.904	25437
468.983	32823
469.062	45930
469.141	49189
469.220	24021
469.299	23716
469.378	24965
469.456	27767
469.535	24812
469.614	26327
469.693	29723
469.772	38906
469.851	52966
469.930	31143
470.009	27039
470.088	28295
470.166	36598
470.245	52525
470.324	60977
470.403	46145
470.482	33214
470.560	28257
470.639	27426
470.718	29339
470.797	26922
470.875	31974
470.954	42089
471.033	40056
471.111	21409
471.190	21400
471.269	20189
471.347	20836
471.426	23131
471.505	26438
471.583	25254
471.662	24060
471.740	22306
471.819	22591
471.898	22950
471.976	20920
472.055	21781
472.133	26765
472.212	34762
472.290	33592
472.369	21208
472.447	21009
472.526	20410
472.604	22160
472.683	21403
472.761	20770
472.839	21720
472.918	21415
472.996	23786
473.075	27213
473.153	25108
473.231	24591
473.310	26131
473.388	23291
473.466	23787
473.545	25197
473.623	28425
473.701	27604
473.780	21951
473.858	21141
473.936	25497
474.014	22259
474.093	27920
474.171	41427
474.249	55493
474.327	29174
474.405	20111
474.484	20870
474.562	20557
474.640	21036
474.718	23521
474.796	21519
474.874	20000
474.952	18817
475.030	19425
475.108	18575
475.187	20097
475.265	20334
475.343	21865
475.421	22355
475.499	22245
475.577	25470
475.655	38102
475.733	70600
475.811	112036
475.889	98122
475.966	47879
476.044	21610
476.122	21549
476.200	22399
476.278	22268
476.356	21627
476.434	22414
476.512	23046
476.590	24867
476.667	23248
476.745	21477
476.823	22901
476.901	23717
476.979	24943
477.056	22885
477.134	23246
477.212	23908
477.290	22253
477.367	21010
477.445	20927
477.523	20713
477.601	20876
477.678	22104
477.756	27578
477.834	29300
477.911	20622
477.989	21971
478.066	22092
478.144	24392
478.222	20488
478.299	20983
478.377	20962
478.454	20568
478.532	19518
478.609	20992
478.687	22048
478.764	20397
478.842	22101
478.919	23278
478.997	21556
479.074	21305
479.152	26491
479.229	33215
479.307	21092
479.384	18292
479.461	20081
479.539	23491
479.616	26192
479.694	21834
479.771	25376
479.848	28163
479.926	35671
480.003	32848
480.080	20532
480.157	20435
480.235	18953
480.312	21633
480.389	26564
480.467	43068
480.544	46031
480.621	25065
480.698	24933
480.775	28147
480.853	28045
480.930	23372
481.007	24139
481.084	28964
481.161	30056
481.238	26776
481.315	21572
481.392	21114
481.470	23847
481.547	23876
481.624	21321
481.701	21981
481.778	24075
481.855	28329
481.932	41389
482.009	64576
482.086	34127
482.163	23502
482.240	25514
482.317	25222
482.393	25609
482.470	24791
482.547	26226
482.624	23806
482.701	24706
482.778	22632
482.855	21998
482.932	21808
483.009	22406
483.085	26417
483.162	29223
483.239	28207
483.316	24607
483.393	25929
483.469	25361
483.546	29007
483.623	28008
483.699	22878
483.776	22992
483.853	27040
483.930	46142
484.006	96168
484.083	134225
484.160	53458
484.236	68286
484.313	52394
484.389	45987
484.466	43363
484.543	44292
484.619	47961
484.696	50072
484.772	49576
484.849	49929
484.925	39422
485.002	40204
485.078	41623
485.155	40762
485.231	36855
485.308	36491
485.384	40616
485.461	57913
485.537	93565
485.614	90034
485.690	37205
485.766	35889
485.843	39217
485.919	46124
485.995	42866
486.072	33095
486.148	33660
486.224	34010
486.301	37599
486.377	42511
486.453	39897
486.530	40750
486.606	48845
486.682	57068
486.758	75971
486.835	81664
486.911	73218
486.987	115506
487.063	85877
487.139	92690
487.215	69415
487.292	45290
487.368	46745
487.444	53246
487.520	64938
487.596	80075
487.672	163512
487.748	380450
487.824	501803
487.900	190940
487.976	82745
488.052	63269
488.128	58850
488.204	47431
488.280	43773
488.356	59499
488.432	117002
488.508	142625
488.584	42677
488.660	35947
488.736	34624
488.812	35670
488.888	41764
488.964	54279
489.039	96284
489.115	122555
489.191	66747
489.267	36688
489.343	35981
489.418	30624
489.494	30045
489.570	29148
489.646	30990
489.722	31152
489.797	35995
489.873	67540
489.949	125495
490.024	73917
490.100	30588
490.176	32082
490.251	35769
490.327	39475
490.403	28800
490.478	28643
490.554	25986
490.629	26619
490.705	26247
490.781	29201
490.856	29193
490.932	31984
491.007	30967
491.083	31229
491.158	32208
491.234	51073
491.309	99345
491.385	73853
491.460	30568
491.536	32254
491.611	27580
491.686	30284
491.762	37999
491.837	66469
491.913	104583
491.988	139981
492.063	138659
492.139	62798
492.214	38836
492.289	25895
492.365	26117
492.440	29389
492.515	30741
492.590	29749
492.666	26279
492.741	40616
492.816	54903
492.891	27138
492.967	24163
493.042	23617
493.117	23674
493.192	28093
493.267	47758
493.342	103990
493.418	102136
493.493	27763
493.568	23188
493.643	24574
493.718	32839
493.793	46251
493.868	38226
493.943	25434
494.018	24542
494.093	25399
494.168	22605
494.243	21476
494.318	21179
494.393	21819
494.468	22179
494.543	21515
494.618	24456
494.693	21880
494.768	25109
494.842	22770
494.917	22306
494.992	22934
495.067	21696
495.142	21637
495.217	23985
495.292	23502
495.366	26805
495.441	30773
495.516	35135
495.591	53363
495.665	140138
495.740	242009
495.815	80280
495.890	32972
495.964	27523
496.039	30386
496.114	28960
496.188	31942
496.263	29736
496.338	27825
496.412	33969
496.487	35124
496.561	33861
496.636	32585
496.710	29635
496.785	34343
496.860	36624
496.934	27700
497.009	28783
497.083	29784
497.158	36350
497.232	38986
497.307	42858
497.381	34882
497.455	45628
497.530	51690
497.604	32697
497.679	38296
497.753	58691
497.827	60753
497.902	45643
497.976	68393
498.050	225664
498.125	640472
498.199	407809
498.273	58888
498.348	43756
498.422	41224
498.496	41944
498.570	39859
498.645	32399
498.719	34088
498.793	46259
498.867	74125
498.941	110971
499.016	328018
499.090	622149
499.164	125374
499.238	33866
499.312	32376
499.386	38150
499.460	37560
499.534	37934
499.609	46334
499.683	61000
499.757	59797
499.831	175765
499.905	493950
499.979	295855
500.053	75265
500.127	65781
500.201	43815
500.275	34924
500.349	33936
500.422	38999
500.496	55616
500.570	118792
500.644	309387
500.718	417439
500.792	63405
500.866	38313
500.940	47215
501.013	36031
501.087	37138
501.161	55855
501.235	83750
501.309	219345
501.382	471997
501.456	259436
501.530	99530
501.603	148755
501.677	43488
501.751	29680
501.825	39736
501.898	88446
501.972	197135
502.046	80661
502.119	42580
502.193	106339
502.266	197160
502.340	75974
502.413	113455
502.487	170023
502.561	90502
502.634	31655
502.708	28315
502.781	25571
502.855	23171
502.928	22970
503.002	23462
503.075	23955
503.149	26545
503.222	26837
503.295	28724
503.369	34691
503.442	60191
503.516	192429
503.589	361451
503.662	180378
503.736	90234
503.809	187131
503.882	134213
503.956	218561
504.029	181974
504.102	230122
504.175	269746
504.249	121497
504.322	68658
504.395	45558
504.468	34168
504.542	30692
504.615	23887
504.688	23223
504.761	22705
504.834	25868
504.907	28417
504.980	34667
505.053	23742
505.127	27624
505.200	33738
505.273	37724
505.346	21031
505.419	20819
505.492	20639
505.565	18440
505.638	17919
505.711	18436
505.784	18025
505.857	17546
505.930	19692
506.003	18257
506.076	22925
506.149	28975
506.221	30683
506.294	34002
506.367	100587
506.440	234276
506.513	78946
506.586	33199
506.659	20230
506.731	19456
506.804	23957
506.877	28253
506.950	22265
507.022	20496
507.095	27863
507.168	27682
507.241	18960
507.313	17282
507.386	19319
507.459	22940
507.531	17222
507.604	16825
507.677	17517
507.749	15152
507.822	22256
507.894	32170
507.967	33316
508.040	23342
508.112	21588
508.185	21293
508.257	20382
508.330	27973
508.402	21452
508.475	23264
508.547	23573
508.620	26400
508.692	36604
508.765	21038
508.837	18486
508.909	19078
508.982	19521
509.054	20273
509.127	18572
509.199	17499
509.271	16789
509.344	18141
509.416	18463
509.488	18792
509.560	19714
509.633	20199
509.705	22354
509.777	23212
509.849	28442
509.922	20882
509.994	21035
510.066	22369
510.138	22450
510.210	33639
510.283	28732
510.355	25256
510.427	22144
510.499	22583
510.571	22499
510.643	22090
510.715	29826
510.787	24769
510.859	24896
510.931	26766
511.003	30414
511.076	26610
511.148	21027
511.219	26155
511.291	42154
511.363	38725
511.435	21453
511.507	20991
511.579	22171
511.651	21066
511.723	19914
511.795	20105
511.867	21043
511.939	31515
512.010	57881
512.082	33212
512.154	21295
512.226	22229
512.298	28535
512.369	34291
512.441	28404
512.513	28221
512.585	22813
512.656	26561
512.728	25627
512.800	21714
512.871	22532
512.943	22403
513.015	19294
513.086	21952
513.158	23372
513.230	23682
513.301	30717
513.373	29201
513.444	21881
513.516	19980
513.588	20082
513.659	22400
513.731	24222
513.802	24567
513.874	43111
513.945	52439
514.016	23519
514.088	20799
514.159	21948
514.231	28162
514.302	30284
514.374	27046
514.445	31529
514.516	60849
514.588	33356
514.659	32675
514.730	51159
514.802	29715
514.873	20847
514.944	22970
515.016	23373
515.087	27166
515.158	41281
515.229	42858
515.301	22128
515.372	24196
515.443	20819
515.514	21110
515.585	19858
515.656	21795
515.728	22035
515.799	21716
515.870	24179
515.941	27599
516.012	27081
516.083	31464
516.154	34232
516.225	39109
516.296	39638
516.367	38310
516.438	44602
516.509	57652
516.580	105538
516.651	371414
516.722	848795
516.793	244452
516.864	78424
516.935	73466
517.006	83679
517.077	126129
517.148	344004
517.219	1198218
517.289	1189165
517.360	336939
517.431	92506
517.502	51673
517.573	48861
517.643	46740
517.714	49173
517.785	51585
517.856	54884
517.926	63653
517.997	71943
518.068	84885
518.138	115772
518.209	242715
518.280	915785
518.350	1791551
518.421	562138
518.492	123948
518.562	89727
518.633	92282
518.703	111078
518.774	210285
518.845	402762
518.915	311368
518.986	122143
519.056	80015
519.127	87472
519.197	130977
519.268	267096
519.338	113229
519.408	48750
519.479	48169
519.549	36392
519.620	32182
519.690	27831
519.760	29107
519.831	27842
519.901	28120
519.971	27461
520.042	31484
520.112	35308
520.182	33777
520.253	33582
520.323	31817
520.393	49744
520.463	58543
520.534	57612
520.604	83882
520.674	38550
520.744	52553
520.814	107125
520.885	69558
520.955	123501
521.025	279262
521.095	67523
521.165	30755
521.235	27680
521.305	25166
521.375	25342
521.445	28188
521.515	31190
521.585	33891
521.655	28916
521.725	29841
521.795	27312
521.865	24602
521.935	39061
522.005	28718
522.075	23533
522.145	27599
522.215	33733
522.285	41630
522.355	59769
522.424	98085
522.494	67210
522.564	37092
522.634	67003
522.704	118675
522.774	40318
522.843	25640
522.913	26401
522.983	29845
523.053	25808
523.122	26776
523.192	34526
523.262	81130
523.331	56279
523.401	25695
523.471	21116
523.540	23277
523.610	20483
523.680	21817
523.749	25311
523.819	31606
523.888	26748
523.958	22111
524.027	24170
524.097	24120
524.166	23294
524.236	23420
524.305	23968
524.375	22066
524.444	21832
524.514	26728
524.583	25828
524.653	30876
524.722	32227
524.791	23501
524.861	24659
524.930	22294
524.999	24646
525.069	30869
525.138	29318
525.207	32422
525.277	26398
525.346	27434
525.415	27731
525.484	30647
525.554	35528
525.623	36067
525.692	36469
525.761	39989
525.830	45024
525.900	55813
525.969	85982
526.038	150727
526.107	340060
526.176	737145
526.245	480457
526.314	202302
526.383	431801
526.452	499220
526.522	796039
526.591	546373
526.660	144868
526.729	85477
526.797	98193
526.867	206951
526.935	654441
527.004	1199556
527.073	513368
527.142	101431
527.211	52668
527.280	44486
527.349	37297
527.418	28667
527.487	28253
527.555	25338
527.624	23285
527.693	21872
527.762	24396
527.831	22371
527.899	22594
527.968	22492
528.037	21415
528.106	26557
528.174	34094
528.243	32207
528.312	48286
528.380	42464
528.449	23188
528.518	23448
528.586	19673
528.655	20801
528.723	21182
528.792	21473
528.861	23024
528.929	21656
528.998	25861
529.066	37316
529.135	53276
529.203	52618
529.272	71668
529.340	81459
529.409	73982
529.477	69713
529.545	75984
529.614	80268
529.682	100552
529.751	101509
529.819	109395
529.887	114289
529.956	102199
530.024	97061
530.092	89397
530.161	91030
530.229	99656
530.297	103079
530.365	97855
530.434	106413
530.502	105386
530.570	93113
530.638	83028
530.707	78984
530.775	76446
530.843	80530
530.911	89266
530.979	90252
531.047	103147
531.115	96301
531.183	87389
531.252	82912
531.320	81977
531.388	81598
531.456	93336
531.524	97635
531.592	102106
531.660	113184
531.728	102053
531.796	96711
531.864	95963
531.932	95084
532.000	97425
532.067	109759
532.135	112825
532.203	119321
532.271	123531
532.339	131187
532.407	151294
532.475	121475
532.542	110973
532.610	111664
532.678	131265
532.746	224712
532.814	280692
532.881	142634
532.949	115428
533.017	109347
533.084	104838
533.152	101623
533.220	101546
533.287	105310
533.355	106701
533.423	108174
533.490	110666
533.558	105031
533.625	101783
533.693	98437
533.761	95008
533.828	94729
533.896	97361
533.963	115993
534.031	117926
534.098	126991
534.166	106686
534.233	96698
534.300	96166
534.368	94156
534.435	89128
534.503	91316
534.570	98398
534.637	94986
534.705	102425
534.772	110073
534.840	160844
534.907	435573
534.974	364206
535.041	105661
535.109	85147
535.176	75408
535.243	77975
535.310	78543
535.378	76904
535.445	72438
535.512	68907
535.579	65921
535.646	64733
535.714	64951
535.781	67613
535.848	70111
535.915	72702
535.982	75849
536.049	72204
536.116	67749
536.183	63189
536.250	60314
536.317	60078
536.384	61831
536.451	66073
536.518	66754
536.585	62622
536.652	70993
536.719	69902
536.786	59339
536.853	57984
536.920	67488
536.987	72224
537.053	76554
537.120	162271
537.187	102623
537.254	54802
537.321	54115
537.388	53039
537.454	48983
537.521	45997
537.588	47004
537.654	48532
537.721	49293
537.788	47027
537.855	46601
537.921	48275
537.988	48501
538.055	47189
538.121	44501
538.188	45822
538.254	52172
538.321	61503
538.388	48737
538.454	43941
538.521	44675
538.587	44251
538.654	43990
538.720	41618
538.787	41677
538.853	42556
538.920	45330
538.986	44566
539.053	39226
539.119	40545
539.185	38793
539.252	44633
539.318	49448
539.385	47594
539.451	41773
539.517	41858
539.583	46301
539.650	74987
539.716	101122
539.782	43500
539.849	36738
539.915	38623
539.981	39323
540.047	41080
540.114	40292
540.180	39907
540.246	39149
540.312	45388
540.378	58737
540.444	52853
540.510	72189
540.576	106527
540.643	45270
540.709	35919
540.775	36776
540.841	37711
540.907	46419
540.973	55680
541.039	45648
541.105	42044
541.171	37081
541.237	35619
541.303	35452
541.369	40151
541.435	44970
541.500	51470
541.566	37406
541.632	34094
541.698	32898
541.764	34666
541.830	33407
541.896	33138
541.961	33742
542.027	32510
542.093	35224
542.159	36336
542.224	36734
542.290	44473
542.356	52523
542.421	48336
542.487	35658
542.553	33845
542.618	35586
542.684	31661
542.750	33489
542.815	37832
542.881	55800
542.947	109386
543.012	60742
543.078	31810
543.143	30407
543.209	33262
543.274	32374
543.340	36362
543.405	59815
543.471	59469
543.536	32951
543.602	33968
543.667	31985
543.732	32971
543.798	32224
543.863	33134
543.928	31318
543.994	31164
544.059	31713
544.124	32137
544.190	32001
544.255	32594
544.320	32840
544.386	33701
544.451	39139
544.516	39068
544.581	43806
544.646	87370
544.712	82327
544.777	39373
544.842	39036
544.907	39855
544.972	36192
545.037	36659
545.102	39411
545.168	40226
545.233	40565
545.298	42635
545.363	43566
545.428	47100
545.493	65794
545.558	85637
545.623	47656
545.688	41265
545.753	41298
545.818	41650
545.883	43848
545.947	43972
546.012	47772
546.077	47289
546.142	47724
546.207	47417
546.272	53279
546.337	52352
546.401	52410
546.466	51537
546.531	52707
546.596	57124
546.661	55777
546.725	58918
546.790	59267
546.855	64279
546.919	66964
546.984	74631
547.049	80185
547.113	93477
547.178	96638
547.243	107768
547.307	121696
547.372	136226
547.436	136533
547.501	135911
547.565	144109
547.630	137081
547.695	134133
547.759	139960
547.823	133874
547.888	131774
547.952	135298
548.017	143242
548.081	149627
548.146	154669
548.210	152852
548.274	156414
548.339	149203
548.403	137426
548.468	130763
548.532	131905
548.596	132914
548.660	135337
548.725	149218
548.789	162992
548.853	157006
548.917	150919
548.982	157684
549.046	137734
549.110	120613
549.174	126967
549.238	143360
549.303	153793
549.367	155229
549.431	147746
549.495	140572
549.559	143143
549.623	167669
549.687	178749
549.751	183917
549.815	207154
549.879	203984
549.943	198300
550.007	208935
550.071	203340
550.135	190488
550.199	179790
550.263	178820
550.327	177083
550.391	188779
550.455	194776
550.519	201729
550.582	216791
550.646	246269
550.710	244324
550.774	235037
550.838	238930
550.901	249170
550.965	262864
551.029	274006
551.093	299563
551.156	337817
551.220	403999
551.284	377740
551.347	309339
551.411	343798
551.475	297518
551.538	259099
551.602	240375
551.666	232005
551.729	220983
551.793	217938
551.856	213928
551.920	211443
551.983	210562
552.047	210772
552.110	212243
552.174	215449
552.237	215817
552.301	202021
552.364	199511
552.428	194875
552.491	201719
552.554	204992
552.618	204105
552.681	210070
552.745	212642
552.808	250260
552.871	267002
552.934	229569
552.998	211799
553.061	206788
553.124	197820
553.187	197974
553.251	204171
553.314	205021
553.377	207078
553.440	228407
553.503	283906
553.567	280102
553.630	222597
553.693	219973
553.756	221040
553.819	217641
553.882	212402
553.945	213066
554.008	213358
554.071	216044
554.134	215368
554.197	206630
554.260	205006
554.323	209100
554.386	210261
554.449	217281
554.512	215635
554.575	208278
554.638	209865
554.701	206500
554.764	205568
554.827	201683
554.889	191981
554.952	184073
555.015	182228
555.078	182784
555.141	184666
555.203	179079
555.266	180041
555.329	180055
555.391	174231
555.454	171953
555.517	165908
555.580	159183
555.642	157604
555.705	154551
555.768	153567
555.830	149140
555.893	144819
555.955	139966
556.018	138118
556.080	138232
556.143	140808
556.206	139603
556.268	137953
556.330	134744
556.393	129209
556.455	130434
556.518	138839
556.580	128260
556.643	117029
556.705	116714
556.767	114548
556.830	115139
556.892	113261
556.955	119741
557.017	109595
557.079	106228
557.142	103692
557.204	106031
557.266	120560
557.328	104936
557.391	93854
557.453	90910
557.515	91042
557.577	94994
557.639	93753
557.701	90471
557.764	88626
557.826	91788
557.888	92547
557.950	94624
558.012	103825
558.074	138060
558.136	306156
558.198	481969
558.260	168013
558.322	101904
558.384	98868
558.446	102260
558.508	110521
558.570	123273
558.632	152508
558.694	197453
558.756	325103
558.818	907361
558.880	1226109
558.942	512755
559.003	530241
559.065	219282
559.127	120392
559.189	117646
559.251	132256
559.312	203135
559.374	517611
559.436	1016620
559.498	382752
559.559	135033
559.621	115865
559.683	138987
559.744	253023
559.806	690686
559.868	636423
559.929	167444
559.991	134792
560.052	241773
560.114	502938
560.176	271850
560.237	360081
560.299	387529
560.360	100406
560.422	62577
560.483	57923
560.545	55082
560.606	53026
560.667	51938
560.729	50705
560.790	48825
560.852	47159
560.913	46187
560.974	45569
561.036	46204
561.097	46366
561.158	45302
561.220	44346
561.281	43642
561.342	43724
561.403	46835
561.465	52626
561.526	79167
561.587	71492
561.648	44728
561.709	42730
561.771	41849
561.832	42166
561.893	40757
561.954	40325
562.015	40036
562.076	40745
562.137	39664
562.198	39685
562.259	39721
562.320	39980
562.381	41140
562.442	46399
562.503	41174
562.564	38314
562.625	37811
562.686	38618
562.747	39196
562.808	37526
562.869	39484
562.930	42735
562.991	40553
563.051	38477
563.112	38774
563.173	37040
563.234	36110
563.294	36142
563.355	35947
563.416	37374
563.477	37592
563.537	36191
563.598	37779
563.659	37164
563.720	36334
563.780	36142
563.841	37795
563.901	36002
563.962	35279
564.023	36090
564.083	35117
564.144	36027
564.204	35121
564.265	37227
564.325	44984
564.386	65791
564.446	45616
564.507	35017
564.567	33496
564.628	34354
564.688	33652
564.749	34692
564.809	38743
564.869	39940
564.930	34084
564.990	33774
565.050	33460
565.111	33095
565.171	33852
565.231	33496
565.292	33170
565.352	31475
565.412	33946
565.472	33484
565.532	33274
565.593	33030
565.653	31922
565.713	33986
565.773	34460
565.833	38095
565.893	38490
565.953	32910
566.013	32862
566.074	35470
566.134	41518
566.194	55652
566.254	48169
566.314	36975
566.374	32611
566.434	32503
566.494	32053
566.554	31988
566.614	31896
566.673	32641
566.733	33057
566.793	34368
566.853	34228
566.913	32942
566.973	34333
567.033	34274
567.092	34651
567.152	33083
567.212	34689
567.272	34216
567.331	36010
567.391	35378
567.451	37945
567.511	46532
567.570	41390
567.630	34177
567.690	32904
567.749	32402
567.809	32779
567.868	33005
567.928	34274
567.988	36000
568.047	34454
568.107	33864
568.166	35224
568.226	35621
568.285	37960
568.345	36624
568.404	36578
568.464	35256
568.523	33962
568.582	34509
568.642	35524
568.701	36897
568.761	38568
568.820	42750
568.879	45401
568.939	45660
568.998	38725
569.057	35168
569.116	34779
569.176	32349
569.235	32161
569.294	32749
569.353	31050
569.413	32324
569.472	30817
569.531	30895
569.590	30319
569.649	30590
569.708	29618
569.767	33230
569.827	34237
569.886	30643
569.945	29529
570.004	31175
570.063	31576
570.122	32624
570.181	34227
570.240	37314
570.299	35958
570.358	34045
570.417	31372
570.475	31792
570.534	32082
570.593	31948
570.652	32330
570.711	34011
570.770	32405
570.829	33439
570.887	33722
570.946	32649
571.005	31514
571.064	32105
571.122	35112
571.181	35549
571.240	31706
571.299	30736
571.357	33774
571.416	33749
571.475	37265
571.533	35490
571.592	33587
571.650	33662
571.709	32001
571.768	33042
571.826	33788
571.885	32458
571.943	31597
572.002	31519
572.060	31396
572.119	29461
572.177	29844
572.236	29136
572.294	28930
572.352	30223
572.411	30342
572.469	28647
572.528	29298
572.586	30036
572.644	31154
572.703	31407
572.761	29864
572.819	28546
572.877	28257
572.936	27953
572.994	26746
573.052	28409
573.110	28683
573.169	28637
573.227	27386
573.285	27769
573.343	27751
573.401	27770
573.459	28736
573.517	27148
573.576	27918
573.634	29083
573.692	29083
573.750	28923
573.808	28304
573.866	31064
573.924	33968
573.982	31159
574.040	27913
574.098	27066
574.155	26391
574.213	26237
574.271	26625
574.329	27846
574.387	25791
574.445	24747
574.503	25002
574.560	24610
574.618	24443
574.676	24792
574.734	23784
574.792	24153
574.849	24151
574.907	23569
574.965	22218
575.022	22003
575.080	23140
575.138	22885
575.195	23592
575.253	23821
575.311	24352
575.368	23380
575.426	22539
575.483	23288
575.541	23682
575.598	23453
575.656	24299
575.713	23556
575.771	23435
575.828	23075
575.886	23313
575.943	23926
576.001	23269
576.058	23982
576.115	25474
576.173	27881
576.230	27872
576.287	27500
576.345	25654
576.402	24471
576.459	25468
576.517	24919
576.574	25200
576.631	24644
576.688	24417
576.746	23572
576.803	23313
576.860	21756
576.917	23178
576.974	23688
577.031	23121
577.089	23408
577.146	22342
577.203	23077
577.260	24613
577.317	24879
577.374	26669
577.431	24580
577.488	22621
577.545	22622
577.602	22990
577.659	23763
577.716	24463
577.773	23631
577.830	23732
577.886	23102
577.943	22355
578.000	24512
578.057	25464
578.114	26273
578.171	29941
578.227	34597
578.284	30906
578.341	29572
578.398	27971
578.454	28062
578.511	28678
578.568	28753
578.625	24829
578.681	23709
578.738	23625
578.794	23151
578.851	22959
578.908	24100
578.964	24858
579.021	24349
579.077	23474
579.134	23467
579.190	23371
579.247	24404
579.303	23335
579.360	23188
579.416	24200
579.473	24317
579.529	23506
579.586	24141
579.642	25045
579.698	25032
579.755	26059
579.811	26110
579.867	26800
579.924	27241
579.980	29253
580.036	30680
580.093	37429
580.149	47965
580.205	47950
580.261	39394
580.317	36565
580.374	34801
580.430	33873
580.486	33406
580.542	31069
580.598	30471
580.619	30026
580.654	29286
580.692	29683
580.710	29945
580.765	29954
580.767	29990
580.823	30049
580.838	30283
580.879	31014
580.911	31314
580.935	31603
580.984	31153
580.991	31138
581.047	32011
581.057	31972
581.103	31948
581.130	32745
581.159	33668
581.203	35346
581.215	35826
581.270	35180
581.276	35034
581.326	34020
581.349	33854
581.382	33668
581.422	33059
581.438	32852
581.494	33852
581.494	33816
581.550	32971
581.567	32932
581.606	32916
581.640	33329
581.661	33637
581.713	34235
581.717	34311
581.773	33766
581.786	33700
581.829	33522
581.859	34474
581.885	35383
581.932	35044
581.940	34992
581.996	36664
582.004	36535
582.052	36034
582.077	36305
582.107	36592
582.150	35877
582.163	35726
582.219	36491
582.223	36504
582.274	36896
582.296	37473
582.330	38410
582.368	38515
582.386	38573
582.441	38046
582.441	38060
582.497	38292
582.514	38825
582.552	40128
582.587	40392
582.608	40507
582.659	40372
582.663	40368
582.719	40417
582.732	40686
582.774	41820
582.805	43504
582.830	44929
582.877	46045
582.885	46244
582.941	50417
582.950	51482
582.996	57210
583.023	60409
583.052	63920
583.095	64027
583.107	63909
583.162	61929
583.168	61631
583.218	58930
583.240	56917
583.273	53757
583.313	50229
583.328	48984
583.384	46454
583.385	46385
583.439	44252
583.458	43584
583.494	42475
583.531	41179
583.549	40590
583.603	40626
583.605	40611
583.660	39153
583.676	39237
583.715	39627
583.748	39514
583.770	39532
583.820	39895
583.825	39881
583.881	39746
583.893	39268
583.936	37853
583.965	38685
583.991	39356
584.038	39163
584.046	39118
584.101	39269
584.110	39467
584.156	40734
584.183	40244
584.211	39254
584.255	39113
584.266	39210
584.321	41193
584.328	41228
584.376	41305
584.400	41515
584.431	41706
584.472	42116
584.486	42303
584.541	43998
584.545	44034
584.596	43872
584.617	43712
584.651	43736
584.689	44482
584.706	44767
584.761	45870
584.762	45888
584.816	45833
584.834	46045
584.871	46138
584.906	45906
584.926	45936
584.978	47136
584.980	47162
585.035	48099
585.051	48424
585.090	49135
585.123	49573
585.145	50077
585.195	52103
585.200	52334
585.254	54403
585.267	55469
585.309	59091
585.340	61872
585.364	64316
585.412	70490
585.419	71491
585.473	82416
585.484	86270
585.528	107594
585.556	130212
585.583	167791
585.628	260977
585.637	292726
585.692	572017
585.700	602472
585.747	697652
585.772	613910
585.801	403699
585.845	185357
585.856	158036
585.910	93255
585.917	86723
585.965	71212
585.989	65876
586.019	62191
586.061	58862
586.074	58182
586.128	54182
586.133	53983
586.183	52219
586.205	51255
586.237	49728
586.277	47957
586.292	47250
586.346	45272
586.349	45210
586.401	44096
586.421	44055
586.455	44479
586.493	45681
586.509	47398
586.564	55534
586.565	55862
586.618	71555
586.637	70341
586.672	58991
586.709	52011
586.727	50594
586.781	49766
586.781	49745
586.835	43616
586.853	42124
586.889	39441
586.925	36879
586.944	36217
586.996	35912
586.998	35905
587.052	36010
587.068	36170
587.106	36046
587.140	35229
587.161	35038
587.212	35579
587.215	35568
587.269	35902
587.284	35972
587.323	36193
587.356	36306
587.377	36320
587.427	36538
587.431	36562
587.485	36837
587.499	37011
587.539	37156
587.571	37520
587.593	38011
587.643	38950
587.648	39022
587.702	39784
587.715	39968
587.755	40040
587.786	40035
587.810	39682
587.858	39648
587.864	39823
587.917	41772
587.930	42164
587.971	43301
588.001	44199
588.025	44129
588.073	43543
588.079	43601
588.133	44655
588.145	45157
588.187	46249
588.217	46905
588.241	48241
588.288	50553
588.295	50916
588.348	55138
588.360	56021
588.402	58632
588.431	60705
588.456	62710
588.503	67109
588.510	67957
588.564	76751
588.575	78855
588.617	87144
588.646	93860
588.671	101349
588.718	120623
588.725	125265
588.778	173425
588.789	186935
588.832	285605
588.861	367996
588.886	493408
588.932	752828
588.939	774699
588.993	842641
589.004	835812
589.047	520907
589.075	332992
589.100	254299
589.147	142338
589.154	137194
589.207	110598
589.218	106366
589.261	103751
589.290	104221
589.314	108364
589.361	122636
589.368	127883
589.421	182150
589.433	197539
589.475	329263
589.504	439399
589.528	554917
589.576	739748
589.582	718247
589.635	416737
589.647	359482
589.689	202730
589.718	109954
589.742	94624
589.790	70694
589.795	69962
589.849	66646
589.861	66439
589.902	67579
589.932	65606
589.955	59211
590.004	48098
590.009	47691
590.062	44426
590.075	43661
590.115	42809
590.146	42259
590.168	41881
590.218	41454
590.222	41442
590.275	41621
590.289	41598
590.328	42357
590.360	42971
590.381	42340
590.431	41005
590.435	40977
590.488	40917
590.503	40818
590.541	40739
590.574	40986
590.594	41113
590.645	41375
590.647	41378
590.700	41642
590.716	41835
590.753	41896
590.787	41883
590.806	42079
590.859	42637
590.859	42623
590.912	42195
590.930	42193
590.965	42919
591.001	43404
591.018	43318
591.071	43256
591.072	43261
591.124	43283
591.143	43351
591.177	43394
591.214	43717
591.230	44144
591.283	45140
591.285	45190
591.336	44084
591.356	43640
591.389	43869
591.427	44104
591.442	43783
591.495	42501
591.498	42436
591.547	43071
591.569	43357
591.600	43261
591.640	43049
591.653	43241
591.706	44138
591.711	44260
591.759	45781
591.782	46617
591.811	48667
591.853	51444
591.864	50719
591.917	46992
591.924	46475
591.969	46742
591.995	46948
592.022	46794
592.066	46535
592.075	47164
592.127	51205
592.137	52007
592.180	55870
592.208	58139
592.233	55547
592.279	50714
592.285	50588
592.338	49649
592.350	49450
592.390	49070
592.421	48833
592.443	49301
592.491	50344
592.495	50408
592.548	51452
592.562	51748
592.600	50791
592.633	49991
592.653	49765
592.704	48957
592.705	49257
592.775	50383
592.846	52078
592.916	53785
592.987	55217
593.058	53109
593.128	52677
593.199	53376
593.270	52533
593.341	54589
593.411	56132
593.482	56623
593.553	57812
593.623	58470
593.694	59377
593.764	61841
593.835	60369
593.906	59419
593.976	62283
594.047	63030
594.117	69413
594.188	71907
594.258	65483
594.329	65848
594.399	66715
594.470	68474
594.540	71281
594.611	71389
594.681	70979
594.751	72557
594.822	75573
594.892	77610
594.963	79539
595.033	80720
595.103	83834
595.174	86238
595.244	97673
595.314	109723
595.384	89452
595.455	89990
595.525	93937
595.595	95267
595.665	96439
595.736	95958
595.806	97954
595.876	98187
595.946	98861
596.016	101703
596.087	103868
596.157	106642
596.227	106174
596.297	110658
596.367	117635
596.437	125639
596.507	131679
596.577	138563
596.647	127985
596.717	128935
596.787	132634
596.857	133011
596.927	135295
596.997	134751
597.067	137793
597.137	139977
597.207	142172
597.277	142271
597.347	138224
597.417	135152
597.487	133668
597.557	139391
597.626	142100
597.696	146327
597.766	150804
597.836	155456
597.906	138162
597.975	132937
598.045	135478
598.115	140374
598.185	147799
598.254	162276
598.324	173236
598.394	176600
598.464	173675
598.533	169645
598.603	163591
598.672	160556
598.742	164544
598.812	166724
598.881	169630
598.951	169756
599.020	173042
599.090	178347
599.159	180757
599.229	177887
599.299	175562
599.368	179806
599.437	180636
599.507	174451
599.576	172183
599.646	170096
599.715	171011
599.785	171314
599.854	171649
599.924	175005
599.993	174686
600.062	177309
600.132	181336
600.201	188117
600.270	206984
600.340	215321
600.409	214867
600.478	214800
600.547	220781
600.617	212021
600.686	190248
600.755	185497
600.824	183032
600.894	182639
600.963	187026
601.032	186513
601.101	186600
601.170	185618
601.239	186693
601.308	189977
601.378	192918
601.447	196256
601.516	199735
601.585	203706
601.654	209368
601.723	211761
601.792	219938
601.861	225683
601.930	237449
601.999	244708
602.068	242101
602.137	239700
602.206	241927
602.275	246532
602.343	248974
602.412	253075
602.481	250032
602.550	252737
602.619	255694
602.688	257146
602.756	260687
602.825	260035
602.894	265383
602.963	263983
603.032	268723
603.100	269180
603.169	263967
603.238	271956
603.307	261915
603.375	262463
603.444	275701
603.513	257864
603.581	265599
603.650	277033
603.719	239960
603.787	232147
603.856	237421
603.924	240300
603.993	248745
604.061	254211
604.130	260896
604.198	268118
604.267	267203
604.335	274013
604.404	274260
604.472	283862
604.541	282089
604.609	293143
604.678	299191
604.746	303703
604.815	314568
604.883	304786
604.951	298042
605.020	304715
605.088	287241
605.156	278238
605.225	277399
605.293	274268
605.361	278997
605.429	277500
605.498	282053
605.566	280602
605.634	291415
605.702	292093
605.771	297605
605.839	302679
605.907	285169
605.975	292101
606.043	278911
606.111	272085
606.180	290492
606.248	268494
606.316	264784
606.384	282125
606.452	241382
606.520	213513
606.588	214466
606.656	214362
606.724	209991
606.792	199587
606.860	182606
606.928	168707
606.996	163786
607.064	161275
607.132	165038
607.200	173234
607.267	178722
607.335	181394
607.403	186617
607.471	179288
607.539	176813
607.607	175204
607.674	158574
607.742	160003
607.810	159798
607.878	156723
607.946	161355
608.013	164637
608.081	170900
608.149	169140
608.216	172967
608.284	179297
608.352	177577
608.419	177884
608.487	179586
608.555	170155
608.622	173444
608.690	180222
608.757	194066
608.825	199160
608.893	195660
608.960	186806
609.028	181144
609.095	186227
609.163	176965
609.230	159294
609.298	150091
609.365	155973
609.432	167495
609.500	179869
609.567	201686
609.635	231275
609.702	241293
609.769	230837
609.837	189512
609.904	168693
609.971	179290
610.039	205400
610.106	275543
610.173	509108
610.241	1087338
610.308	847944
610.375	391727
610.442	219272
610.509	182265
610.577	177001
610.644	174154
610.711	178082
610.778	180617
610.845	184730
610.912	194406
610.980	199860
611.047	205064
611.114	199616
611.181	192619
611.248	187377
611.315	201080
611.382	204258
611.449	211558
611.516	214770
611.583	212981
611.650	215246
611.717	219429
611.784	223055
611.851	237228
611.918	257402
611.984	298350
612.051	417834
612.118	765425
612.185	1504116
612.252	1158107
612.319	409486
612.386	302953
612.452	268879
612.519	254005
612.586	253286
612.653	249148
612.719	249897
612.786	239543
612.853	223395
612.919	218740
612.986	223328
613.053	209002
613.120	197644
613.186	191056
613.253	195060
613.319	194179
613.386	195345
613.453	198514
613.519	200394
613.586	201532
613.652	207561
613.719	202366
613.785	202507
613.852	200583
613.918	199360
613.985	204448
614.051	215485
614.118	226682
614.184	218918
614.250	200378
614.317	204331
614.383	200584
614.449	203019
614.516	202530
614.582	204912
614.648	201147
614.715	200504
614.781	196496
614.847	196075
614.914	197103
614.980	190971
615.046	191120
615.112	197043
615.179	197319
615.245	198247
615.311	197795
615.377	199734
615.443	201278
615.509	206144
615.575	215215
615.642	212770
615.708	219272
615.774	231781
615.840	248367
615.906	272779
615.972	331152
616.038	484092
616.104	925439
616.170	1673516
616.236	1539392
616.302	620846
616.368	432100
616.434	316029
616.500	280498
616.565	307688
616.631	383719
616.697	328119
616.763	329807
616.829	475565
616.895	819594
616.961	814139
617.026	395902
617.092	260470
617.158	231409
617.224	215900
617.289	202324
617.355	193847
617.421	191706
617.487	190035
617.552	179697
617.618	176386
617.684	176992
617.749	180333
617.815	172033
617.880	167900
617.946	168325
618.012	170548
618.077	174213
618.143	166787
618.208	168712
618.274	178668
618.339	179950
618.405	155398
618.470	155232
618.536	155998
618.601	156221
618.667	147360
618.732	140771
618.798	140288
618.863	139591
618.928	138273
618.994	140259
619.059	142228
619.124	146662
619.190	141818
619.255	138210
619.320	140238
619.386	141749
619.451	138083
619.516	135788
619.581	137146
619.647	140555
619.712	139127
619.777	135440
619.842	137334
619.907	138511
619.972	140778
620.038	139006
620.103	137460
620.168	138924
620.233	140259
620.298	139880
620.363	140016
620.428	143486
620.493	146553
620.558	148220
620.623	148785
620.688	149463
620.753	146306
620.818	150896
620.883	150873
620.948	150419
621.013	151653
621.078	148977
621.143	149759
621.207	152561
621.272	151609
621.337	148379
621.402	149764
621.467	153653
621.532	155817
621.596	152481
621.661	145343
621.726	142693
621.791	145716
621.855	144444
621.920	145595
621.985	149833
622.049	154309
622.114	152645
622.179	152176
622.243	154832
622.308	157212
622.373	162046
622.437	160543
622.502	152519
622.566	149822
622.631	149851
622.695	153704
622.760	151985
622.824	151725
622.889	154359
622.953	152378
623.018	166028
623.082	166966
623.147	159121
623.211	156349
623.276	155372
623.340	150040
623.404	146878
623.469	146293
623.533	149187
623.597	144825
623.662	143634
623.726	136231
623.790	130301
623.854	129273
623.919	132052
623.983	132838
624.047	130941
624.111	132793
624.176	134710
624.240	136988
624.304	140968
624.368	134327
624.432	135844
624.496	135833
624.560	142674
624.625	144543
624.689	140229
624.753	143991
624.817	139120
624.881	134757
624.945	126848
625.009	124071
625.073	125442
625.137	127894
625.201	134889
625.265	135059
625.329	127744
625.393	129101
625.456	128867
625.520	132001
625.584	135825
625.648	143993
625.712	160198
625.776	210319
625.839	214375
625.903	136529
625.967	113028
626.031	133713
626.095	171077
626.158	124729
626.222	100436
626.286	94168
626.349	92278
626.413	87085
626.477	87746
626.540	86842
626.604	86977
626.668	85687
626.731	83887
626.795	85004
626.858	83815
626.922	81429
626.986	81743
627.049	79786
627.113	83014
627.176	81496
627.240	78277
627.303	78411
627.366	77420
627.430	77200
627.493	78555
627.557	76699
627.620	77794
627.684	78633
627.747	79260
627.810	71139
627.874	69331
627.937	66486
628.000	70243
628.064	66703
628.127	59808
628.190	59011
628.253	58473
628.317	57210
628.380	54956
628.443	53919
628.506	55134
628.569	51011
628.632	50392
628.696	49137
628.759	49357
628.822	46321
628.885	45669
628.948	44431
629.011	46763
629.074	43996
629.137	43350
629.200	42813
629.263	44143
629.326	40912
629.389	41309
629.452	40932
629.515	42491
629.578	41792
629.641	41481
629.704	41984
629.767	41816
629.830	38994
629.892	38729
629.955	38233
630.018	40894
630.081	39975
630.144	42969
630.207	37895
630.269	40921
630.332	39372
630.395	38253
630.458	36281
630.520	34124
630.583	35940
630.646	36206
630.708	35452
630.771	36475
630.834	38221
630.896	37044
630.959	36529
631.021	36612
631.084	36575
631.146	38853
631.209	40881
631.272	37526
631.334	37461
631.397	38387
631.459	37552
631.522	41727
631.584	41239
631.646	46261
631.709	46785
631.771	50237
631.834	45968
631.896	43447
631.958	38763
632.021	38110
632.083	36294
632.145	36790
632.208	35401
632.270	36603
632.332	35222
632.395	33688
632.457	35019
632.519	34189
632.581	34165
632.643	33130
632.706	33932
632.768	32999
632.830	33810
632.892	33875
632.954	33766
633.016	35384
633.078	33708
633.141	34019
633.203	33351
633.265	34539
633.327	33914
633.389	33469
633.451	35253
633.513	36010
633.575	37827
633.637	37836
633.698	36954
633.760	38112
633.822	37844
633.884	40214
633.946	40243
634.008	42096
634.070	44893
634.132	48289
634.193	51332
634.255	55438
634.317	56479
634.379	56715
634.441	50149
634.502	46410
634.564	41927
634.626	40140
634.687	37917
634.749	35501
634.811	36064
634.873	33305
634.934	35388
634.996	36124
635.057	33528
635.119	35052
635.181	36034
635.242	37407
635.304	33963
635.365	39117
635.427	35797
635.488	36429
635.550	35866
635.611	38550
635.673	36760
635.734	41276
635.796	43555
635.857	48328
635.918	50608
635.980	56014
636.041	57715
636.102	63361
636.164	63328
636.225	61731
636.286	52823
636.348	48031
636.409	42619
636.470	39955
636.531	38738
636.593	37092
636.654	36359
636.715	34334
636.776	33206
636.838	31475
636.899	31151
636.960	30422
637.021	30005
637.082	29495
637.143	29631
637.204	28069
637.265	28502
637.326	29846
637.387	29315
637.448	28052
637.509	29076
637.570	29147
637.631	29496
637.692	27466
637.753	25942
637.814	26529
637.875	26975
637.936	27824
637.997	26902
638.058	27847
638.119	29350
638.179	27507
638.240	26837
638.301	27233
638.362	25220
638.423	26705
638.483	26025
638.544	24997
638.605	26395
638.666	23752
638.726	26148
638.787	27023
638.848	25656
638.908	24447
638.969	24762
639.030	24423
639.090	23863
639.151	24728
639.211	26715
639.272	26637
639.332	31577
639.393	29181
639.453	29164
639.514	29512
639.574	26214
639.635	24940
639.695	25049
639.756	22877
639.816	23584
639.877	24830
639.937	29632
639.997	31874
640.058	24449
640.118	23783
640.178	24986
640.239	24176
640.299	23219
640.359	24246
640.420	25824
640.480	29313
640.540	32094
640.600	32905
640.661	31129
640.721	28555
640.781	31639
640.841	26498
640.901	25173
640.961	25107
641.021	26611
641.082	28982
641.142	28360
641.202	25798
641.262	21169
641.322	23667
641.382	21571
641.442	23498
641.502	22260
641.562	23908
641.622	23076
641.682	25863
641.742	29414
641.802	27691
641.861	25018
641.921	23664
641.981	24420
642.041	23892
642.101	24194
642.161	21194
642.221	20158
642.280	21757
642.340	20495
642.400	20204
642.460	22303
642.519	22282
642.579	22237
642.639	23936
642.698	20813
642.758	24982
642.818	23403
642.877	22800
642.937	23514
642.997	24258
643.056	25728
643.116	22772
643.175	24591
643.235	24063
643.294	24037
643.354	26579
643.414	28424
643.473	32705
643.532	38622
643.592	52616
643.651	81107
643.711	133189
643.770	250026
643.830	567848
643.889	1062439
643.948	334512
644.008	78001
644.067	46796
644.126	35805
644.186	32492
644.245	27338
644.304	24188
644.363	25574
644.423	22385
644.482	25115
644.541	25830
644.600	25041
644.659	33407
644.719	39945
644.778	59513
644.837	95871
644.896	194205
644.955	430548
645.014	154752
645.073	40794
645.132	30526
645.191	28458
645.250	25581
645.309	28475
645.368	30006
645.427	38913
645.486	63802
645.545	107768
645.604	36310
645.663	24362
645.722	24576
645.781	26389
645.840	29335
645.898	35448
645.957	49781
646.016	72789
646.075	126593
646.134	240672
646.192	595373
646.251	831425
646.310	172410
646.369	55407
646.427	43277
646.486	31958
646.545	25386
646.603	23961
646.662	22255
646.721	21150
646.779	22738
646.838	23312
646.896	29260
646.955	38362
647.014	58431
647.072	109639
647.131	288952
647.189	145054
647.248	28273
647.306	21472
647.365	19794
647.423	15755
647.481	18549
647.540	16106
647.598	17299
647.657	16056
647.715	17729
647.773	14762
647.832	16276
647.890	13742
647.948	15036
648.007	15208
648.065	13932
648.123	13815
648.181	15659
648.240	15278
648.298	13404
648.356	13859
648.414	14835
648.472	14823
648.531	14577
648.589	13944
648.647	14293
648.705	12624
648.763	14094
648.821	14252
648.879	15615
648.937	17945
648.995	22018
649.053	27375
649.111	38803
649.169	60645
649.227	104795
649.285	217792
649.343	577003
649.401	297619
649.459	56338
649.516	32876
649.574	24918
649.632	31036
649.690	36040
649.748	32875
649.806	45291
649.863	81443
649.921	208667
649.979	144809
650.037	25017
650.094	14667
650.152	14446
650.210	12645
650.268	12823
650.325	12458
650.383	13029
650.440	10205
650.498	11629
650.556	10673
650.613	10287
650.671	10728
650.728	12041
650.786	12299
650.843	15314
650.901	11392
650.958	10739
651.016	9309
651.073	10014
651.131	8681
651.188	8383
651.246	9380
651.303	8869
651.360	9406
651.418	8546
651.475	8488
651.532	8679
651.590	8326
651.647	8537
651.704	9144
651.762	8348
651.819	8924
651.876	8199
651.933	8863
651.990	9387
652.048	6314
652.105	7797
652.162	9067
652.219	7349
652.276	8121
652.333	8681
652.390	6296
652.448	8715
652.505	7750
652.562	7623
652.619	7717
652.676	9343
652.733	9799
652.790	8592
652.847	6740
652.904	7198
652.961	6627
653.017	6501
653.074	7801
653.131	7240
653.188	6679
653.245	7428
653.302	6833
653.359	6913
653.415	7158
653.472	6250
653.529	7396
653.586	6927
653.642	7951
653.699	8773
653.756	7045
653.813	6560
653.869	7984
653.926	7944
653.983	6204
654.039	7942
654.096	6411
654.152	7428
654.209	5775
654.266	6962
654.322	6609
654.379	8208
654.435	8724
654.492	8492
654.548	9231
654.605	13321
654.661	9202
654.717	8000
654.774	7243
654.830	7411
654.887	7597
654.943	7492
655.000	7316
655.056	7592
655.112	7371
655.168	6946
655.225	7488
655.281	8729
655.337	9493
655.394	12919
655.450	9717
655.506	9830
655.562	14129
655.618	12838
655.675	6780
655.731	7656
655.787	6383
655.843	7940
655.899	6628
655.955	8636
656.011	7224
656.067	7027
656.123	8463
656.179	8552
656.235	9458
656.291	8140
656.347	8551
656.403	7629
656.459	8152
656.515	8475
656.571	8605
656.627	7836
656.683	8184
656.739	7902
656.795	6878
656.850	7446
656.906	8044
656.962	8022
657.018	6867
657.074	8481
657.129	9826
657.185	14880
657.241	29424
657.297	18208
657.352	7473
657.408	7277
657.464	8261
657.519	7782
657.575	5531
657.630	6026
657.686	5960
657.742	5777
657.797	6558
657.853	6719
657.908	7823
657.964	5716
658.019	6620
658.075	6693
658.130	6504
658.186	5333
658.241	5859
658.297	6552
658.352	5880
658.407	6822
658.463	5557
658.518	6353
658.573	5229
658.629	5520
658.684	5717
658.739	6566
658.795	4568
658.850	6148
658.905	5302
658.960	6351
659.016	4632
659.071	5868
659.126	6436
659.181	6497
659.236	8935
659.291	8567
659.346	6178
659.401	6520
659.457	7816
659.512	6811
659.567	6213
659.622	5898
659.677	5223
659.732	5356
659.787	5879
659.842	6272
659.897	7058
659.952	6246
660.007	5896
660.061	6242
660.116	5330
660.171	5430
660.226	6098
660.281	6765
660.336	5159
660.391	6144
660.445	5029
660.500	6026
660.555	4895
660.610	5616
660.664	6237
660.719	4900
660.774	5973
660.828	6967
660.883	6112
660.938	5774
660.992	4439
661.047	6122
661.101	5330
661.156	5200
661.211	4718
661.265	5603
661.320	5546
661.374	5859
661.429	4280
661.483	6238
661.538	5195
661.592	5643
661.647	6240
661.701	6050
661.755	5207
661.810	5492
661.864	5323
661.919	5500
661.973	5875
662.027	5069
662.081	5758
662.136	6114
662.190	6108
662.244	5477
662.299	5744
662.353	5366
662.407	4870
662.461	5038
662.515	5232
662.569	5722
662.624	5469
662.678	5159
662.732	5316
662.786	5776
662.840	5924
662.894	5828
662.948	6094
663.002	5367
663.056	4457
663.110	4430
663.164	5277
663.218	5579
663.272	5558
663.326	5774
663.380	5127
663.434	4728
663.488	4630
663.542	6055
663.595	5307
663.649	5503
663.703	5462
663.757	5357
663.811	4739
663.864	5668
663.918	5810
663.972	5776
664.026	4505
664.079	4827
664.133	6128
664.187	5408
664.240	5067
664.294	5525
664.348	5252
664.401	5503
664.455	5138
664.508	5710
664.562	5306
664.615	5319
664.669	4242
664.722	5411
664.776	4809
664.829	5866
664.883	5477
664.936	5837
664.990	4812
665.043	5671
665.097	5853
665.150	7100
665.203	5997
665.257	6228
665.310	5776
665.363	5962
665.417	5796
665.470	5618
665.523	5280
665.576	6785
665.630	6027
665.683	6263
665.736	6441
665.789	6756
665.842	5486
665.895	6862
665.949	6300
666.002	6391
666.055	6158
666.108	6759
666.161	6254
666.214	6657
666.267	6324
666.320	6811
666.373	5744
666.426	6154
666.479	6426
666.532	7552
666.585	7284
666.638	7539
666.691	7216
666.744	7770
666.796	6809
666.849	7174
666.902	6984
666.955	5920
667.008	5833
667.060	5586
667.113	5068
667.166	5766
667.219	5480
667.271	6630
667.324	5353
667.377	6316
667.430	4935
667.482	6794
667.535	5531
667.587	5789
667.640	5683
667.693	6825
667.745	8446
667.798	8888
667.850	6590
667.903	6953
667.955	6896
668.008	6647
668.060	6194
668.113	7220
668.165	6183
668.218	6237
668.270	5622
668.322	7368
668.375	6334
668.427	6641
668.479	5115
668.532	6627
668.584	7025
668.636	6856
668.689	5839
668.741	6387
668.793	6347
668.845	6839
668.898	5823
668.950	6582
669.002	7095
669.054	6010
669.106	6436
669.158	7298
669.211	6291
669.263	7033
669.315	7106
669.367	7818
669.419	5742
669.471	9334
669.523	7629
669.575	8762
669.627	8267
669.679	7584
669.731	7426
669.783	7350
669.835	8248
669.886	7989
669.938	8681
669.990	7947
670.042	8648
670.094	9256
670.146	8188
670.197	11104
670.249	13816
670.301	15284
670.353	20359
670.404	28180
670.456	38480
670.508	57068
670.560	87359
670.611	136663
670.663	228357
670.715	441509
670.766	558007
670.818	296256
670.869	94686
670.921	46824
670.972	30606
671.024	23076
671.075	17393
671.127	15148
671.178	13277
671.230	12732
671.281	11359
671.333	13247
671.384	12548
671.436	15369
671.487	18443
671.538	23543
671.590	32722
671.641	49122
671.692	81417
671.744	143866
671.795	111947
671.846	47521
671.897	25148
671.949	17654
672.000	13915
672.051	12558
672.102	10162
672.153	9895
672.204	8231
672.256	8421
672.307	7499
672.358	8338
672.409	7021
672.460	6629
672.511	6076
672.562	6459
672.613	5432
672.664	6014
672.715	5641
672.766	5516
672.817	5534
672.868	6177
672.919	5345
672.970	5743
673.021	5774
673.071	5482
673.122	5614
673.173	5569
673.224	5450
673.275	5287
673.326	5679
673.376	6122
673.427	4834
673.478	5600
673.528	5514
673.579	6269
673.630	5626
673.680	7061
673.731	4985
673.782	5611
673.832	4914
673.883	5569
673.934	4526
673.984	5387
674.035	5259
674.085	5062
674.136	5757
674.186	5840
674.237	7347
674.287	9790
674.338	6494
674.388	5922
674.438	5670
674.489	6371
674.539	6143
674.589	6936
674.640	6074
674.690	5712
674.740	5896
674.791	5682
674.841	6114
674.891	5144
674.942	4877
674.992	5403
675.042	4333
675.092	4568
675.142	4304
675.193	4703
675.243	4418
675.293	5092
675.343	4805
675.393	5376
675.443	5424
675.493	5460
675.543	4084
675.593	5114
675.643	4909
675.693	5023
675.743	4855
675.793	4642
675.843	4458
675.893	4679
675.943	4864
675.993	5031
676.043	4261
676.093	4984
676.142	4667
676.192	4580
676.242	4189
676.292	3933
676.341	4106
676.391	4133
676.441	3532
676.491	3321
676.540	3892
676.590	4630
676.640	3878
676.689	4117
676.739	3637
676.789	4786
676.838	3497
676.888	4686
676.937	4007
676.987	4891
677.037	3270
677.086	3086
677.136	3900
677.185	3861
677.235	3656
677.284	4002
677.333	3969
677.383	3117
677.432	3648
677.482	2673
677.531	4217
677.580	3632
677.630	2585
677.679	3067
677.728	3159
677.778	4400
677.827	3237
677.876	4151
677.925	3262
677.975	3814
678.024	4137
678.073	4313
678.122	3872
678.171	4638
678.220	3599
678.269	4848
678.319	5332
678.368	5713
678.417	4362
678.466	4958
678.515	4346
678.564	3457
678.613	3822
678.662	3753
678.711	3572
678.760	3507
678.809	3671
678.857	3316
678.906	3610
678.955	4149
679.004	4278
679.053	4096
679.102	3738
679.151	3436
679.199	3552
679.248	3612
679.297	3422
679.346	3783
679.394	2584
679.443	3229
679.492	3028
679.540	4407
679.589	4181
679.638	3964
679.686	3562
679.735	4310
679.784	4449
679.832	4590
679.881	3872
679.929	2703
679.978	3091
680.026	3657
680.075	4008
680.123	4235
680.172	3149
680.220	2957
680.268	3806
680.317	3427
680.365	2872
680.414	3550
680.462	3072
680.510	4280
680.559	3257
680.607	3752
680.655	3306
680.703	3435
680.752	2683
680.800	3454
680.848	2285
680.896	2729
680.945	2358
680.993	3383
681.041	3289
681.089	3230
681.137	2057
681.185	2971
681.233	3040
681.258	3112
681.281	3157
681.329	2575
681.377	3537
681.380	3559
681.425	3555
681.473	3878
681.502	3314
681.521	2876
681.569	4418
681.617	4124
681.624	4139
681.665	4053
681.713	3696
681.745	4153
681.761	4347
681.809	3740
681.857	4776
681.867	4448
681.904	3210
681.952	4077
681.989	4267
682.000	4290
682.048	4205
682.096	3156
682.111	3448
682.143	4000
682.191	3725
682.233	4195
682.239	4243
682.286	3855
682.334	4107
682.354	4174
682.382	4210
682.430	4559
682.476	3973
682.477	3941
682.525	5024
682.572	4595
682.598	4401
682.620	4209
682.667	4451
682.715	5044
682.720	5041
682.763	4758
682.810	4339
682.841	4296
682.857	4240
682.905	4286
682.952	4761
682.963	4737
683.000	4602
683.047	4604
683.085	5168
683.095	5296
683.142	4612
683.190	5048
683.206	4755
683.237	4123
683.284	5491
683.328	3858
683.332	3711
683.379	4817
683.426	4209
683.449	4639
683.473	5011
683.521	5285
683.568	6022
683.571	5975
683.615	5141
683.662	5862
683.693	5146
683.709	4694
683.757	5336
683.804	4479
683.814	4652
683.851	5289
683.898	5610
683.936	5763
683.945	5791
683.992	4961
684.039	5974
684.057	5724
684.086	5212
684.133	6164
684.179	5063
684.180	5010
684.227	5575
684.274	5760
684.300	5662
684.321	5599
684.368	5101
684.415	6172
684.422	6133
684.462	5827
684.509	5420
684.543	5562
684.556	5611
684.603	6363
684.649	6167
684.665	6218
684.696	6229
684.743	5533
684.786	5979
684.790	6005
684.837	6401
684.883	6143
684.908	6472
684.930	6816
684.977	7246
685.023	7184
685.029	7212
685.070	7120
685.117	6275
685.150	6578
685.164	6699
685.210	6688
685.257	7874
685.272	7712
685.303	7349
685.350	7152
685.393	6996
685.396	6981
685.443	6998
685.490	7806
685.514	7728
685.536	7588
685.583	7023
685.629	7251
685.636	7249
685.675	7195
685.722	7087
685.757	6761
685.768	6680
685.815	7500
685.861	7680
685.878	7615
685.908	7535
685.954	7652
686.000	8887
686.000	8903
686.047	8339
686.093	9965
686.121	9981
686.139	9681
686.185	9011
686.232	8203
686.242	8237
686.278	8598
686.324	7765
686.363	7534
686.370	7489
686.416	7035
686.463	8549
686.484	8329
686.509	8171
686.555	8668
686.601	7898
686.606	7960
686.647	8255
686.693	8612
686.727	8103
686.739	7974
686.785	8298
686.831	8169
686.848	7977
686.877	7528
686.923	8123
686.969	7975
686.969	7974
687.015	8092
687.061	8456
687.090	8869
687.107	9076
687.153	8562
687.199	8771
687.211	8674
687.245	8416
687.291	8593
687.332	8795
687.336	8817
687.382	9339
687.428	9036
687.453	9052
687.474	8926
687.520	8609
687.565	8779
687.574	8609
687.611	8384
687.657	8908
687.695	9036
687.702	9035
687.748	9492
687.794	9788
687.816	9779
687.839	9608
687.885	9385
687.931	8709
687.937	8668
687.976	8719
688.022	9117
688.058	9277
688.067	9288
688.113	9387
688.158	8714
688.179	8792
688.204	8932
688.249	9035
688.295	9575
688.300	9575
688.340	9782
688.386	9824
688.421	9766
688.431	9693
688.477	9676
688.522	9184
688.542	9563
688.567	10220
688.613	9671
688.658	10281
688.663	10209
688.703	9240
688.749	9231
688.784	9595
688.794	9816
688.839	9611
688.884	9818
688.905	9858
688.930	9802
688.975	10111
689.020	10319
689.026	10286
689.065	10047
689.110	9975
689.146	9422
689.155	9295
689.201	9347
689.246	9331
689.267	9388
689.291	9583
689.336	9696
689.381	9547
689.388	9544
689.426	9453
689.471	9980
689.509	9971
689.516	10004
689.561	10077
689.606	9915
689.630	9909
689.651	9900
689.696	10339
689.741	10250
689.750	10273
689.785	10308
689.830	10639
689.871	9955
689.875	9904
689.920	10446
689.965	10174
689.992	9947
690.010	9891
690.054	10261
690.099	10463
690.112	10579
690.144	10654
690.189	10451
690.233	10007
690.233	10019
690.278	10137
690.323	10345
690.354	10768
690.367	10918
690.412	10978
690.457	11396
690.474	11210
690.501	10972
690.546	11153
690.590	11248
690.595	11242
690.635	11494
690.680	11335
690.716	11874
690.724	12126
690.769	13092
690.813	14327
690.836	14540
690.857	15428
690.902	18134
690.946	21116
690.957	21811
690.991	27623
691.035	36079
691.077	45101
691.080	45227
691.124	42648
691.168	39200
691.198	37125
691.213	34577
691.257	28190
691.301	21305
691.318	18916
691.346	17938
691.390	15727
691.434	14236
691.439	13970
691.478	13172
691.522	13150
691.559	12510
691.567	12477
691.611	12813
691.655	12494
691.680	12561
691.699	12591
691.743	12186
691.787	12304
691.800	12085
691.831	11821
691.875	12061
691.919	12537
691.921	12507
691.964	12258
692.008	12620
692.041	12617
692.052	12597
692.096	12353
692.139	12377
692.162	12331
692.183	12284
692.227	12405
692.271	11850
692.282	11826
692.315	11812
692.359	11785
692.402	11668
692.403	11689
692.447	11491
692.490	11596
692.523	11603
692.534	11635
692.578	11786
692.622	11799
692.643	11882
692.666	11941
692.709	11924
692.753	11858
692.763	11801
692.797	11821
692.840	11885
692.884	11832
692.884	11857
692.928	12108
692.971	12615
693.004	12843
693.015	12838
693.059	12219
693.102	12567
693.124	12342
693.146	12470
693.189	13095
693.233	13246
693.245	13446
693.276	14039
693.320	14438
693.363	14924
693.365	14907
693.407	15674
693.450	16918
693.485	17402
693.493	17754
693.537	19825
693.580	21770
693.605	23089
693.624	25707
693.667	31617
693.710	37926
693.725	40170
693.753	51375
693.797	69738
693.840	88798
693.845	90604
693.883	85521
693.926	77425
693.966	71132
693.970	69722
694.013	54574
694.056	39490
694.086	29256
694.099	28161
694.142	24245
694.185	20888
694.206	19187
694.229	18915
694.272	17842
694.315	17458
694.326	17259
694.358	16738
694.401	15905
694.444	15144
694.446	15080
694.487	14622
694.530	13820
694.566	13265
694.573	13272
694.616	12847
694.659	12922
694.686	12792
694.702	12800
694.745	12797
694.787	12667
694.806	12668
694.830	12735
694.873	12699
694.916	12581
694.926	12539
694.959	12468
695.002	12420
695.044	12276
695.046	12244
695.087	12443
695.130	12440
695.166	12785
695.172	12880
695.215	12970
695.258	13208
695.286	13158
695.301	13108
695.343	13322
695.386	13200
695.406	13127
695.428	13220
695.471	13459
695.514	13602
695.526	13610
695.556	13985
695.599	14657
695.641	15019
695.646	15047
695.684	15000
695.726	14725
695.766	14535
695.769	14550
695.811	14306
695.854	14151
695.886	13898
695.896	13926
695.938	13806
695.981	13862
696.005	13780
696.023	14039
696.065	14649
696.108	15447
696.125	15604
696.150	15583
696.192	15836
696.235	15668
696.245	15666
696.277	15742
696.319	15619
696.361	15700
696.365	15656
696.404	15558
696.446	15478
696.485	15291
696.488	15341
696.530	15553
696.572	15762
696.604	15905
696.614	15931
696.656	15845
696.698	15887
696.724	15836
696.740	15833
696.783	15623
696.825	15527
696.844	15417
696.867	15378
696.909	15153
696.951	15188
696.964	15078
696.992	15071
697.034	15072
697.076	15051
697.083	15037
697.118	15538
697.160	15946
697.202	16406
697.203	16379
697.244	16084
697.286	15732
697.323	15209
697.327	15251
697.369	15518
697.411	15690
697.442	15772
697.453	15871
697.494	16110
697.536	16461
697.562	16540
697.578	16597
697.620	16717
697.661	16789
697.682	16853
697.703	17005
697.744	17018
697.786	17197
697.801	17199
697.828	17266
697.869	17294
697.911	17258
697.921	17231
697.952	17364
697.994	17387
698.035	17529
698.040	17487
698.077	17024
698.118	16550
698.160	16016
698.160	15972
698.201	16584
698.243	17047
698.279	17495
698.284	17573
698.325	17884
698.367	18180
698.399	18312
698.408	18307
698.449	18157
698.491	17980
698.518	17783
698.532	17870
698.573	18035
698.614	18211
698.638	18249
698.656	18296
698.697	18320
698.738	18299
698.757	18268
698.779	18293
698.820	18232
698.862	18167
698.877	18095
698.903	18391
698.944	18805
698.985	19205
698.996	19271
699.026	19072
699.067	18722
699.116	18261
699.235	18395
699.354	17930
699.474	17588
699.593	18540
699.713	18872
699.832	17717
699.951	18202
700.070	18221
700.190	17098
700.309	16485
700.428	17628
700.547	16541
700.667	16464
700.786	17786
700.905	15997
701.024	17655
701.143	16829
701.262	15149
701.381	16160
701.500	15555
701.619	16281
701.738	16100
701.857	15609
701.976	14611
702.095	15051
702.214	16857
702.333	16004
702.452	15843
702.571	15816
702.690	16435
702.809	15429
702.928	14729
703.047	15027
703.165	15571
703.284	15159
703.403	14834
703.522	15904
703.640	15121
703.759	16077
703.878	18796
703.997	15297
704.115	14376
704.234	14032
704.353	14588
704.471	13924
704.590	12452
704.708	13069
704.827	13670
704.946	13619
705.064	14122
705.183	13915
705.301	15407
705.420	18724
705.538	17333
705.656	15166
705.775	14674
705.893	19480
706.012	21863
706.130	15507
706.249	16472
706.367	15893
706.485	17136
706.604	15334
706.722	15781
706.840	17254
706.958	18201
707.077	15802
707.195	13774
707.313	14989
707.431	13464
707.549	13793
707.668	13717
707.786	15245
707.904	13540
708.022	14276
708.140	14148
708.258	13687
708.376	15026
708.494	13299
708.612	15155
708.730	18617
708.848	19068
708.966	15996
709.084	16467
709.202	15784
709.320	15480
709.438	15674
709.556	16677
709.674	15173
709.791	15426
709.909	16120
710.027	14944
710.145	15837
710.263	16078
710.380	15187
710.498	14975
710.616	14841
710.733	14111
710.851	14821
710.969	14986
711.086	15213
711.204	15134
711.322	14475
711.439	14875
711.557	15327
711.674	14584
711.792	14872
711.909	14552
712.027	14165
712.144	13871
712.262	13731
712.379	16128
712.497	18801
712.614	19573
712.732	17241
712.849	15578
712.966	16983
713.084	18802
713.201	16149
713.318	16902
713.436	17228
713.553	16853
713.670	17586
713.787	18005
713.905	17971
714.022	16054
714.139	17365
714.256	20681
714.373	28307
714.490	46191
714.608	116735
714.725	482259
714.842	468437
714.959	44861
715.076	23146
715.193	18344
715.310	18515
715.427	15469
715.544	15164
715.661	15201
715.778	14783
715.895	15893
716.011	16458
716.128	14834
716.245	14442
716.362	14951
716.479	14772
716.596	13914
716.713	14020
716.829	13030
716.946	13835
717.063	12238
717.180	13258
717.296	12924
717.413	13518
717.530	13224
717.646	12337
717.763	12333
717.880	12742
717.996	11981
718.113	12284
718.229	11898
718.346	10904
718.462	10861
718.579	13197
718.695	15983
718.812	14929
718.928	16121
719.045	12658
719.161	11762
719.277	11827
719.394	12348
719.510	12847
719.626	11620
719.743	16808
719.859	22409
719.975	42270
720.092	165030
720.208	345497
720.324	44483
720.440	16196
720.557	14688
720.673	16455
720.789	20728
720.905	39585
721.021	16773
721.137	11487
721.253	11445
721.369	12024
721.486	12960
721.602	15211
721.718	11291
721.834	10672
721.950	10914
722.066	9407
722.181	9661
722.297	11160
722.413	10316
722.529	10116
722.645	9784
722.761	10258
722.877	9965
722.993	11358
723.108	12061
723.224	10892
723.340	10488
723.456	9979
723.571	9972
723.687	9093
723.803	9664
723.918	9463
724.034	9503
724.150	9736
724.265	9675
724.381	16706
724.497	19497
724.612	9132
724.728	8679
724.843	8798
724.959	10605
725.074	15987
725.190	18448
725.305	9426
725.421	8065
725.536	8108
725.651	8067
725.767	8235
725.882	8420
725.997	7898
726.113	8370
726.228	7677
726.343	7769
726.459	7225
726.574	7342
726.689	7900
726.804	8392
726.920	7489
727.035	7387
727.150	8357
727.265	7665
727.380	8679
727.495	7827
727.610	6912
727.725	7692
727.841	8333
727.956	10554
728.071	9966
728.186	6711
728.301	6300
728.416	7818
728.531	8171
728.645	6527
728.760	8061
728.875	6981
728.990	7973
729.105	7283
729.220	7505
729.335	7479
729.449	7249
729.564	6625
729.679	6251
729.794	7532
729.908	7890
730.023	7448
730.138	7605
730.253	7075
730.367	7104
730.482	7062
730.596	6694
730.711	7364
730.826	9240
730.940	8088
731.055	8212
731.169	7347
731.284	7515
731.398	7228
731.513	9040
731.627	9032
731.742	11214
731.856	11854
731.970	11406
732.085	13262
732.199	19842
732.313	34259
732.428	87607
732.542	247941
732.656	133179
732.771	25341
732.885	15560
732.999	13641
733.113	13919
733.227	13124
733.342	12116
733.456	11658
733.570	10996
733.684	10667
733.798	9659
733.912	10146
734.026	10467
734.140	9753
734.254	11118
734.368	13736
734.482	15804
734.596	11662
734.710	9444
734.824	9677
734.938	10237
735.052	9337
735.166	10058
735.280	9832
735.393	9473
735.507	10160
735.621	11314
735.735	15030
735.849	10227
735.962	9485
736.076	9618
736.190	9839
736.303	10837
736.417	12102
736.531	8314
736.644	9010
736.758	9408
736.872	8299
736.985	8013
737.099	8754
737.212	8530
737.326	8793
737.439	8201
737.553	7815
737.666	9929
737.780	7659
737.893	8512
738.007	8446
738.120	8094
738.233	7611
738.347	7751
738.460	7911
738.573	8194
738.687	7540
738.800	8138
738.913	8502
739.026	8391
739.140	8287
739.253	7828
739.366	7519
739.479	7761
739.592	6974
739.705	7037
739.818	7958
739.932	6989
740.045	7547
740.158	8074
740.271	7940
740.384	7559
740.497	6901
740.610	7711
740.723	7413
740.836	7341
740.949	7057
741.062	8265
741.174	7663
741.287	7311
741.400	7534
741.513	6185
741.626	7899
741.739	7104
741.851	6684
741.964	7330
742.077	6988
742.189	7324
742.302	8621
742.415	7841
742.527	6726
742.640	7034
742.753	6215
742.865	7196
742.978	6987
743.090	6593
743.203	6896
743.316	6528
743.428	5846
743.541	6432
743.653	5746
743.766	6440
743.878	7449
743.990	7834
744.103	7566
744.215	7670
744.327	6407
744.440	8615
744.552	7364
744.664	6092
744.777	6881
744.889	6201
745.001	6198
745.113	6717
745.226	6718
745.338	6988
745.450	6821
745.562	6934
745.674	5844
745.786	6521
745.898	6395
746.010	6258
746.122	7078
746.234	6850
746.347	6407
746.459	6086
746.570	5970
746.682	6375
746.794	8353
746.906	6775
747.018	6264
747.130	5633
747.242	5748
747.354	6343
747.466	6302
747.577	5128
747.689	6575
747.801	6368
747.913	5080
748.024	5730
748.136	5168
748.248	5138
748.359	5663
748.471	5512
748.583	5867
748.694	5349
748.806	6657
748.918	6878
749.029	6256
749.141	6028
749.252	6403
749.364	5945
749.475	7493
749.587	6892
749.698	5619
749.809	5989
749.921	5649
750.032	6000
750.144	5072
750.255	5156
750.366	4794
750.478	4811
750.589	5512
750.700	6066
750.811	5615
750.923	6342
751.034	6867
751.145	7760
751.256	4543
751.367	5653
751.479	4993
751.590	5335
751.701	5215
751.812	5307
751.923	5567
752.034	5083
752.145	5160
752.256	5038
752.367	4973
752.478	4501
752.589	6163
752.700	5783
752.811	5026
752.922	5691
753.032	5670
753.143	5906
753.254	5370
753.365	6318
753.476	5983
753.586	5575
753.697	4985
753.808	6116
753.919	6165
754.029	4828
754.140	5092
754.251	5228
754.361	5138
754.472	5538
754.582	5725
754.693	5447
754.804	5336
754.914	5927
755.025	5079
755.135	6140
755.246	5273
755.356	5168
755.466	5417
755.577	5554
755.687	5737
755.798	5278
755.908	5355
756.018	5899
756.129	5307
756.239	5019
756.349	5124
756.460	5209
756.570	6520
756.680	5437
756.790	5112
756.900	6224
757.011	6635
757.121	5655
757.231	4910
757.341	5494
757.451	5982
757.561	5104
757.671	5638
757.781	5881
757.891	6023
758.001	5223
758.111	5873
758.221	7023
758.331	6113
758.441	7162
758.551	6871
758.661	6500
758.771	6683
758.880	7140
758.990	6889
759.100	6601
759.210	6383
759.320	7546
759.429	7104
759.539	8323
759.649	8164
759.758	9197
759.868	9373
759.978	8580
760.087	9188
760.197	8821
760.307	9373
760.416	8683
760.526	8142
760.635	9310
760.745	9184
760.854	9797
760.964	11118
761.073	10801
761.182	10721
761.292	9925
761.401	10355
761.511	9330
761.620	8973
761.729	9287
761.839	9195
761.948	9554
762.057	8874
762.166	10279
762.276	8672
762.385	11416
762.494	9307
762.603	10086
762.712	11273
762.822	10847
762.931	11417
763.040	11643
763.149	11769
763.258	12611
763.367	13190
763.476	12999
763.585	14560
763.694	14485
763.803	15372
763.912	15997
764.021	16028
764.130	17478
764.238	19183
764.347	20593
764.456	21005
764.565	23676
764.674	25014
764.783	27322
764.891	29254
765.000	33994
765.109	36791
765.217	43354
765.326	49491
765.435	59840
765.543	71590
765.652	88578
765.761	114477
765.869	152408
765.978	209805
766.086	304161
766.195	442303
766.303	621843
766.412	645791
766.520	629318
766.629	566880
766.737	388259
766.846	263869
766.954	187175
767.062	139733
767.171	106269
767.279	84964
767.387	69272
767.496	56857
767.604	49658
767.712	44915
767.820	38995
767.928	35840
768.037	33311
768.145	31115
768.253	30758
768.361	29641
768.469	30680
768.577	30425
768.685	33244
768.793	34514
768.901	38657
769.009	44197
769.117	52054
769.225	67559
769.333	92901
769.441	135184
769.549	215580
769.657	364529
769.765	566083
769.873	581750
769.981	513420
770.088	313289
770.196	189274
770.304	126870
770.412	92072
770.519	69306
770.627	56082
770.735	46140
770.842	39377
770.950	34113
771.058	30865
771.165	27930
771.273	25894
771.380	23657
771.488	22914
771.595	22048
771.703	19578
771.810	19476
771.918	18105
772.025	17816
772.133	17989
772.240	16338
772.348	17443
772.455	15882
772.562	14634
772.670	14708
772.777	14253
772.884	13458
772.991	13540
773.099	14052
773.206	12373
773.313	12823
773.420	12509
773.528	10689
773.635	11347
773.742	11782
773.849	11204
773.956	11594
774.063	10511
774.170	10130
774.277	10905
774.384	10702
774.491	9983
774.598	10533
774.705	9485
774.812	9825
774.919	9846
775.026	9433
775.133	8771
775.239	9900
775.346	8920
775.453	8469
775.560	7941
775.667	8637
775.773	8297
775.880	9304
775.987	8328
776.093	8377
776.200	7565
776.307	7455
776.413	9051
776.520	8856
776.627	8833
776.733	6951
776.840	6503
776.946	9954
777.053	9013
777.159	11520
777.266	8587
777.372	12192
777.478	10282
777.585	9184
777.691	6847
777.798	7482
777.904	7277
778.010	7549
778.117	7352
778.223	6951
778.329	7427
778.435	6046
778.542	7005
778.648	6375
778.754	6468
778.860	7309
778.966	6666
779.072	6222
779.178	6855
779.284	5769
779.391	6258
779.497	6127
779.603	9729
779.708	9599
779.815	20116
779.920	63271
780.026	96469
780.132	17328
780.238	7973
780.344	6458
780.450	7784
780.556	5480
780.661	5030
780.767	5586
780.873	4594
780.979	5364
781.085	5476
781.190	4524
781.296	4915
781.402	5702
781.507	5516
781.613	4153
781.719	4832
781.824	5600
781.930	5886
782.035	5317
782.141	5777
782.246	4202
782.352	4950
782.457	4202
782.563	5024
782.668	5029
782.773	5102
782.879	4017
782.984	4680
783.090	5478
783.195	5610
783.300	5648
783.405	5366
783.511	4030
783.616	5229
783.721	4356
783.826	3640
783.932	4264
784.037	4680
784.142	4822
784.247	3777
784.352	4225
784.457	3887
784.562	4628
784.667	4383
784.772	4309
784.877	3570
784.982	4301
785.087	3792
785.192	3643
785.297	3581
785.402	3638
785.507	3933
785.611	4242
785.716	3964
785.821	3568
785.926	3133
786.031	3840
786.135	4296
786.240	3823
786.345	2956
786.450	3894
786.554	3645
786.659	3365
786.763	2737
786.868	4325
786.973	4560
787.077	2512
787.182	2468
787.286	3722
787.391	4045
787.495	2851
787.600	2834
787.704	3094
787.809	3270
787.913	2519
788.017	4138
788.122	3963
788.226	2581
788.330	2256
788.435	3608
788.539	2862
788.643	3056
788.747	2596
788.852	2556
788.956	2625
789.060	4195
789.164	3386
789.268	3419
789.372	3061
789.476	3515
789.580	2392
789.684	2751
789.788	3459
789.892	2654
789.996	3601
790.100	2865
790.204	3451
790.308	3550
790.412	2135
790.516	2696
790.620	2816
790.724	3819
790.828	2961
790.931	1880
791.035	4046
791.139	3240
791.242	2487
791.346	2923
791.450	2612
791.554	2832
791.657	1628
791.761	3497
791.864	4275
791.968	3208
792.072	2246
792.175	2274
792.279	2830
792.382	3130
792.486	2895
792.589	3113
792.693	3136
792.796	1573
792.899	2872
793.003	3810
793.106	1297
793.209	3012
793.313	3481
793.416	817
793.519	3617
793.623	4007
793.726	3206
793.829	2447
793.932	2183
794.035	1759
794.138	3979
794.242	3108
794.345	3601
794.448	5947
794.551	10210
794.654	34176
794.757	55115
794.860	10567
794.963	3876
795.066	2860
795.169	3507
795.272	2066
795.375	2848
795.477	1836
795.580	3397
795.683	1998
795.786	2313
795.889	1170
795.991	3157
796.094	2932
796.197	1862
796.300	3279
796.402	2224
796.505	2503
796.608	1678
796.710	2420
796.813	1980
796.915	1921
797.018	2442
797.120	2497
797.223	926
797.326	3251
797.428	1674
797.530	2022
797.633	1456
797.735	3755
797.838	3109
797.940	3906
798.042	2089
798.145	2255
798.247	2285
798.349	831
798.452	2126
798.554	1782
798.656	1608
798.758	3757
798.860	1935
798.962	2060
799.065	2313
799.167	977
799.269	2532
799.371	3065
799.473	3569
799.575	2857
799.677	2417
799.779	3572
799.881	2335
799.983	3343
800.085	2209
800.187	1868
800.289	706
800.390	1650
800.492	1995
800.594	2292
800.696	2033
800.798	2247
800.899	1787
801.001	1339
801.103	1603
801.205	1204
801.306	2348
801.408	1490
801.509	1860
801.611	2100
801.713	2572
801.814	1559
801.916	1624
802.017	1299
802.119	1196
802.220	1900
802.322	797
802.423	3779
802.525	707
802.626	1599
802.727	2395
802.829	2746
802.930	-181
803.031	3122
803.133	1491
803.234	1044
803.335	2408
803.436	897
803.538	1199
803.639	799
803.740	1420
803.841	1484
803.942	1452
804.043	2219
804.144	1016
804.245	1837
804.346	455
804.447	794
804.548	1822
804.649	2805
804.750	785
804.851	1392
804.952	1180
805.053	1219
805.154	328
805.255	1447
805.355	1097
805.456	935
805.557	990
805.658	544
805.758	1735
805.859	1283
805.960	771
806.061	1263
806.161	1409
806.262	1857
806.362	1146
806.463	513
806.564	1290
806.664	1350
806.765	1901
806.865	1924
806.966	927
807.066	536
807.166	1505
807.267	1914
807.367	380
807.468	2057
807.568	-210
807.668	1517
807.769	1169
807.869	327
807.969	1284
808.069	1417
808.170	1105
808.270	1332
808.370	1148
808.470	1250
808.570	-597
808.670	1538
808.770	1049
808.870	526
808.970	1142
809.070	916
809.170	1229
809.271	1013
809.370	243
809.470	1583
809.570	554
809.670	318
809.770	580
809.870	2347
809.970	1116
810.070	311
810.169	623
810.269	100
810.369	1982
810.469	1020
810.568	753
810.668	869
810.768	759
810.867	1000
810.967	901
811.066	901
811.166	698
811.265	1915
811.365	1209
811.464	1017
811.564	1115
811.663	1206
811.763	721
811.862	1217
811.962	1087
812.061	1355
812.160	1252
812.260	1933
812.359	2024
812.458	2826
812.557	9517
812.657	13207
812.756	4495
812.855	1611
812.954	1245
813.053	1143
813.153	1014
813.252	-86
813.351	978
813.450	768
813.549	758
813.648	1041
813.747	384
813.846	1505
813.945	-16
814.044	1380
814.143	805
814.242	1564
814.341	941
814.439	948
814.538	1175
814.637	1040
814.736	818
814.835	967
814.933	883
815.032	980
815.131	2048
815.229	4214
815.328	4625
815.427	2909
815.525	2835
815.624	2774
815.722	2390
815.821	2781
815.919	2850
816.018	1651
816.116	3169
816.215	2726
816.313	3712
816.412	3618
816.510	4009
816.609	5257
816.707	4409
816.805	3563
816.904	4260
817.002	4008
817.100	4661
817.198	4862
817.296	3133
817.395	4203
817.493	4237
817.591	3427
817.689	3667
817.787	3767
817.885	4299
817.983	4104
818.081	6860
818.179	11877
818.277	27782
818.375	20590
818.473	7597
818.571	4465
818.669	3985
818.767	5521
818.865	3353
818.963	4020
819.061	5347
819.158	6195
819.256	12072
819.354	22610
819.452	50117
819.549	28638
819.647	8305
819.745	4538
819.842	3864
819.940	3656
820.038	2152
820.135	2949
820.233	5037
820.330	3342
820.428	2276
820.525	4448
820.623	3048
820.720	2765
820.818	3067
820.915	3290
821.012	2828
821.110	2473
821.207	2972
821.304	2700
821.402	2654
821.499	3287
821.596	3802
821.693	2942
821.791	4065
821.888	2515
821.985	4126
822.082	2319
822.179	3804
822.276	2757
822.373	2645
822.470	2438
822.567	2787
822.664	1855
822.761	3056
822.858	2171
822.955	2535
823.052	2192
823.149	2441
823.246	2132
823.343	1082
823.440	2764
823.536	2007
823.633	2255
823.730	2392
823.827	2712
823.923	1838
824.020	3395
824.117	2108
824.213	1892
824.310	3079
824.407	2489
824.503	1900
824.600	2766
824.696	2898
824.793	3606
824.889	2506
824.986	3258
825.082	2000
825.179	3104
825.275	2600
825.371	2381
825.468	2156
825.564	483
825.660	2701
825.757	2985
825.853	3396
825.949	1083
826.045	1811
826.142	1671
826.238	1772
826.334	1786
826.430	1382
826.526	1253
826.622	1804
826.718	1859
826.814	1855
826.910	2970
827.006	1348
827.102	1184
827.198	2988
827.294	2268
827.390	2108
827.486	2525
827.582	-576
827.678	1467
827.774	2570
827.869	827
827.965	2375
828.061	834
828.157	1760
828.252	1803
828.348	589
828.444	2867
828.539	537
828.635	1785
828.731	2258
828.826	1413
828.922	1640
829.017	2218
829.113	2285
829.208	1967
829.304	1890
829.399	2864
829.495	1406
829.590	1995
829.685	1224
829.781	2663
829.876	1645
829.971	969
830.066	872
830.162	1278
830.257	1717
830.352	1936
830.447	2169
830.543	1267
830.638	970
830.733	2248
830.828	1873
830.923	2324
831.018	1305
831.113	2142
831.208	858
831.303	787
831.398	1396
831.493	1113
831.588	1945
831.683	791
831.778	2042
831.873	1171
831.967	2304
832.062	1421
832.157	819
832.252	1829
832.346	1172
832.441	1832
832.536	1825
832.631	3408
832.725	2154
832.820	1237
832.914	662
833.009	682
833.104	1161
833.198	823
833.293	1524
833.387	1344
833.482	1970
833.576	835
833.670	1972
833.765	1113
833.859	1007
833.954	2236
834.048	687
834.142	1981
834.237	326
834.331	443
834.425	2035
834.519	569
834.613	1164
834.708	920
834.802	1442
834.896	682
834.990	1220
835.084	1266
835.178	1122
835.272	911
835.366	1414
835.460	2163
835.554	1165
835.648	535
835.742	664
835.836	981
835.930	54
836.024	1276
836.117	1942
836.211	1578
836.305	1612
836.399	2890
836.493	54
836.586	1741
836.680	973
836.774	109
836.867	1429
836.961	880
837.055	404
837.148	434
837.242	1632
837.335	1057
837.429	898
837.522	397
837.616	1620
837.709	2333
837.803	727
837.896	1892
837.989	985
838.083	1684
838.176	3163
838.269	1878
838.363	860
838.456	942
838.549	904
838.642	751
838.735	2463
838.829	2759
838.922	574
839.015	1163
839.108	-49
839.201	1067
839.294	906
839.387	1505
839.480	458
839.573	893
839.666	895
839.759	567
839.852	-2
839.945	1066
840.038	132
840.131	675
840.223	391
840.316	1119
840.409	804
840.502	375
840.594	1664
840.687	49
840.780	275
840.873	423
840.965	1099
841.058	1872
841.150	2222
841.243	687
841.336	989
841.428	422
841.521	65
841.613	1247
841.706	824
841.798	849
841.890	1055
841.983	401
842.075	639
842.167	495
842.260	595
842.352	1335
842.444	1245
842.537	3084
842.629	3903
842.721	1091
842.813	926
842.905	319
842.997	854
843.090	977
843.182	2147
843.274	2462
843.366	7223
843.458	12730
843.550	8460
843.642	1952
843.734	1826
843.826	462
843.918	994
844.009	1281
844.101	-10
844.193	486
844.285	890
844.377	1454
844.469	868
844.560	1763
844.652	1808
844.744	828
844.835	930
844.927	1752
845.019	1057
845.110	1229
845.202	952
845.293	778
845.385	-142
845.476	599
845.568	1280
845.659	685
845.751	948
845.842	306
845.934	734
846.025	271
846.116	1270
846.208	512
846.299	33
846.390	470
846.482	166
846.573	1079
846.664	842
846.755	708
846.846	1293
846.937	-638
847.029	587
847.120	625
847.211	424
847.302	1633
847.393	-199
847.484	213
847.575	84
847.666	395
847.757	305
847.847	478
847.938	1101
848.029	581
848.120	258
848.211	522
848.302	632
848.392	182
848.483	698
848.574	466
848.664	506
848.755	908
848.846	414
848.936	720
849.027	81
849.118	652
849.208	284
849.299	2616
849.389	4672
849.480	10041
849.570	19501
849.661	37572
849.751	59456
849.841	21256
849.932	3750
850.022	1712
850.112	2096
850.203	1017
850.293	-79
850.383	464
850.474	368
850.564	434
850.654	410
850.744	642
850.834	1170
850.924	518
851.014	1367
851.104	472
851.194	670
851.284	113
851.374	970
851.464	573
851.554	1455
851.644	1112
851.734	1335
851.824	2463
851.914	1592
852.004	4028
852.094	2376
852.183	1167
852.273	69
852.363	226
852.452	799
852.542	1389
852.632	-88
852.721	1076
852.811	598
852.901	774
852.990	915
853.080	972
853.169	248
853.259	1556
853.348	1390
853.438	2921
853.527	4372
853.617	6154
853.706	13172
853.795	22390
853.885	47972
853.974	84985
854.063	150365
854.152	209117
854.242	89109
854.331	22430
854.420	9446
854.509	6014
854.598	4586
854.687	3839
854.777	3157
854.866	2326
854.955	1679
855.044	1092
855.133	1202
855.222	-235
855.311	910
855.400	961
855.488	224
855.577	274
855.666	863
855.755	276
855.844	1130
855.933	1145
856.021	1133
856.110	1411
856.199	-516
856.288	-79
856.376	679
856.465	151
856.554	810
856.642	225
856.731	1217
856.819	314
856.908	-196
856.996	741
857.085	258
857.173	-496
857.262	-234
857.350	587
857.438	-81
857.527	614
857.615	222
857.703	906
857.792	376
857.880	-46
857.968	485
858.056	447
858.145	341
858.233	596
858.321	242
858.409	1041
858.497	-125
858.585	82
858.673	494
858.761	-284
858.849	803
858.937	230
859.025	1240
859.113	674
859.201	-989
859.289	1401
859.377	145
859.465	916
859.552	179
859.640	189
859.728	468
859.816	800
859.903	5
859.991	-49
860.079	-315
860.166	43
860.254	-447
860.342	124
860.429	-129
860.517	-654
860.604	-103
860.692	-45
860.779	-7
860.867	-194
860.954	148
861.042	587
861.129	595
861.216	365
861.304	-395
861.391	287
861.478	-322
861.565	-8
861.653	448
861.740	29
861.827	20
861.914	583
862.001	91
862.089	110
862.176	372
862.263	329
862.350	892
862.437	377
862.524	-105
862.611	42
862.698	395
862.785	603
862.871	585
862.958	950
863.045	-415
863.132	699
863.219	1080
863.306	-28
863.392	733
863.479	165
863.566	575
863.652	127
863.739	-194
863.826	739
863.912	1152
863.999	300
864.086	-125
864.172	806
864.259	-408
864.345	741
864.432	532
864.518	450
864.604	28
864.691	392
864.777	1393
864.863	1185
864.950	2192
865.036	2566
865.122	3982
865.209	4533
865.295	3942
865.381	4269
865.467	4981
865.553	6394
865.639	8325
865.726	14212
865.812	26261
865.898	47784
865.984	69674
866.070	121482
866.156	126262
866.242	39506
866.328	11808
866.414	6402
866.499	5103
866.585	5466
866.671	3815
866.757	3713
866.843	3414
866.928	2717
867.014	3481
867.100	3961
867.186	2302
867.271	2763
867.357	4280
867.442	3292
867.528	3170
867.614	3063
867.699	2655
867.785	4143
867.870	3056
867.956	4321
868.041	3748
868.127	2858
868.212	2842
868.297	3442
868.383	3359
868.468	3508
868.553	3679
868.639	3104
868.724	4530
868.809	4204
868.894	2784
868.979	2163
869.065	2297
869.150	1230
869.235	1391
869.320	2092
869.405	1669
869.490	1693
869.575	2145
869.660	1711
869.745	2933
869.830	1384
869.915	1559
870.000	2058
870.085	1273
870.169	2264
870.254	2329
870.339	410
870.424	703
870.509	2509
870.593	2466
870.678	2459
870.763	1874
870.847	1747
870.932	937
871.016	2032
871.101	1184
871.186	2043
871.270	1973
871.355	1620
871.439	1473
871.523	1832
871.608	1646
871.692	1603
871.777	2396
871.861	2177
871.945	1317
872.030	2099
872.114	1301
872.198	1659
872.282	539
872.367	1662
872.451	1488
872.535	1194
872.619	1387
872.703	1601
872.787	1312
872.871	2154
872.955	1095
873.039	1136
873.123	431
873.207	1306
873.291	1016
873.375	857
873.459	2088
873.543	1638
873.627	658
873.711	1289
873.794	1574
873.878	1357
873.962	1024
874.045	638
874.129	932
874.137	986
874.213	1527
874.245	1211
874.296	697
874.352	612
874.380	571
874.460	646
874.464	648
874.547	608
874.568	680
874.631	875
874.676	1482
874.714	1979
874.784	1488
874.798	1398
874.881	2426
874.892	2262
874.965	1109
874.999	1266
875.048	1492
875.107	985
875.131	757
875.215	1400
875.215	1400
875.298	1335
875.323	1305
875.381	1180
875.430	1602
875.465	1925
875.538	1573
875.548	1503
875.631	1087
875.646	975
875.714	625
875.753	788
875.798	922
875.861	1405
875.881	1553
875.964	2005
875.968	1970
876.047	1408
876.076	1497
876.130	1656
876.183	1820
876.213	1918
876.291	2647
876.296	2689
876.379	1798
876.398	1627
876.462	1103
876.506	1233
876.545	1378
876.613	1204
876.628	1194
876.711	1892
876.721	1972
876.794	2404
876.828	2330
876.877	2138
876.935	1693
876.960	1587
877.043	2001
877.043	1998
877.125	1721
877.150	1998
877.208	2541
877.258	2128
877.291	1915
877.365	1893
877.374	1866
877.456	1489
877.472	1519
877.539	1932
877.579	2201
877.622	2521
877.687	2494
877.704	2410
877.787	1851
877.794	1834
877.869	2050
877.901	2392
877.952	2476
878.008	1962
878.034	1869
878.115	1657
878.117	1662
878.199	1476
878.222	1739
878.282	2475
878.329	2813
878.364	2912
878.437	2697
878.447	2659
878.529	2082
878.544	2089
878.611	2155
878.651	1957
878.694	2060
878.758	2859
878.776	2994
878.858	2687
878.865	2656
878.941	2008
878.972	2057
879.023	2354
879.078	2029
879.105	2088
879.185	3056
879.187	3071
879.269	2918
879.292	2884
879.351	2728
879.399	2474
879.433	2238
879.506	2568
879.516	2664
879.598	2818
879.613	2755
879.680	2449
879.720	2960
879.762	3635
879.827	3299
879.844	3070
879.926	2811
879.933	2734
880.007	2615
880.040	2746
880.089	2790
880.147	3689
880.171	4319
880.253	6139
880.254	6141
880.335	7118
880.360	7439
880.417	9739
880.467	13535
880.499	15907
880.574	18829
880.580	18555
880.662	8989
880.680	7545
880.744	4565
880.787	3440
880.825	3320
880.893	3429
880.907	3349
880.989	2888
881.000	2790
881.070	3425
881.106	3864
881.152	3615
881.213	3256
881.233	3356
881.315	3301
881.319	3316
881.396	3742
881.426	3669
881.478	3408
881.532	3663
881.559	3799
881.639	3158
881.641	3151
881.722	3681
881.745	3557
881.803	3617
881.852	3657
881.885	3463
881.958	3151
881.966	3154
882.047	3472
882.064	3426
882.129	3561
882.171	3798
882.210	3928
882.277	3805
882.291	3792
882.372	4176
882.383	4177
882.454	4134
882.489	4010
882.535	4091
882.596	4445
882.616	4442
882.697	3973
882.702	3939
882.778	3480
882.808	3375
882.859	3287
882.914	2956
882.940	3182
883.020	4025
883.021	4040
883.102	4303
883.127	4282
883.183	4638
883.233	5177
883.264	4805
883.339	3173
883.345	3126
883.426	2707
883.445	2659
883.507	3375
883.551	3960
883.587	4315
883.657	4590
883.668	4691
883.749	5579
883.763	5600
883.830	3870
883.869	3285
883.910	3569
883.975	3365
883.991	3423
884.072	4145
884.081	4187
884.152	5028
884.187	5479
884.233	5584
884.292	5298
884.314	4781
884.394	3066
884.398	2978
884.475	2879
884.504	2851
884.555	3407
884.610	3592
884.636	3708
884.716	4379
884.716	4401
884.797	5412
884.821	5578
884.877	5481
884.927	5165
884.958	4780
885.033	4248
885.038	4250
885.118	3941
885.139	3831
885.199	3884
885.244	4061
885.279	4644
885.350	5499
885.359	5652
885.439	6693
885.456	6890
885.520	5545
885.561	4897
885.600	4656
885.667	4073
885.680	4263
885.760	5114
885.773	5228
885.840	4633
885.878	4368
885.920	4427
885.984	4303
886.000	4449
886.080	5347
886.089	5407
886.160	5874
886.195	6061
886.240	6041
886.300	6027
886.320	6017
886.400	5836
886.406	5802
886.480	4702
886.511	4292
886.560	4987
886.616	5730
886.640	5736
886.720	5463
886.722	5442
886.800	5194
886.827	5039
886.879	4956
886.932	4905
886.959	5234
887.038	6104
887.039	6117
887.119	5432
887.143	5246
887.198	5615
887.248	5964
887.278	5866
887.354	5355
887.358	5384
887.437	5632
887.459	5692
887.517	6097
887.564	6469
887.596	6183
887.669	5294
887.676	5274
887.755	4883
887.774	4760
887.835	4860
887.880	4991
887.914	5172
887.985	5390
887.994	5573
888.073	7107
888.090	7378
888.153	7900
888.195	8242
888.232	7287
888.300	5421
888.311	5474
888.391	5829
888.405	5852
888.470	5466
888.510	5215
888.549	5293
888.615	5408
888.628	5608
888.708	6640
888.720	6783
888.787	6523
888.825	6342
888.866	5847
888.930	4999
888.945	5082
889.024	5454
889.035	5484
889.103	6772
889.140	7423
889.182	6893
889.245	6086
889.261	6200
889.340	6604
889.349	6631
889.419	5873
889.454	5460
889.498	5691
889.559	5972
889.577	6106
889.656	6620
889.664	6651
889.735	7055
889.768	7217
889.814	7359
889.873	7487
889.978	5877
890.083	5716
890.187	7062
890.292	6404
890.397	6319
890.501	6010
890.606	5884
890.710	6266
890.815	7763
890.919	6173
891.024	6415
891.128	6011
891.233	5594
891.337	7064
891.442	6472
891.546	6430
891.650	5824
891.755	4669
891.859	7732
891.963	6857
892.068	6611
892.172	5790
892.276	4632
892.380	5110
892.484	7937
892.589	7341
892.693	6845
892.797	4080
892.901	4290
893.005	5347
893.109	6951
893.213	7107
893.317	5671
893.421	4330
893.525	4999
893.629	5083
893.733	6501
893.837	6040
893.941	6004
894.045	5985
894.148	8504
894.252	14067
894.356	9746
894.460	7974
894.564	6173
894.667	5587
894.771	4303
894.875	4665
894.978	5229
895.082	5375
895.186	6469
895.289	5654
895.393	4617
895.496	6611
895.600	5210
895.703	4975
895.807	5490
895.910	5474
896.014	6247
896.117	4669
896.221	6383
896.324	5210
896.427	4560
896.531	4753
896.634	5629
896.737	4792
896.840	5360
896.944	5219
897.047	5879
897.150	5286
897.253	4382
897.356	4568
897.460	3726
897.563	4491
897.666	5442
897.769	6282
897.872	5360
897.975	4558
898.078	5287
898.181	4162
898.284	3934
898.387	5911
898.490	6353
898.593	5009
898.695	4609
898.798	4428
898.901	5019
899.004	4692
899.107	5013
899.209	5080
899.312	5907
899.415	4284
899.518	4205
899.620	3467
899.723	4218
899.826	5441
899.928	5972
900.031	4734
900.133	6381
900.236	3954
900.338	4011
900.441	4064
900.543	4200
900.646	4862
900.748	4343
900.851	5153
900.953	3670
901.055	4051
901.158	4868
901.260	3831
901.362	3495
901.465	3671
901.567	5493
901.669	4899
901.771	4511
901.873	3546
901.976	4796
902.078	4770
902.180	4145
902.282	3786
902.384	4512
902.486	5916
902.588	5589
902.690	4013
902.792	4758
902.894	4201
902.996	5587
903.098	5147
903.200	4014
903.302	4464
903.404	4433
903.505	3815
903.607	4430
903.709	6315
903.811	4738
903.913	3968
904.014	3962
904.116	3065
904.218	4037
904.319	4971
904.421	5809
904.523	4514
904.624	4100
904.726	3535
904.827	3727
904.929	4345
905.030	4160
905.132	5218
905.233	4668
905.335	3357
905.436	3643
905.537	4175
905.639	4332
905.740	4117
905.841	5904
905.943	4060
906.044	4535
906.145	4600
906.247	4617
906.348	3587
906.449	4671
906.550	4097
906.651	4324
906.752	3645
906.854	4215
906.955	3786
907.056	3757
907.157	5227
907.258	4421
907.359	3293
907.460	4633
907.561	3671
907.662	2699
907.762	4281
907.863	5169
907.964	4420
908.065	3865
908.166	4354
908.267	4264
908.367	3290
908.468	3551
908.569	4434
908.670	4513
908.770	4708
908.871	4643
908.971	4428
909.072	4636
909.173	3636
909.273	4470
909.374	4326
909.474	3701
909.575	3846
909.675	4352
909.776	4530
909.876	4320
909.977	3900
910.077	5424
910.177	5423
910.278	3442
910.378	3639
910.478	3680
910.579	4603
910.679	4595
910.779	4818
910.879	4219
910.980	4995
911.080	4541
911.180	3995
911.280	3738
911.380	3895
911.480	3396
911.580	4334
911.680	4869
911.780	4270
911.880	4664
911.980	3325
912.080	3864
912.180	3804
912.280	4392
912.380	3419
912.480	3134
912.580	3159
912.679	3377
912.779	4625
912.879	4624
912.979	4032
913.078	3096
913.178	3456
913.278	3033
913.377	3296
913.477	3415
913.577	4300
913.676	5207
913.776	3624
913.875	4620
913.975	4104
914.074	4466
914.174	3580
914.273	2924
914.373	4912
914.472	3491
914.572	3649
914.671	3258
914.770	3659
914.870	4446
914.969	3051
915.068	3929
915.167	4471
915.267	3775
915.366	3806
915.465	4449
915.564	4398
915.663	4699
915.763	4187
915.862	4561
915.961	4981
916.060	3294
916.159	4135
916.258	3706
916.357	4090
916.456	4766
916.555	4504
916.654	4499
916.752	4637
916.851	3998
916.950	2760
917.049	3583
917.148	3675
917.247	3618
917.345	3541
917.444	3042
917.543	3655
917.642	3418
917.740	4829
917.839	5309
917.937	4752
918.036	4363
918.135	3142
918.233	3771
918.332	3482
918.430	2859
918.529	3680
918.627	4273
918.726	4574
918.824	4329
918.923	2835
919.021	3726
919.119	3293
919.218	4108
919.316	3673
919.414	4430
919.512	4704
919.611	5237
919.709	4573
919.807	5323
919.905	4707
920.003	5372
920.102	5548
920.200	5056
920.298	4855
920.396	5261
920.494	4043
920.592	4649
920.690	5381
920.788	5231
920.886	5255
920.984	6103
921.082	5692
921.180	6566
921.277	6746
921.375	7423
921.473	8263
921.571	8127
921.669	6930
921.766	7172
921.864	7701
921.962	8445
922.060	7368
922.157	7991
922.255	7941
922.352	7089
922.450	8117
922.548	8615
922.645	9651
922.743	12238
922.840	18464
922.938	17484
923.035	16108
923.133	15974
923.230	19211
923.327	21671
923.425	19289
923.522	20137
923.619	17131
923.717	17081
923.814	16567
923.911	16629
924.008	17206
924.106	16483
924.203	15604
924.300	16804
924.397	16096
924.494	16691
924.591	16074
924.688	14354
924.786	16064
924.883	16487
924.979	16239
925.077	15003
925.173	15374
925.270	15662
925.367	15899
925.464	16011
925.561	15951
925.658	16660
925.755	13890
925.852	16618
925.948	15908
926.045	14996
926.142	16017
926.239	15646
926.335	12857
926.432	14772
926.529	16355
926.625	16985
926.722	13190
926.818	14566
926.915	15429
927.011	14347
927.108	14903
927.204	15023
927.301	13787
927.397	16041
927.494	15458
927.590	12605
927.687	12985
927.783	16647
927.879	15351
927.976	12957
928.072	12678
928.168	14842
928.264	14217
928.361	14058
928.457	14981
928.553	13521
928.649	13313
928.745	13736
928.841	13160
928.937	14023
929.033	12924
929.129	13267
929.225	13675
929.321	12634
929.417	11890
929.513	14170
929.609	12815
929.705	12652
929.801	13708
929.897	11091
929.993	12218
930.089	12536
930.184	12403
930.280	13699
930.376	14822
930.471	11562
930.567	10739
930.663	12146
930.758	10945
930.854	12883
930.950	11013
931.045	10182
931.141	12000
931.236	14623
931.332	11654
931.427	10740
931.523	13753
931.618	12029
931.714	9877
931.809	11074
931.905	12354
932.000	9072
932.095	10576
932.191	13110
932.286	14260
932.381	11275
932.476	10154
932.572	10595
932.667	8898
932.762	10520
932.857	11175
932.952	12140
933.047	10375
933.142	9291
933.237	11465
933.332	10380
933.427	11862
933.522	9806
933.617	9416
933.712	10755
933.807	12709
933.902	13339
933.997	12653
934.092	9669
934.187	10320
934.282	10780
934.376	11082
934.471	10987
934.566	8996
934.661	10249
934.755	12401
934.850	12210
934.945	10748
935.039	9438
935.134	8153
935.228	11340
935.323	13617
935.417	8563
935.512	8141
935.606	8539
935.701	10774
935.795	11583
935.890	10343
935.984	8615
936.079	8692
936.173	10180
936.267	9693
936.362	7337
936.456	9861
936.550	11517
936.644	9292
936.738	7843
936.833	8320
936.927	7406
937.021	8575
937.115	10079
937.209	10333
937.303	10140
937.397	7207
937.491	9356
937.585	10149
937.679	8984
937.773	8275
937.867	7210
937.961	7176
938.055	10673
938.149	8785
938.243	7031
938.337	7092
938.430	9273
938.524	9543
938.618	8382
938.712	7359
938.805	8634
938.899	9045
938.993	11290
939.086	6934
939.180	6611
939.274	8161
939.367	9703
939.461	8824
939.554	7677
939.648	6717
939.741	7937
939.835	8829
939.928	10215
940.022	8816
940.115	7782
940.208	8977
940.302	10949
940.395	10173
940.488	7548
940.582	8216
940.675	6582
940.768	7030
940.861	8797
940.954	9203
941.048	6305
941.141	6346
941.234	7106
941.327	8473
941.420	8317
941.513	8521
941.606	5856
941.699	7284
941.792	9275
941.885	7142
941.978	7370
942.071	8003
942.164	6597
942.257	5834
942.349	7879
942.442	7633
942.535	6277
942.628	6963
942.721	7935
942.813	6532
942.906	7935
942.999	6505
943.091	6287
943.184	7067
943.277	6963
943.369	5512
943.462	6161
943.554	6325
943.647	6933
943.739	7779
943.832	8026
943.924	5168
944.017	5372
944.109	4960
944.201	6949
944.294	7320
944.386	6364
944.478	6438
944.571	6515
944.663	5682
944.755	6508
944.847	6819
944.940	6444
945.032	4680
945.124	5371
945.216	6628
945.308	7506
945.400	6749
945.492	6016
945.584	7906
945.676	7707
945.768	6096
945.860	8353
945.952	7927
946.044	6619
946.136	6126
946.228	6479
946.320	5594
946.412	7104
946.503	6813
946.595	7337
946.687	5122
946.779	4922
946.870	5828
946.962	5718
947.054	6034
947.145	7430
947.237	5796
947.329	7276
947.420	5890
947.512	5866
947.603	4404
947.695	5718
947.786	5688
947.878	5119
947.969	6174
948.061	6193
948.152	5277
948.243	4984
948.335	4201
948.426	5732
948.517	5402
948.609	6519
948.700	6092
948.791	5101
948.882	4737
948.973	5424
949.065	6130
949.156	5496
949.247	4316
949.338	5100
949.429	4096
949.520	4480
949.611	5490
949.702	6718
949.793	4040
949.884	5771
949.975	5248
950.066	3449
950.157	4504
950.247	5830
950.338	4544
950.429	4023
950.520	5088
950.611	4788
950.701	5588
950.792	6555
950.883	5968
950.973	5914
951.064	6193
951.155	5851
951.245	5530
951.336	6638
951.427	5836
951.517	6808
951.608	6012
951.698	5478
951.788	4748
951.879	4185
951.969	4842
952.060	4705
952.150	5371
952.240	5838
952.331	4473
952.421	5959
952.511	3734
952.602	4358
952.692	4395
952.782	3741
952.872	4902
952.962	5212
953.052	4384
953.143	4279
953.233	4568
953.323	4669
953.413	4787
953.503	5848
953.593	4808
953.683	4028
953.773	3888
953.863	3685
953.953	3254
954.042	4305
954.132	4582
954.222	4890
954.312	4252
954.402	4732
954.492	5364
954.581	6535
954.671	4682
954.761	4221
954.850	5060
954.940	3457
955.030	3599
955.119	3253
955.209	4548
955.298	4705
955.388	5218
955.477	5464
955.567	3241
955.656	4901
955.746	4510
955.835	4193
955.925	4062
956.014	4919
956.103	5031
956.193	6494
956.282	5485
956.371	4628
956.461	4486
956.550	4165
956.639	4884
956.728	4291
956.817	5081
956.906	4645
956.995	5072
957.085	4615
957.174	4109
957.263	4192
957.352	4263
957.441	4410
957.530	4674
957.619	4667
957.708	4690
957.796	5462
957.885	4283
957.974	4741
958.063	5304
958.152	3880
958.241	4770
958.329	4305
958.418	4488
958.507	5050
958.596	6198
958.684	4643
958.773	4924
958.861	4591
958.950	5275
959.039	5344
959.127	5416
959.216	4972
959.304	4716
959.393	5377
959.481	5852
959.570	5050
959.658	3818
959.746	5000
959.835	5864
959.923	6339
960.011	4692
960.100	5437
960.188	5709
960.276	4563
960.365	4332
960.453	5166
960.541	3485
960.629	4377
960.717	2868
960.805	3331
960.893	3962
960.981	3810
961.069	5775
961.158	6125
961.245	6428
961.333	5159
961.421	4816
961.509	4836
961.597	4397
961.685	4550
961.773	4196
961.861	4025
961.949	5070
962.036	2725
962.124	3800
962.212	3661
962.299	3451
962.387	3131
962.475	4514
962.562	3709
962.650	4250
962.738	4046
962.825	2457
962.913	3528
963.000	3434
963.088	3903
963.175	3092
963.263	2374
963.350	3701
963.438	4718
963.525	3824
963.612	5680
963.700	8184
963.787	12350
963.874	7052
963.962	3985
964.049	3045
964.136	2685
964.223	3012
964.310	3529
964.398	2827
964.485	3122
964.572	4061
964.659	4502
964.746	4218
964.833	3570
964.920	4108
965.007	2738
965.094	3194
965.181	3984
965.268	3040
965.355	3594
965.441	2922
965.528	2627
965.615	4464
965.702	3346
965.789	2554
965.875	3821
965.962	3379
966.049	3143
966.136	4511
966.222	3860
966.309	4282
966.395	3810
966.482	3304
966.569	3265
966.655	3208
966.742	3487
966.828	2536
966.915	2362
967.001	2710
967.087	2240
967.174	3648
967.260	4592
967.347	4076
967.433	6625
967.519	8716
967.605	4330
967.692	2431
967.778	3443
967.864	2293
967.950	2155
968.036	2116
968.123	2727
968.209	2423
968.295	2181
968.381	3756
968.467	2549
968.553	2136
968.639	3849
968.725	3263
968.811	4770
968.897	3893
968.983	3378
969.069	1564
969.154	2608
969.240	3226
969.326	2465
969.412	2302
969.497	2394
969.583	2012
969.669	3841
969.755	3011
969.840	3900
969.926	5291
970.012	5680
970.097	6774
970.183	4495
970.268	3987
970.354	4054
970.439	4707
970.525	7125
970.610	3712
970.696	3898
970.781	2562
970.866	1899
970.952	3140
971.037	2373
971.122	2326
971.208	3599
971.293	1972
971.378	1900
971.463	1925
971.549	3369
971.634	2459
971.719	2818
971.804	3058
971.889	3257
971.974	2946
972.059	2462
972.144	2593
972.229	2720
972.314	1616
972.399	3656
972.484	1650
972.569	2169
972.654	2179
972.739	4317
972.824	3540
972.908	3337
972.993	841
973.078	2777
973.163	2649
973.247	2860
973.332	348
973.417	3707
973.501	1731
973.586	3521
973.671	2597
973.755	1976
973.840	3390
973.924	3590
974.009	2940
974.093	3250
974.178	4276
974.262	5089
974.346	3384
974.431	3161
974.515	2029
974.600	2723
974.684	2903
974.768	2516
974.852	3042
974.937	2289
975.021	3466
975.105	1963
975.189	2829
975.273	3122
975.358	1731
975.442	1511
975.526	2464
975.610	1879
975.694	1365
975.778	3347
975.862	1718
975.946	992
976.030	3450
976.114	2051
976.198	2042
976.281	2169
976.365	3536
976.449	1321
976.533	1980
976.617	1395
976.700	1829
976.784	3246
976.868	1958
976.951	2787
977.035	2504
977.119	2730
977.202	1932
977.286	2808
977.369	3890
977.453	5054
977.536	4028
977.620	2501
977.703	3071
977.787	2445
977.870	3769
977.953	4003
978.037	1664
978.120	3593
978.203	3903
978.287	5427
978.370	3409
978.453	2395
978.536	2404
978.620	4610
978.703	3545
978.786	2468
978.869	1298
978.952	1454
979.035	3659
979.118	3620
979.201	1210
979.284	3064
979.367	1952
979.450	3341
979.533	2255
979.616	1801
979.699	1458
979.782	2944
979.865	2131
979.948	2084
980.030	2258
980.113	2173
980.196	1040
980.279	2678
980.361	1831
980.444	2047
980.526	3044
980.609	4630
980.692	4566
980.774	3827
980.857	2901
980.939	3876
981.022	2414
981.104	2919
981.187	2518
981.269	3509
981.352	3229
981.434	1887
981.516	2327
981.599	3859
981.681	2288
981.763	1826
981.846	2186
981.928	2158
982.010	2108
982.092	1910
982.174	3270
982.256	1933
982.339	2148
982.421	2459
982.503	1947
982.585	2083
982.667	2455
982.749	2760
982.831	2375
982.913	2474
982.995	2158
983.077	1797
983.158	4110
983.240	2593
983.322	3510
983.404	5546
983.486	3535
983.568	3687
983.649	3067
983.731	3516
983.813	3190
983.894	3562
983.976	3040
984.058	3281
984.139	3848
984.221	1853
984.302	4206
984.384	2561
984.465	1914
984.547	2403
984.628	2176
984.710	3487
984.791	2976
984.872	3336
984.954	2444
985.035	4037
985.116	1931
985.198	2600
985.279	3170
985.360	2293
985.441	3141
985.522	3991
985.604	3235
985.685	1873
985.766	3162
985.847	4231
985.928	2804
986.009	2921
986.090	2635
986.171	4329
986.252	3101
986.333	2917
986.414	3175
986.495	3709
986.576	3073
986.656	4314
986.737	3677
986.818	3627
986.899	3547
986.980	2910
987.060	3863
987.141	2872
987.222	4861
987.302	4597
987.383	4196
987.464	4006
987.544	4463
987.625	3832
987.705	4527
987.786	4935
987.866	4032
987.947	4787
988.027	3930
988.108	3820
988.188	3758
988.268	4558
988.349	4646
988.429	3841
988.509	4270
988.589	3486
988.670	2507
988.750	5413
988.830	3108
988.910	3485
988.990	4131
989.070	3486
989.151	2996
989.231	3593
989.311	3888
989.391	3320
989.471	3211
989.551	2484
989.631	3416
989.711	4654
989.791	2735
989.870	2432
989.950	3643
990.030	3816
990.110	3048
990.190	3055
990.269	3134
990.349	3322
990.429	3960
990.509	3247
990.588	1642
990.668	3380
990.747	3864
990.827	3130
990.907	3271
990.986	2830
991.066	2652
991.145	2442
991.225	3684
991.304	3168
991.383	2888
991.463	2301
991.542	3323
991.622	2736
991.701	2277
991.780	1873
991.859	1948
991.939	2242
992.018	2688
992.097	3050
992.176	2075
992.256	2871
992.335	1904
992.414	3182
992.493	1917
992.572	2238
992.651	3137
992.730	3048
992.809	2470
992.888	1919
992.967	2366
993.046	2998
993.125	1436
993.203	2871
993.282	2197
993.361	2368
993.440	2068
993.519	1502
993.597	2958
993.676	1187
993.755	2777
993.834	2852
993.912	213
993.991	3361
994.069	1754
994.148	1899
994.226	1364
994.305	2448
994.384	2005
994.462	2669
994.540	1152
994.619	1590
994.697	2122
994.776	1628
994.854	2883
994.932	675
995.011	2435
995.089	962
995.167	1341
995.245	2719
995.324	1192
995.402	2439
995.480	1495
995.558	2174
995.636	258
995.714	1630
995.792	2712
995.870	1140
995.948	1049
996.026	1674
996.104	566
996.182	2243
996.260	596
996.338	1769
996.416	633
996.494	1288
996.572	2077
996.649	1363
996.727	1083
996.805	1355
996.883	704
996.960	1344
997.038	1896
997.116	2156
997.193	1172
997.271	1108
997.348	385
997.426	1495
997.504	1370
997.581	1782
997.658	1807
997.736	130
997.813	1046
997.891	1682
997.968	1284
998.046	1563
998.123	1556
998.200	1534
998.277	878
998.355	1366
998.432	-373
998.509	1702
998.586	1819
998.663	1785
998.741	1255
998.818	564
998.895	696
998.972	874
999.049	1303
999.126	131
999.203	1322
999.280	945
999.357	766
999.434	708
999.511	1388
999.587	1875
999.664	-220
999.741	1481
999.818	1146
999.895	1316
999.971	275
1000.048	662
1000.125	1669
1000.202	204
1000.278	877
1000.355	1152
1000.431	251
1000.508	-429
1000.584	-411
1000.661	1167
1000.738	-61
1000.814	1627
1000.890	780
1000.967	480
1001.043	447
1001.120	-176
1001.196	407
1001.272	143
1001.349	514
1001.425	787
1001.501	255
1001.577	-76
1001.654	716
1001.730	1330
1001.806	779
1001.882	-157
1001.958	921
1002.034	567
1002.110	447
1002.186	-170
1002.262	-223
1002.338	46
1002.414	1616
1002.490	674
1002.566	285
1002.642	-189
1002.718	368
1002.794	978
1002.870	-43
1002.945	694
1003.021	388
1003.097	828
1003.173	1594
1003.248	224
1003.324	1075
1003.400	831
1003.475	-217
1003.551	931
1003.626	261
1003.702	276
1003.777	286
1003.853	839
1003.928	-456
1004.004	-269
1004.079	-170
1004.155	-25
1004.230	-427
1004.305	1139
1004.381	-830
1004.456	21
1004.531	-450
1004.607	882
1004.682	-78
1004.757	445
1004.832	502
1004.907	-374
1004.982	265
1005.057	1381
1005.133	-765
1005.208	-396
1005.283	358
1005.358	889
1005.433	-661
1005.508	700
1005.583	270
1005.657	217
1005.732	757
1005.807	-387
1005.882	-842
1005.957	-341
1006.032	499
1006.106	362
1006.181	111
1006.256	132
1006.331	-307
1006.405	-341
1006.480	168
1006.554	-214
1006.629	-98
1006.704	-61
1006.778	-211
1006.853	469
1006.927	-283
1007.002	-396
1007.076	285
1007.150	142
1007.225	137
1007.299	-272
1007.373	-333
1007.448	-139
1007.522	-17
1007.596	292
1007.671	-38
1007.745	258
1007.819	-796
1007.893	137
1007.967	97
1008.041	-312
1008.115	-98
1008.190	57
1008.264	143
1008.338	-1445
1008.412	-349
1008.486	-345
1008.560	-140
1008.633	-839
1008.707	60
1008.781	-103
1008.855	-1015
1008.929	-231
1009.003	-595
1009.076	-660
1009.150	-989
1009.224	-645
1009.298	-319
1009.371	-1129
1009.445	234
1009.519	-175
1009.592	-1545
1009.666	-622
1009.739	-409
1009.813	-838
1009.886	-179
1009.960	-1033
1010.033	-122
1010.107	242
1010.180	-1213
1010.253	-150
1010.327	-649
1010.400	-869
1010.473	-658
1010.547	693
1010.620	-1030
1010.693	-113
1010.766	-1232
1010.840	46
1010.913	-475
1010.986	-1096
1011.059	-809
1011.132	-730
1011.205	-574
1011.278	-458
1011.351	-922
1011.424	-295
1011.497	-1143
1011.570	92
1011.643	-476
1011.716	-1297
1011.789	-628
1011.862	-570
1011.934	-273
1012.007	-1594
1012.080	-498
1012.153	-668
1012.225	-317
1012.298	-549
1012.371	-1255
1012.443	-82
1012.516	-700
1012.588	-1128
1012.661	-819
1012.733	-1843
1012.806	-584
1012.879	-265
1012.951	-254
1013.023	-603
1013.096	-951
1013.168	-1296
1013.241	-905
1013.313	-378
1013.385	-1338
1013.458	-470
1013.530	-972
1013.602	-1690
1013.674	-418
1013.746	-1817
1013.819	-1905
1013.891	-417
1013.963	-1873
1014.035	-1409
1014.107	-419
1014.179	-553
1014.251	-1851
1014.323	-811
1014.395	-1182
1014.467	-950
1014.539	-605
1014.611	-689
1014.683	-742
1014.754	-934
1014.826	-1082
1014.898	-47
1014.970	-2062
1015.042	-703
1015.113	-1092
1015.185	-444
1015.257	-1522
1015.328	189
1015.400	-1079
1015.471	-1181
1015.543	-1358
1015.615	-1270
1015.686	-1092
1015.757	-916
1015.829	-272
1015.901	-1234
1015.972	-1073
1016.043	-673
1016.115	-1104
1016.186	-883
1016.257	-1536
1016.328	-1367
1016.400	-415
1016.471	-1355
1016.542	-842
1016.613	-743
1016.685	-1997
1016.756	98
1016.827	-1731
1016.898	-1513
1016.969	-637
1017.040	-1437
1017.111	-1461
1017.182	-2095
1017.253	-1905
1017.324	-1500
1017.395	-1886
1017.466	-1174
1017.537	-923
1017.608	-1215
1017.678	-1056
1017.749	-1116
1017.820	-697
1017.891	-983
1017.961	-1754
1018.032	-1727
1018.103	-1179
1018.173	-896
1018.244	-1904
1018.315	-976
1018.385	-1208
1018.456	-1674
1018.526	-1923
1018.597	-982
1018.667	-1212
1018.738	-1612
1018.808	-1574
1018.878	-1427
1018.949	-1177
1019.019	-853
1019.089	-1293
1019.160	-189
1019.230	-1378
1019.300	-351
1019.371	-2128
1019.441	-869
1019.511	-1086
1019.581	-1526
1019.651	-1050
1019.721	-1442
1019.791	-2201
1019.861	-953
1019.931	-1216
1020.001	-1594
1020.071	-1699
1020.141	-1774
1020.211	-1292
1020.281	-2063
1020.351	-2132
1020.421	-1345
1020.491	-1677
1020.560	-1551
1020.630	-1260
1020.700	-216
1020.770	-1107
1020.839	-1918
1020.909	-863
1020.979	-1279
1021.048	-2239
1021.118	-1924
1021.187	-1529
1021.257	-1254
1021.326	-937
1021.396	-2665
1021.465	-1250
1021.535	-1373
1021.604	-2234
1021.674	-750
1021.743	-966
1021.812	-1790
1021.882	-1526
1021.951	-1725
1022.020	-952
1022.089	-243
1022.159	-1527
1022.228	-1331
1022.297	-1760
1022.366	-2152
1022.435	-1133
1022.504	-1058
1022.573	-1709
1022.642	-1115
1022.711	-1750
1022.781	-1557
1022.849	-1033
1022.918	-1934
1022.987	-1564
1023.056	-2160
1023.125	-2629
1023.194	-1872
1023.263	-1345
1023.331	-1260
1023.400	-2080
1023.469	-2119
1023.538	-1410
1023.606	-1983
1023.675	-1756
1023.744	-1365
1023.812	-1455
1023.881	-1189
1023.949	-1250
1024.018	-1788
1024.086	-1479
1024.155	-394
1024.223	-2050
1024.292	-1526
1024.360	-1698
1024.429	-798
1024.497	-1577
1024.565	-1435
1024.634	-2119
1024.702	-1124
1024.770	-2543
1024.838	-1853
1024.907	-1436
1024.975	-998
1025.043	-1054
1025.111	-1573
1025.179	-1745
1025.247	-1733
1025.315	-2062
1025.383	-1289
1025.451	-2379
1025.519	-1563
1025.587	-1848
1025.655	-1692
1025.723	-2514
1025.791	-1643
1025.859	-2008
1025.927	-790
1025.995	-1529
1026.062	-1461
1026.130	-1899
1026.198	-1311
1026.266	-1762
1026.333	-1132
1026.401	-1442
1026.469	-1627
1026.536	-1885
1026.604	-983
1026.671	-2181
1026.739	-1293
1026.806	-1995
1026.874	-1562
1026.941	-1606
1027.009	-1091
1027.076	-1781
1027.144	-1307
1027.211	-2159
1027.278	-1749
1027.345	-1774
1027.413	-1608
1027.480	-1434
1027.547	-1401
1027.614	-1831
1027.682	-1480
1027.749	-1909
1027.816	-1003
1027.883	-2015
1027.950	-1307
1028.017	-2109
1028.084	-1155
1028.151	-2700
1028.218	-908
1028.285	-1770
1028.352	-2191
1028.419	-1541
1028.486	-2124
1028.553	-1629
1028.619	-1281
1028.686	-1754
1028.753	-2600
1028.820	-2175
1028.886	-1907
1028.953	-1523
1029.020	-1421
1029.086	-1499
1029.153	-1530
1029.220	-2570
1029.286	-1808
1029.353	-1701
1029.419	-1480
1029.486	-1670
1029.552	-1952
1029.619	-1733
1029.685	-1909
1029.751	-2189
1029.818	-1665
1029.884	-2377
1029.951	-1066
1030.017	-1754
1030.083	-1424
1030.149	-2208
1030.216	-1015
1030.282	-1520
1030.348	-1635
1030.414	-2247
1030.480	-1340
1030.546	-1410
1030.612	-1415
1030.678	-2315
1030.744	-1881
1030.810	-2285
1030.876	-2252
1030.942	-1798
1031.008	-1255
1031.074	-2121
1031.140	-1953
1031.206	-1489
1031.272	-1808
1031.337	-1980
1031.403	-1403
1031.469	-1683
1031.534	-1799
1031.600	-1882
1031.666	-1871
1031.731	-2174
1031.797	-2071
1031.863	-2110
1031.928	-1966
1031.994	-2143
1032.059	-2120
1032.125	-1991
1032.190	-1615
1032.256	-1934
1032.321	-1923
1032.386	-1549
1032.452	-1568
1032.517	-1455
1032.582	-1743
1032.647	-1830
1032.713	-1645
1032.778	-2511
1032.843	-1682
1032.908	-2103
1032.974	-1321
1033.039	-1655
1033.104	-854
1033.169	-1919
1033.234	-1307
1033.299	-1375
1033.364	-912
1033.429	-1936
1033.494	-1058
1033.559	-2123
1033.624	-1340
1033.688	-1864
1033.753	-1390
1033.818	-1524
1033.883	-1440
1033.948	-308
1034.013	-514
1034.077	-858
1034.142	-350
1034.207	310
1034.271	952
1034.336	2102
1034.400	644
1034.465	371
1034.530	-523
1034.594	-1320
1034.658	-858
1034.723	-1675
1034.787	-1809
1034.852	-1521
1034.916	-1949
1034.981	-2017
1035.045	-1422
1035.109	-1346
1035.173	-1793
1035.238	-2766
1035.302	-1016
1035.366	-1926
1035.430	-636
1035.495	-2780
1035.559	-1252
1035.623	-2120
1035.687	-2102
1035.751	-2684
1035.815	-1658
1035.879	-2443
1035.943	-799
1036.007	-2260
1036.071	-689
1036.135	-2272
1036.198	-1059
1036.262	-2319
1036.326	-1076
1036.390	-1176
1036.454	-1455
1036.517	-1711
1036.581	-1462
1036.645	-1052
1036.709	-624
1036.772	-1303
1036.836	-1132
1036.900	-1686
1036.963	-1854
1037.026	-1684
1037.090	-1196
1037.154	-1870
1037.217	-1888
1037.280	-2681
1037.344	-1871
1037.407	-2602
1037.471	-780
1037.534	-1483
1037.597	-1945
1037.661	-1222
1037.724	-1972
1037.787	-1777
1037.850	-1504
1037.913	-2045
1037.977	-226
1038.040	-1925
1038.103	-1985
1038.166	-1227
1038.229	-1662
1038.292	-2102
1038.355	-1865
1038.418	-2176
1038.481	-1044
1038.544	-1802
1038.607	-2184
1038.670	-1965
1038.732	-1925
1038.795	-2872
1038.858	-1549
1038.921	-1826
1038.984	-1077
1039.046	-2608
1039.109	-2753
1039.172	-2816
1039.234	-1960
1039.297	-1565
1039.360	-2587
1039.422	-2059
1039.485	-1128
1039.547	-2921
1039.610	-1733
1039.672	-1801
1039.734	-1458
1039.797	-2164
1039.859	-2224
1039.922	-1649
1039.984	-1382
1040.046	-2061
1040.109	-1601
1040.171	-1950
1040.233	-1568
1040.295	-1861
1040.358	-2359
1040.420	-1845
1040.482	-2021
1040.544	-1699
1040.606	-2222
1040.668	-1966
1040.730	-2801
1040.792	-1929
1040.854	-969
1040.916	-1336
1040.978	-2168
1041.040	-1157
1041.102	-2023
1041.164	-1503
1041.225	-2165
1041.287	-2233
1041.349	-1138
1041.411	-1341
1041.472	-1660
1041.534	-1938
1041.596	-2129
1041.657	-1150
1041.719	-1721
1041.781	-2135
1041.842	-1878
1041.904	-1428
1041.965	-1999
1042.027	-1933
1042.088	-1478
1042.150	-1855
1042.211	-1617
1042.272	-815
1042.334	-2921
1042.395	-2092
1042.456	-2089
1042.518	-1479
1042.579	-1560
1042.640	-2126
1042.701	-2463
1042.763	-1598
1042.824	-1467
1042.885	-2348
1042.946	-1264
1043.007	-1910
1043.068	-1885
1043.129	-2826
1043.190	-2108
1043.251	-1453
1043.312	-1658
1043.373	-2273
1043.434	-2082
1043.495	-1488
1043.556	-1176
1043.616	-2241
1043.677	-1710
1043.738	-1987
1043.799	-2056
1043.859	-2118
1043.920	-2188
1043.981	-1933
1044.041	-1432
1044.102	-2124
1044.162	-2337
1044.223	-2603
1044.284	-1174
1044.344	-1555
1044.405	-881
1044.465	-2086
1044.525	-2120
1044.586	-1800
1044.646	-1794
1044.707	-1397
1044.767	-819
1044.827	-1160
1044.887	-1693
1044.948	-1699
1045.008	-1578
1045.068	-2383
1045.128	-1881
1045.188	-1648
1045.249	-937
1045.309	-2103
1045.369	-1738
1045.429	-1656
1045.489	-1776
1045.549	-2255
1045.609	-1968
1045.669	-1494
1045.729	-1966
1045.789	-1804
1045.848	-1685
1045.908	-2093
1045.968	-1110
1046.028	-1965
1046.088	-2425
1046.147	-704
1046.207	-1658
1046.267	-1516
1046.326	-1442
1046.386	-1700
1046.446	-1662
1046.505	-1206
1046.565	-322
1046.624	-1282
1046.684	-404
1046.743	-769
1046.803	195
1046.862	-435
1046.922	0
