'Start Wavelength	183.907
'End Wavelength	1046.922
'Gate Delay	5.000
'Gate Width (ms)	1.050
'Laser Output Level	0.000
'X Position	0.000
'Y Position	0.000
'Z Position	0.000
'Grid Point Number	1.000
'Shot Number	100.000
183.907	689.000
183.977	-292.000
184.047	-141
184.116	317
184.186	-234
184.256	685
184.325	-91
184.395	-671
184.465	1254
184.534	21
184.604	-98
184.674	697
184.743	497
184.813	655
184.883	406
184.952	1238
185.022	766
185.092	536
185.161	-86
185.231	848
185.301	584
185.370	1013
185.440	-119
185.509	143
185.579	294
185.649	331
185.718	-88
185.788	1653
185.857	-628
185.927	348
185.996	889
186.066	185
186.136	271
186.205	-526
186.275	622
186.344	682
186.414	1143
186.483	536
186.553	2047
186.622	2201
186.692	1766
186.761	1893
186.831	712
186.900	-176
186.970	661
187.039	1142
187.109	855
187.178	393
187.248	635
187.317	122
187.387	391
187.456	1229
187.526	-88
187.595	1280
187.664	743
187.734	528
187.803	715
187.873	1632
187.942	555
188.012	633
188.081	571
188.150	695
188.220	2188
188.289	1643
188.358	1283
188.428	1403
188.497	440
188.567	1267
188.636	261
188.705	623
188.775	993
188.844	480
188.913	698
188.983	1081
189.052	6
189.121	1068
189.191	674
189.260	785
189.329	33
189.399	1024
189.468	709
189.537	803
189.606	497
189.676	39
189.745	1353
189.814	761
189.883	984
189.953	354
190.022	785
190.091	665
190.161	1132
190.230	1758
190.299	806
190.368	412
190.437	153
190.507	1115
190.576	1230
190.645	-67
190.714	367
190.783	500
190.853	749
190.922	1431
190.991	514
191.060	1233
191.129	95
191.198	1511
191.268	734
191.337	469
191.406	783
191.475	1460
191.544	48
191.613	962
191.682	970
191.752	1104
191.821	549
191.890	759
191.959	-119
192.028	896
192.097	376
192.166	661
192.235	-640
192.304	1509
192.373	1128
192.442	1039
192.511	424
192.580	921
192.650	300
192.719	1066
192.788	477
192.857	573
192.926	718
192.995	793
193.064	1595
193.133	1502
193.202	904
193.271	867
193.340	931
193.409	1880
193.478	645
193.547	1792
193.615	1003
193.684	1247
193.753	1006
193.822	1576
193.891	841
193.960	1134
194.029	537
194.098	1072
194.167	59
194.236	1113
194.305	304
194.374	798
194.443	206
194.512	881
194.580	966
194.649	1505
194.718	1461
194.787	837
194.856	-49
194.925	1591
194.994	938
195.062	2006
195.131	497
195.200	1293
195.269	1448
195.338	1202
195.407	734
195.475	1193
195.544	1523
195.613	1134
195.682	1283
195.751	743
195.819	370
195.888	1060
195.957	2067
196.026	886
196.094	1698
196.163	556
196.232	898
196.301	1282
196.369	1014
196.438	975
196.507	487
196.576	802
196.644	964
196.713	610
196.782	286
196.850	620
196.919	847
196.988	902
197.056	1031
197.125	1409
197.194	728
197.262	383
197.331	1510
197.400	532
197.468	1164
197.537	597
197.606	460
197.674	2114
197.743	2168
197.812	1079
197.880	976
197.949	618
198.017	1509
198.086	1397
198.155	1729
198.223	1088
198.292	1966
198.360	1157
198.429	619
198.497	1557
198.566	731
198.635	2947
198.703	892
198.772	1263
198.840	887
198.909	2127
198.977	1427
199.046	420
199.114	736
199.183	1643
199.251	1203
199.320	566
199.388	914
199.457	1137
199.525	1540
199.594	1572
199.662	269
199.731	1296
199.799	1091
199.867	1307
199.936	919
200.004	1368
200.073	1576
200.141	953
200.210	1073
200.278	1337
200.346	1568
200.415	2346
200.483	1492
200.552	3270
200.620	1737
200.688	1175
200.757	1587
200.825	1229
200.893	1293
200.962	1141
201.030	1190
201.098	1039
201.167	1084
201.235	1499
201.303	1307
201.372	2379
201.440	1775
201.508	2916
201.577	2565
201.645	1333
201.713	1451
201.781	2136
201.850	3365
201.918	3210
201.986	1561
202.055	1827
202.123	831
202.191	670
202.259	575
202.327	1507
202.396	1678
202.464	2487
202.532	4083
202.600	7703
202.669	7051
202.737	4076
202.805	1702
202.873	2088
202.941	1590
203.009	1088
203.078	1338
203.146	2379
203.214	827
203.282	546
203.350	1906
203.418	1640
203.487	1817
203.555	799
203.623	579
203.691	1132
203.759	1074
203.827	999
203.895	1982
203.963	1195
204.031	1512
204.099	1346
204.168	902
204.236	1312
204.304	1627
204.372	1450
204.440	904
204.508	1277
204.576	1036
204.644	836
204.712	317
204.780	1461
204.848	1571
204.916	1216
204.984	739
205.052	1194
205.120	353
205.188	1302
205.256	631
205.324	1501
205.392	1502
205.460	2136
205.528	81
205.596	1381
205.664	1187
205.732	1689
205.799	1061
205.867	2535
205.935	1000
206.003	1591
206.071	1280
206.139	647
206.207	928
206.275	1322
206.343	1619
206.411	1754
206.478	642
206.546	1960
206.614	1345
206.682	1268
206.750	1617
206.818	2567
206.885	3386
206.953	1682
207.021	1278
207.089	1268
207.157	451
207.225	1399
207.292	534
207.360	1031
207.428	71
207.496	1255
207.563	1191
207.631	1504
207.699	833
207.767	1489
207.834	838
207.902	1497
207.970	1124
208.038	1792
208.105	1879
208.173	1617
208.241	1581
208.309	1843
208.376	1258
208.444	2106
208.512	1003
208.579	987
208.647	2949
208.715	2968
208.782	624
208.850	1627
208.918	586
208.985	1302
209.053	1154
209.120	1406
209.188	962
209.256	1089
209.323	372
209.391	1531
209.459	2689
209.526	1553
209.594	688
209.661	1710
209.729	1209
209.796	1613
209.864	2807
209.932	1708
209.999	2388
210.067	1532
210.134	1277
210.202	1590
210.269	2429
210.337	4855
210.404	2648
210.472	1797
210.539	1103
210.607	521
210.674	1148
210.742	2086
210.809	1472
210.877	2220
210.944	2104
211.012	794
211.079	2265
211.146	1880
211.214	2662
211.281	4976
211.349	3403
211.416	2620
211.484	1815
211.551	1058
211.618	1289
211.686	1683
211.753	1087
211.821	1081
211.888	1778
211.955	2013
212.023	1830
212.090	992
212.157	1229
212.225	1482
212.292	2361
212.359	2595
212.427	6716
212.494	4009
212.561	1791
212.629	1551
212.696	1244
212.763	1742
212.831	835
212.898	1717
212.965	541
213.032	1422
213.100	1253
213.167	817
213.234	1737
213.301	1441
213.369	1485
213.436	1071
213.503	1355
213.570	1861
213.638	1124
213.705	585
213.772	759
213.839	425
213.906	1328
213.973	1331
214.041	660
214.108	1438
214.175	1187
214.242	1274
214.309	1500
214.376	1766
214.444	1525
214.511	1488
214.578	1470
214.645	3265
214.712	2209
214.779	2133
214.846	1632
214.913	2935
214.980	3368
215.048	4495
215.115	5933
215.182	3929
215.249	2614
215.316	1846
215.383	2323
215.450	2307
215.517	1841
215.584	1955
215.651	786
215.718	1883
215.785	1582
215.852	98
215.919	2017
215.986	1305
216.053	1340
216.120	787
216.187	1655
216.254	1042
216.321	617
216.388	1353
216.455	1105
216.522	1590
216.589	1294
216.656	1662
216.722	2691
216.789	2696
216.856	1272
216.923	1198
216.990	855
217.057	1325
217.124	1945
217.191	1377
217.258	1473
217.324	1851
217.391	1820
217.458	2076
217.525	1860
217.592	1911
217.659	174
217.725	2707
217.792	1636
217.859	2741
217.926	571
217.993	2198
218.059	1785
218.126	1846
218.193	1301
218.260	1885
218.327	428
218.393	970
218.460	1237
218.527	1310
218.594	1255
218.660	2579
218.727	2534
218.794	1539
218.860	2371
218.927	1750
218.994	1647
219.061	748
219.127	1250
219.194	2400
219.261	1861
219.327	1274
219.394	1768
219.461	1017
219.527	1618
219.594	2630
219.661	1603
219.727	1703
219.794	3794
219.860	2466
219.927	4406
219.994	7503
220.060	12223
220.127	12547
220.193	8490
220.260	4473
220.326	3866
220.393	3251
220.460	3152
220.526	2116
220.593	1100
220.659	3344
220.726	2321
220.792	4559
220.859	4750
220.925	4577
220.992	3920
221.058	5459
221.125	6098
221.191	3776
221.258	2378
221.324	2620
221.391	1999
221.457	1624
221.524	1413
221.590	2246
221.657	4741
221.723	3497
221.789	3431
221.856	3816
221.922	1383
221.989	2443
222.055	1923
222.121	1541
222.188	4175
222.254	2526
222.321	3060
222.387	2261
222.453	1251
222.520	1048
222.586	947
222.652	2739
222.719	1273
222.785	2899
222.851	667
222.918	2135
222.984	1209
223.050	1172
223.116	-829
223.183	2921
223.249	1025
223.315	794
223.382	1244
223.448	757
223.514	633
223.580	1407
223.647	300
223.713	1366
223.779	1071
223.845	1181
223.911	2071
223.978	483
224.044	1210
224.110	1251
224.176	1061
224.242	921
224.309	656
224.375	2021
224.441	1548
224.507	548
224.573	536
224.639	2193
224.705	633
224.772	1822
224.838	1341
224.904	1071
224.970	935
225.036	830
225.102	607
225.168	2244
225.234	2734
225.300	1660
225.366	1209
225.432	1981
225.499	1717
225.565	2149
225.631	920
225.697	1722
225.763	1733
225.829	1801
225.895	1901
225.961	2587
226.027	2629
226.093	2582
226.159	2767
226.225	4103
226.291	5600
226.357	8133
226.423	4909
226.489	3880
226.554	2994
226.620	2890
226.686	2698
226.752	3210
226.818	5591
226.884	10402
226.950	9345
227.016	5121
227.082	4797
227.148	3402
227.214	3344
227.279	4144
227.345	4539
227.411	6963
227.477	13250
227.543	22766
227.609	25526
227.674	18535
227.740	9204
227.806	7073
227.872	4284
227.938	4807
228.003	3181
228.069	2330
228.135	2082
228.201	2607
228.267	1555
228.332	1257
228.398	503
228.464	2477
228.530	1267
228.595	2490
228.661	1049
228.727	2006
228.792	2639
228.858	1444
228.924	-288
228.990	3152
229.055	1019
229.121	2328
229.187	1496
229.252	916
229.318	1083
229.384	1108
229.449	1200
229.515	291
229.581	377
229.646	2503
229.712	889
229.777	2550
229.843	1944
229.909	2381
229.974	1972
230.040	2294
230.105	1646
230.171	1422
230.236	1757
230.302	1930
230.368	1400
230.433	1008
230.499	1659
230.564	2423
230.630	402
230.695	1582
230.761	1677
230.826	107
230.892	2674
230.957	713
231.023	1271
231.088	1540
231.154	2330
231.219	1736
231.284	975
231.350	2465
231.415	924
231.481	2435
231.546	1005
231.612	2335
231.677	1421
231.742	-239
231.808	2468
231.873	952
231.939	-933
232.004	2898
232.069	1954
232.135	1212
232.200	610
232.265	1766
232.331	942
232.396	1413
232.461	1186
232.527	1031
232.592	1151
232.657	3354
232.723	2073
232.788	1662
232.853	1948
232.918	1431
232.984	748
233.049	1192
233.114	1662
233.179	4053
233.245	3505
233.310	2378
233.375	-62
233.440	2495
233.506	416
233.571	1976
233.636	1212
233.701	1837
233.766	720
233.832	1848
233.897	1000
233.962	228
234.027	2410
234.092	2233
234.157	1718
234.222	2992
234.288	2470
234.353	2759
234.418	2718
234.483	2799
234.548	2041
234.613	1536
234.678	2017
234.743	1075
234.808	3307
234.873	835
234.938	2656
235.004	2121
235.069	2159
235.134	1624
235.199	2070
235.264	2243
235.329	-91
235.394	2377
235.459	2040
235.524	1370
235.589	3026
235.654	1297
235.719	545
235.784	2214
235.849	1402
235.913	2252
235.978	1736
236.043	2553
236.108	1718
236.173	1419
236.238	2875
236.303	2287
236.368	1233
236.433	2803
236.498	1172
236.563	3181
236.627	3411
236.692	15109
236.757	13711
236.822	5598
236.887	1767
236.952	4324
237.017	1683
237.081	3180
237.146	2157
237.211	6317
237.276	15117
237.341	29640
237.405	12442
237.470	4916
237.535	3782
237.600	3362
237.664	3212
237.729	1612
237.794	1682
237.859	3441
237.923	2775
237.988	2117
238.053	2874
238.118	2228
238.182	4246
238.247	6514
238.312	1674
238.376	2808
238.441	489
238.506	2492
238.570	751
238.635	3581
238.700	1605
238.764	2470
238.829	2781
238.893	2182
238.958	3190
239.023	2751
239.087	2836
239.152	3873
239.216	2458
239.281	3416
239.346	2443
239.410	3054
239.475	2349
239.539	5400
239.604	5541
239.668	6383
239.733	9422
239.797	23895
239.862	46063
239.926	37769
239.991	19073
240.055	10389
240.120	6651
240.184	5590
240.249	4288
240.313	3982
240.378	2732
240.442	3311
240.507	4112
240.571	2554
240.635	2189
240.700	2857
240.764	2582
240.829	2439
240.893	1907
240.957	2952
241.022	2887
241.086	3991
241.151	1722
241.215	1347
241.279	3800
241.344	3022
241.408	3116
241.472	1349
241.537	3648
241.601	3288
241.665	1479
241.730	1970
241.794	2628
241.858	1492
241.922	2726
241.987	2335
242.051	2016
242.115	1318
242.179	2148
242.244	2087
242.308	2646
242.372	2519
242.436	832
242.501	2201
242.565	2064
242.629	2093
242.693	2747
242.757	2373
242.822	2507
242.886	2790
242.950	2904
243.014	1407
243.078	2078
243.142	2351
243.206	1478
243.271	3002
243.335	1992
243.399	3724
243.463	6560
243.527	20453
243.591	6389
243.655	3308
243.719	2230
243.783	3184
243.847	3189
243.911	4270
243.975	2515
244.040	1798
244.104	3972
244.168	2634
244.232	1306
244.296	3176
244.360	3143
244.424	2399
244.488	2350
244.552	2484
244.615	1023
244.679	3261
244.743	1865
244.807	2113
244.871	2770
244.935	3300
244.999	1085
245.063	3069
245.127	2991
245.191	3356
245.255	3911
245.319	3981
245.383	907
245.446	4012
245.510	660
245.574	2658
245.638	3258
245.702	1511
245.766	4589
245.829	5506
245.893	1832
245.957	2484
246.021	2748
246.085	3338
246.149	2973
246.212	5683
246.276	7641
246.340	4196
246.404	3336
246.467	3854
246.531	2251
246.595	4054
246.659	3808
246.722	1405
246.786	2701
246.850	3192
246.913	3461
246.977	2358
247.041	3102
247.104	3202
247.168	2415
247.232	4879
247.295	11191
247.359	7310
247.423	3068
247.486	4545
247.550	4265
247.614	3544
247.677	3569
247.741	3376
247.804	4099
247.868	7148
247.932	4423
247.995	12151
248.059	5544
248.122	3007
248.186	4597
248.249	5209
248.313	16158
248.376	18168
248.440	11324
248.503	4762
248.567	5567
248.630	3714
248.694	4881
248.757	7638
248.821	18601
248.884	10833
248.948	7471
249.011	12867
249.075	20312
249.138	19236
249.202	6521
249.265	3932
249.328	5005
249.392	3403
249.455	4146
249.519	4931
249.582	5498
249.645	6162
249.709	4555
249.772	4720
249.835	3211
249.899	4923
249.962	5857
250.025	3467
250.089	7047
250.152	9006
250.215	5357
250.279	3751
250.342	4111
250.405	4529
250.468	3247
250.532	5050
250.595	6474
250.658	20557
250.721	42159
250.785	12389
250.848	7710
250.911	5955
250.974	5841
251.038	6045
251.101	12248
251.164	6837
251.227	5709
251.290	6477
251.354	7653
251.417	32091
251.480	33736
251.543	18242
251.606	58498
251.669	45925
251.732	13715
251.795	14839
251.859	16342
251.922	38412
251.985	22903
252.048	9109
252.111	6383
252.174	5110
252.237	8127
252.300	21753
252.363	18946
252.426	52202
252.489	19651
252.552	9115
252.615	5724
252.678	8494
252.741	15930
252.804	20867
252.867	51165
252.930	28844
252.993	12947
253.056	8366
253.119	6641
253.182	4952
253.245	4921
253.308	6302
253.371	3920
253.434	5362
253.497	5565
253.559	9528
253.622	6752
253.685	5673
253.748	5946
253.811	4974
253.874	5244
253.937	4838
254.000	5098
254.062	6682
254.125	11245
254.188	8216
254.251	6345
254.314	4411
254.376	5586
254.439	6186
254.502	5215
254.565	6676
254.628	12923
254.690	5900
254.753	4312
254.816	3930
254.878	3901
254.941	8111
255.004	9602
255.067	5077
255.129	4382
255.192	4515
255.255	3257
255.317	4387
255.380	4070
255.443	4393
255.505	5931
255.568	3911
255.631	4169
255.693	5653
255.756	5122
255.819	6374
255.881	7154
255.944	5293
256.006	3651
256.069	3350
256.132	4366
256.194	4038
256.257	4877
256.319	4798
256.382	7232
256.444	11749
256.507	8689
256.569	6894
256.632	4244
256.694	4662
256.757	8849
256.819	25073
256.882	11744
256.944	6156
257.007	6576
257.069	5195
257.132	4531
257.194	5298
257.257	4217
257.319	4502
257.381	3617
257.444	8365
257.506	28765
257.569	33240
257.631	13271
257.693	8263
257.756	5910
257.818	4749
257.880	4311
257.943	5551
258.005	3843
258.067	4450
258.130	4981
258.192	5798
258.254	4302
258.317	4636
258.379	4509
258.441	6748
258.503	8015
258.566	5483
258.628	7314
258.690	4896
258.753	5545
258.815	5099
258.877	4435
258.939	5620
259.001	4510
259.064	5053
259.126	4570
259.188	4745
259.250	4148
259.312	5200
259.375	5990
259.437	5864
259.499	4114
259.561	5424
259.623	4958
259.685	4294
259.747	4597
259.809	6231
259.872	7979
259.934	11455
259.996	10848
260.058	5580
260.120	3942
260.182	6028
260.244	4641
260.306	4714
260.368	4871
260.430	4379
260.492	4890
260.554	7614
260.616	6121
260.678	7511
260.740	8467
260.802	5955
260.864	6588
260.926	4519
260.988	6060
261.050	4689
261.112	4909
261.174	8024
261.236	7489
261.298	5743
261.359	6445
261.421	8004
261.483	4941
261.545	6629
261.607	4477
261.669	6047
261.731	5857
261.793	7847
261.854	5518
261.916	5908
261.978	4476
262.040	5948
262.102	6011
262.164	4781
262.225	6683
262.287	6243
262.349	7065
262.411	6480
262.472	5894
262.534	5791
262.596	7054
262.658	6501
262.719	5363
262.781	6814
262.843	6268
262.904	6363
262.966	6821
263.028	6335
263.090	9948
263.151	20135
263.213	11165
263.275	7304
263.336	6819
263.398	7579
263.459	5745
263.521	7386
263.583	7211
263.644	7029
263.706	6070
263.767	5558
263.829	5217
263.891	5501
263.952	4658
264.014	4346
264.075	5236
264.137	5969
264.198	5255
264.260	4661
264.321	5185
264.383	5812
264.444	7715
264.506	5641
264.567	5468
264.629	6563
264.690	5650
264.752	6661
264.813	4945
264.875	5418
264.936	5014
264.998	5761
265.059	6580
265.120	8094
265.182	6986
265.243	11702
265.305	15244
265.366	8484
265.427	6117
265.489	7234
265.550	5079
265.611	5762
265.673	5994
265.734	6380
265.795	6038
265.857	5677
265.918	5218
265.979	8961
266.040	21065
266.102	21520
266.163	9322
266.224	6681
266.286	7219
266.347	6737
266.408	7122
266.469	7097
266.530	7667
266.592	7701
266.653	8064
266.714	9027
266.775	7249
266.836	8571
266.898	7655
266.959	8496
267.020	8672
267.081	9394
267.142	8240
267.203	8926
267.264	8552
267.326	9666
267.387	8628
267.448	9165
267.509	8365
267.570	8569
267.631	7609
267.692	7326
267.753	7513
267.814	7527
267.875	7696
267.936	9154
267.997	6397
268.058	6851
268.119	5742
268.180	6222
268.241	5588
268.302	5932
268.363	5231
268.424	5366
268.485	5216
268.546	5285
268.607	5082
268.668	4409
268.729	4648
268.790	5560
268.851	5119
268.912	5498
268.972	6614
269.033	5232
269.094	4398
269.155	5815
269.216	4308
269.277	5072
269.338	4630
269.398	5382
269.459	4014
269.520	5930
269.581	7241
269.642	6199
269.702	5663
269.763	5263
269.824	5908
269.885	5597
269.945	6178
270.006	6106
270.067	4189
270.128	4831
270.188	4512
270.249	4439
270.310	5084
270.370	5638
270.431	4546
270.492	4796
270.553	5200
270.613	5409
270.674	6429
270.734	5807
270.795	5422
270.856	5697
270.916	5605
270.977	6080
271.038	5871
271.098	5621
271.159	5233
271.219	5827
271.280	4977
271.340	6127
271.401	5206
271.462	5960
271.522	6272
271.583	6113
271.643	5761
271.704	6973
271.764	7899
271.825	8079
271.885	17694
271.946	27966
272.006	12929
272.066	15860
272.127	27361
272.187	30299
272.248	17896
272.308	10549
272.369	16972
272.429	13677
272.489	9827
272.550	11005
272.610	11196
272.671	9953
272.731	9781
272.791	9966
272.852	10117
272.912	10220
272.972	10765
273.033	11258
273.093	10832
273.153	11943
273.214	12423
273.274	13878
273.334	17426
273.394	26021
273.455	19531
273.515	19207
273.575	23180
273.635	22409
273.696	22913
273.756	31982
273.816	23248
273.876	19390
273.936	18999
273.997	18829
274.057	14794
274.117	14299
274.177	14094
274.237	22672
274.297	22495
274.358	13726
274.418	16826
274.478	14189
274.538	10525
274.598	9443
274.658	10353
274.718	11305
274.778	8943
274.838	9000
274.898	8737
274.958	13365
275.018	19352
275.078	16467
275.138	9019
275.198	8250
275.258	7273
275.318	8204
275.378	7918
275.438	8219
275.498	8457
275.558	8619
275.618	13384
275.678	13969
275.738	11966
275.798	9725
275.858	7871
275.918	8172
275.978	9122
276.038	8855
276.098	8850
276.157	9668
276.217	11690
276.277	9979
276.337	8046
276.397	9217
276.457	9148
276.517	10031
276.576	8886
276.636	8932
276.696	10096
276.756	10415
276.815	10211
276.875	11468
276.935	11147
276.995	11323
277.055	10929
277.114	13472
277.174	10626
277.234	12551
277.293	10441
277.353	9965
277.413	9390
277.472	11283
277.532	12143
277.592	17640
277.651	50920
277.711	98852
277.771	43141
277.830	92322
277.890	91479
277.950	72681
278.009	168757
278.069	87988
278.128	73545
278.188	108551
278.248	60734
278.307	116255
278.367	79019
278.426	27990
278.486	20933
278.545	17923
278.605	17229
278.664	15528
278.724	15399
278.783	18009
278.843	27228
278.902	17869
278.962	16127
279.021	19460
279.081	30251
279.140	33935
279.199	25675
279.259	27411
279.318	32873
279.378	43630
279.437	65212
279.496	148093
279.556	339002
279.615	316719
279.675	145596
279.734	82783
279.793	76450
279.853	89307
279.912	48073
279.971	35944
280.031	34194
280.090	41947
280.149	60180
280.208	88343
280.268	244184
280.327	277159
280.386	111194
280.445	58673
280.505	41835
280.564	31979
280.623	25446
280.682	22866
280.742	22011
280.801	17669
280.860	16654
280.919	16128
280.978	16883
281.037	17840
281.097	16499
281.156	19810
281.215	17758
281.274	15459
281.333	18903
281.392	17119
281.451	13754
281.510	13598
281.569	13663
281.628	13974
281.688	13351
281.747	14464
281.806	13098
281.865	12748
281.924	12337
281.983	12350
282.042	11090
282.101	13294
282.160	11810
282.219	12764
282.278	12372
282.337	14039
282.396	12993
282.454	12952
282.513	13122
282.572	14729
282.631	14417
282.690	13052
282.749	12457
282.808	14086
282.867	13868
282.926	14731
282.985	14485
283.043	15700
283.102	15210
283.161	16800
283.220	17199
283.279	21225
283.338	17968
283.396	18064
283.455	18844
283.514	19275
283.573	20268
283.631	20102
283.690	19333
283.749	19217
283.808	20777
283.866	23443
283.925	22881
283.984	24835
284.043	25744
284.101	28042
284.160	29870
284.219	32997
284.277	35121
284.336	37281
284.395	42355
284.453	47902
284.512	50047
284.570	56026
284.629	64772
284.688	77092
284.746	90165
284.805	109330
284.863	134106
284.922	168371
284.981	207352
285.039	264620
285.098	334489
285.156	365473
285.215	236502
285.273	212453
285.332	346531
285.390	357760
285.449	293507
285.507	231464
285.566	183761
285.624	149370
285.683	122198
285.741	102136
285.799	84756
285.858	73756
285.916	64172
285.975	56504
286.033	50415
286.091	45699
286.150	40412
286.208	37607
286.267	34754
286.325	33083
286.383	30392
286.442	29332
286.500	26566
286.558	25371
286.616	24790
286.675	23875
286.733	22942
286.791	21258
286.850	21247
286.908	20220
286.966	20194
287.024	18656
287.083	17032
287.141	16843
287.199	17382
287.257	17765
287.315	16875
287.374	15600
287.432	16456
287.490	15855
287.548	13915
287.606	14426
287.664	13415
287.723	14001
287.781	14221
287.839	14660
287.897	13212
287.955	14768
288.013	15855
288.071	22731
288.129	48764
288.187	146607
288.245	73874
288.303	27294
288.361	19864
288.419	16996
288.477	15342
288.535	14434
288.593	12480
288.651	12313
288.709	11469
288.767	10451
288.825	10307
288.883	11037
288.941	10518
288.999	10489
289.057	10417
289.115	9780
289.173	10499
289.231	10364
289.289	9917
289.346	9704
289.404	10738
289.462	12041
289.520	9677
289.578	9871
289.636	8953
289.694	9559
289.751	9980
289.809	9821
289.867	9320
289.925	9942
289.983	9489
290.040	9560
290.098	9504
290.156	9059
290.214	9107
290.271	9595
290.329	10168
290.387	10515
290.444	9004
290.502	8948
290.560	9217
290.617	8770
290.675	8744
290.733	8489
290.790	9445
290.848	9192
290.906	8462
290.963	8831
291.021	8603
291.078	9435
291.136	9117
291.194	9449
291.251	10760
291.309	9561
291.366	9002
291.424	9065
291.481	10095
291.539	14248
291.596	18305
291.654	11481
291.711	9825
291.769	9237
291.826	9356
291.884	9209
291.941	8454
291.999	9141
292.056	8423
292.114	9077
292.171	7875
292.228	10139
292.286	10759
292.343	9302
292.401	9420
292.458	9557
292.515	9105
292.573	10855
292.630	10033
292.687	9050
292.745	9080
292.802	8709
292.859	12666
292.917	17365
292.974	12737
293.031	9729
293.089	8637
293.146	9187
293.203	8703
293.260	8410
293.318	8686
293.375	9538
293.432	8640
293.489	9517
293.546	10530
293.604	12592
293.661	20443
293.718	35751
293.775	22535
293.832	20054
293.889	26156
293.947	22964
294.004	15291
294.061	13363
294.118	14320
294.175	20688
294.232	30982
294.289	28034
294.346	16892
294.403	14627
294.460	10594
294.517	11052
294.574	11473
294.631	10316
294.688	11146
294.745	12502
294.802	22998
294.859	20297
294.916	10900
294.973	9206
295.030	9299
295.087	8930
295.144	8627
295.201	8964
295.258	7311
295.315	10086
295.372	11802
295.429	18656
295.486	11613
295.542	10309
295.599	9624
295.656	11732
295.713	10794
295.770	15965
295.827	10210
295.883	8975
295.940	8120
295.997	8970
296.054	8964
296.111	8672
296.167	8736
296.224	8221
296.281	8024
296.338	7835
296.394	7415
296.451	8210
296.508	9753
296.564	13586
296.621	12438
296.678	21368
296.734	31167
296.791	16196
296.848	10160
296.904	10488
296.961	11169
297.018	16008
297.074	15738
297.131	10420
297.187	10561
297.244	12513
297.301	18863
297.357	36215
297.414	17856
297.470	11378
297.527	10016
297.583	9240
297.640	9316
297.696	8685
297.753	8418
297.809	8290
297.866	7784
297.922	8364
297.979	8035
298.035	8703
298.092	9372
298.148	13852
298.204	13661
298.261	11103
298.317	13420
298.374	26126
298.430	20729
298.486	11228
298.543	9259
298.599	10021
298.656	10327
298.712	11106
298.768	14317
298.824	15323
298.881	10036
298.937	10424
298.993	10024
299.050	9471
299.106	9375
299.162	9083
299.218	9653
299.275	10760
299.331	11446
299.387	15724
299.443	33768
299.500	69478
299.556	60454
299.612	28538
299.668	26058
299.724	56349
299.780	74611
299.837	34409
299.893	27225
299.949	46818
300.005	73656
300.061	56583
300.117	86722
300.173	47668
300.229	22387
300.285	16926
300.341	16203
300.397	15028
300.453	13832
300.510	14776
300.566	19475
300.622	30992
300.678	80628
300.734	113351
300.790	56876
300.845	44689
300.901	51324
300.957	78662
301.013	43085
301.069	22434
301.125	16368
301.181	14836
301.237	13009
301.293	12695
301.349	11058
301.405	11587
301.461	10280
301.516	9957
301.572	10071
301.628	10064
301.684	10684
301.740	11314
301.796	12745
301.851	12653
301.907	12864
301.963	16345
302.019	22922
302.074	57854
302.130	62167
302.186	31641
302.242	16814
302.297	13531
302.353	12276
302.409	15272
302.464	13545
302.520	12786
302.576	18524
302.631	22561
302.687	14499
302.743	10556
302.798	9422
302.854	9135
302.910	9331
302.965	9456
303.021	9451
303.076	10700
303.132	9682
303.187	11455
303.243	10317
303.299	9337
303.354	8534
303.410	9798
303.465	8272
303.521	8833
303.576	8795
303.632	9457
303.687	11734
303.743	21623
303.798	20702
303.853	12601
303.909	10385
303.964	9289
304.020	9991
304.075	9611
304.130	9857
304.186	11773
304.241	12154
304.297	11958
304.352	9940
304.358	9830
304.407	8946
304.449	9231
304.463	9331
304.518	9569
304.539	9472
304.573	9322
304.629	9789
304.630	9810
304.684	10945
304.720	15712
304.739	18073
304.794	27044
304.811	24268
304.850	17634
304.902	11701
304.905	11323
304.960	9871
304.992	9442
305.015	9121
305.071	9934
305.083	9861
305.126	9602
305.173	9218
305.181	9159
305.236	9140
305.264	8736
305.292	8297
305.347	8594
305.354	8505
305.402	8057
305.445	8660
305.457	8822
305.512	9404
305.535	9215
305.567	8918
305.622	8275
305.626	8340
305.678	10183
305.716	14833
305.733	16501
305.788	19480
305.807	18204
305.843	16440
305.897	20807
305.898	20843
305.953	22394
305.988	16882
306.008	13948
306.063	10128
306.078	9672
306.118	8762
306.168	8630
306.173	8620
306.228	9058
306.259	8715
306.283	8482
306.338	7760
306.349	7823
306.393	7991
306.440	8619
306.448	8746
306.503	9243
306.530	8711
306.558	8314
306.613	9764
306.620	9875
306.668	11037
306.711	13600
306.723	13927
306.778	13938
306.801	12621
306.833	11052
306.888	9272
306.892	9224
306.943	9171
306.982	8271
306.997	7936
307.052	9026
307.072	8863
307.107	8594
307.162	8932
307.163	8930
307.217	8791
307.253	9144
307.272	9339
307.327	9887
307.343	10016
307.381	10602
307.434	11640
307.436	11693
307.491	12057
307.524	13084
307.546	13418
307.600	13920
307.614	13515
307.655	12085
307.704	11070
307.710	11062
307.765	11028
307.795	11637
307.819	12131
307.874	12867
307.885	13119
307.929	14376
307.975	16122
307.984	16743
308.038	21494
308.065	24675
308.093	37524
308.148	68948
308.156	76599
308.202	113849
308.246	145664
308.257	144090
308.312	79442
308.336	54563
308.366	40615
308.421	29922
308.426	29198
308.475	26147
308.517	25722
308.530	25766
308.585	25994
308.607	26278
308.639	26791
308.694	28443
308.697	28480
308.748	29527
308.787	31212
308.803	31971
308.857	33557
308.877	34826
308.912	40088
308.967	50085
308.967	50252
309.021	72993
309.058	91002
309.076	102609
309.130	145292
309.148	158721
309.185	210815
309.238	292522
309.239	293595
309.293	348353
309.328	357775
309.348	334434
309.402	237288
309.418	210359
309.457	174491
309.508	136443
309.511	136614
309.566	155193
309.598	171841
309.620	203174
309.674	296119
309.688	320741
309.729	320715
309.778	293721
309.783	288019
309.837	204839
309.868	158365
309.892	138129
309.946	98592
309.959	91021
310.001	76817
310.049	62449
310.055	60659
310.109	47646
310.139	40405
310.163	36763
310.218	30670
310.229	29555
310.272	26431
310.319	23898
310.326	23475
310.381	20616
310.409	19530
310.435	18735
310.489	16793
310.499	16548
310.543	15749
310.589	15071
310.598	14973
310.652	14406
310.679	14128
310.706	13969
310.760	13771
310.769	13774
310.814	13900
310.859	13876
310.868	13674
310.923	12626
310.948	12152
310.977	12241
311.031	12385
311.038	12431
311.085	12195
311.128	11693
311.139	11599
311.193	11426
311.218	11324
311.247	11157
311.301	10966
311.308	10915
311.356	10868
311.398	10964
311.410	10852
311.464	10252
311.488	10042
311.518	10080
311.572	10045
311.578	10055
311.626	10511
311.668	10922
311.680	10794
311.734	10059
311.758	9766
311.788	9885
311.842	10183
311.847	10209
311.896	10756
311.937	11264
311.950	11115
312.004	10426
312.027	10135
312.058	9720
312.112	8976
312.117	8897
312.165	9498
312.207	10012
312.297	9456
312.386	10014
312.476	9983
312.566	10087
312.656	10973
312.745	10449
312.835	11235
312.925	10830
313.015	10969
313.104	11576
313.194	12360
313.284	12458
313.374	13363
313.463	13706
313.553	14169
313.643	14710
313.732	15312
313.822	15855
313.912	18102
314.001	17932
314.091	18499
314.180	18112
314.270	18945
314.360	18130
314.449	17912
314.539	17698
314.628	18934
314.718	18301
314.808	19333
314.897	19722
314.987	21759
315.076	22950
315.166	22479
315.255	20490
315.345	20586
315.434	19867
315.524	21380
315.613	23734
315.703	31439
315.792	77709
315.881	251027
315.971	84375
316.060	27593
316.150	21181
316.239	18478
316.328	18888
316.418	20621
316.507	21366
316.597	24589
316.686	25648
316.775	24292
316.865	22143
316.954	19953
317.043	18908
317.133	16840
317.222	15394
317.311	15737
317.400	14039
317.490	18825
317.579	19853
317.668	26269
317.757	43668
317.847	127610
317.936	356345
318.025	117597
318.114	107199
318.203	50170
318.293	25128
318.382	33237
318.471	36099
318.560	30166
318.649	27472
318.738	18011
318.828	14717
318.917	12872
319.006	13219
319.095	13710
319.184	20754
319.273	15714
319.362	13876
319.451	12590
319.540	12791
319.629	13625
319.718	15150
319.807	13798
319.896	15203
319.985	24738
320.074	16750
320.163	13916
320.252	15730
320.341	14783
320.430	17052
320.519	18783
320.608	19120
320.697	21923
320.786	24056
320.875	27559
320.964	31043
321.053	31302
321.142	33349
321.230	38062
321.319	42593
321.408	45715
321.497	44444
321.586	38122
321.675	33007
321.764	32284
321.852	33333
321.941	34813
322.030	34937
322.119	38558
322.207	44995
322.296	47550
322.385	52915
322.474	58384
322.562	62522
322.651	47928
322.740	38674
322.829	35946
322.917	29381
323.006	27803
323.095	26249
323.183	23612
323.272	22580
323.361	21403
323.449	24665
323.538	20184
323.626	21251
323.715	18779
323.804	17024
323.892	19091
323.981	16582
324.069	16282
324.158	16899
324.246	15826
324.335	15402
324.424	15714
324.512	15305
324.601	14582
324.689	14861
324.778	16557
324.866	14420
324.954	12884
325.043	12620
325.131	12968
325.220	13896
325.308	13737
325.397	12830
325.485	12515
325.574	12369
325.662	12585
325.750	11515
325.839	12613
325.927	12662
326.015	12223
326.104	11661
326.192	11767
326.280	12163
326.369	11206
326.457	12066
326.545	13007
326.634	12140
326.722	12405
326.810	12929
326.898	16572
326.987	16242
327.075	15123
327.163	14713
327.251	14432
327.340	16397
327.428	20986
327.516	24387
327.604	19684
327.692	15437
327.781	13807
327.869	11812
327.957	10735
328.045	11149
328.133	11158
328.221	9831
328.309	11508
328.397	12028
328.485	14417
328.574	23289
328.662	31480
328.750	21087
328.838	15115
328.926	12718
329.014	11325
329.102	10976
329.190	12197
329.278	10875
329.366	10752
329.454	9770
329.542	9702
329.630	9850
329.718	11219
329.806	10427
329.893	10581
329.981	9917
330.069	10887
330.157	11803
330.245	15116
330.333	11809
330.421	10669
330.509	11528
330.597	13691
330.684	12213
330.772	10887
330.860	11007
330.948	11575
331.036	10618
331.123	11326
331.211	11201
331.299	11533
331.387	11698
331.475	11332
331.562	10999
331.650	11234
331.738	10400
331.825	11088
331.913	11213
332.001	10993
332.089	11553
332.176	12098
332.264	12421
332.352	11897
332.439	12443
332.527	12287
332.614	13243
332.702	14002
332.790	14557
332.877	21107
332.965	48626
333.052	47588
333.140	52849
333.228	129624
333.315	44287
333.403	22042
333.490	27795
333.578	58167
333.665	184931
333.753	85448
333.840	29582
333.928	25968
334.015	27072
334.103	34430
334.190	47685
334.278	54931
334.365	70074
334.452	68463
334.540	52585
334.627	53044
334.715	65711
334.802	90215
334.889	133511
334.977	157046
335.064	102605
335.151	58999
335.239	43848
335.326	38674
335.413	41974
335.501	44307
335.588	41814
335.675	47508
335.762	58750
335.850	78470
335.937	109157
336.024	162557
336.111	226052
336.199	190392
336.286	98793
336.373	61095
336.460	43151
336.547	34425
336.635	30311
336.722	25993
336.809	22418
336.896	22246
336.983	23549
337.070	25957
337.157	30693
337.245	24690
337.332	22972
337.419	20212
337.506	18825
337.593	18119
337.680	18816
337.767	21613
337.854	17274
337.941	15908
338.028	14901
338.115	14972
338.202	16575
338.289	16732
338.376	18696
338.463	15059
338.550	16789
338.637	16183
338.724	13598
338.811	13790
338.898	12553
338.984	13252
339.071	12640
339.158	12616
339.245	13680
339.332	13394
339.419	13716
339.506	13090
339.593	13761
339.679	13957
339.766	12472
339.853	12649
339.940	13493
340.027	12889
340.113	12344
340.200	11712
340.287	11753
340.374	11997
340.460	12338
340.547	10522
340.634	12596
340.720	15806
340.807	13425
340.894	12245
340.980	11533
341.067	11930
341.154	12975
341.240	13109
341.327	13291
341.414	12927
341.500	10992
341.587	12562
341.674	11783
341.760	12779
341.847	13023
341.933	12100
342.020	10568
342.106	12420
342.193	11751
342.279	12392
342.366	12059
342.452	12468
342.539	11892
342.625	12641
342.712	15078
342.798	12728
342.885	11368
342.971	10748
343.058	11515
343.144	11875
343.230	12352
343.317	12079
343.403	11408
343.490	12258
343.576	10565
343.662	11298
343.749	11038
343.835	12226
343.921	15612
344.008	42990
344.094	69766
344.180	20567
344.267	13484
344.353	19854
344.439	18517
344.525	12649
344.612	11795
344.698	12081
344.784	10882
344.870	11485
344.957	9938
345.043	12196
345.129	10465
345.215	12619
345.301	11170
345.387	10611
345.474	10175
345.560	10327
345.646	11045
345.732	11918
345.818	11079
345.904	11721
345.990	10771
346.076	11368
346.162	11715
346.249	12571
346.335	11279
346.421	13160
346.507	15932
346.593	26599
346.679	13554
346.765	16345
346.851	25588
346.937	21211
347.023	14757
347.108	13658
347.194	12685
347.280	14477
347.366	20159
347.452	49518
347.538	68513
347.624	36206
347.710	21661
347.796	14733
347.882	12896
347.967	13034
348.053	12417
348.139	11975
348.225	11964
348.311	11674
348.397	12554
348.482	13777
348.568	15961
348.654	25808
348.740	67842
348.825	70484
348.911	33385
348.997	29213
349.083	33795
349.168	14693
349.254	13040
349.340	13032
349.425	12213
349.511	13418
349.597	14052
349.682	14853
349.768	20559
349.854	15598
349.939	13453
350.025	12680
350.110	12445
350.196	12404
350.282	11552
350.367	13324
350.453	12192
350.538	11899
350.624	11116
350.709	13068
350.795	11144
350.880	12480
350.966	12690
351.051	12315
351.137	11988
351.222	12428
351.308	13839
351.393	16405
351.479	12019
351.564	11731
351.649	11668
351.735	12393
351.820	11569
351.906	11252
351.991	12096
352.076	14310
352.162	16559
352.247	13098
352.332	11333
352.418	11912
352.503	12247
352.588	20359
352.673	15864
352.759	12363
352.844	11527
352.929	12192
353.014	11603
353.100	13537
353.185	13543
353.270	13424
353.355	13236
353.441	12469
353.526	10882
353.611	12079
353.696	12241
353.781	12663
353.866	10912
353.952	11876
354.037	11936
354.122	14917
354.207	14292
354.292	12662
354.377	12560
354.462	12315
354.547	11737
354.632	13253
354.717	12819
354.802	13257
354.887	12205
354.972	12321
355.057	12144
355.142	11024
355.227	13080
355.312	13037
355.397	13705
355.482	16898
355.567	13709
355.652	14310
355.737	14750
355.822	21672
355.907	17692
355.991	14226
356.076	11759
356.161	13145
356.246	12944
356.331	13978
356.416	16080
356.501	39444
356.585	34631
356.670	13791
356.755	16339
356.840	16665
356.924	34160
357.009	78062
357.094	31918
357.179	14808
357.263	13986
357.348	14833
357.433	14031
357.517	14460
357.602	13683
357.687	14022
357.771	15829
357.856	17089
357.941	17352
358.025	35236
358.110	97865
358.195	43532
358.279	17290
358.364	16961
358.448	21110
358.533	31024
358.617	24544
358.702	24523
358.787	18122
358.871	15640
358.956	15614
359.040	15675
359.125	14091
359.209	15394
359.294	17972
359.378	28623
359.462	24225
359.547	15688
359.631	13350
359.716	13189
359.800	13085
359.885	13900
359.969	13057
360.053	14869
360.138	13923
360.222	14437
360.306	14927
360.391	14137
360.475	15508
360.559	17860
360.644	18725
360.728	16901
360.812	30358
360.896	50866
360.981	24456
361.065	18553
361.149	17114
361.233	17231
361.318	16444
361.402	17117
361.486	18656
361.570	19959
361.654	20176
361.739	24115
361.823	47559
361.907	61265
361.991	33068
362.075	37649
362.159	53765
362.243	94919
362.327	203040
362.411	241672
362.495	105641
362.580	61564
362.664	58513
362.748	70788
362.832	109808
362.916	220032
363.000	477193
363.084	540046
363.168	249054
363.252	95746
363.336	59710
363.420	47556
363.503	46662
363.587	44122
363.671	37655
363.755	38398
363.839	45660
363.923	48629
364.007	64057
364.091	85308
364.175	137316
364.258	271964
364.342	562629
364.426	769955
364.510	414136
364.594	159034
364.677	88007
364.761	85028
364.845	59130
364.929	37215
365.013	30403
365.096	27946
365.180	24701
365.264	25865
365.347	35459
365.431	24737
365.515	19378
365.598	19087
365.682	21973
365.766	19081
365.849	18734
365.933	18243
366.017	20436
366.100	18776
366.184	18512
366.267	19942
366.351	19265
366.435	18196
366.518	18089
366.602	18569
366.685	18397
366.769	18645
366.852	18454
366.936	19891
367.019	19259
367.103	18275
367.186	20330
367.270	18855
367.353	18456
367.436	22485
367.520	22053
367.603	22802
367.687	20814
367.770	21187
367.853	22720
367.937	26913
368.020	28406
368.104	18349
368.187	19082
368.270	18889
368.353	17576
368.437	17693
368.520	18938
368.603	17637
368.687	21100
368.770	26009
368.853	16533
368.936	18424
369.020	17244
369.103	15409
369.186	14860
369.269	15122
369.352	16649
369.436	16283
369.519	15972
369.602	13555
369.685	16663
369.768	14822
369.851	15998
369.934	16294
370.018	15666
370.101	16096
370.184	18226
370.267	18202
370.350	17912
370.433	23238
370.516	61650
370.599	150732
370.682	71537
370.765	29823
370.848	27492
370.931	34121
371.014	24175
371.097	19323
371.180	19117
371.263	20194
371.346	18513
371.429	21055
371.511	20525
371.594	21811
371.677	23198
371.760	26204
371.843	30163
371.926	61307
372.009	101087
372.091	52993
372.174	38597
372.257	49255
372.340	37097
372.423	33923
372.505	33650
372.588	26178
372.671	29097
372.754	37781
372.836	29803
372.919	28378
373.002	31379
373.085	28476
373.167	28889
373.250	32103
373.332	43934
373.415	67203
373.498	112806
373.580	79466
373.663	222767
373.746	206602
373.828	48810
373.911	28777
373.993	25365
374.076	28661
374.159	26643
374.241	24791
374.324	33466
374.406	30466
374.489	45375
374.571	80702
374.654	38220
374.736	33278
374.819	58497
374.901	81760
374.983	79502
375.066	32249
375.148	27195
375.231	31547
375.313	37384
375.395	29079
375.478	26973
375.560	27329
375.643	26189
375.725	33695
375.807	67468
375.890	47780
375.972	24869
376.054	22207
376.136	23086
376.219	20740
376.301	31241
376.383	49615
376.465	27969
376.548	21214
376.630	25210
376.712	40827
376.794	25749
376.877	17301
376.959	15896
377.041	16454
377.123	16660
377.205	17339
377.287	17005
377.369	18232
377.452	17951
377.534	17981
377.616	18028
377.698	17898
377.780	16993
377.862	17676
377.944	18201
378.026	16256
378.108	17563
378.190	17384
378.272	17262
378.354	17678
378.436	17440
378.518	16509
378.600	18264
378.682	18450
378.764	23736
378.846	21838
378.928	17158
379.010	16892
379.091	17564
379.173	18363
379.255	16737
379.337	17587
379.419	20537
379.501	29634
379.583	20157
379.664	18117
379.746	18724
379.828	25698
379.910	27756
379.991	26752
380.073	18915
380.155	19190
380.237	18859
380.318	19160
380.400	19547
380.482	21881
380.564	22718
380.645	24171
380.727	22467
380.809	22863
380.890	21451
380.972	21270
381.053	22546
381.135	25392
381.217	26237
381.298	32756
381.380	27833
381.461	29417
381.543	52089
381.624	56270
381.706	33916
381.787	33541
381.869	34954
381.951	51785
382.032	100276
382.113	71648
382.195	43912
382.276	49783
382.358	59183
382.439	81339
382.521	100797
382.602	136508
382.684	137421
382.765	239428
382.846	577278
382.928	981662
383.009	637224
383.090	626081
383.172	1193582
383.253	1212281
383.334	573986
383.416	313848
383.497	255832
383.578	316145
383.659	567107
383.741	1143800
383.822	1466746
383.903	924925
383.984	412700
384.066	234198
384.147	150326
384.228	105464
384.309	90041
384.390	80798
384.471	71253
384.553	65492
384.634	61329
384.715	60128
384.796	56297
384.877	59162
384.958	65969
385.039	60052
385.120	50626
385.201	46251
385.282	47850
385.363	60440
385.444	72148
385.525	70715
385.606	75254
385.687	65321
385.768	50367
385.849	48903
385.930	76482
386.011	93757
386.092	51788
386.173	45081
386.254	39266
386.335	37970
386.416	35574
386.496	39118
386.577	40970
386.658	36412
386.739	34502
386.820	37566
386.901	37039
386.981	42845
387.062	48191
387.143	50939
387.224	54674
387.304	57530
387.385	53631
387.466	49536
387.547	55207
387.627	56768
387.708	59204
387.789	68265
387.869	66922
387.950	51152
388.031	43728
388.111	41079
388.192	44758
388.273	49381
388.353	41991
388.434	32659
388.514	33457
388.595	55081
388.676	51810
388.756	34462
388.837	33002
388.917	29029
388.998	25390
389.078	28232
389.159	26551
389.239	24919
389.320	26774
389.400	23604
389.480	28369
389.561	34411
389.641	29151
389.722	25627
389.802	25186
389.883	28728
389.963	37273
390.043	28538
390.124	24307
390.204	26226
390.284	31285
390.365	27149
390.445	29944
390.525	44996
390.605	42254
390.686	28310
390.766	26781
390.846	27631
390.927	26343
391.007	26472
391.087	28933
391.167	27926
391.247	27663
391.328	30136
391.408	32028
391.488	33005
391.568	31398
391.648	34714
391.728	36779
391.808	38889
391.888	39780
391.969	46174
392.049	49656
392.129	50725
392.209	53799
392.289	65834
392.369	63980
392.449	67299
392.529	72054
392.609	83250
392.689	95480
392.769	121468
392.849	141405
392.929	181578
393.009	250702
393.089	365700
393.169	624963
393.248	1153911
393.328	1570113
393.408	1428499
393.488	982547
393.568	547742
393.648	321395
393.728	212818
393.807	152792
393.887	120390
393.967	98176
394.047	83667
394.127	70802
394.206	70511
394.286	105127
394.366	283707
394.446	259364
394.525	79967
394.605	50936
394.685	48011
394.764	52473
394.844	88566
394.924	105254
395.003	56958
395.083	40672
395.163	38433
395.242	37295
395.322	38230
395.402	37595
395.481	42868
395.561	54259
395.640	132940
395.720	227725
395.799	124504
395.879	65749
395.958	62408
396.038	122839
396.117	357644
396.197	343650
396.276	127343
396.356	98776
396.435	119438
396.515	159521
396.594	248077
396.673	484524
396.753	1023188
396.832	1417329
396.912	1103128
396.991	559028
397.070	281005
397.150	171169
397.229	143742
397.308	223906
397.388	342846
397.467	175368
397.546	76334
397.625	53942
397.705	49936
397.784	42966
397.863	39598
397.942	36979
398.022	34261
398.101	31647
398.180	35931
398.259	30605
398.338	28988
398.417	25603
398.497	24850
398.576	24347
398.655	23035
398.734	23059
398.813	22429
398.892	23450
398.971	27775
399.050	21862
399.129	18068
399.208	19391
399.287	19617
399.366	17099
399.445	18513
399.524	17673
399.603	16447
399.682	18026
399.761	18752
399.840	26028
399.919	22865
399.998	16525
400.077	14640
400.156	13859
400.235	17076
400.313	14540
400.392	13773
400.471	17860
400.550	18983
400.629	14798
400.708	15131
400.786	12588
400.865	13273
400.944	13795
401.023	14992
401.102	12338
401.180	13157
401.259	12467
401.338	13255
401.416	12942
401.495	11978
401.574	13828
401.652	12322
401.731	13552
401.810	11299
401.888	12247
401.967	11262
402.046	11143
402.124	12757
402.203	10435
402.281	11814
402.360	10394
402.438	12766
402.517	10736
402.596	11848
402.674	11405
402.753	12005
402.831	12146
402.910	13173
402.988	17618
403.066	34112
403.145	22958
403.223	20506
403.302	30926
403.380	26537
403.459	26813
403.537	19582
403.615	16814
403.694	14545
403.772	15519
403.850	15045
403.929	13998
404.007	13514
404.085	15710
404.164	14384
404.242	14183
404.320	18253
404.398	28238
404.477	28654
404.555	50565
404.633	41731
404.711	23718
404.789	17349
404.868	13610
404.946	12733
405.024	11455
405.102	11566
405.180	11184
405.258	9503
405.336	11554
405.415	10643
405.493	11720
405.571	12702
405.649	11776
405.727	12500
405.805	15804
405.883	17059
405.961	15692
406.039	12936
406.117	10851
406.195	13046
406.273	16635
406.351	34456
406.429	21493
406.507	11341
406.585	10254
406.663	12066
406.740	10497
406.818	9921
406.896	10230
406.974	12193
407.052	10745
407.130	22920
407.208	25960
407.285	13847
407.363	10416
407.441	11651
407.519	11169
407.596	12590
407.674	17351
407.752	37001
407.830	28137
407.907	14589
407.985	10624
408.063	11388
408.141	10328
408.218	11697
408.296	10517
408.373	12250
408.451	13707
408.529	13946
408.606	13647
408.684	15287
408.762	15337
408.839	16737
408.917	18488
408.994	19917
409.072	22319
409.149	30274
409.227	46259
409.304	64471
409.382	71891
409.459	84569
409.537	100102
409.614	91829
409.692	77900
409.769	80854
409.846	108178
409.924	119200
410.001	94072
410.079	70967
410.156	53757
410.233	41610
410.311	36208
410.388	31405
410.465	29056
410.543	25645
410.620	26026
410.697	23865
410.775	23901
410.852	23755
410.929	25539
411.006	25323
411.083	22058
411.161	21775
411.238	21418
411.315	19053
411.392	18524
411.469	18001
411.547	17116
411.624	14669
411.701	15593
411.778	14348
411.855	14396
411.932	12669
412.009	13568
412.086	12939
412.163	13059
412.240	12042
412.317	13312
412.394	11946
412.471	12337
412.548	12322
412.625	10817
412.702	11827
412.779	11612
412.856	11089
412.933	9996
413.010	10572
413.087	10882
413.164	13336
413.241	13822
413.318	10310
413.395	10639
413.471	10531
413.548	10688
413.625	9781
413.702	9301
413.779	10268
413.855	9301
413.932	9393
414.009	8422
414.086	9880
414.162	8878
414.239	10387
414.316	12278
414.393	16673
414.469	9501
414.546	8573
414.623	8152
414.699	8135
414.776	8136
414.853	7671
414.929	8829
415.006	8121
415.082	8444
415.159	8598
415.236	8507
415.312	9269
415.389	8529
415.465	8853
415.542	9399
415.618	7785
415.695	9463
415.771	8978
415.848	8208
415.924	8936
416.000	8081
416.077	11012
416.153	8419
416.230	8540
416.306	8784
416.383	8523
416.459	9018
416.535	9370
416.612	10025
416.688	10810
416.764	12016
416.841	11872
416.917	11671
416.993	11230
417.069	11500
417.146	9841
417.222	10023
417.298	9575
417.374	8557
417.451	8520
417.527	8764
417.603	9218
417.679	8468
417.755	8765
417.831	7738
417.908	9788
417.984	9469
418.060	8973
418.136	9567
418.212	9621
418.288	8557
418.364	9381
418.440	8673
418.516	9356
418.592	8702
418.668	9609
418.744	10269
418.820	10965
418.896	9504
418.972	8884
419.048	10159
419.124	11088
419.200	9978
419.276	10902
419.352	10655
419.428	10882
419.504	11095
419.579	11429
419.655	11621
419.731	12574
419.807	13552
419.883	13971
419.959	13905
420.034	14149
420.110	15157
420.186	18604
420.262	17978
420.337	17375
420.413	16928
420.489	17754
420.565	18748
420.640	19256
420.716	20737
420.792	20039
420.867	22869
420.943	22626
421.019	26170
421.094	26341
421.170	27864
421.245	31159
421.321	32894
421.397	36536
421.472	44184
421.548	55885
421.623	53378
421.699	55500
421.774	60365
421.850	68576
421.925	81906
422.001	96971
422.076	117521
422.152	149065
422.227	193666
422.302	265271
422.378	374452
422.453	554376
422.529	744442
422.604	655662
422.679	464316
422.755	672359
422.830	704521
422.905	525732
422.981	376248
423.056	275207
423.131	208842
423.207	163484
423.282	129871
423.357	107889
423.432	90971
423.508	79535
423.583	69741
423.658	62675
423.733	55806
423.808	52250
423.883	51540
423.959	56793
424.034	62934
424.109	56741
424.184	43612
424.259	36371
424.334	31811
424.409	28432
424.484	26952
424.559	24437
424.634	23016
424.709	21519
424.784	21755
424.859	20153
424.934	19911
425.009	20808
425.084	21796
425.159	18231
425.234	17067
425.309	15627
425.384	16166
425.459	15956
425.534	15186
425.609	13770
425.683	13423
425.758	13226
425.833	13716
425.908	14582
425.983	15143
426.058	18265
426.132	14582
426.207	12369
426.282	13505
426.357	11194
426.431	11605
426.506	11852
426.581	10943
426.655	12206
426.730	10618
426.805	10653
426.879	10654
426.954	10436
427.029	10214
427.103	16906
427.178	27294
427.253	16749
427.327	9932
427.402	10269
427.476	10541
427.551	10766
427.625	9798
427.700	11126
427.774	11241
427.849	10875
427.923	12281
427.998	14369
428.072	18997
428.147	40600
428.221	159970
428.296	367746
428.370	187577
428.444	40539
428.519	20313
428.593	17827
428.667	18190
428.742	25955
428.816	66183
428.890	255140
428.965	310763
429.039	85566
429.113	25237
429.188	15339
429.262	13604
429.336	13626
429.410	14404
429.485	14718
429.559	15434
429.633	17235
429.707	22769
429.781	63076
429.855	242928
429.930	279874
430.004	88662
430.078	71346
430.152	195406
430.226	509411
430.300	419810
430.374	123149
430.448	45051
430.522	31621
430.596	37687
430.670	98342
430.744	307498
430.818	271833
430.892	62497
430.966	20506
431.040	13382
431.114	11583
431.188	10373
431.262	10182
431.336	9788
431.410	11165
431.484	12122
431.557	13906
431.631	16511
431.705	32173
431.779	132491
431.853	361188
431.927	213527
432.000	44074
432.074	16417
432.148	10944
432.222	8621
432.295	8100
432.369	5978
432.443	7039
432.516	13746
432.590	24349
432.664	11394
432.737	5873
432.811	4540
432.885	5775
432.958	5574
433.032	4945
433.106	4851
433.179	5669
433.253	5395
433.326	5408
433.400	6578
433.473	6710
433.547	5389
433.620	6494
433.694	6342
433.767	7886
433.841	6326
433.914	5690
433.988	6905
434.061	7349
434.134	7715
434.208	6280
434.281	6706
434.355	6010
434.428	7278
434.501	7138
434.575	6628
434.648	6596
434.721	7247
434.795	6872
434.868	7639
434.941	8152
435.014	10358
435.088	11876
435.161	16084
435.234	21557
435.307	24273
435.381	27374
435.454	35897
435.527	52705
435.600	55556
435.673	47864
435.746	37214
435.819	29330
435.892	22860
435.966	19152
436.039	16309
436.112	14049
436.185	11641
436.258	10617
436.331	9626
436.404	8737
436.477	8546
436.550	8294
436.623	7669
436.696	7326
436.769	7489
436.842	6712
436.915	5638
436.987	6231
437.060	6153
437.133	5769
437.206	5093
437.279	5894
437.352	5814
437.425	5279
437.498	5063
437.570	5997
437.643	5288
437.716	5950
437.789	4934
437.861	4745
437.934	5066
438.007	4633
438.080	5058
438.152	5093
438.225	6173
438.298	18387
438.370	38850
438.443	15728
438.516	6959
438.588	5265
438.661	4882
438.734	5330
438.806	5169
438.879	6166
438.951	6260
439.024	5431
439.096	5732
439.169	4524
439.241	4788
439.314	4972
439.386	4718
439.459	4816
439.531	4827
439.604	4640
439.676	4606
439.749	4888
439.821	4419
439.893	5082
439.966	5648
440.038	4684
440.110	4679
440.183	4866
440.255	4417
440.327	7256
440.400	9701
440.472	20379
440.544	13295
440.617	6019
440.689	6771
440.761	6357
440.833	6192
440.905	6371
440.978	4897
441.050	5869
441.122	6500
441.194	5943
441.266	6919
441.338	6134
441.411	7138
441.483	10667
441.555	11945
441.627	7966
441.699	8000
441.771	7421
441.843	8462
441.915	8634
441.987	10434
442.059	12133
442.131	12280
442.203	16753
442.275	22891
442.347	40075
442.419	97950
442.491	349933
442.563	552477
442.635	235238
442.706	65886
442.778	33377
442.850	24265
442.922	22067
442.994	21846
443.066	24761
443.137	30700
443.209	41133
443.281	67812
443.353	144045
443.425	412367
443.496	838953
443.568	807194
443.640	370132
443.711	116771
443.783	52856
443.855	33665
443.926	24382
443.998	19766
444.070	18363
444.141	15757
444.213	15865
444.285	14712
444.356	13721
444.428	13440
444.499	12886
444.571	13648
444.642	14957
444.714	15294
444.785	17430
444.857	19326
444.928	22018
445.000	24985
445.071	32322
445.143	43884
445.214	66240
445.285	115679
445.357	270505
445.428	666016
445.500	908686
445.571	806229
445.642	542695
445.714	219254
445.785	83636
445.856	44262
445.928	30657
445.999	24726
446.070	19047
446.141	16816
446.213	14662
446.284	11801
446.355	11727
446.426	10522
446.497	10041
446.569	8096
446.640	8337
446.711	8123
446.782	7676
446.853	6710
446.924	6964
446.995	6325
447.066	6204
447.138	6513
447.209	5644
447.280	4721
447.351	4722
447.422	5002
447.493	4476
447.564	4777
447.635	4386
447.706	4170
447.777	4385
447.847	3849
447.918	4032
447.989	4031
448.060	5185
448.131	5078
448.202	4474
448.273	4261
448.344	4577
448.414	4036
448.485	4532
448.556	4528
448.627	3839
448.698	4966
448.768	3868
448.839	3824
448.910	3308
448.981	3523
449.051	4220
449.122	3094
449.193	3875
449.263	3917
449.334	4111
449.405	4560
449.475	5077
449.546	5057
449.616	6411
449.687	6369
449.758	5134
449.828	4451
449.899	3684
449.969	3729
450.040	3522
450.110	4104
450.181	4182
450.251	3711
450.322	3437
450.392	3160
450.463	4045
450.533	3614
450.604	4441
450.674	4779
450.744	6805
450.815	7204
450.885	8196
450.955	8460
451.026	8497
451.096	7165
451.166	7288
451.237	10345
451.307	12856
451.377	9029
451.447	7304
451.518	6030
451.588	4858
451.658	4741
451.728	4682
451.799	5770
451.869	6024
451.939	4737
452.009	5047
452.079	4590
452.149	5972
452.219	5887
452.289	7150
452.360	8526
452.430	9578
452.500	12754
452.570	20948
452.640	48306
452.710	105901
452.780	111795
452.850	65354
452.920	34730
452.990	21364
453.060	13893
453.129	10410
453.199	7654
453.269	9713
453.339	9995
453.409	10304
453.479	10946
453.549	11768
453.619	10985
453.688	6486
453.758	5081
453.828	4523
453.898	3183
453.968	5142
454.037	4233
454.087	3775
454.107	3554
454.168	3187
454.177	3092
454.247	4048
454.249	4050
454.316	3083
454.330	3106
454.386	3047
454.411	3387
454.456	3815
454.492	4149
454.525	4417
454.574	4374
454.595	4313
454.655	3882
454.665	3769
454.734	5164
454.736	5237
454.804	5912
454.817	5919
454.873	5728
454.898	5715
454.943	5552
454.979	5102
455.013	4621
455.060	4221
455.082	3991
455.141	4867
455.152	4995
455.221	5549
455.222	5605
455.291	6169
455.303	6489
455.360	7263
455.384	8605
455.430	10593
455.465	9081
455.499	7600
455.546	6172
455.569	5493
455.627	5336
455.638	5273
455.707	5128
455.708	5175
455.777	5532
455.789	5434
455.846	4716
455.869	5026
455.916	5507
455.950	5504
455.985	5500
456.031	5670
456.054	5651
456.112	5992
456.124	6055
456.193	6965
456.193	6919
456.262	6559
456.274	6708
456.332	7092
456.355	7072
456.401	7071
456.436	7460
456.470	7714
456.516	7395
456.540	7174
456.597	7990
456.609	8084
456.678	7432
456.678	7376
456.747	8087
456.759	8099
456.817	8481
456.840	8551
456.886	8202
456.920	9141
456.955	10475
457.001	10995
457.024	11053
457.082	12186
457.093	12205
457.162	13797
457.163	13857
457.232	12258
457.243	12261
457.301	12727
457.324	13118
457.370	13795
457.405	14780
457.439	16119
457.485	17886
457.508	19055
457.566	22633
457.577	24046
457.646	34576
457.647	34861
457.715	84403
457.727	95863
457.784	175805
457.808	228662
457.853	291418
457.889	330105
457.922	309419
457.969	212741
457.991	218996
458.050	271079
458.060	283509
458.129	469649
458.130	474952
458.198	451990
458.211	417566
458.267	240677
458.292	167371
458.336	117358
458.372	105679
458.405	138945
458.453	206038
458.474	264145
458.533	474002
458.543	490623
458.611	712114
458.614	716351
458.680	438448
458.694	357796
458.749	180315
458.775	122598
458.818	76245
458.855	57352
458.887	47165
458.936	37609
458.955	34782
459.016	28757
459.024	28111
459.093	24719
459.097	24538
459.162	21052
459.177	20730
459.230	19661
459.257	19169
459.299	18609
459.338	17772
459.368	17114
459.418	16876
459.437	16849
459.499	16381
459.505	16251
459.574	15646
459.579	15648
459.643	15260
459.659	15151
459.711	15706
459.740	16154
459.780	16012
459.820	15720
459.849	15578
459.900	15584
459.917	15449
459.981	14469
459.986	14387
460.054	13950
460.061	14005
460.123	14659
460.141	14651
460.191	14787
460.222	14801
460.260	14739
460.302	15074
460.328	14856
460.382	14683
460.397	14938
460.462	15428
460.465	15547
460.534	18787
460.543	19341
460.602	39688
460.623	47421
460.671	66458
460.703	84058
460.739	77592
460.783	61326
460.808	51186
460.864	18787
460.876	16599
460.944	14562
460.945	14524
461.013	13753
461.024	13621
461.081	13756
461.104	14083
461.150	14444
461.184	14514
461.218	14653
461.264	15096
461.286	15143
461.345	14768
461.355	14572
461.423	13852
461.425	13824
461.491	13483
461.505	13538
461.559	14161
461.585	14146
461.628	14675
461.665	16029
461.696	16293
461.745	15728
461.764	15330
461.825	14243
461.832	14338
461.901	15292
461.905	15381
461.969	14482
461.985	14133
462.037	14754
462.065	15209
462.105	14861
462.145	14483
462.173	14806
462.225	15292
462.241	15390
462.305	16203
462.310	16305
462.378	17273
462.385	17442
462.446	17710
462.465	17679
462.514	16671
462.545	16133
462.582	16149
462.625	15808
462.650	15405
462.705	14646
462.718	14606
462.785	14774
462.786	14791
462.854	15131
462.865	15213
462.922	15622
462.945	15741
462.990	15147
463.025	14749
463.058	15029
463.104	15319
463.126	15183
463.184	14915
463.194	14970
463.262	14791
463.264	14795
463.330	15232
463.344	15219
463.398	15279
463.424	15449
463.466	15255
463.504	15042
463.533	15091
463.583	14891
463.601	14886
463.663	14888
463.669	14919
463.737	15624
463.743	15635
463.805	16614
463.823	16943
463.873	16792
463.903	16560
463.940	16813
463.982	17119
464.008	16756
464.062	15952
464.076	16047
464.142	16384
464.144	16373
464.211	15156
464.221	14991
464.279	15003
464.301	14961
464.347	15296
464.381	15648
464.414	15580
464.461	15242
464.482	15373
464.540	15759
464.550	15829
464.617	16084
464.620	16089
464.685	16254
464.699	16122
464.753	16561
464.779	16842
464.820	17223
464.859	17638
464.888	17105
464.938	15934
464.956	16476
465.018	18434
465.023	18434
465.091	18056
465.098	17992
465.158	17407
465.177	17242
465.226	17504
465.257	17531
465.293	17394
465.336	17220
465.361	17447
465.416	17901
465.428	17859
465.495	17443
465.496	17478
465.563	18734
465.575	18965
465.631	19178
465.654	19249
465.698	18812
465.734	18184
465.765	18124
465.813	18077
465.833	18155
465.893	18254
465.900	18273
465.968	18237
465.972	18200
466.035	18120
466.052	18074
466.102	18040
466.131	17952
466.170	18097
466.210	18224
466.237	18151
466.290	17913
466.304	17837
466.369	17184
466.372	17253
466.439	18552
466.449	18701
466.506	18024
466.528	17701
466.573	18630
466.607	19300
466.641	20433
466.687	21952
466.708	22455
466.766	23662
466.775	23330
466.842	20538
466.845	20366
466.909	20449
466.925	20435
466.977	20943
467.004	21155
467.044	21345
467.083	21461
467.111	22328
467.163	23812
467.178	23919
467.242	24159
467.245	24192
467.312	23918
467.321	23836
467.379	23376
467.400	23138
467.446	23831
467.480	24251
467.559	25826
467.638	25727
467.717	26049
467.796	29423
467.875	32233
467.955	33234
468.034	38896
468.113	47105
468.192	58812
468.271	72285
468.350	100960
468.429	135881
468.508	140803
468.588	92495
468.667	58736
468.746	42697
468.825	36881
468.904	32746
468.983	30102
469.062	28460
469.141	29176
469.220	25957
469.299	25953
469.378	25143
469.456	28424
469.535	25295
469.614	27136
469.693	27707
469.772	28103
469.851	31910
469.930	34192
470.009	38135
470.088	47599
470.166	72899
470.245	127928
470.324	177395
470.403	138747
470.482	81072
470.560	51862
470.639	41170
470.718	35215
470.797	31033
470.875	28290
470.954	26625
471.033	27187
471.111	24911
471.190	24731
471.269	23398
471.347	22987
471.426	23331
471.505	23710
471.583	23726
471.662	22555
471.740	22844
471.819	23599
471.898	22079
471.976	22153
472.055	21276
472.133	22352
472.212	23132
472.290	21859
472.369	20827
472.447	21945
472.526	20791
472.604	22038
472.683	22132
472.761	23122
472.839	22999
472.918	23646
472.996	24273
473.075	24390
473.153	24526
473.231	24918
473.310	25443
473.388	25494
473.466	24386
473.545	25007
473.623	26410
473.701	26063
473.780	26205
473.858	23965
473.936	26575
474.014	24167
474.093	26453
474.171	26871
474.249	26404
474.327	24973
474.405	24809
474.484	25635
474.562	24105
474.640	23770
474.718	23485
474.796	23329
474.874	23584
474.952	22609
475.030	21493
475.108	22884
475.187	22238
475.265	24312
475.343	24996
475.421	25937
475.499	22894
475.577	22237
475.655	22464
475.733	22684
475.811	23938
475.889	23524
475.966	24101
476.044	21480
476.122	21990
476.200	23087
476.278	21480
476.356	21165
476.434	20616
476.512	22388
476.590	24290
476.667	23580
476.745	21538
476.823	21080
476.901	20697
476.979	20301
477.056	21626
477.134	20599
477.212	21210
477.290	20727
477.367	20577
477.445	20484
477.523	20141
477.601	20604
477.678	20753
477.756	20358
477.834	20104
477.911	20906
477.989	20942
478.066	20971
478.144	20937
478.222	21914
478.299	24305
478.377	25192
478.454	21250
478.532	19914
478.609	20127
478.687	20883
478.764	20568
478.842	20996
478.919	20913
478.997	21247
479.074	20126
479.152	21186
479.229	21178
479.307	21559
479.384	20233
479.461	21461
479.539	20958
479.616	22225
479.694	20486
479.771	20425
479.848	21157
479.926	20236
480.003	22492
480.080	21819
480.157	22248
480.235	23179
480.312	23507
480.389	23429
480.467	24908
480.544	26657
480.621	28760
480.698	29665
480.775	28988
480.853	26227
480.930	24843
481.007	24791
481.084	25533
481.161	27189
481.238	27017
481.315	24460
481.392	24919
481.470	27179
481.547	27194
481.624	27306
481.701	27257
481.778	29006
481.855	30604
481.932	33997
482.009	37590
482.086	39715
482.163	44397
482.240	52000
482.317	54891
482.393	45945
482.470	41753
482.547	39571
482.624	36976
482.701	36553
482.778	35666
482.855	35668
482.932	37688
483.009	39087
483.085	45354
483.162	50446
483.239	55294
483.316	56189
483.393	54756
483.469	47590
483.546	41532
483.623	37410
483.699	34724
483.776	32797
483.853	30648
483.930	30456
484.006	32756
484.083	37072
484.160	37503
484.236	41810
484.313	40515
484.389	41248
484.466	48493
484.543	59286
484.619	72897
484.696	79671
484.772	54708
484.849	40534
484.925	36907
485.002	34845
485.078	31916
485.155	30322
485.231	28579
485.308	27644
485.384	27808
485.461	28213
485.537	28470
485.614	28762
485.690	26363
485.766	26484
485.843	25989
485.919	27388
485.995	26467
486.072	26875
486.148	27357
486.224	25453
486.301	24907
486.377	27386
486.453	26386
486.530	28079
486.606	31812
486.682	32193
486.758	31800
486.835	33431
486.911	32872
486.987	39078
487.063	43624
487.139	50436
487.215	56504
487.292	67320
487.368	79430
487.444	105646
487.520	154331
487.596	233967
487.672	508995
487.748	1535544
487.824	2408261
487.900	1030446
487.976	301754
488.052	147897
488.128	98155
488.204	69736
488.280	56986
488.356	50421
488.432	45605
488.508	43069
488.584	37119
488.660	35020
488.736	33069
488.812	30272
488.888	31320
488.964	30682
489.039	34336
489.115	39398
489.191	35039
489.267	28423
489.343	26849
489.418	28133
489.494	26354
489.570	25867
489.646	29154
489.722	26296
489.797	28431
489.873	29648
489.949	31205
490.024	30314
490.100	29053
490.176	28317
490.251	29456
490.327	29819
490.403	27382
490.478	28025
490.554	26994
490.629	28247
490.705	26488
490.781	27120
490.856	25315
490.932	26427
491.007	26421
491.083	26696
491.158	24821
491.234	25356
491.309	28033
491.385	25744
491.460	23230
491.536	23854
491.611	23143
491.686	24639
491.762	23457
491.837	26224
491.913	30672
491.988	34792
492.063	38371
492.139	26665
492.214	23663
492.289	23351
492.365	23699
492.440	23898
492.515	22082
492.590	22755
492.666	22365
492.741	22895
492.816	23210
492.891	23427
492.967	23579
493.042	22829
493.117	22250
493.192	24233
493.267	25645
493.342	34431
493.418	39541
493.493	25827
493.568	22929
493.643	22999
493.718	22137
493.793	22103
493.868	23241
493.943	22912
494.018	23026
494.093	22013
494.168	23211
494.243	22550
494.318	23301
494.393	22735
494.468	22511
494.543	24114
494.618	24190
494.693	24809
494.768	24405
494.842	25256
494.917	24996
494.992	24651
495.067	24362
495.142	23448
495.217	24752
495.292	24150
495.366	23802
495.441	24356
495.516	26002
495.591	25903
495.665	37515
495.740	55662
495.815	35401
495.890	24540
495.964	24216
496.039	28114
496.114	27897
496.188	31203
496.263	30029
496.338	25616
496.412	24047
496.487	24918
496.561	25179
496.636	25292
496.710	24916
496.785	24922
496.860	24443
496.934	24840
497.009	26374
497.083	26366
497.158	26396
497.232	28189
497.307	30431
497.381	32258
497.455	33474
497.530	27431
497.604	24094
497.679	23973
497.753	25957
497.827	25961
497.902	25837
497.976	26595
498.050	33088
498.125	63429
498.199	63567
498.273	32125
498.348	30086
498.422	32429
498.496	36565
498.570	40272
498.645	27182
498.719	20245
498.793	23460
498.867	24637
498.941	26483
499.016	35766
499.090	60531
499.164	39006
499.238	27326
499.312	28833
499.386	30878
499.460	33875
499.534	38080
499.609	44234
499.683	34947
499.757	22716
499.831	24464
499.905	41917
499.979	41765
500.053	23432
500.127	26174
500.201	25958
500.275	28315
500.349	29406
500.422	31046
500.496	34769
500.570	44452
500.644	63398
500.718	68272
500.792	27759
500.866	21598
500.940	21006
501.013	21492
501.087	21057
501.161	23273
501.235	23096
501.309	27894
501.382	38154
501.456	35770
501.530	23280
501.603	22713
501.677	20090
501.751	19097
501.825	20833
501.898	20239
501.972	25608
502.046	22836
502.119	19414
502.193	20494
502.266	23858
502.340	22039
502.413	20319
502.487	25338
502.561	22068
502.634	21589
502.708	22523
502.781	21615
502.855	23012
502.928	20339
503.002	21647
503.075	20632
503.149	20982
503.222	21725
503.295	22354
503.369	25947
503.442	27984
503.516	35253
503.589	49835
503.662	52481
503.736	60085
503.809	82384
503.882	112936
503.956	168965
504.029	327571
504.102	872924
504.175	1296753
504.249	605624
504.322	228597
504.395	120955
504.468	77845
504.542	54696
504.615	42976
504.688	35746
504.761	29599
504.834	29124
504.907	25620
504.980	25379
505.053	23171
505.127	19149
505.200	22460
505.273	19805
505.346	18520
505.419	16829
505.492	19941
505.565	18286
505.638	17925
505.711	15580
505.784	14636
505.857	15051
505.930	17285
506.003	13400
506.076	15921
506.149	14237
506.221	12529
506.294	15587
506.367	14569
506.440	21856
506.513	19470
506.586	14536
506.659	13275
506.731	14577
506.804	13521
506.877	14142
506.950	13905
507.022	14575
507.095	12796
507.168	14486
507.241	14386
507.313	12761
507.386	12764
507.459	13900
507.531	12179
507.604	11800
507.677	14444
507.749	11518
507.822	14439
507.894	14934
507.967	17278
508.040	13133
508.112	15705
508.185	14527
508.257	12137
508.330	15811
508.402	12929
508.475	12727
508.547	13570
508.620	13538
508.692	12746
508.765	14515
508.837	12843
508.909	14675
508.982	13156
509.054	13880
509.127	12756
509.199	13024
509.271	12220
509.344	13017
509.416	12835
509.488	12970
509.560	14064
509.633	13766
509.705	13197
509.777	13495
509.849	14686
509.922	12728
509.994	14162
510.066	14720
510.138	11793
510.210	17829
510.283	14467
510.355	14915
510.427	14801
510.499	14049
510.571	13061
510.643	13705
510.715	15617
510.787	12126
510.859	15450
510.931	13965
511.003	15039
511.076	14622
511.148	13877
511.219	13431
511.291	15129
511.363	14815
511.435	14720
511.507	12933
511.579	15269
511.651	14902
511.723	14939
511.795	12707
511.867	14277
511.939	13934
512.010	13896
512.082	15682
512.154	13064
512.226	14248
512.298	16676
512.369	16521
512.441	16875
512.513	16400
512.585	13699
512.656	15656
512.728	15116
512.800	15224
512.871	15415
512.943	15434
513.015	13553
513.086	15604
513.158	15224
513.230	14718
513.301	15468
513.373	17790
513.444	15855
513.516	15205
513.588	14753
513.659	15611
513.731	16208
513.802	14800
513.874	19790
513.945	21085
514.016	15583
514.088	16858
514.159	15194
514.231	16961
514.302	18002
514.374	17749
514.445	15563
514.516	20392
514.588	17163
514.659	17257
514.730	17970
514.802	18689
514.873	16282
514.944	19642
515.016	18135
515.087	16985
515.158	18585
515.229	19754
515.301	18551
515.372	20513
515.443	19299
515.514	19511
515.585	20085
515.656	21788
515.728	22939
515.799	21536
515.870	24818
515.941	27133
516.012	27402
516.083	34526
516.154	38588
516.225	46920
516.296	59054
516.367	71400
516.438	93993
516.509	123512
516.580	189618
516.651	652139
516.722	2175835
516.793	963091
516.864	197830
516.935	164164
517.006	195671
517.077	256580
517.148	544214
517.219	2228829
517.289	3130934
517.360	730461
517.431	198270
517.502	108026
517.573	87118
517.643	75854
517.714	75993
517.785	83772
517.856	96546
517.926	126066
517.997	161477
518.068	215178
518.138	299200
518.209	492082
518.280	1558117
518.350	3777435
518.421	2195065
518.492	519005
518.562	302826
518.633	292688
518.703	374688
518.774	714496
518.845	1623626
518.915	1543721
518.986	541083
519.056	235740
519.127	145601
519.197	107594
519.268	85825
519.338	64658
519.408	49648
519.479	44461
519.549	37133
519.620	36512
519.690	32650
519.760	30261
519.831	28197
519.901	26811
519.971	24429
520.042	23406
520.112	22105
520.182	23211
520.253	22591
520.323	21950
520.393	20258
520.463	21839
520.534	18049
520.604	23154
520.674	20806
520.744	18055
520.814	20277
520.885	21103
520.955	19208
521.025	28016
521.095	22523
521.165	18944
521.235	16653
521.305	17332
521.375	18051
521.445	18423
521.515	18124
521.585	20315
521.655	16482
521.725	18804
521.795	18879
521.865	15675
521.935	19597
522.005	17842
522.075	17351
522.145	18970
522.215	16471
522.285	18670
522.355	18473
522.424	19685
522.494	19421
522.564	19539
522.634	20264
522.704	31924
522.774	21327
522.843	18063
522.913	18019
522.983	19074
523.053	17204
523.122	19784
523.192	19003
523.262	24448
523.331	23690
523.401	20499
523.471	19027
523.540	20815
523.610	19410
523.680	20341
523.749	20877
523.819	22019
523.888	21589
523.958	21464
524.027	20851
524.097	20744
524.166	20225
524.236	19439
524.305	22838
524.375	19871
524.444	19105
524.514	23651
524.583	21643
524.653	20707
524.722	23299
524.791	21792
524.861	25746
524.930	23632
524.999	23839
525.069	26747
525.138	26419
525.207	28176
525.277	29548
525.346	32453
525.415	36310
525.484	41705
525.554	47864
525.623	60335
525.692	75645
525.761	98088
525.830	129208
525.900	175280
525.969	276662
526.038	518247
526.107	1018288
526.176	2733018
526.245	2226900
526.314	729487
526.383	1396603
526.452	1913479
526.522	2395729
526.591	2263687
526.660	504403
526.729	283461
526.797	286293
526.867	389024
526.935	1009922
527.004	3171157
527.073	2264701
527.142	443479
527.211	174104
527.280	106962
527.349	76447
527.418	56759
527.487	48858
527.555	39495
527.624	36590
527.693	33300
527.762	33119
527.831	29089
527.899	29489
527.968	27369
528.037	24624
528.106	24834
528.174	25896
528.243	24602
528.312	24316
528.380	24105
528.449	20685
528.518	22952
528.586	19513
528.655	21873
528.723	20551
528.792	19841
528.861	20234
528.929	18337
528.998	19766
529.066	18860
529.135	19999
529.203	19306
529.272	19588
529.340	22147
529.409	23159
529.477	19922
529.545	19367
529.614	22341
529.682	20429
529.751	22522
529.819	25968
529.887	23793
529.956	22633
530.024	23234
530.092	20300
530.161	22774
530.229	23033
530.297	20742
530.365	23173
530.434	22678
530.502	22817
530.570	22538
530.638	20850
530.707	22884
530.775	22566
530.843	23144
530.911	23645
530.979	23586
531.047	23926
531.115	23992
531.183	22905
531.252	21591
531.320	22405
531.388	21480
531.456	24899
531.524	22384
531.592	24629
531.660	26825
531.728	23455
531.796	24060
531.864	25029
531.932	23821
532.000	23755
532.067	24359
532.135	25482
532.203	27575
532.271	29006
532.339	32822
532.407	34941
532.475	32940
532.542	29564
532.610	28813
532.678	28391
532.746	39569
532.814	56795
532.881	35107
532.949	31186
533.017	29141
533.084	27837
533.152	26228
533.220	27051
533.287	26623
533.355	27232
533.423	28810
533.490	28953
533.558	29252
533.625	30107
533.693	28326
533.761	30483
533.828	30538
533.896	29960
533.963	33520
534.031	36746
534.098	45308
534.166	48681
534.233	46307
534.300	53076
534.368	53764
534.435	55895
534.503	62824
534.570	73142
534.637	89454
534.705	105188
534.772	128124
534.840	252090
534.907	1143251
534.974	1456010
535.041	224134
535.109	85095
535.176	59067
535.243	53327
535.310	49587
535.378	45928
535.445	44433
535.512	46798
535.579	45750
535.646	43711
535.714	46483
535.781	50554
535.848	48407
535.915	46546
535.982	44110
536.049	44704
536.116	47315
536.183	42466
536.250	42554
536.317	42982
536.384	45567
536.451	46600
536.518	47304
536.585	46488
536.652	47653
536.719	48647
536.786	44448
536.853	44639
536.920	48184
536.987	47907
537.053	46132
537.120	58348
537.187	58637
537.254	51510
537.321	51166
537.388	51917
537.454	48760
537.521	49077
537.588	48405
537.654	50196
537.721	51830
537.788	52293
537.855	49511
537.921	49954
537.988	49070
538.055	47251
538.121	43399
538.188	41963
538.254	42218
538.321	44684
538.388	46853
538.454	53383
538.521	53555
538.587	52588
538.654	50954
538.720	50432
538.787	51676
538.853	49902
538.920	47626
538.986	43657
539.053	43366
539.119	47126
539.185	46503
539.252	48910
539.318	50879
539.385	56326
539.451	52173
539.517	51970
539.583	50243
539.650	51937
539.716	56979
539.782	47879
539.849	47032
539.915	48097
539.981	47287
540.047	46827
540.114	46299
540.180	50297
540.246	51670
540.312	55704
540.378	54882
540.444	53545
540.510	53752
540.576	61928
540.643	50774
540.709	48200
540.775	49487
540.841	47723
540.907	47805
540.973	48709
541.039	48341
541.105	51356
541.171	52951
541.237	53640
541.303	53347
541.369	54404
541.435	53450
541.500	52217
541.566	48354
541.632	47108
541.698	47555
541.764	52091
541.830	50609
541.896	49773
541.961	49356
542.027	48450
542.093	52991
542.159	54484
542.224	49383
542.290	51707
542.356	50581
542.421	50044
542.487	45752
542.553	46589
542.618	47430
542.684	48663
542.750	49281
542.815	51343
542.881	51512
542.947	58736
543.012	58182
543.078	48238
543.143	46364
543.209	49001
543.274	47583
543.340	48084
543.405	50753
543.471	55121
543.536	51728
543.602	52618
543.667	49515
543.732	51278
543.798	50801
543.863	52861
543.928	52461
543.994	51232
544.059	52398
544.124	54173
544.190	53826
544.255	55547
544.320	54895
544.386	55357
544.451	56639
544.516	55606
544.581	56492
544.646	60613
544.712	65465
544.777	58318
544.842	58100
544.907	57586
544.972	59064
545.037	59473
545.102	60890
545.168	63000
545.233	63635
545.298	65278
545.363	64295
545.428	68685
545.493	69849
545.558	72282
545.623	68504
545.688	68077
545.753	70902
545.818	73553
545.883	77776
545.947	80131
546.012	82709
546.077	84634
546.142	90935
546.207	92668
546.272	99211
546.337	100879
546.401	102870
546.466	108841
546.531	112188
546.596	121826
546.661	126392
546.725	132078
546.790	140551
546.855	153294
546.919	168281
546.984	187525
547.049	201157
547.113	231664
547.178	253138
547.243	287329
547.307	332725
547.372	370327
547.436	367522
547.501	388826
547.565	417794
547.630	379885
547.695	368151
547.759	370094
547.823	375376
547.888	381654
547.952	394797
548.017	405736
548.081	411951
548.146	406860
548.210	419609
548.274	457168
548.339	448169
548.403	405244
548.468	382527
548.532	378813
548.596	384115
548.660	387764
548.725	420785
548.789	456157
548.853	442257
548.917	423955
548.982	412135
549.046	371615
549.110	340215
549.174	348290
549.238	406177
549.303	444115
549.367	456755
549.431	435404
549.495	409055
549.559	408867
549.623	472319
549.687	518011
549.751	498549
549.815	596693
549.879	603307
549.943	582350
550.007	607023
550.071	599477
550.135	540098
550.199	514530
550.263	506775
550.327	475910
550.391	489010
550.455	545338
550.519	576718
550.582	611231
550.646	690354
550.710	701016
550.774	695547
550.838	711033
550.901	732864
550.965	782122
551.029	827125
551.093	894690
551.156	998714
551.220	1141298
551.284	1233484
551.347	962199
551.411	789816
551.475	731690
551.538	744682
551.602	693749
551.666	654974
551.729	614286
551.793	591454
551.856	581541
551.920	571258
551.983	573113
552.047	561976
552.110	566866
552.174	568654
552.237	585397
552.301	547414
552.364	523941
552.428	511986
552.491	531278
552.554	545288
552.618	541827
552.681	563252
552.745	555757
552.808	657720
552.871	789972
552.934	671021
552.998	574011
553.061	537730
553.124	510146
553.187	503387
553.251	518193
553.314	511952
553.377	513991
553.440	548967
553.503	561522
553.567	561753
553.630	549443
553.693	543292
553.756	543833
553.819	530185
553.882	508560
553.945	514249
554.008	511963
554.071	519100
554.134	524103
554.197	492999
554.260	479242
554.323	485318
554.386	491791
554.449	515572
554.512	515091
554.575	493598
554.638	488409
554.701	486672
554.764	481814
554.827	465314
554.889	450696
554.952	422564
555.015	410346
555.078	423878
555.141	427426
555.203	416618
555.266	417008
555.329	416472
555.391	396290
555.454	392248
555.517	381470
555.580	374146
555.642	357868
555.705	351153
555.768	348132
555.830	337998
555.893	320823
555.955	311127
556.018	305793
556.080	310591
556.143	320696
556.206	315373
556.268	304164
556.330	298290
556.393	290872
556.455	285724
556.518	279714
556.580	270862
556.643	261116
556.705	254592
556.767	250988
556.830	248780
556.892	243254
556.955	238716
557.017	233746
557.079	233171
557.142	227032
557.204	225874
557.266	232632
557.328	213577
557.391	199337
557.453	196150
557.515	194987
557.577	198166
557.639	202997
557.701	204480
557.764	207711
557.826	213258
557.888	226594
557.950	239878
558.012	261084
558.074	332816
558.136	746728
558.198	1717220
558.260	673858
558.322	272862
558.384	257570
558.446	266253
558.508	293266
558.570	333930
558.632	389541
558.694	488715
558.756	783957
558.818	1984318
558.880	3501649
558.942	1919313
559.003	1910261
559.065	980477
559.127	396593
559.189	352443
559.251	374746
559.312	509959
559.374	1138146
559.436	2871458
559.498	1677472
559.559	495424
559.621	367348
559.683	389732
559.744	596394
559.806	1702761
559.868	2370000
559.929	691988
559.991	408530
560.052	623099
560.114	1659049
560.176	1100061
560.237	991781
560.299	1539398
560.360	390759
560.422	157923
560.483	122244
560.545	108260
560.606	100757
560.667	93594
560.729	91709
560.790	83894
560.852	83075
560.913	79882
560.974	76486
561.036	76240
561.097	75284
561.158	72735
561.220	73438
561.281	70454
561.342	68565
561.403	67727
561.465	67991
561.526	68991
561.587	69594
561.648	63165
561.709	62732
561.771	60698
561.832	60822
561.893	58841
561.954	59514
562.015	58258
562.076	56763
562.137	56419
562.198	56167
562.259	57119
562.320	56278
562.381	58215
562.442	56168
562.503	56631
562.564	53064
562.625	53028
562.686	52056
562.747	51611
562.808	52399
562.869	50186
562.930	50663
562.991	48666
563.051	48425
563.112	48928
563.173	47957
563.234	47149
563.294	47046
563.355	46232
563.416	46208
563.477	47119
563.537	45707
563.598	44172
563.659	44951
563.720	45718
563.780	44485
563.841	45559
563.901	46005
563.962	44994
564.023	43035
564.083	42983
564.144	42525
564.204	42366
564.265	42218
564.325	42313
564.386	42755
564.446	42793
564.507	40855
564.567	39684
564.628	40174
564.688	38863
564.749	40161
564.809	39477
564.869	39917
564.930	40174
564.990	40622
565.050	38841
565.111	39609
565.171	37498
565.231	39167
565.292	39283
565.352	37862
565.412	38828
565.472	38223
565.532	38093
565.593	38023
565.653	38434
565.713	37619
565.773	39697
565.833	40720
565.893	41659
565.953	37013
566.013	36734
566.074	35659
566.134	35073
566.194	35412
566.254	35979
566.314	35149
566.374	35622
566.434	35835
566.494	35312
566.554	36082
566.614	35742
566.673	38540
566.733	38929
566.793	38400
566.853	38503
566.913	37927
566.973	37987
567.033	38548
567.092	37188
567.152	37894
567.212	39412
567.272	39176
567.331	39626
567.391	40334
567.451	41564
567.511	40266
567.570	39902
567.630	40324
567.690	37190
567.749	38624
567.809	39097
567.868	38504
567.928	37505
567.988	38192
568.047	38387
568.107	39304
568.166	39445
568.226	38674
568.285	40673
568.345	40859
568.404	40257
568.464	38773
568.523	39426
568.582	39350
568.642	40306
568.701	38108
568.761	37952
568.820	39078
568.879	37596
568.939	39884
568.998	39278
569.057	38268
569.116	38645
569.176	38054
569.235	38751
569.294	37761
569.353	36901
569.413	37653
569.472	35353
569.531	35903
569.590	34985
569.649	35344
569.708	35781
569.767	36276
569.827	36055
569.886	36479
569.945	36363
570.004	36742
570.063	37252
570.122	38630
570.181	39428
570.240	38146
570.299	39432
570.358	39282
570.417	39253
570.475	40218
570.534	40573
570.593	39710
570.652	40241
570.711	40948
570.770	39350
570.829	38388
570.887	40162
570.946	41087
571.005	42020
571.064	47385
571.122	53869
571.181	48934
571.240	44087
571.299	39605
571.357	38717
571.416	38169
571.475	38622
571.533	41704
571.592	44524
571.650	43326
571.709	45683
571.768	53680
571.826	55749
571.885	50567
571.943	44111
572.002	39701
572.060	38042
572.119	38447
572.177	37670
572.236	37559
572.294	39506
572.352	43417
572.411	44964
572.469	40758
572.528	38344
572.586	36900
572.644	36185
572.703	37266
572.761	35687
572.819	35283
572.877	33265
572.936	34162
572.994	33357
573.052	34308
573.110	36517
573.169	39900
573.227	38955
573.285	38168
573.343	37437
573.401	36886
573.459	37195
573.517	39301
573.576	43457
573.634	41153
573.692	41239
573.750	40950
573.808	40375
573.866	36712
573.924	37057
573.982	36048
574.040	36693
574.098	37084
574.155	36665
574.213	36453
574.271	37928
574.329	44899
574.387	39815
574.445	35439
574.503	34233
574.560	33447
574.618	34527
574.676	34669
574.734	35131
574.792	33056
574.849	31425
574.907	29720
574.965	27150
575.022	27675
575.080	26846
575.138	26009
575.195	26399
575.253	25029
575.311	25929
575.368	27019
575.426	25283
575.483	27188
575.541	29422
575.598	27432
575.656	28810
575.713	30579
575.771	33882
575.828	31706
575.886	28230
575.943	27412
576.001	25566
576.058	25007
576.115	25866
576.173	27573
576.230	28500
576.287	29348
576.345	28354
576.402	29619
576.459	31828
576.517	28429
576.574	25176
576.631	26208
576.688	24282
576.746	24685
576.803	24169
576.860	23419
576.917	24618
576.974	24729
577.031	25696
577.089	24288
577.146	23617
577.203	22948
577.260	22482
577.317	22727
577.374	23238
577.431	22165
577.488	22409
577.545	22744
577.602	23057
577.659	23383
577.716	23422
577.773	24163
577.830	22691
577.886	22832
577.943	21487
578.000	22245
578.057	22327
578.114	23733
578.171	22539
578.227	23912
578.284	23281
578.341	22970
578.398	22686
578.454	22514
578.511	22384
578.568	25070
578.625	23746
578.681	22889
578.738	23210
578.794	22662
578.851	22780
578.908	22780
578.964	23136
579.021	23410
579.077	23154
579.134	23168
579.190	23222
579.247	23088
579.303	22747
579.360	21896
579.416	23140
579.473	22465
579.529	22326
579.586	22233
579.642	23982
579.698	24079
579.755	23052
579.811	24114
579.867	24314
579.924	22777
579.980	23528
580.036	24824
580.093	25443
580.149	27360
580.205	27112
580.261	26962
580.317	27858
580.374	27700
580.430	26908
580.486	27008
580.542	26981
580.598	28088
580.619	27696
580.654	27042
580.692	26932
580.710	26917
580.765	26602
580.767	26618
580.823	27429
580.838	27726
580.879	28575
580.911	28448
580.935	28413
580.984	28225
580.991	28223
581.047	28240
581.057	27939
581.103	26743
581.130	26999
581.159	27273
581.203	25995
581.215	25701
581.270	26655
581.276	26430
581.326	24438
581.349	24811
581.382	25420
581.422	25637
581.438	25713
581.494	25253
581.494	25228
581.550	24216
581.567	24668
581.606	25637
581.640	25205
581.661	24963
581.713	25877
581.717	25958
581.773	24681
581.786	24896
581.829	25657
581.859	25766
581.885	25918
581.932	25431
581.940	25359
581.996	26231
582.004	26256
582.052	26362
582.077	25599
582.107	24657
582.150	25050
582.163	25193
582.219	25301
582.223	25216
582.274	24538
582.296	24724
582.330	24904
582.368	25016
582.386	25137
582.441	26248
582.441	26252
582.497	26676
582.514	26075
582.552	25096
582.587	25289
582.608	25374
582.659	25298
582.663	25283
582.719	26445
582.732	26191
582.774	25490
582.805	25950
582.830	26388
582.877	26706
582.885	26717
582.941	26587
582.950	26618
582.996	26886
583.023	27050
583.052	27493
583.095	28277
583.107	28404
583.162	28121
583.168	28090
583.218	27498
583.240	26910
583.273	26158
583.313	26500
583.328	26637
583.384	26687
583.385	26657
583.439	25966
583.458	25716
583.494	25328
583.531	26384
583.549	26886
583.603	26926
583.605	26922
583.660	26924
583.676	26978
583.715	27321
583.748	27353
583.770	27343
583.820	27906
583.825	27934
583.881	27291
583.893	27123
583.936	26854
583.965	27272
583.991	27514
584.038	28323
584.046	28485
584.101	27806
584.110	27930
584.156	28613
584.183	28518
584.211	28407
584.255	29319
584.266	29544
584.321	29471
584.328	29510
584.376	29752
584.400	30046
584.431	30622
584.472	31385
584.486	31655
584.541	32866
584.545	32919
584.596	33561
584.617	33643
584.651	33993
584.689	35121
584.706	35525
584.761	37754
584.762	37765
584.816	39347
584.834	40421
584.871	42624
584.906	43786
584.926	44539
584.978	48917
584.980	49107
585.035	54264
585.051	56293
585.090	61914
585.123	67575
585.145	71860
585.195	81906
585.200	82945
585.254	100387
585.267	104731
585.309	120310
585.340	133103
585.364	144595
585.412	171173
585.419	175742
585.473	216320
585.484	228537
585.528	298676
585.556	369894
585.583	494177
585.628	800310
585.637	898358
585.692	1761482
585.700	1897642
585.747	2353714
585.772	2063570
585.801	1445930
585.845	651319
585.856	524589
585.910	255152
585.917	232006
585.965	162204
585.989	136943
586.019	116283
586.061	97407
586.074	93088
586.128	81463
586.133	80528
586.183	74022
586.205	72160
586.237	69970
586.277	67251
586.292	66489
586.346	65028
586.349	64909
586.401	62890
586.421	62342
586.455	61938
586.493	61532
586.509	61914
586.564	62977
586.565	63029
586.618	68775
586.637	71683
586.672	81934
586.709	95727
586.727	101707
586.781	116519
586.781	116541
586.835	90604
586.853	83583
586.889	73058
586.925	65537
586.944	63320
586.996	60309
586.998	60317
587.052	59271
587.068	59078
587.106	59046
587.140	59100
587.161	59321
587.212	59365
587.215	59428
587.269	60560
587.284	60942
587.323	62022
587.356	62776
587.377	63428
587.427	64871
587.431	65017
587.485	65737
587.499	65951
587.539	66980
587.571	67959
587.593	69234
587.643	73029
587.648	73336
587.702	74474
587.715	74686
587.755	74823
587.786	74814
587.810	75546
587.858	76843
587.864	76910
587.917	77275
587.930	77173
587.971	77567
588.001	77591
588.025	77429
588.073	77767
588.079	77943
588.133	77928
588.145	77959
588.187	78995
588.217	79925
588.241	80877
588.288	82461
588.295	82854
588.348	86379
588.360	86877
588.402	88482
588.431	89461
588.456	90727
588.503	93840
588.510	94742
588.564	102241
588.575	103715
588.617	109110
588.646	112849
588.671	116532
588.718	124432
588.725	127044
588.778	150411
588.789	156719
588.832	228258
588.861	287655
588.886	410226
588.932	684952
588.939	708884
588.993	871620
589.004	860354
589.047	467372
589.075	247369
589.100	191148
589.147	126681
589.154	124861
589.207	115298
589.218	113391
589.261	113880
589.290	115423
589.314	118590
589.361	125564
589.368	129878
589.421	169970
589.433	180688
589.475	303011
589.504	401815
589.528	522084
589.576	779889
589.582	757464
589.635	392619
589.647	321079
589.689	185523
589.718	112021
589.742	105651
589.790	95166
589.795	94877
589.849	92161
589.861	91577
589.902	91234
589.932	90734
589.955	90207
590.004	88650
590.009	88693
590.062	88126
590.075	87792
590.115	86590
590.146	85669
590.168	85847
590.218	85658
590.222	85950
590.275	88791
590.289	89417
590.328	90554
590.360	90913
590.381	91846
590.431	93893
590.435	94080
590.488	94619
590.503	94732
590.541	95679
590.574	96013
590.594	97502
590.645	101259
590.647	101521
590.700	104055
590.716	104664
590.753	107364
590.787	109718
590.806	110886
590.859	113431
590.859	113639
590.912	115143
590.930	115550
590.965	116547
591.001	117101
591.018	116867
591.071	115320
591.072	115119
591.124	113955
591.143	113346
591.177	114992
591.214	116473
591.230	117101
591.283	118547
591.285	118400
591.336	117790
591.356	117329
591.389	117248
591.427	116625
591.442	116807
591.495	116740
591.498	116545
591.547	117064
591.569	117115
591.600	119268
591.640	121525
591.653	121938
591.706	122601
591.711	122490
591.759	126456
591.782	128222
591.811	131141
591.853	134683
591.864	134720
591.917	133580
591.924	133171
591.969	133693
591.995	133682
592.022	134677
592.066	135715
592.075	136590
592.127	140649
592.137	141130
592.180	144608
592.208	146420
592.233	147943
592.279	150130
592.285	150943
592.338	155468
592.350	156175
592.390	155780
592.421	155024
592.443	156385
592.491	158425
592.495	158961
592.548	162180
592.562	162752
592.600	162067
592.633	160922
592.653	161710
592.704	162065
592.705	163090
592.775	167927
592.846	171051
592.916	173177
592.987	171502
593.058	175730
593.128	177547
593.199	178343
593.270	178611
593.341	185849
593.411	190848
593.482	199209
593.553	203497
593.623	204277
593.694	212368
593.764	215920
593.835	211236
593.906	213715
593.976	219599
594.047	225898
594.117	234764
594.188	242632
594.258	239996
594.329	239790
594.399	247764
594.470	254452
594.540	264736
594.611	269366
594.681	267999
594.751	267734
594.822	279848
594.892	291865
594.963	297052
595.033	306369
595.103	314191
595.174	316036
595.244	325066
595.314	335856
595.384	343726
595.455	353476
595.525	366350
595.595	380677
595.665	377460
595.736	369088
595.806	377519
595.876	382037
595.946	382749
596.016	401281
596.087	415001
596.157	411189
596.227	418248
596.297	437943
596.367	468947
596.437	492641
596.507	488721
596.577	488748
596.647	505849
596.717	532013
596.787	542256
596.857	539566
596.927	542745
596.997	545179
597.067	551017
597.137	560974
597.207	563077
597.277	567269
597.347	539905
597.417	527018
597.487	523848
597.557	539123
597.626	555355
597.696	558351
597.766	553836
597.836	520397
597.906	496433
597.975	486972
598.045	497077
598.115	520964
598.185	559797
598.254	623211
598.324	673669
598.394	682862
598.464	660769
598.533	648592
598.603	608894
598.672	589024
598.742	604687
598.812	602507
598.881	626236
598.951	615924
599.020	632898
599.090	651759
599.159	659168
599.229	631816
599.299	620244
599.368	639241
599.437	627329
599.507	573271
599.576	557043
599.646	547528
599.715	539388
599.785	538531
599.854	521102
599.924	512940
599.993	510301
600.062	527446
600.132	537517
600.201	573658
600.270	659952
600.340	698604
600.409	680749
600.478	674210
600.547	694024
600.617	613580
600.686	493359
600.755	448685
600.824	426646
600.894	416196
600.963	418912
601.032	412596
601.101	395103
601.170	381022
601.239	366710
601.308	364769
601.378	366181
601.447	366377
601.516	368441
601.585	373267
601.654	377760
601.723	378714
601.792	390341
601.861	400684
601.930	413856
601.999	418823
602.068	416013
602.137	421952
602.206	430684
602.275	438720
602.343	441089
602.412	444270
602.481	451192
602.550	455803
602.619	468590
602.688	474631
602.756	477923
602.825	481413
602.894	496372
602.963	506992
603.032	512039
603.100	513587
603.169	512128
603.238	518808
603.307	521675
603.375	530833
603.444	539707
603.513	550805
603.581	559056
603.650	563277
603.719	555106
603.787	576892
603.856	588614
603.924	602969
603.993	627517
604.061	648741
604.130	677189
604.198	690398
604.267	700395
604.335	711252
604.404	722022
604.472	730810
604.541	737743
604.609	744884
604.678	742181
604.746	751388
604.815	772699
604.883	785534
604.951	784684
605.020	799293
605.088	814124
605.156	832799
605.225	842770
605.293	843055
605.361	845778
605.429	855806
605.498	873716
605.566	892802
605.634	930887
605.702	964932
605.771	987307
605.839	985588
605.907	966737
605.975	934222
606.043	918354
606.111	922195
606.180	919966
606.248	905584
606.316	900250
606.384	902036
606.452	904129
606.520	931125
606.588	966467
606.656	969968
606.724	950230
606.792	896026
606.860	815182
606.928	749291
606.996	718688
607.064	706049
607.132	727204
607.200	769063
607.267	793250
607.335	813770
607.403	821494
607.471	795302
607.539	778177
607.607	778525
607.674	691229
607.742	695431
607.810	683938
607.878	693241
607.946	706792
608.013	741490
608.081	751784
608.149	755392
608.216	786766
608.284	804608
608.352	805961
608.419	794918
608.487	774299
608.555	769190
608.622	791942
608.690	847630
608.757	926988
608.825	937707
608.893	911886
608.960	858063
609.028	826878
609.095	826960
609.163	825126
609.230	734591
609.298	681104
609.365	725357
609.432	778244
609.500	842633
609.567	953980
609.635	1079009
609.702	1114865
609.769	1051881
609.837	831050
609.904	748755
609.971	777968
610.039	850132
610.106	1052035
610.173	1721260
610.241	2989511
610.308	1995562
610.375	999435
610.442	835962
610.509	783240
610.577	775261
610.644	784804
610.711	809596
610.778	825817
610.845	869688
610.912	910374
610.980	943060
611.047	943526
611.114	923614
611.181	898223
611.248	897550
611.315	942210
611.382	964653
611.449	999942
611.516	1010011
611.583	998115
611.650	1004311
611.717	1015712
611.784	1042094
611.851	1080918
611.918	1138914
611.984	1296203
612.051	1647031
612.118	2538528
612.185	3746398
612.252	3070183
612.319	1666029
612.386	1359273
612.452	1217308
612.519	1145161
612.586	1113249
612.653	1130438
612.719	1158597
612.786	1114101
612.853	1042471
612.919	1021719
612.986	1035414
613.053	977095
613.120	923716
613.186	894186
613.253	900782
613.319	899750
613.386	908099
613.453	920414
613.519	924222
613.586	907030
613.652	917561
613.719	904375
613.785	924919
613.852	935003
613.918	929164
613.985	936685
614.051	968481
614.118	954275
614.184	924123
614.250	926807
614.317	943154
614.383	933879
614.449	951892
614.516	942521
614.582	946090
614.648	926159
614.715	924800
614.781	897973
614.847	905056
614.914	898397
614.980	874831
615.046	881290
615.112	906510
615.179	905516
615.245	917130
615.311	906673
615.377	919652
615.443	932553
615.509	942663
615.575	977136
615.642	970113
615.708	992697
615.774	1036868
615.840	1095193
615.906	1165932
615.972	1364692
616.038	1837520
616.104	2932365
616.170	3923641
616.236	3564278
616.302	2237149
616.368	1797994
616.434	1356163
616.500	1227241
616.565	1348052
616.631	1651358
616.697	1405987
616.763	1408898
616.829	1970979
616.895	3039430
616.961	2843777
617.026	1577469
617.092	1119131
617.158	1010203
617.224	964023
617.289	887143
617.355	842102
617.421	830713
617.487	821972
617.552	785889
617.618	775953
617.684	778413
617.749	778291
617.815	746341
617.880	733550
617.946	732380
618.012	748127
618.077	757222
618.143	723245
618.208	733365
618.274	786474
618.339	779440
618.405	652638
618.470	654063
618.536	649162
618.601	638765
618.667	595761
618.732	565195
618.798	558130
618.863	562141
618.928	555656
618.994	558026
619.059	552261
619.124	555906
619.190	549901
619.255	545531
619.320	548354
619.386	549814
619.451	547415
619.516	527565
619.581	536280
619.647	554465
619.712	551491
619.777	526008
619.842	532166
619.907	541522
619.972	554689
620.038	546882
620.103	533647
620.168	533666
620.233	542972
620.298	545537
620.363	553522
620.428	567745
620.493	582631
620.558	586245
620.623	594040
620.688	589043
620.753	585841
620.818	600318
620.883	599949
620.948	593950
621.013	588699
621.078	580325
621.143	589757
621.207	589921
621.272	580358
621.337	559974
621.402	556648
621.467	550993
621.532	549342
621.596	552464
621.661	534753
621.726	530243
621.791	542061
621.855	538352
621.920	530711
621.985	544912
622.049	552154
622.114	553335
622.179	562135
622.243	574195
622.308	598159
622.373	616118
622.437	597480
622.502	566807
622.566	562814
622.631	559589
622.695	572588
622.760	564480
622.824	567378
622.889	568214
622.953	571679
623.018	604073
623.082	611837
623.147	603542
623.211	588992
623.276	590478
623.340	565391
623.404	549570
623.469	549979
623.533	556419
623.597	544186
623.662	538560
623.726	496247
623.790	469388
623.854	456060
623.919	467677
623.983	477265
624.047	484694
624.111	489776
624.176	497099
624.240	498768
624.304	512927
624.368	496066
624.432	498754
624.496	512128
624.560	540318
624.625	543750
624.689	537772
624.753	563566
624.817	533485
624.881	522794
624.945	469337
625.009	455867
625.073	468846
625.137	486301
625.201	506987
625.265	503781
625.329	485621
625.393	492504
625.456	497011
625.520	511764
625.584	516431
625.648	534791
625.712	546314
625.776	539606
625.839	504999
625.903	429528
625.967	405637
626.031	433193
626.095	515411
626.158	474281
626.222	373712
626.286	348651
626.349	336188
626.413	314637
626.477	311551
626.540	321859
626.604	316315
626.668	308818
626.731	305779
626.795	309210
626.858	310013
626.922	305368
626.986	300426
627.049	303659
627.113	315487
627.176	304260
627.240	295741
627.303	299717
627.366	295434
627.430	300719
627.493	294146
627.557	291619
627.620	299286
627.684	311123
627.747	315248
627.810	288014
627.874	258313
627.937	251600
628.000	259223
628.064	250166
628.127	225661
628.190	220520
628.253	216760
628.317	207496
628.380	197775
628.443	192367
628.506	190592
628.569	182755
628.632	175685
628.696	173687
628.759	174657
628.822	166741
628.885	164488
628.948	158804
629.011	157686
629.074	152400
629.137	147310
629.200	146531
629.263	143883
629.326	142973
629.389	144852
629.452	141856
629.515	138094
629.578	137670
629.641	140991
629.704	143400
629.767	138110
629.830	133704
629.892	133757
629.955	131749
630.018	135911
630.081	135094
630.144	134365
630.207	130707
630.269	132970
630.332	127580
630.395	129014
630.458	123843
630.520	119839
630.583	124050
630.646	124814
630.708	126914
630.771	129700
630.834	136782
630.896	132966
630.959	131645
631.021	128866
631.084	129371
631.146	132211
631.209	132116
631.272	132720
631.334	137078
631.397	138244
631.459	140056
631.522	150687
631.584	156821
631.646	167287
631.709	172960
631.771	172536
631.834	165320
631.896	155840
631.958	144967
632.021	140592
632.083	133524
632.145	131209
632.208	129491
632.270	126879
632.332	125810
632.395	123107
632.457	126610
632.519	123205
632.581	123727
632.643	120718
632.706	121722
632.768	120437
632.830	121549
632.892	126458
632.954	126096
633.016	128364
633.078	127384
633.141	127354
633.203	125208
633.265	124267
633.327	124408
633.389	127985
633.451	127493
633.513	127243
633.575	130522
633.637	130696
633.698	133588
633.760	141003
633.822	147362
633.884	151142
633.946	158341
634.008	163339
634.070	169386
634.132	180679
634.193	199328
634.255	216635
634.317	221224
634.379	213148
634.441	192175
634.502	174307
634.564	155435
634.626	143220
634.687	136173
634.749	130040
634.811	127431
634.873	125746
634.934	126700
634.996	127434
635.057	126426
635.119	130078
635.181	131897
635.242	134825
635.304	132919
635.365	136514
635.427	131569
635.488	132923
635.550	132664
635.611	136402
635.673	137578
635.734	149059
635.796	157687
635.857	175662
635.918	189848
635.980	208842
636.041	225329
636.102	236904
636.164	240796
636.225	227464
636.286	195753
636.348	174258
636.409	154355
636.470	142883
636.531	136448
636.593	128136
636.654	125004
636.715	118152
636.776	117945
636.838	111623
636.899	110677
636.960	106542
637.021	106486
637.082	103580
637.143	102740
637.204	99821
637.265	99350
637.326	101456
637.387	105020
637.448	101387
637.509	101793
637.570	102262
637.631	100604
637.692	95527
637.753	93258
637.814	93347
637.875	92989
637.936	93494
637.997	92304
638.058	89881
638.119	92226
638.179	91862
638.240	92548
638.301	92954
638.362	88948
638.423	86406
638.483	85017
638.544	83452
638.605	84923
638.666	83079
638.726	85350
638.787	84220
638.848	85246
638.908	82465
638.969	79382
639.030	78361
639.090	79031
639.151	79594
639.211	82721
639.272	82951
639.332	85014
639.393	87899
639.453	96039
639.514	98321
639.574	83880
639.635	76581
639.695	79053
639.756	74683
639.816	74724
639.877	74295
639.937	75642
639.997	76623
640.058	73341
640.118	74906
640.178	74178
640.239	75062
640.299	76409
640.359	77338
640.420	85487
640.480	96937
640.540	114737
640.600	115285
640.661	99875
640.721	94929
640.781	91101
640.841	79572
640.901	78000
640.961	79059
641.021	84577
641.082	92552
641.142	79726
641.202	73281
641.262	70760
641.322	71796
641.382	70007
641.442	71453
641.502	69676
641.562	71526
641.622	75868
641.682	83135
641.742	97638
641.802	87321
641.861	74868
641.921	70037
641.981	68267
642.041	65199
642.101	65369
642.161	63376
642.221	65114
642.280	65173
642.340	64614
642.400	67011
642.460	69242
642.519	68607
642.579	69337
642.639	70195
642.698	70073
642.758	74296
642.818	71913
642.877	70352
642.937	70376
642.997	69954
643.056	71459
643.116	70346
643.175	73056
643.235	74020
643.294	78683
643.354	83030
643.414	91949
643.473	105680
643.532	127000
643.592	170505
643.651	251527
643.711	409992
643.770	743586
643.830	1575322
643.889	2333995
643.948	893024
644.008	271703
644.067	160360
644.126	119263
644.186	98784
644.245	87677
644.304	79936
644.363	81338
644.423	73581
644.482	75885
644.541	82008
644.600	85658
644.659	106627
644.719	135454
644.778	197016
644.837	326999
644.896	655071
644.955	1249492
645.014	429913
645.073	136670
645.132	99748
645.191	90418
645.250	85953
645.309	91224
645.368	104190
645.427	142236
645.486	263094
645.545	411914
645.604	119876
645.663	79385
645.722	78485
645.781	84078
645.840	93903
645.898	116548
645.957	155617
646.016	231053
646.075	383775
646.134	705235
646.192	1598764
646.251	1858595
646.310	504831
646.369	192944
646.427	154553
646.486	111332
646.545	85462
646.603	75165
646.662	71895
646.721	68492
646.779	70341
646.838	74679
646.896	90571
646.955	125268
647.014	198380
647.072	387457
647.131	934147
647.189	413980
647.248	90228
647.306	66335
647.365	59154
647.423	53139
647.481	54442
647.540	50537
647.598	50979
647.657	51155
647.715	49979
647.773	48032
647.832	47409
647.890	43273
647.948	43390
648.007	42797
648.065	41753
648.123	40507
648.181	42194
648.240	41344
648.298	39850
648.356	40761
648.414	40754
648.472	40027
648.531	38978
648.589	38765
648.647	38707
648.705	39622
648.763	41226
648.821	43544
648.879	45325
648.937	52194
648.995	62773
649.053	79894
649.111	116051
649.169	183993
649.227	321537
649.285	667327
649.343	1484967
649.401	722090
649.459	147520
649.516	84558
649.574	67392
649.632	67618
649.690	75835
649.748	96322
649.806	145616
649.863	273516
649.921	721921
649.979	425475
650.037	73734
650.094	46018
650.152	40330
650.210	36667
650.268	34564
650.325	33180
650.383	31338
650.440	30229
650.498	30008
650.556	29105
650.613	29363
650.671	30018
650.728	31458
650.786	36070
650.843	55103
650.901	38933
650.958	28790
651.016	26285
651.073	25937
651.131	25466
651.188	24606
651.246	25096
651.303	24405
651.360	24118
651.418	23272
651.475	24930
651.532	23079
651.590	23831
651.647	22676
651.704	23226
651.762	23243
651.819	23474
651.876	22497
651.933	21445
651.990	21952
652.048	21408
652.105	20802
652.162	20554
652.219	20357
652.276	21419
652.333	20969
652.390	19111
652.448	21216
652.505	21364
652.562	20100
652.619	19991
652.676	21043
652.733	21538
652.790	19538
652.847	19062
652.904	19643
652.961	18370
653.017	18315
653.074	19235
653.131	19702
653.188	18865
653.245	18745
653.302	18598
653.359	18558
653.415	19187
653.472	18222
653.529	19036
653.586	19270
653.642	19523
653.699	19672
653.756	18832
653.813	19684
653.869	20466
653.926	20724
653.983	19273
654.039	19134
654.096	18402
654.152	17986
654.209	17769
654.266	18284
654.322	16867
654.379	17511
654.435	17967
654.492	17361
654.548	17941
654.605	17484
654.661	18661
654.717	17125
654.774	18235
654.830	17238
654.887	16284
654.943	17859
655.000	18593
655.056	17364
655.112	18045
655.168	17767
655.225	18932
655.281	19149
655.337	19051
655.394	17332
655.450	16616
655.506	16149
655.562	16026
655.618	17591
655.675	16654
655.731	17381
655.787	15939
655.843	17874
655.899	17325
655.955	18291
656.011	18634
656.067	17148
656.123	17536
656.179	19191
656.235	19526
656.291	17997
656.347	20781
656.403	17567
656.459	18049
656.515	16943
656.571	16813
656.627	16685
656.683	18256
656.739	16517
656.795	16795
656.850	15486
656.906	17354
656.962	19252
657.018	20397
657.074	25369
657.129	35635
657.185	59325
657.241	133601
657.297	64694
657.352	20624
657.408	16894
657.464	16239
657.519	14948
657.575	14721
657.630	14646
657.686	14497
657.742	14667
657.797	14111
657.853	14539
657.908	16910
657.964	14081
658.019	14985
658.075	14875
658.130	14506
658.186	13838
658.241	15292
658.297	13268
658.352	13778
658.407	14603
658.463	12969
658.518	13248
658.573	14068
658.629	12512
658.684	12742
658.739	14685
658.795	12640
658.850	13274
658.905	12884
658.960	13989
659.016	13428
659.071	13145
659.126	12932
659.181	12563
659.236	13249
659.291	14454
659.346	12612
659.401	12918
659.457	13648
659.512	12951
659.567	13929
659.622	12354
659.677	12620
659.732	12317
659.787	12250
659.842	11858
659.897	12605
659.952	13706
660.007	13023
660.061	12185
660.116	11178
660.171	12416
660.226	13757
660.281	12676
660.336	11954
660.391	13114
660.445	11315
660.500	11655
660.555	12520
660.610	11600
660.664	11109
660.719	11888
660.774	11518
660.828	11885
660.883	11794
660.938	12169
660.992	11629
661.047	12469
661.101	11641
661.156	11429
661.211	11572
661.265	10969
661.320	11337
661.374	11302
661.429	11185
661.483	11729
661.538	10203
661.592	11316
661.647	11340
661.701	12994
661.755	11605
661.810	11108
661.864	11199
661.919	10887
661.973	11651
662.027	11011
662.081	10871
662.136	11164
662.190	11247
662.244	10800
662.299	11035
662.353	11913
662.407	10906
662.461	10737
662.515	11329
662.569	10387
662.624	11215
662.678	10327
662.732	11272
662.786	11534
662.840	10588
662.894	11502
662.948	11198
663.002	11433
663.056	11156
663.110	10265
663.164	10992
663.218	11165
663.272	11479
663.326	11710
663.380	11471
663.434	11710
663.488	10968
663.542	11975
663.595	11871
663.649	11821
663.703	11403
663.757	11606
663.811	12047
663.864	11863
663.918	11750
663.972	11542
664.026	11960
664.079	11867
664.133	11135
664.187	12604
664.240	11773
664.294	12064
664.348	12518
664.401	11640
664.455	11493
664.508	11031
664.562	11403
664.615	11330
664.669	11875
664.722	10893
664.776	11676
664.829	11584
664.883	11035
664.936	10622
664.990	12159
665.043	11987
665.097	10179
665.150	13180
665.203	12344
665.257	12254
665.310	12786
665.363	13103
665.417	13005
665.470	12268
665.523	13805
665.576	13188
665.630	13008
665.683	13404
665.736	13246
665.789	13334
665.842	11705
665.895	12349
665.949	11921
666.002	12180
666.055	13227
666.108	13099
666.161	12798
666.214	13011
666.267	14168
666.320	13238
666.373	14992
666.426	14720
666.479	14495
666.532	14548
666.585	16256
666.638	15141
666.691	14119
666.744	14160
666.796	13657
666.849	13480
666.902	13459
666.955	13389
667.008	12928
667.060	12308
667.113	12888
667.166	13468
667.219	14241
667.271	14353
667.324	14605
667.377	14289
667.430	13554
667.482	13027
667.535	13826
667.587	13105
667.640	13164
667.693	13137
667.745	13141
667.798	14017
667.850	13386
667.903	14291
667.955	14415
668.008	13292
668.060	12270
668.113	13589
668.165	12905
668.218	12656
668.270	12840
668.322	12551
668.375	12286
668.427	12912
668.479	12934
668.532	14125
668.584	13286
668.636	12369
668.689	13260
668.741	13048
668.793	13410
668.845	13506
668.898	12851
668.950	12304
669.002	13278
669.054	12611
669.106	12467
669.158	11995
669.211	12618
669.263	11973
669.315	12784
669.367	12303
669.419	12120
669.471	13191
669.523	12523
669.575	12775
669.627	11816
669.679	13224
669.731	12633
669.783	12012
669.835	12052
669.886	11825
669.938	12242
669.990	12589
670.042	11804
670.094	11681
670.146	12447
670.197	13321
670.249	13366
670.301	14832
670.353	16084
670.404	19175
670.456	21748
670.508	30248
670.560	44530
670.611	72502
670.663	120867
670.715	293940
670.766	401550
670.818	100302
670.869	27949
670.921	22385
670.972	20775
671.024	17599
671.075	15905
671.127	16400
671.178	16946
671.230	19268
671.281	21155
671.333	25096
671.384	28526
671.436	38950
671.487	55272
671.538	79282
671.590	122223
671.641	200953
671.692	355410
671.744	616047
671.795	448026
671.846	181855
671.897	89497
671.949	57642
672.000	41756
672.051	31708
672.102	25660
672.153	22153
672.204	18951
672.256	18058
672.307	16784
672.358	16796
672.409	14346
672.460	14353
672.511	13191
672.562	12212
672.613	10853
672.664	10621
672.715	12350
672.766	11644
672.817	10327
672.868	9945
672.919	9308
672.970	10384
673.021	9843
673.071	10077
673.122	9514
673.173	9242
673.224	10129
673.275	10498
673.326	9998
673.376	9459
673.427	9696
673.478	9938
673.528	11577
673.579	9882
673.630	9886
673.680	10893
673.731	9691
673.782	9867
673.832	9873
673.883	9694
673.934	9237
673.984	9578
674.035	9637
674.085	9606
674.136	10751
674.186	11250
674.237	10931
674.287	11096
674.338	11213
674.388	11851
674.438	12181
674.489	13185
674.539	13193
674.589	12551
674.640	12721
674.690	12517
674.740	11639
674.791	11231
674.841	11834
674.891	8902
674.942	9151
674.992	9048
675.042	8537
675.092	8700
675.142	8216
675.193	8652
675.243	8594
675.293	9414
675.343	9752
675.393	9356
675.443	9188
675.493	8403
675.543	9876
675.593	9223
675.643	9407
675.693	9149
675.743	8999
675.793	8433
675.843	7243
675.893	8349
675.943	7674
675.993	7980
676.043	6835
676.093	7189
676.142	7508
676.192	8190
676.242	7579
676.292	7862
676.341	7313
676.391	7323
676.441	6909
676.491	7651
676.540	6483
676.590	6502
676.640	7023
676.689	6746
676.739	6347
676.789	6728
676.838	5769
676.888	6849
676.937	6829
676.987	6961
677.037	6826
677.086	6428
677.136	6927
677.185	5740
677.235	6555
677.284	6882
677.333	6939
677.383	6525
677.432	5730
677.482	5889
677.531	6064
677.580	5707
677.630	6025
677.679	6190
677.728	6137
677.778	6114
677.827	6544
677.876	6906
677.925	7244
677.975	7585
678.024	7512
678.073	7575
678.122	7268
678.171	7522
678.220	9223
678.269	10781
678.319	12886
678.368	13464
678.417	9734
678.466	8141
678.515	8077
678.564	6499
678.613	6574
678.662	5292
678.711	6571
678.760	6565
678.809	7139
678.857	7408
678.906	7177
678.955	6212
679.004	5739
679.053	5448
679.102	5273
679.151	6112
679.199	6562
679.248	5283
679.297	6563
679.346	5636
679.394	4499
679.443	4538
679.492	7144
679.540	6092
679.589	6426
679.638	6898
679.686	6674
679.735	8642
679.784	10219
679.832	12174
679.881	8550
679.929	6848
679.978	6127
680.026	6108
680.075	6332
680.123	6186
680.172	5008
680.220	5822
680.268	5719
680.317	5261
680.365	4606
680.414	5221
680.462	5459
680.510	5452
680.559	5703
680.607	5314
680.655	5273
680.703	6579
680.752	5735
680.800	5553
680.848	5190
680.896	5161
680.945	5169
680.993	3940
681.041	5016
681.089	5619
681.137	6211
681.185	5118
681.233	4887
681.258	4854
681.281	4788
681.329	5180
681.377	4434
681.380	4522
681.425	5532
681.473	6220
681.502	6517
681.521	6652
681.569	6861
681.617	6985
681.624	6843
681.665	5619
681.713	6104
681.745	6167
681.761	6156
681.809	6260
681.857	7091
681.867	7169
681.904	7271
681.952	6647
681.989	5973
682.000	5725
682.048	6511
682.096	7064
682.111	6740
682.143	5942
682.191	6258
682.233	6788
682.239	6833
682.286	6876
682.334	6582
682.354	6815
682.382	7036
682.430	7326
682.476	7293
682.477	7260
682.525	7151
682.572	7069
682.598	7298
682.620	7479
682.667	6837
682.715	7448
682.720	7446
682.763	6995
682.810	7528
682.841	7504
682.857	7457
682.905	7030
682.952	7074
682.963	7324
683.000	8057
683.047	8416
683.085	8071
683.095	7949
683.142	7634
683.190	7442
683.206	7568
683.237	7676
683.284	8242
683.328	8210
683.332	8184
683.379	8329
683.426	7954
683.449	8097
683.473	8223
683.521	8579
683.568	8776
683.571	8825
683.615	8982
683.662	9091
683.693	8598
683.709	8286
683.757	8143
683.804	8563
683.814	8250
683.851	7140
683.898	8915
683.936	8291
683.945	8103
683.992	8607
684.039	9250
684.057	9284
684.086	9279
684.133	8578
684.179	8498
684.180	8469
684.227	8809
684.274	8762
684.300	8806
684.321	8907
684.368	8148
684.415	9327
684.422	9503
684.462	10317
684.509	8832
684.543	9539
684.556	9774
684.603	9757
684.649	9540
684.665	9601
684.696	9723
684.743	10426
684.786	10556
684.790	10539
684.837	10157
684.883	9715
684.908	10009
684.930	10275
684.977	10479
685.023	10898
685.029	10986
685.070	11415
685.117	10192
685.150	10570
685.164	10724
685.210	10536
685.257	10465
685.272	10807
685.303	11480
685.350	10761
685.393	10953
685.396	10939
685.443	10402
685.490	9808
685.514	10293
685.536	10769
685.583	10203
685.629	11263
685.636	11190
685.675	10774
685.722	10568
685.757	10441
685.768	10376
685.815	10777
685.861	10632
685.878	10826
685.908	11133
685.954	11308
686.000	10814
686.000	10800
686.047	12366
686.093	12300
686.121	12505
686.139	12517
686.185	12247
686.232	12038
686.242	11902
686.278	11421
686.324	12244
686.363	11405
686.370	11272
686.416	12008
686.463	12574
686.484	12442
686.509	12181
686.555	12047
686.601	11834
686.606	11840
686.647	11886
686.693	11949
686.727	11980
686.739	11987
686.785	12234
686.831	11609
686.848	11813
686.877	12319
686.923	12160
686.969	12509
686.969	12510
687.015	12074
687.061	13366
687.090	13892
687.107	13998
687.153	13732
687.199	13721
687.211	13473
687.245	12821
687.291	12366
687.332	12463
687.336	12499
687.382	13509
687.428	13419
687.453	13487
687.474	13551
687.520	13704
687.565	14041
687.574	14031
687.611	13987
687.657	14583
687.695	14581
687.702	14585
687.748	14929
687.794	15098
687.816	15272
687.839	15329
687.885	14957
687.931	14616
687.937	14563
687.976	14409
688.022	14549
688.058	14921
688.067	14995
688.113	14336
688.158	14227
688.179	14241
688.204	14324
688.249	14685
688.295	14624
688.300	14623
688.340	14657
688.386	14886
688.421	14902
688.431	14968
688.477	14871
688.522	15800
688.542	15824
688.567	15929
688.613	16388
688.658	16659
688.663	16670
688.703	16174
688.749	15638
688.784	15129
688.794	15150
688.839	15573
688.884	16619
688.905	16254
688.930	15434
688.975	15372
689.020	14629
689.026	14569
689.065	15011
689.110	15579
689.146	15525
689.155	15449
689.201	15775
689.246	15934
689.267	15951
689.291	15950
689.336	15718
689.381	15670
689.388	15671
689.426	16082
689.471	16449
689.509	16265
689.516	16205
689.561	16488
689.606	16695
689.630	16620
689.651	16519
689.696	16163
689.741	16219
689.750	16259
689.785	16713
689.830	16391
689.871	16509
689.875	16504
689.920	16367
689.965	16214
689.992	16009
690.010	15910
690.054	15367
690.099	15241
690.112	15210
690.144	15620
690.189	16122
690.233	16212
690.233	16229
690.278	16146
690.323	16382
690.354	16242
690.367	16338
690.412	16946
690.457	16600
690.474	16868
690.501	16912
690.546	16473
690.590	16166
690.595	16096
690.635	16244
690.680	16394
690.716	16416
690.724	16399
690.769	16455
690.813	16837
690.836	16877
690.857	17629
690.902	18970
690.946	20923
690.957	21169
690.991	22425
691.035	24979
691.077	26893
691.080	26890
691.124	25385
691.168	24163
691.198	23264
691.213	22639
691.257	21583
691.301	19467
691.318	18816
691.346	18645
691.390	18305
691.434	17555
691.439	17477
691.478	17476
691.522	18414
691.559	18153
691.567	18157
691.611	18397
691.655	18568
691.680	18562
691.699	18464
691.743	18603
691.787	18847
691.800	18512
691.831	17979
691.875	18226
691.919	18522
691.921	18500
691.964	18546
692.008	18356
692.041	18007
692.052	17991
692.096	18374
692.139	18390
692.162	18360
692.183	18259
692.227	17921
692.271	17713
692.282	17646
692.315	17690
692.359	17811
692.402	17683
692.403	17714
692.447	17717
692.490	17968
692.523	17999
692.534	17961
692.578	18002
692.622	17704
692.643	17679
692.666	17842
692.709	17941
692.753	17918
692.763	17913
692.797	18176
692.840	18361
692.884	18740
692.884	18774
692.928	18543
692.971	18524
693.004	18347
693.015	18309
693.059	18036
693.102	17749
693.124	17561
693.146	17739
693.189	18322
693.233	18403
693.245	18516
693.276	18741
693.320	19080
693.363	18952
693.365	18920
693.407	19434
693.450	19818
693.485	19950
693.493	20047
693.537	20711
693.580	21337
693.605	21673
693.624	22480
693.667	24247
693.710	25974
693.725	26658
693.753	30392
693.797	36206
693.840	41880
693.845	42386
693.883	38834
693.926	34956
693.966	31687
693.970	31433
694.013	27882
694.056	24579
694.086	22299
694.099	22080
694.142	20878
694.185	20048
694.206	19671
694.229	19850
694.272	19851
694.315	20079
694.326	19969
694.358	19711
694.401	19805
694.444	19880
694.446	19815
694.487	19504
694.530	19624
694.566	19675
694.573	19707
694.616	19659
694.659	19507
694.686	19390
694.702	19558
694.745	20180
694.787	20318
694.806	20442
694.830	20518
694.873	20572
694.916	20423
694.926	20393
694.959	20763
695.002	21563
695.044	21706
695.046	21684
695.087	22160
695.130	22242
695.166	22456
695.172	22555
695.215	22923
695.258	23175
695.286	23322
695.301	23526
695.343	24106
695.386	24590
695.406	24721
695.428	25933
695.471	28414
695.514	30716
695.526	31419
695.556	32870
695.599	34415
695.641	35891
695.646	35985
695.684	33895
695.726	31431
695.766	29090
695.769	29128
695.811	28816
695.854	28535
695.886	28342
695.896	28598
695.938	29132
695.981	29759
696.005	30123
696.023	31106
696.065	33241
696.108	35520
696.125	36389
696.150	37042
696.192	37853
696.235	38692
696.245	38813
696.277	38510
696.319	38027
696.361	37508
696.365	37375
696.404	36966
696.446	36514
696.485	36058
696.488	36127
696.530	35891
696.572	35810
696.604	35531
696.614	35574
696.656	35345
696.698	35423
696.724	35208
696.740	35465
696.783	36112
696.825	36708
696.844	36920
696.867	37253
696.909	37580
696.951	38029
696.964	38080
696.992	38314
697.034	38425
697.076	38637
697.083	38590
697.118	39742
697.160	40932
697.202	42090
697.203	42029
697.244	41604
697.286	40903
697.323	40088
697.327	40202
697.369	40508
697.411	40951
697.442	40991
697.453	41013
697.494	40851
697.536	40632
697.562	40414
697.578	40491
697.620	40456
697.661	40422
697.682	40297
697.703	41107
697.744	42550
697.786	44107
697.801	44528
697.828	44297
697.869	43587
697.911	43120
697.921	42907
697.952	42826
697.994	42473
698.035	42134
698.040	41998
698.077	42463
698.118	42828
698.160	43279
698.160	43179
698.201	44727
698.243	46177
698.279	47400
698.284	47612
698.325	48522
698.367	49435
698.399	50023
698.408	50123
698.449	50052
698.491	49970
698.518	49777
698.532	50123
698.573	50863
698.614	51575
698.638	51857
698.656	51857
698.697	51579
698.738	51295
698.757	51040
698.779	50957
698.820	50569
698.862	50162
698.877	49890
698.903	50122
698.944	50312
698.985	50498
698.996	50428
699.026	50702
699.067	50915
699.116	51046
699.235	50585
699.354	49849
699.474	46250
699.593	46563
699.713	47186
699.832	47914
699.951	50123
700.070	48172
700.190	45600
700.309	42927
700.428	43195
700.547	41519
700.667	41674
700.786	42515
700.905	39288
701.024	41031
701.143	40559
701.262	44656
701.381	43946
701.500	45208
701.619	42994
701.738	44302
701.857	43392
701.976	40390
702.095	43060
702.214	42734
702.333	41177
702.452	43322
702.571	44690
702.690	41786
702.809	42988
702.928	41010
703.047	38079
703.165	39547
703.284	39383
703.403	39344
703.522	38203
703.640	37889
703.759	37072
703.878	36338
703.997	37551
704.115	40061
704.234	38652
704.353	40146
704.471	34826
704.590	34654
704.708	34702
704.827	33762
704.946	33251
705.064	33980
705.183	33744
705.301	35767
705.420	32326
705.538	33530
705.656	29865
705.775	30447
705.893	33065
706.012	32169
706.130	29878
706.249	31550
706.367	30242
706.485	30273
706.604	29402
706.722	29889
706.840	31876
706.958	32679
707.077	28053
707.195	28854
707.313	28272
707.431	27422
707.549	27743
707.668	25534
707.786	29716
707.904	27236
708.022	29316
708.140	26932
708.258	26648
708.376	30659
708.494	26351
708.612	30726
708.730	30807
708.848	30141
708.966	29293
709.084	28389
709.202	27786
709.320	25011
709.438	25961
709.556	25191
709.674	22024
709.791	24992
709.909	23639
710.027	24969
710.145	22555
710.263	23236
710.380	23794
710.498	22941
710.616	23964
710.733	21648
710.851	22476
710.969	22827
711.086	21859
711.204	23280
711.322	22828
711.439	22680
711.557	21295
711.674	21858
711.792	20505
711.909	20530
712.027	21416
712.144	21203
712.262	21539
712.379	21841
712.497	21598
712.614	20951
712.732	22481
712.849	21095
712.966	23381
713.084	23010
713.201	20264
713.318	22966
713.436	25037
713.553	26227
713.670	29059
713.787	27618
713.905	24847
714.022	28301
714.139	32297
714.256	43734
714.373	73287
714.490	156109
714.608	473722
714.725	1741322
714.842	1186025
714.959	142309
715.076	58625
715.193	42622
715.310	34106
715.427	24919
715.544	26672
715.661	25405
715.778	21283
715.895	22293
716.011	23715
716.128	21785
716.245	20821
716.362	20451
716.479	17316
716.596	19672
716.713	18889
716.829	18697
716.946	16334
717.063	16972
717.180	15924
717.296	16717
717.413	17006
717.530	15953
717.646	15513
717.763	15625
717.880	15255
717.996	14848
718.113	15170
718.229	15639
718.346	14756
718.462	14531
718.579	16404
718.695	15990
718.812	15600
718.928	15070
719.045	15253
719.161	16185
719.277	16924
719.394	17365
719.510	18480
719.626	23447
719.743	34285
719.859	63435
719.975	161756
720.092	700005
720.208	1084884
720.324	116427
720.440	33866
720.557	24303
720.673	22481
720.789	18650
720.905	17994
721.021	16643
721.137	14663
721.253	13672
721.369	14407
721.486	14784
721.602	12135
721.718	14111
721.834	13566
721.950	13080
722.066	12417
722.181	12899
722.297	12708
722.413	13435
722.529	13041
722.645	12812
722.761	13713
722.877	14927
722.993	19927
723.108	28337
723.224	20290
723.340	13978
723.456	12749
723.571	11770
723.687	10933
723.803	12016
723.918	12336
724.034	10951
724.150	11093
724.265	12098
724.381	10638
724.497	11653
724.612	12038
724.728	11705
724.843	10632
724.959	11230
725.074	12126
725.190	11898
725.305	10890
725.421	11240
725.536	11457
725.651	11642
725.767	10543
725.882	11021
725.997	10620
726.113	10710
726.228	10423
726.343	10467
726.459	11368
726.574	11000
726.689	10211
726.804	10728
726.920	11049
727.035	11142
727.150	10828
727.265	10939
727.380	11129
727.495	10848
727.610	10257
727.725	10582
727.841	10482
727.956	11758
728.071	10161
728.186	10014
728.301	9665
728.416	11120
728.531	11234
728.645	9971
728.760	10998
728.875	10535
728.990	10020
729.105	10631
729.220	10022
729.335	10984
729.449	10513
729.564	10901
729.679	10218
729.794	11374
729.908	10433
730.023	10330
730.138	11380
730.253	11879
730.367	10708
730.482	11099
730.596	11427
730.711	14610
730.826	19435
730.940	17097
731.055	15096
731.169	15618
731.284	16342
731.398	15897
731.513	18527
731.627	22431
731.742	27817
731.856	34872
731.970	39044
732.085	55953
732.199	89968
732.313	180575
732.428	508172
732.542	1253244
732.656	551334
732.771	119164
732.885	62998
732.999	50885
733.113	47018
733.227	43428
733.342	38902
733.456	38520
733.570	35582
733.684	34403
733.798	31469
733.912	33443
734.026	32479
734.140	31715
734.254	29728
734.368	29861
734.482	31587
734.596	30394
734.710	29080
734.824	27879
734.938	28763
735.052	29806
735.166	28257
735.280	28306
735.393	25840
735.507	27889
735.621	26190
735.735	25850
735.849	26717
735.962	25068
736.076	26908
736.190	26053
736.303	25917
736.417	25865
736.531	24974
736.644	24398
736.758	24469
736.872	24228
736.985	24760
737.099	23860
737.212	24111
737.326	21460
737.439	24935
737.553	22366
737.666	24362
737.780	22277
737.893	23348
738.007	22364
738.120	23524
738.233	21672
738.347	21268
738.460	21808
738.573	23602
738.687	22058
738.800	22621
738.913	23721
739.026	21033
739.140	20485
739.253	20952
739.366	20638
739.479	21196
739.592	21435
739.705	20479
739.818	23494
739.932	18773
740.045	22237
740.158	19384
740.271	21898
740.384	19164
740.497	19138
740.610	20473
740.723	19128
740.836	19600
740.949	20104
741.062	21756
741.174	18872
741.287	19729
741.400	18793
741.513	17821
741.626	20250
741.739	17827
741.851	17837
741.964	20451
742.077	17297
742.189	17007
742.302	19518
742.415	18216
742.527	17880
742.640	18382
742.753	15277
742.865	18289
742.978	16674
743.090	16627
743.203	18222
743.316	15928
743.428	16765
743.541	16712
743.653	15488
743.766	17473
743.878	17711
743.990	15725
744.103	19093
744.215	17198
744.327	15410
744.440	18897
744.552	15176
744.664	14798
744.777	18073
744.889	15855
745.001	15751
745.113	17632
745.226	14095
745.338	15581
745.450	18218
745.562	15000
745.674	15067
745.786	17030
745.898	14924
746.010	14890
746.122	16092
746.234	15748
746.347	16001
746.459	14237
746.570	13488
746.682	17991
746.794	19525
746.906	13986
747.018	14950
747.130	15948
747.242	12698
747.354	13741
747.466	15149
747.577	13209
747.689	14698
747.801	14632
747.913	12854
748.024	13117
748.136	13302
748.248	11754
748.359	13366
748.471	13969
748.583	12852
748.694	11836
748.806	13867
748.918	11791
749.029	12688
749.141	13014
749.252	13698
749.364	12020
749.475	11839
749.587	11331
749.698	11248
749.809	12421
749.921	11821
750.032	12167
750.144	11589
750.255	10353
750.366	11371
750.478	10793
750.589	12124
750.700	10754
750.811	11617
750.923	10211
751.034	11704
751.145	13258
751.256	10086
751.367	10417
751.479	10954
751.590	10203
751.701	10353
751.812	8836
751.923	10341
752.034	13499
752.145	12026
752.256	11754
752.367	11498
752.478	10947
752.589	10412
752.700	11008
752.811	10128
752.922	10496
753.032	11059
753.143	12161
753.254	10860
753.365	15189
753.476	13352
753.586	10619
753.697	10125
753.808	10693
753.919	10778
754.029	10933
754.140	9496
754.251	10136
754.361	11350
754.472	10826
754.582	9490
754.693	11581
754.804	10831
754.914	9623
755.025	8432
755.135	9528
755.246	11239
755.356	9502
755.466	9717
755.577	9241
755.687	9734
755.798	8996
755.908	9161
756.018	9335
756.129	9756
756.239	9491
756.349	11355
756.460	13022
756.570	13675
756.680	9706
756.790	10763
756.900	10028
757.011	9004
757.121	9517
757.231	9453
757.341	9473
757.451	9181
757.561	9069
757.671	10304
757.781	10578
757.891	9027
758.001	8924
758.111	10880
758.221	12219
758.331	12082
758.441	11807
758.551	12404
758.661	14386
758.771	14214
758.880	12370
758.990	11386
759.100	11439
759.210	11517
759.320	12273
759.429	14474
759.539	15624
759.649	16621
759.758	20393
759.868	21672
759.978	21266
760.087	22755
760.197	22747
760.307	21844
760.416	18914
760.526	17188
760.635	19680
760.745	21390
760.854	24245
760.964	28085
761.073	27860
761.182	25233
761.292	20046
761.401	16894
761.511	13717
761.620	12653
761.729	12269
761.839	9755
761.948	10477
762.057	10974
762.166	11009
762.276	9584
762.385	11683
762.494	10146
762.603	10165
762.712	10674
762.822	9333
762.931	9615
763.040	8240
763.149	8896
763.258	9105
763.367	9135
763.476	9240
763.585	8838
763.694	8491
763.803	8724
763.912	8976
764.021	9993
764.130	9599
764.238	11158
764.347	12502
764.456	12871
764.565	11966
764.674	11501
764.783	10269
764.891	11075
765.000	12283
765.109	12301
765.217	12783
765.326	15182
765.435	16426
765.543	19301
765.652	22014
765.761	27179
765.869	36030
765.978	53989
766.086	92206
766.195	180350
766.303	414828
766.412	710988
766.520	521585
766.629	241760
766.737	106265
766.846	61876
766.954	41634
767.062	33095
767.171	26536
767.279	20773
767.387	17562
767.496	17116
767.604	14976
767.712	13735
767.820	12703
767.928	12924
768.037	11668
768.145	11727
768.253	11031
768.361	10759
768.469	10345
768.577	10526
768.685	11563
768.793	13652
768.901	12869
769.009	14034
769.117	15845
769.225	17939
769.333	26440
769.441	38890
769.549	71468
769.657	159695
769.765	431085
769.873	536854
769.981	246631
770.088	82997
770.196	44137
770.304	31300
770.412	24065
770.519	19968
770.627	17351
770.735	16049
770.842	14148
770.950	15583
771.058	14050
771.165	16981
771.273	15919
771.380	16891
771.488	22687
771.595	24188
771.703	20704
771.810	19269
771.918	20491
772.025	25265
772.133	27879
772.240	25760
772.348	29938
772.455	27654
772.562	24523
772.670	24189
772.777	26212
772.884	24137
772.991	22731
773.099	26004
773.206	22718
773.313	23106
773.420	23443
773.528	23415
773.635	21872
773.742	22607
773.849	21940
773.956	22987
774.063	21769
774.170	21886
774.277	21745
774.384	20427
774.491	20630
774.598	22993
774.705	20235
774.812	21709
774.919	20971
775.026	20763
775.133	20518
775.239	20846
775.346	18528
775.453	20352
775.560	19415
775.667	20827
775.773	18193
775.880	21183
775.987	17734
776.093	20476
776.200	20677
776.307	15315
776.413	17356
776.520	21674
776.627	17166
776.733	17348
776.840	15792
776.946	23198
777.053	19778
777.159	21875
777.266	18732
777.372	20984
777.478	21671
777.585	18277
777.691	15085
777.798	18108
777.904	14741
778.010	15743
778.117	16641
778.223	15596
778.329	16343
778.435	15511
778.542	17306
778.648	14875
778.754	14478
778.860	15735
778.966	15841
779.072	14254
779.178	15688
779.284	14182
779.391	15898
779.497	14703
779.603	16448
779.708	13538
779.815	14916
779.920	23971
780.026	26049
780.132	15513
780.238	12914
780.344	13844
780.450	16759
780.556	11439
780.661	13190
780.767	15608
780.873	9750
780.979	12870
781.085	14409
781.190	12301
781.296	12346
781.402	14084
781.507	12909
781.613	10267
781.719	14286
781.824	14013
781.930	11548
782.035	13650
782.141	14039
782.246	10025
782.352	11949
782.457	13039
782.563	12157
782.668	12763
782.773	10082
782.879	9639
782.984	13260
783.090	10967
783.195	13165
783.300	13660
783.405	10151
783.511	9917
783.616	10880
783.721	12207
783.826	10574
783.932	10111
784.037	10360
784.142	11180
784.247	10493
784.352	11810
784.457	8012
784.562	11507
784.667	11233
784.772	7890
784.877	7776
784.982	12212
785.087	10577
785.192	9334
785.297	9881
785.402	11325
785.507	10296
785.611	9296
785.716	8796
785.821	10802
785.926	10040
786.031	9030
786.135	9417
786.240	10043
786.345	7783
786.450	9038
786.554	9042
786.659	9130
786.763	8882
786.868	9170
786.973	10575
787.077	8068
787.182	6539
787.286	10129
787.391	10899
787.495	6658
787.600	6805
787.704	9224
787.809	9998
787.913	8395
788.017	9547
788.122	10072
788.226	8560
788.330	6248
788.435	9649
788.539	10243
788.643	6475
788.747	5639
788.852	8479
788.956	7545
789.060	8706
789.164	8890
789.268	7637
789.372	8468
789.476	7281
789.580	6042
789.684	7059
789.788	9957
789.892	7502
789.996	6625
790.100	6122
790.204	8476
790.308	9101
790.412	5210
790.516	5503
790.620	7867
790.724	10889
790.828	7027
790.931	4721
791.035	7624
791.139	5998
791.242	7162
791.346	8483
791.450	7713
791.554	5870
791.657	4848
791.761	7665
791.864	8339
791.968	8515
792.072	7352
792.175	6058
792.279	6376
792.382	5743
792.486	6138
792.589	6860
792.693	7666
792.796	5785
792.899	8156
793.003	7569
793.106	6024
793.209	6338
793.313	6931
793.416	3927
793.519	6033
793.623	8969
793.726	7241
793.829	4896
793.932	5101
794.035	4812
794.138	8185
794.242	8611
794.345	5431
794.448	4997
794.551	5873
794.654	11359
794.757	12306
794.860	5980
794.963	6943
795.066	4743
795.169	7170
795.272	6089
795.375	7289
795.477	4136
795.580	4870
795.683	4283
795.786	7535
795.889	4642
795.991	5816
796.094	5989
796.197	4524
796.300	8179
796.402	7745
796.505	4624
796.608	4107
796.710	5590
796.813	8678
796.915	8310
797.018	6925
797.120	7051
797.223	4716
797.326	7481
797.428	5402
797.530	4146
797.633	5302
797.735	8668
797.838	7083
797.940	7736
798.042	5571
798.145	4454
798.247	5303
798.349	3798
798.452	6174
798.554	6599
798.656	7624
798.758	10076
798.860	6178
798.962	5957
799.065	4682
799.167	4391
799.269	6681
799.371	8767
799.473	11062
799.575	8046
799.677	5741
799.779	6702
799.881	5187
799.983	6398
800.085	5877
800.187	5724
800.289	3903
800.390	5351
800.492	6647
800.594	6225
800.696	3830
800.798	4362
800.899	4476
801.001	5270
801.103	5635
801.205	6069
801.306	7102
801.408	5247
801.509	6024
801.611	5645
801.713	5085
801.814	3179
801.916	3840
802.017	3886
802.119	3803
802.220	5127
802.322	2973
802.423	5475
802.525	2807
802.626	4134
802.727	5079
802.829	4288
802.930	2019
803.031	5745
803.133	4627
803.234	5324
803.335	4377
803.436	3647
803.538	4552
803.639	3750
803.740	4903
803.841	4929
803.942	5822
804.043	4171
804.144	3611
804.245	4773
804.346	4836
804.447	4115
804.548	4097
804.649	4532
804.750	3116
804.851	3911
804.952	3984
805.053	3577
805.154	3025
805.255	4314
805.355	3941
805.456	2495
805.557	3336
805.658	3046
805.758	3754
805.859	3943
805.960	4482
806.061	2579
806.161	3390
806.262	2894
806.362	3182
806.463	3191
806.564	4839
806.664	4678
806.765	3392
806.865	3118
806.966	3023
807.066	3000
807.166	5016
807.267	3807
807.367	2468
807.468	4572
807.568	2168
807.668	4970
807.769	5396
807.869	3713
807.969	3747
808.069	3569
808.170	2800
808.270	2729
808.370	4271
808.470	3968
808.570	3311
808.670	3047
808.770	3117
808.870	2348
808.970	3415
809.070	2431
809.170	2207
809.271	4690
809.370	2828
809.470	3610
809.570	3060
809.670	2310
809.770	3099
809.870	4326
809.970	3652
810.070	3705
810.169	4069
810.269	2367
810.369	4623
810.469	4200
810.568	3236
810.668	2844
810.768	3634
810.867	3202
810.967	2541
811.066	2083
811.166	3458
811.265	4170
811.365	2605
811.464	3143
811.564	3413
811.663	4305
811.763	2610
811.862	3932
811.962	4819
812.061	2876
812.160	3268
812.260	2998
812.359	4077
812.458	3047
812.557	4950
812.657	5089
812.756	4215
812.855	4023
812.954	3576
813.053	3442
813.153	3339
813.252	2867
813.351	3474
813.450	3625
813.549	2998
813.648	3583
813.747	2391
813.846	4884
813.945	3697
814.044	4161
814.143	4468
814.242	4664
814.341	3886
814.439	3885
814.538	4775
814.637	4797
814.736	4130
814.835	6104
814.933	4666
815.032	7539
815.131	9155
815.229	18305
815.328	21636
815.427	15129
815.525	14080
815.624	13608
815.722	13449
815.821	15161
815.919	15378
816.018	13516
816.116	14798
816.215	14698
816.313	16532
816.412	18751
816.510	19111
816.609	20613
816.707	22263
816.805	20333
816.904	20213
817.002	20439
817.100	22379
817.198	22557
817.296	20153
817.395	19879
817.493	18415
817.591	18064
817.689	18005
817.787	18372
817.885	17338
817.983	16795
818.081	19002
818.179	19815
818.277	27703
818.375	22176
818.473	17710
818.571	15557
818.669	17619
818.767	18477
818.865	15970
818.963	14048
819.061	18238
819.158	17118
819.256	21318
819.354	22488
819.452	36838
819.549	25018
819.647	19288
819.745	13719
819.842	15378
819.940	16573
820.038	14096
820.135	13944
820.233	16400
820.330	14213
820.428	13084
820.525	15966
820.623	12829
820.720	13312
820.818	14447
820.915	14955
821.012	13553
821.110	12603
821.207	13707
821.304	12908
821.402	15212
821.499	14378
821.596	12742
821.693	13962
821.791	13998
821.888	12767
821.985	14820
822.082	11335
822.179	13891
822.276	14510
822.373	10443
822.470	12251
822.567	12904
822.664	10246
822.761	13220
822.858	12634
822.955	12141
823.052	10752
823.149	12605
823.246	11904
823.343	9764
823.440	10199
823.536	12783
823.633	11951
823.730	10114
823.827	13024
823.923	11820
824.020	10877
824.117	14320
824.213	12163
824.310	10326
824.407	9008
824.503	12632
824.600	10760
824.696	10332
824.793	13371
824.889	12391
824.986	9268
825.082	7933
825.179	9332
825.275	12359
825.371	13379
825.468	9024
825.564	7028
825.660	13079
825.757	13413
825.853	10391
825.949	9385
826.045	8531
826.142	10165
826.238	10908
826.334	10113
826.430	8853
826.526	6668
826.622	7331
826.718	11522
826.814	12838
826.910	9583
827.006	6911
827.102	6988
827.198	10978
827.294	11159
827.390	10439
827.486	7422
827.582	6082
827.678	7551
827.774	12584
827.869	6739
827.965	8527
828.061	7278
828.157	11294
828.252	10522
828.348	8495
828.444	7330
828.539	8652
828.635	9384
828.731	9506
828.826	7827
828.922	10654
829.017	10742
829.113	11203
829.208	8542
829.304	10149
829.399	13028
829.495	9315
829.590	8328
829.685	8245
829.781	11860
829.876	9724
829.971	4905
830.066	5268
830.162	9538
830.257	13005
830.352	8367
830.447	7563
830.543	8500
830.638	10532
830.733	10713
830.828	8626
830.923	9249
831.018	9496
831.113	9936
831.208	6758
831.303	5290
831.398	5491
831.493	9507
831.588	12329
831.683	7049
831.778	6381
831.873	7207
831.967	10470
832.062	9790
832.157	7308
832.252	7268
832.346	8160
832.441	8659
832.536	7175
832.631	7463
832.725	7119
832.820	6458
832.914	7362
833.009	5437
833.104	4983
833.198	5206
833.293	7443
833.387	9418
833.482	8221
833.576	7547
833.670	9239
833.765	10750
833.859	10418
833.954	8444
834.048	6943
834.142	6127
834.237	5443
834.331	6644
834.425	7218
834.519	6219
834.613	5919
834.708	5847
834.802	5748
834.896	7311
834.990	7029
835.084	4794
835.178	4861
835.272	6382
835.366	8628
835.460	7935
835.554	6391
835.648	4936
835.742	3825
835.836	5367
835.930	5027
836.024	6233
836.117	6699
836.211	5275
836.305	5329
836.399	4893
836.493	5447
836.586	6498
836.680	6129
836.774	3787
836.867	5631
836.961	3918
837.055	4254
837.148	4450
837.242	5812
837.335	6001
837.429	4712
837.522	4522
837.616	4615
837.709	4018
837.803	5356
837.896	7952
837.989	6457
838.083	3544
838.176	3400
838.269	4078
838.363	5890
838.456	4626
838.549	6274
838.642	4113
838.735	5120
838.829	6156
838.922	4783
839.015	4809
839.108	4081
839.201	4361
839.294	6688
839.387	4985
839.480	3688
839.573	4038
839.666	3232
839.759	4876
839.852	4606
839.945	5345
840.038	4089
840.131	3364
840.223	3718
840.316	5205
840.409	5710
840.502	5390
840.594	5504
840.687	2151
840.780	3174
840.873	2842
840.965	3930
841.058	5583
841.150	6207
841.243	2488
841.336	4225
841.428	3198
841.521	4165
841.613	4162
841.706	4873
841.798	3096
841.890	4670
841.983	3683
842.075	4277
842.167	3582
842.260	4515
842.352	5896
842.444	4594
842.537	2914
842.629	3807
842.721	2483
842.813	4068
842.905	3350
842.997	4517
843.090	4701
843.182	3983
843.274	2120
843.366	4286
843.458	5183
843.550	6465
843.642	4099
843.734	5351
843.826	2257
843.918	2988
844.009	4024
844.101	3307
844.193	4032
844.285	4368
844.377	4531
844.469	4196
844.560	2955
844.652	2951
844.744	3795
844.835	3704
844.927	4767
845.019	4176
845.110	3923
845.202	5101
845.293	3599
845.385	2499
845.476	3218
845.568	4485
845.659	3249
845.751	2994
845.842	3912
845.934	4171
846.025	3347
846.116	3284
846.208	3170
846.299	3338
846.390	2100
846.482	2890
846.573	4199
846.664	3796
846.755	2949
846.846	4427
846.937	1098
847.029	3271
847.120	2875
847.211	3634
847.302	4833
847.393	4148
847.484	3363
847.575	1410
847.666	1756
847.757	2802
847.847	3591
847.938	5052
848.029	4795
848.120	3852
848.211	2655
848.302	1687
848.392	2578
848.483	4998
848.574	3701
848.664	4082
848.755	3419
848.846	3498
848.936	4100
849.027	4998
849.118	5072
849.208	6948
849.299	10904
849.389	20075
849.480	39981
849.570	76023
849.661	147292
849.751	195097
849.841	65947
849.932	14640
850.022	8423
850.112	7595
850.203	6085
850.293	3904
850.383	4516
850.474	4429
850.564	3026
850.654	2998
850.744	3353
850.834	3731
850.924	4806
851.014	5959
851.104	3500
851.194	3410
851.284	3504
851.374	4493
851.464	3461
851.554	3865
851.644	4065
851.734	4352
851.824	3842
851.914	3926
852.004	4114
852.094	3086
852.183	3095
852.273	3791
852.363	3629
852.452	5120
852.542	4148
852.632	4788
852.721	5436
852.811	4655
852.901	6650
852.990	7208
853.080	7169
853.169	8054
853.259	9063
853.348	10457
853.438	13655
853.527	18619
853.617	27830
853.706	47549
853.795	82895
853.885	157005
853.974	262910
854.063	451042
854.152	485927
854.242	219669
854.331	78625
854.420	39011
854.509	26125
854.598	20009
854.687	15300
854.777	12761
854.866	9666
854.955	8912
855.044	6792
855.133	7018
855.222	6557
855.311	5410
855.400	5795
855.488	5320
855.577	4541
855.666	4154
855.755	4242
855.844	4547
855.933	4509
856.021	4317
856.110	3938
856.199	3471
856.288	3079
856.376	2930
856.465	2672
856.554	4010
856.642	4049
856.731	5406
856.819	4135
856.908	3538
856.996	2741
857.085	2996
857.173	2369
857.262	2502
857.350	2009
857.438	3071
857.527	3391
857.615	3207
857.703	2826
857.792	2668
857.880	3363
857.968	3095
858.056	3617
858.145	3290
858.233	3094
858.321	2352
858.409	3315
858.497	3127
858.585	2913
858.673	2342
858.761	1807
858.849	1933
858.937	2169
859.025	3383
859.113	3161
859.201	3601
859.289	4723
859.377	3738
859.465	2127
859.552	3202
859.640	2591
859.728	3413
859.816	2406
859.903	2865
859.991	3647
860.079	3837
860.166	2595
860.254	3489
860.342	4115
860.429	3159
860.517	3109
860.604	3575
860.692	3002
860.779	2516
860.867	2549
860.954	2704
861.042	3720
861.129	4302
861.216	3670
861.304	3221
861.391	4240
861.478	2747
861.565	2469
861.653	4002
861.740	1724
861.827	2442
861.914	2874
862.001	2953
862.089	3104
862.176	3212
862.263	3028
862.350	2708
862.437	2448
862.524	2954
862.611	3241
862.698	3325
862.785	4030
862.871	5332
862.958	3632
863.045	4955
863.132	4348
863.219	3481
863.306	2970
863.392	4511
863.479	3634
863.566	3532
863.652	3249
863.739	3251
863.826	4670
863.912	4183
863.999	3988
864.086	4000
864.172	5133
864.259	6148
864.345	5360
864.432	6230
864.518	5739
864.604	5603
864.691	5888
864.777	6939
864.863	8663
864.950	12319
865.036	16130
865.122	27091
865.209	26107
865.295	25079
865.381	23997
865.467	25822
865.553	29686
865.639	38399
865.726	58134
865.812	97042
865.898	155351
865.984	228220
866.070	369876
866.156	308076
866.242	118856
866.328	51885
866.414	33801
866.499	28029
866.585	24398
866.671	22756
866.757	22538
866.843	20305
866.928	17589
867.014	18542
867.100	18034
867.186	18071
867.271	16966
867.357	17387
867.442	16497
867.528	16706
867.614	15914
867.699	17586
867.785	17012
867.870	16694
867.956	17088
868.041	16859
868.127	16754
868.212	15709
868.297	15059
868.383	16359
868.468	15211
868.553	16315
868.639	15231
868.724	15499
868.809	15645
868.894	13768
868.979	14749
869.065	14706
869.150	12150
869.235	14727
869.320	15166
869.405	12354
869.490	15427
869.575	12965
869.660	10982
869.745	16312
869.830	14672
869.915	12213
870.000	12286
870.085	11983
870.169	16076
870.254	14549
870.339	10658
870.424	12654
870.509	13260
870.593	15866
870.678	13604
870.763	11297
870.847	11074
870.932	15045
871.016	13700
871.101	10748
871.186	13520
871.270	15398
871.355	9656
871.439	12959
871.523	14742
871.608	10371
871.692	11593
871.777	14443
871.861	12396
871.945	11577
872.030	12461
872.114	11479
872.198	10895
872.282	11340
872.367	10689
872.451	11210
872.535	11262
872.619	12317
872.703	10150
872.787	12691
872.871	11479
872.955	8450
873.039	8601
873.123	13534
873.207	12034
873.291	7731
873.375	10324
873.459	12515
873.543	10280
873.627	10699
873.711	10013
873.794	12408
873.878	9658
873.962	8389
874.045	9292
874.129	9619
874.137	9733
874.213	10874
874.245	10358
874.296	9534
874.352	8468
874.380	7947
874.460	9400
874.464	9460
874.547	8926
874.568	9352
874.631	10608
874.676	10518
874.714	10428
874.784	10111
874.798	10056
874.881	8397
874.892	8241
874.965	7255
874.999	8419
875.048	9932
875.107	9821
875.131	9792
875.215	6656
875.215	6656
875.298	7852
875.323	8346
875.381	9595
875.430	10738
875.465	11406
875.538	9807
875.548	9600
875.631	8009
875.646	7697
875.714	6384
875.753	7498
875.798	8727
875.861	9531
875.881	9738
875.964	8106
875.968	8055
876.047	7355
876.076	7868
876.130	8922
876.183	9100
876.213	9149
876.291	10008
876.296	10046
876.379	8084
876.398	7952
876.462	7634
876.506	6930
876.545	6425
876.613	7072
876.628	7218
876.711	8788
876.721	8937
876.794	10009
876.828	9861
876.877	9354
876.935	7819
876.960	7315
877.043	7594
877.043	7597
877.125	8755
877.150	9020
877.208	9074
877.258	7803
877.291	7031
877.365	6906
877.374	6916
877.456	6949
877.472	6875
877.539	6721
877.579	8010
877.622	9256
877.687	8403
877.704	8173
877.787	8116
877.794	8140
877.869	8395
877.901	8349
877.952	7823
878.008	6299
878.034	5791
878.115	6219
878.117	6235
878.199	7353
878.222	7656
878.282	8521
878.329	9048
878.364	9140
878.437	9019
878.447	8946
878.529	6541
878.544	6474
878.611	6853
878.651	7354
878.694	8072
878.758	8198
878.776	8182
878.858	9090
878.865	9000
878.941	6882
878.972	5962
879.023	5121
879.078	6782
879.105	7716
879.185	8646
879.187	8657
879.269	8789
879.292	8809
879.351	8513
879.399	7574
879.433	6854
879.506	7581
879.516	7754
879.598	7485
879.613	7425
879.680	7152
879.720	7900
879.762	8735
879.827	9126
879.844	9128
879.926	8718
879.933	8762
880.007	9565
880.040	10067
880.089	10922
880.147	13581
880.171	14998
880.253	22401
880.254	22446
880.335	29583
880.360	32403
880.417	44209
880.467	62009
880.499	72614
880.574	78109
880.580	76417
880.662	32476
880.680	26263
880.744	13566
880.787	9417
880.825	9007
880.893	9168
880.907	9024
880.989	7510
881.000	7550
881.070	9173
881.106	9104
881.152	8021
881.213	6661
881.233	6492
881.315	7469
881.319	7462
881.396	7732
881.426	7766
881.478	7654
881.532	8836
881.559	9299
881.639	7545
881.641	7496
881.722	6689
881.745	6648
881.803	7521
881.852	7956
881.885	7701
881.958	6523
881.966	6502
882.047	6943
882.064	6953
882.129	6084
882.171	5590
882.210	5384
882.277	5461
882.291	5644
882.372	7734
882.383	7766
882.454	8533
882.489	8991
882.535	8732
882.596	8786
882.616	8724
882.697	7101
882.702	7022
882.778	5064
882.808	4630
882.859	4924
882.914	5139
882.940	5400
883.020	6095
883.021	6109
883.102	7819
883.127	8305
883.183	9433
883.233	9365
883.264	7934
883.339	5290
883.345	5241
883.426	4373
883.445	4368
883.507	5146
883.551	5699
883.587	6441
883.657	8080
883.668	8237
883.749	8348
883.763	8309
883.830	6264
883.869	5316
883.910	5212
883.975	5303
883.991	5552
884.072	7119
884.081	7248
884.152	8622
884.187	9134
884.233	9339
884.292	8979
884.314	8065
884.394	5071
884.398	4927
884.475	4147
884.504	3985
884.555	4359
884.610	4763
884.636	5337
884.716	7078
884.716	7098
884.797	9631
884.821	10049
884.877	8798
884.927	7746
884.958	7118
885.033	5608
885.038	5534
885.118	4417
885.139	4207
885.199	4985
885.244	5623
885.279	6449
885.350	8108
885.359	8288
885.439	9889
885.456	9893
885.520	7617
885.561	6810
885.600	6456
885.667	5690
885.680	5834
885.760	6801
885.773	6847
885.840	5137
885.878	4493
885.920	4950
885.984	5626
886.000	5834
886.080	6783
886.089	6866
886.160	7407
886.195	7593
886.240	7167
886.300	6522
886.320	6665
886.400	7533
886.406	7552
886.480	5889
886.511	5359
886.560	5699
886.616	5781
886.640	5583
886.720	5456
886.722	5441
886.800	5470
886.827	5539
886.879	6172
886.932	6720
886.959	7198
887.038	8638
887.039	8639
887.119	7510
887.143	7307
887.198	7520
887.248	7531
887.278	7176
887.354	6342
887.358	6367
887.437	6579
887.459	6727
887.517	7247
887.564	7286
887.596	6619
887.669	5313
887.676	5222
887.755	4186
887.774	3921
887.835	4630
887.880	5244
887.914	5583
887.985	6091
887.994	6418
888.073	9415
888.090	9975
888.153	10285
888.195	10404
888.232	8710
888.300	5742
888.311	5735
888.391	5580
888.405	5548
888.470	4943
888.510	4603
888.549	4940
888.615	5503
888.628	5945
888.708	8433
888.720	8815
888.787	8099
888.825	7633
888.866	6421
888.930	4609
888.945	4905
889.024	6447
889.035	6639
889.103	7638
889.140	8116
889.182	7100
889.245	5692
889.261	5976
889.340	7218
889.349	7355
889.419	6458
889.454	5993
889.498	5756
889.559	5443
889.577	5700
889.656	6799
889.664	6903
889.735	7177
889.768	7286
889.814	7078
889.873	6765
889.978	5406
890.083	6445
890.187	7261
890.292	7565
890.397	5997
890.501	5914
890.606	4896
890.710	6052
890.815	9172
890.919	6468
891.024	7500
891.128	5895
891.233	5464
891.337	8224
891.442	8744
891.546	6377
891.650	5575
891.755	5445
891.859	7895
891.963	8426
892.068	6732
892.172	5519
892.276	4081
892.380	5772
892.484	9342
892.589	9819
892.693	8092
892.797	4813
892.901	3917
893.005	4031
893.109	10072
893.213	8938
893.317	6450
893.421	4319
893.525	3646
893.629	5028
893.733	7841
893.837	5327
893.941	5819
894.045	4291
894.148	3564
894.252	4729
894.356	7945
894.460	8986
894.564	5841
894.667	5662
894.771	3445
894.875	3606
894.978	5270
895.082	6381
895.186	6924
895.289	5655
895.393	5351
895.496	7679
895.600	5345
895.703	3445
895.807	5114
895.910	5304
896.014	6368
896.117	4263
896.221	5719
896.324	6772
896.427	4341
896.531	3348
896.634	5034
896.737	5096
896.840	5932
896.944	7149
897.047	8249
897.150	5477
897.253	4396
897.356	3286
897.460	3430
897.563	4121
897.666	7852
897.769	7245
897.872	4038
897.975	4576
898.078	5059
898.181	4071
898.284	4879
898.387	6881
898.490	7277
898.593	4902
898.695	4358
898.798	4649
898.901	4010
899.004	4955
899.107	5878
899.209	5013
899.312	7993
899.415	4237
899.518	3587
899.620	3193
899.723	4745
899.826	4895
899.928	4114
900.031	5787
900.133	6793
900.236	3624
900.338	2908
900.441	3931
900.543	4787
900.646	5476
900.748	4734
900.851	7021
900.953	4391
901.055	3596
901.158	4532
901.260	3539
901.362	2941
901.465	3553
901.567	5698
901.669	6289
901.771	4774
901.873	4802
901.976	4018
902.078	4390
902.180	3197
902.282	3698
902.384	5410
902.486	7648
902.588	5641
902.690	3420
902.792	3167
902.894	4666
902.996	6579
903.098	5806
903.200	3855
903.302	2904
903.404	4275
903.505	3284
903.607	4123
903.709	7385
903.811	6693
903.913	3990
904.014	2543
904.116	2750
904.218	2961
904.319	4688
904.421	7945
904.523	6122
904.624	4488
904.726	3161
904.827	3231
904.929	4190
905.030	4041
905.132	7259
905.233	5725
905.335	3775
905.436	3415
905.537	2963
905.639	3873
905.740	3951
905.841	7319
905.943	5456
906.044	4697
906.145	3049
906.247	3452
906.348	3643
906.449	5339
906.550	5197
906.651	4069
906.752	3783
906.854	3730
906.955	3340
907.056	3473
907.157	6578
907.258	5864
907.359	3050
907.460	2481
907.561	1962
907.662	3390
907.762	3308
907.863	5592
907.964	5282
908.065	4326
908.166	3505
908.267	5490
908.367	3122
908.468	3704
908.569	4402
908.670	5988
908.770	4173
908.871	5620
908.971	5602
909.072	3981
909.173	3511
909.273	3468
909.374	5982
909.474	4654
909.575	4093
909.675	4313
909.776	5684
909.876	5112
909.977	5347
910.077	5442
910.177	6294
910.278	4420
910.378	3741
910.478	4010
910.579	5568
910.679	5313
910.779	5556
910.879	6082
910.980	4801
911.080	6366
911.180	4204
911.280	3788
911.380	3397
911.480	3266
911.580	4551
911.680	4961
911.780	5493
911.880	5041
911.980	3342
912.080	3961
912.180	4456
912.280	3696
912.380	3072
912.480	3527
912.580	3797
912.679	4494
912.779	5574
912.879	5264
912.979	4124
913.078	3498
913.178	3000
913.278	3696
913.377	2810
913.477	3503
913.577	3999
913.676	6758
913.776	5381
913.875	4358
913.975	5247
914.074	4890
914.174	5265
914.273	3808
914.373	4315
914.472	4126
914.572	3143
914.671	4247
914.770	3789
914.870	3052
914.969	2949
915.068	5421
915.167	4764
915.267	3944
915.366	4492
915.465	4706
915.564	5214
915.663	4899
915.763	4573
915.862	6160
915.961	5598
916.060	3329
916.159	4365
916.258	3635
916.357	3721
916.456	5233
916.555	4291
916.654	5177
916.752	6023
916.851	6118
916.950	3499
917.049	3501
917.148	4196
917.247	4146
917.345	4308
917.444	3165
917.543	3891
917.642	4862
917.740	5284
917.839	7469
917.937	7413
918.036	6290
918.135	4335
918.233	4694
918.332	4591
918.430	3981
918.529	4166
918.627	5238
918.726	7416
918.824	5182
918.923	4800
919.021	4433
919.119	3304
919.218	4734
919.316	5710
919.414	5159
919.512	6827
919.611	6315
919.709	6189
919.807	6994
919.905	7567
920.003	7466
920.102	7383
920.200	7132
920.298	8628
920.396	7379
920.494	7175
920.592	5964
920.690	6710
920.788	6623
920.886	7295
920.984	8026
921.082	8300
921.180	8867
921.277	8856
921.375	11314
921.473	14517
921.571	13315
921.669	12075
921.766	11067
921.864	13166
921.962	11989
922.060	10936
922.157	11663
922.255	11997
922.352	12573
922.450	13246
922.548	13524
922.645	16281
922.743	21188
922.840	31525
922.938	33254
923.035	30267
923.133	30638
923.230	35245
923.327	41164
923.425	37092
923.522	36234
923.619	33654
923.717	31395
923.814	30699
923.911	29794
924.008	31579
924.106	27908
924.203	29365
924.300	30483
924.397	30244
924.494	29843
924.591	28323
924.688	28765
924.786	29510
924.883	30894
924.979	30353
925.077	28993
925.173	27237
925.270	30213
925.367	29299
925.464	31907
925.561	32406
925.658	32669
925.755	28368
925.852	33171
925.948	29697
926.045	29988
926.142	30926
926.239	30697
926.335	24637
926.432	29688
926.529	30978
926.625	32630
926.722	25462
926.818	27245
926.915	29783
927.011	27331
927.108	26888
927.204	28221
927.301	24571
927.397	29666
927.494	31012
927.590	21230
927.687	25001
927.783	31090
927.879	29221
927.976	24861
928.072	23344
928.168	27734
928.264	26251
928.361	25728
928.457	28825
928.553	22876
928.649	24439
928.745	25523
928.841	24008
928.937	25521
929.033	24871
929.129	24717
929.225	28845
929.321	23234
929.417	22260
929.513	27324
929.609	22473
929.705	23759
929.801	25777
929.897	21206
929.993	21839
930.089	23768
930.184	20698
930.280	23967
930.376	28398
930.471	21082
930.567	18979
930.663	22459
930.758	19619
930.854	21936
930.950	21440
931.045	19198
931.141	21018
931.236	27445
931.332	21676
931.427	18873
931.523	25585
931.618	22051
931.714	15647
931.809	20259
931.905	23663
932.000	16087
932.095	17200
932.191	24375
932.286	26376
932.381	20358
932.476	16594
932.572	20466
932.667	17240
932.762	18209
932.857	21489
932.952	24451
933.047	19261
933.142	16973
933.237	20838
933.332	22017
933.427	22560
933.522	18083
933.617	16768
933.712	19021
933.807	23490
933.902	24230
933.997	24024
934.092	17046
934.187	19485
934.282	19688
934.376	20967
934.471	22848
934.566	16653
934.661	17918
934.755	21396
934.850	21875
934.945	17063
935.039	16255
935.134	13948
935.228	18826
935.323	26403
935.417	16140
935.512	13237
935.606	15025
935.701	19681
935.795	21139
935.890	18789
935.984	15038
936.079	14585
936.173	17490
936.267	15505
936.362	14970
936.456	18887
936.550	22009
936.644	18315
936.738	13975
936.833	14324
936.927	11584
937.021	15669
937.115	18513
937.209	18641
937.303	15717
937.397	13374
937.491	16160
937.585	18477
937.679	17090
937.773	13993
937.867	13222
937.961	13054
938.055	20085
938.149	16418
938.243	12019
938.337	10879
938.430	14173
938.524	20335
938.618	14884
938.712	12499
938.805	15516
938.899	18493
938.993	20599
939.086	12652
939.180	11437
939.274	15249
939.367	17292
939.461	17407
939.554	13653
939.648	12176
939.741	12570
939.835	16133
939.928	19727
940.022	17972
940.115	14852
940.208	17268
940.302	20049
940.395	19302
940.488	13763
940.582	13196
940.675	11715
940.768	13328
940.861	17231
940.954	18895
941.048	10796
941.141	10656
941.234	13180
941.327	13482
941.420	15630
941.513	16202
941.606	12500
941.699	13648
941.792	17315
941.885	15182
941.978	15241
942.071	14390
942.164	11627
942.257	10933
942.349	13431
942.442	15270
942.535	10243
942.628	11443
942.721	13813
942.813	13207
942.906	13671
942.999	11860
943.091	10958
943.184	11641
943.277	12487
943.369	8758
943.462	9512
943.554	12000
943.647	12980
943.739	14634
943.832	15329
943.924	7566
944.017	9939
944.109	9783
944.201	11099
944.294	11400
944.386	11793
944.478	10755
944.571	10058
944.663	10432
944.755	12649
944.847	13626
944.940	11860
945.032	7781
945.124	8497
945.216	12278
945.308	11939
945.400	12298
945.492	10969
945.584	13633
945.676	14508
945.768	12112
945.860	13529
945.952	15138
946.044	12065
946.136	10594
946.228	9787
946.320	10119
946.412	12900
946.503	14422
946.595	13366
946.687	9099
946.779	8214
946.870	9420
946.962	9460
947.054	9812
947.145	11493
947.237	9296
947.329	11360
947.420	11693
947.512	9621
947.603	7514
947.695	9042
947.786	7997
947.878	8968
947.969	11634
948.061	13079
948.152	10071
948.243	7647
948.335	7778
948.426	8752
948.517	10729
948.609	11643
948.700	11107
948.791	9834
948.882	7010
948.973	8189
949.065	10356
949.156	8909
949.247	7404
949.338	8364
949.429	6710
949.520	8129
949.611	9346
949.702	11153
949.793	8636
949.884	10090
949.975	7854
950.066	5966
950.157	7731
950.247	7513
950.338	7491
950.429	7663
950.520	8268
950.611	6617
950.701	10173
950.792	12135
950.883	9807
950.973	9284
951.064	10214
951.155	10513
951.245	10717
951.336	10158
951.427	12071
951.517	13063
951.608	9926
951.698	8535
951.788	6523
951.879	6660
951.969	7735
952.060	7512
952.150	9031
952.240	11517
952.331	9165
952.421	9958
952.511	7281
952.602	6126
952.692	5544
952.782	6335
952.872	7410
952.962	9659
953.052	7831
953.143	7786
953.233	7389
953.323	8690
953.413	10576
953.503	9870
953.593	8996
953.683	8606
953.773	6576
953.863	6668
953.953	7038
954.042	9203
954.132	9819
954.222	9206
954.312	7349
954.402	8541
954.492	7380
954.581	8913
954.671	8222
954.761	8478
954.850	7948
954.940	5213
955.030	5950
955.119	5666
955.209	6896
955.298	8197
955.388	8978
955.477	9323
955.567	5010
955.656	6508
955.746	6358
955.835	5454
955.925	5992
956.014	8639
956.103	10437
956.193	11542
956.282	9572
956.371	7782
956.461	8688
956.550	8080
956.639	7097
956.728	7236
956.817	7791
956.906	8001
956.995	9084
957.085	7354
957.174	7423
957.263	6103
957.352	7028
957.441	7741
957.530	7113
957.619	6636
957.708	7147
957.796	6088
957.885	6592
957.974	6623
958.063	6915
958.152	4916
958.241	5717
958.329	6039
958.418	5910
958.507	7862
958.596	9015
958.684	6088
958.773	7379
958.861	5208
958.950	4832
959.039	5501
959.127	6782
959.216	7969
959.304	6166
959.393	6824
959.481	6546
959.570	5528
959.658	3968
959.746	5513
959.835	6774
959.923	6096
960.011	4189
960.100	7038
960.188	7378
960.276	6204
960.365	5346
960.453	5375
960.541	4644
960.629	5988
960.717	4639
960.805	3387
960.893	5684
960.981	7094
961.069	8944
961.158	9897
961.245	10317
961.333	8668
961.421	6415
961.509	6650
961.597	6322
961.685	6263
961.773	6334
961.861	7254
961.949	8932
962.036	5458
962.124	5692
962.212	5005
962.299	5366
962.387	4623
962.475	5718
962.562	5972
962.650	7492
962.738	6355
962.825	5070
962.913	4965
963.000	5867
963.088	7535
963.175	5549
963.263	4730
963.350	5710
963.438	5405
963.525	4898
963.612	5596
963.700	5276
963.787	7596
963.874	6515
963.962	5188
964.049	4688
964.136	4649
964.223	4548
964.310	5095
964.398	4635
964.485	5766
964.572	6143
964.659	6397
964.746	5342
964.833	4555
964.920	4782
965.007	5667
965.094	4866
965.181	5913
965.268	5797
965.355	5326
965.441	4980
965.528	5680
965.615	7183
965.702	5464
965.789	6491
965.875	6634
965.962	6232
966.049	6754
966.136	8260
966.222	8413
966.309	9880
966.395	9386
966.482	7620
966.569	5926
966.655	7094
966.742	6802
966.828	5415
966.915	4549
967.001	4759
967.087	3399
967.174	4796
967.260	5290
967.347	5547
967.433	5871
967.519	7239
967.605	6426
967.692	6529
967.778	6569
967.864	5314
967.950	5685
968.036	3884
968.123	5657
968.209	5564
968.295	3638
968.381	6195
968.467	6214
968.553	4110
968.639	7100
968.725	6511
968.811	11207
968.897	8735
968.983	5850
969.069	3843
969.154	4233
969.240	4560
969.326	3303
969.412	4433
969.497	4535
969.583	4504
969.669	6070
969.755	6558
969.840	6748
969.926	11677
970.012	13607
970.097	19117
970.183	14474
970.268	7886
970.354	5690
970.439	5532
970.525	6461
970.610	4963
970.696	7573
970.781	5037
970.866	3845
970.952	5668
971.037	5008
971.122	6016
971.208	5764
971.293	4996
971.378	4297
971.463	4691
971.549	5001
971.634	4349
971.719	5636
971.804	4437
971.889	4999
971.974	5211
972.059	4939
972.144	5199
972.229	5349
972.314	5038
972.399	4395
972.484	4475
972.569	4795
972.654	4106
972.739	5622
972.824	4315
972.908	3785
972.993	3855
973.078	4748
973.163	5230
973.247	5647
973.332	4229
973.417	6033
973.501	3764
973.586	5835
973.671	5144
973.755	4866
973.840	6369
973.924	7538
974.009	9030
974.093	8590
974.178	7829
974.262	6322
974.346	5706
974.431	5889
974.515	5301
974.600	6461
974.684	5838
974.768	4549
974.852	6845
974.937	4585
975.021	6375
975.105	5946
975.189	4713
975.273	5241
975.358	4117
975.442	4430
975.526	5511
975.610	4510
975.694	5070
975.778	5646
975.862	5288
975.946	3301
976.030	6991
976.114	4516
976.198	4572
976.281	5286
976.365	5537
976.449	5359
976.533	4981
976.617	4522
976.700	4376
976.784	4187
976.868	3732
976.951	4905
977.035	4228
977.119	5020
977.202	4023
977.286	6195
977.369	7268
977.453	11261
977.536	9500
977.620	8623
977.703	7206
977.787	6095
977.870	6779
977.953	6318
978.037	3905
978.120	5755
978.203	5629
978.287	7151
978.370	6301
978.453	4987
978.536	4771
978.620	5600
978.703	5286
978.786	4725
978.869	3493
978.952	4462
979.035	6658
979.118	5637
979.201	4372
979.284	5768
979.367	5027
979.450	6189
979.533	4317
979.616	5475
979.699	5326
979.782	5382
979.865	5640
979.948	4774
980.030	4527
980.113	5614
980.196	3756
980.279	5838
980.361	5086
980.444	6143
980.526	7205
980.609	9686
980.692	12015
980.774	10224
980.857	7051
980.939	7878
981.022	6824
981.104	6742
981.187	6286
981.269	6781
981.352	6221
981.434	5890
981.516	5437
981.599	6429
981.681	6685
981.763	6352
981.846	6177
981.928	7080
982.010	5804
982.092	5567
982.174	6840
982.256	5867
982.339	6265
982.421	5842
982.503	5048
982.585	4583
982.667	5425
982.749	5787
982.831	5112
982.913	5185
982.995	6602
983.077	6989
983.158	7671
983.240	6450
983.322	8806
983.404	12414
983.486	11293
983.568	10157
983.649	8414
983.731	9343
983.813	7470
983.894	7574
983.976	7730
984.058	7755
984.139	7956
984.221	5984
984.302	7501
984.384	7138
984.465	6513
984.547	7091
984.628	7141
984.710	9168
984.791	7201
984.872	8307
984.954	7378
985.035	8498
985.116	6925
985.198	6941
985.279	9039
985.360	7503
985.441	7056
985.522	8860
985.604	7691
985.685	5232
985.766	7679
985.847	8409
985.928	7160
986.009	7146
986.090	7374
986.171	7826
986.252	7431
986.333	8180
986.414	7983
986.495	8037
986.576	9622
986.656	8588
986.737	9092
986.818	8893
986.899	7786
986.980	8207
987.060	9473
987.141	8088
987.222	9863
987.302	11377
987.383	11510
987.464	10642
987.544	10049
987.625	9584
987.705	11970
987.786	11741
987.866	9869
987.947	10212
988.027	10817
988.108	9824
988.188	9297
988.268	9068
988.349	9754
988.429	8967
988.509	8939
988.589	9403
988.670	7394
988.750	10425
988.830	8010
988.910	9652
988.990	9232
989.070	8864
989.151	8656
989.231	8053
989.311	8146
989.391	7092
989.471	8160
989.551	8464
989.631	7123
989.711	8822
989.791	7476
989.870	7813
989.950	8881
990.030	8637
990.110	7246
990.190	6014
990.269	6961
990.349	7601
990.429	8117
990.509	6408
990.588	6003
990.668	8132
990.747	7809
990.827	7022
990.907	7132
990.986	7605
991.066	6992
991.145	5760
991.225	7477
991.304	7306
991.383	7459
991.463	6860
991.542	7308
991.622	6450
991.701	6019
991.780	6261
991.859	6213
991.939	6485
992.018	6388
992.097	7029
992.176	6777
992.256	5287
992.335	6780
992.414	7099
992.493	4501
992.572	5277
992.651	7842
992.730	5830
992.809	6210
992.888	5602
992.967	6112
993.046	5806
993.125	4227
993.203	6103
993.282	6656
993.361	5769
993.440	6027
993.519	5645
993.597	4763
993.676	6134
993.755	6557
993.834	6490
993.912	4348
993.991	5543
994.069	3711
994.148	4386
994.226	4082
994.305	4959
994.384	4871
994.462	6667
994.540	3717
994.619	4358
994.697	5080
994.776	5450
994.854	5411
994.932	4629
995.011	4286
995.089	4576
995.167	4076
995.245	4695
995.324	4188
995.402	5079
995.480	4630
995.558	4643
995.636	4072
995.714	4642
995.792	5057
995.870	3392
995.948	3449
996.026	2940
996.104	2975
996.182	4353
996.260	2842
996.338	3829
996.416	3557
996.494	5077
996.572	4781
996.649	2441
996.727	3130
996.805	5207
996.883	3639
996.960	3581
997.038	4340
997.116	3439
997.193	3163
997.271	3019
997.348	2667
997.426	3446
997.504	3390
997.581	4830
997.658	3097
997.736	1311
997.813	2629
997.891	5020
997.968	2920
998.046	3154
998.123	3218
998.200	4963
998.277	3246
998.355	4098
998.432	1837
998.509	2720
998.586	3408
998.663	3515
998.741	1855
998.818	2300
998.895	2602
998.972	3917
999.049	4532
999.126	2587
999.203	2911
999.280	2631
999.357	3223
999.434	2361
999.511	2877
999.587	2847
999.664	1303
999.741	3977
999.818	2924
999.895	2273
999.971	2216
1000.048	1692
1000.125	2764
1000.202	3102
1000.278	3064
1000.355	2896
1000.431	1983
1000.508	1036
1000.584	1033
1000.661	1946
1000.738	1686
1000.814	1741
1000.890	3564
1000.967	2889
1001.043	2472
1001.120	1584
1001.196	2100
1001.272	1542
1001.349	1798
1001.425	3200
1001.501	1961
1001.577	2168
1001.654	3353
1001.730	1880
1001.806	1851
1001.882	2796
1001.958	2776
1002.034	2446
1002.110	1651
1002.186	1638
1002.262	1239
1002.338	1305
1002.414	3388
1002.490	2228
1002.566	1506
1002.642	819
1002.718	1721
1002.794	2126
1002.870	2123
1002.945	1780
1003.021	1384
1003.097	1264
1003.173	1737
1003.248	1520
1003.324	2131
1003.400	1345
1003.475	877
1003.551	2511
1003.626	860
1003.702	941
1003.777	1185
1003.853	1346
1003.928	1283
1004.004	1220
1004.079	1924
1004.155	2463
1004.230	823
1004.305	2889
1004.381	1431
1004.456	978
1004.531	902
1004.607	889
1004.682	598
1004.757	1089
1004.832	1453
1004.907	528
1004.982	1651
1005.057	2192
1005.133	911
1005.208	976
1005.283	-65
1005.358	1596
1005.433	118
1005.508	1394
1005.583	404
1005.657	1311
1005.732	1586
1005.807	626
1005.882	1051
1005.957	881
1006.032	928
1006.106	1135
1006.181	2021
1006.256	1612
1006.331	478
1006.405	651
1006.480	968
1006.554	518
1006.629	628
1006.704	889
1006.778	643
1006.853	725
1006.927	531
1007.002	1097
1007.076	884
1007.150	691
1007.225	444
1007.299	601
1007.373	578
1007.448	866
1007.522	1352
1007.596	1249
1007.671	102
1007.745	1006
1007.819	348
1007.893	86
1007.967	721
1008.041	0
1008.115	1808
1008.190	570
1008.264	753
1008.338	-165
1008.412	27
1008.486	703
1008.560	628
1008.633	382
1008.707	1055
1008.781	1834
1008.855	1533
1008.929	535
1009.003	-285
1009.076	-110
1009.150	345
1009.224	403
1009.298	294
1009.371	-174
1009.445	723
1009.519	230
1009.592	-1283
1009.666	352
1009.739	-302
1009.813	5
1009.886	1035
1009.960	-1161
1010.033	785
1010.107	528
1010.180	-241
1010.253	-17
1010.327	-320
1010.400	-524
1010.473	201
1010.547	934
1010.620	-499
1010.693	177
1010.766	-378
1010.840	460
1010.913	860
1010.986	-431
1011.059	-154
1011.132	340
1011.205	587
1011.278	-395
1011.351	-444
1011.424	128
1011.497	-457
1011.570	433
1011.643	-528
1011.716	403
1011.789	-210
1011.862	-194
1011.934	238
1012.007	-473
1012.080	272
1012.153	18
1012.225	-95
1012.298	-316
1012.371	158
1012.443	-201
1012.516	-1143
1012.588	679
1012.661	182
1012.733	-978
1012.806	484
1012.879	-171
1012.951	-46
1013.023	-497
1013.096	-318
1013.168	-339
1013.241	-80
1013.313	-776
1013.385	-989
1013.458	-470
1013.530	423
1013.602	-829
1013.674	270
1013.746	-608
1013.819	-502
1013.891	320
1013.963	1092
1014.035	438
1014.107	699
1014.179	-377
1014.251	-769
1014.323	-1291
1014.395	-915
1014.467	-661
1014.539	-100
1014.611	-697
1014.683	-459
1014.754	-733
1014.826	-525
1014.898	-124
1014.970	-992
1015.042	-228
1015.113	277
1015.185	122
1015.257	-1166
1015.328	541
1015.400	-447
1015.471	14
1015.543	-1638
1015.615	492
1015.686	-99
1015.757	-9
1015.829	-969
1015.901	-504
1015.972	-278
1016.043	-756
1016.115	163
1016.186	-150
1016.257	-542
1016.328	-1051
1016.400	-388
1016.471	-1201
1016.542	-721
1016.613	-743
1016.685	-475
1016.756	-294
1016.827	-148
1016.898	-1248
1016.969	-359
1017.040	-828
1017.111	-1223
1017.182	-903
1017.253	-619
1017.324	-551
1017.395	-759
1017.466	-951
1017.537	-1709
1017.608	-847
1017.678	-1553
1017.749	-618
1017.820	-794
1017.891	-1528
1017.961	-1496
1018.032	-715
1018.103	-374
1018.173	-505
1018.244	-1498
1018.315	-153
1018.385	-967
1018.456	-1067
1018.526	-1733
1018.597	-818
1018.667	-117
1018.738	-1150
1018.808	-1357
1018.878	-714
1018.949	-786
1019.019	-926
1019.089	-1456
1019.160	-1270
1019.230	-1814
1019.300	-739
1019.371	-2101
1019.441	175
1019.511	-1302
1019.581	-1479
1019.651	-1312
1019.721	-679
1019.791	-1101
1019.861	-989
1019.931	-806
1020.001	-771
1020.071	-1888
1020.141	-951
1020.211	-290
1020.281	-1191
1020.351	-1713
1020.421	-1881
1020.491	-1582
1020.560	-1293
1020.630	-1268
1020.700	-1242
1020.770	-1058
1020.839	-1177
1020.909	-879
1020.979	-885
1021.048	-1897
1021.118	-1608
1021.187	-995
1021.257	-1811
1021.326	-390
1021.396	-1313
1021.465	-433
1021.535	-1018
1021.604	-1963
1021.674	-1171
1021.743	-847
1021.812	-2051
1021.882	-1498
1021.951	-603
1022.020	-577
1022.089	-994
1022.159	-1023
1022.228	-512
1022.297	-625
1022.366	-1629
1022.435	-1291
1022.504	-1427
1022.573	-934
1022.642	-941
1022.711	-1418
1022.781	-826
1022.849	-614
1022.918	-860
1022.987	-1006
1023.056	-994
1023.125	-1070
1023.194	-222
1023.263	-251
1023.331	-920
1023.400	-1599
1023.469	-1378
1023.538	-1242
1023.606	-1546
1023.675	-1516
1023.744	-1175
1023.812	-1381
1023.881	-1210
1023.949	-767
1024.018	-1076
1024.086	-1907
1024.155	-1152
1024.223	-2107
1024.292	-484
1024.360	-1619
1024.429	-1218
1024.497	-1392
1024.565	-836
1024.634	-1962
1024.702	-894
1024.770	-1013
1024.838	-2144
1024.907	-917
1024.975	-2359
1025.043	-1278
1025.111	-2457
1025.179	-1052
1025.247	-1727
1025.315	-1485
1025.383	-1584
1025.451	-1338
1025.519	-1127
1025.587	-1527
1025.655	-1737
1025.723	-2061
1025.791	-1169
1025.859	-1355
1025.927	-1229
1025.995	-1856
1026.062	-957
1026.130	-1590
1026.198	-1784
1026.266	-1817
1026.333	-1288
1026.401	-1021
1026.469	-1598
1026.536	-1574
1026.604	-1228
1026.671	-1763
1026.739	-1369
1026.806	-2104
1026.874	-648
1026.941	-1267
1027.009	-1690
1027.076	-2127
1027.144	-699
1027.211	-2396
1027.278	-1932
1027.345	-1270
1027.413	-1592
1027.480	-1911
1027.547	-1026
1027.614	-1279
1027.682	-1690
1027.749	-1716
1027.816	-1776
1027.883	-1245
1027.950	-1329
1028.017	-1288
1028.084	-1009
1028.151	-2229
1028.218	-1329
1028.285	-1508
1028.352	-1659
1028.419	-1778
1028.486	-1074
1028.553	-1355
1028.619	-1742
1028.686	-1870
1028.753	-2087
1028.820	-2171
1028.886	-1536
1028.953	-1727
1029.020	-1364
1029.086	-2219
1029.153	-1905
1029.220	-1380
1029.286	-1405
1029.353	-1455
1029.419	-1081
1029.486	-2088
1029.552	-1464
1029.619	-1740
1029.685	-1253
1029.751	-1457
1029.818	-642
1029.884	-1991
1029.951	20
1030.017	-1620
1030.083	-2504
1030.149	-1538
1030.216	-2000
1030.282	-1189
1030.348	-1714
1030.414	-1588
1030.480	-1515
1030.546	-2015
1030.612	-1840
1030.678	-2478
1030.744	-2072
1030.810	-1820
1030.876	-1089
1030.942	-1685
1031.008	-945
1031.074	-1517
1031.140	-1601
1031.206	-1459
1031.272	-1790
1031.337	-1402
1031.403	-2259
1031.469	-1300
1031.534	-1243
1031.600	-884
1031.666	-1558
1031.731	-953
1031.797	-1346
1031.863	-698
1031.928	-1934
1031.994	-2153
1032.059	-654
1032.125	-2417
1032.190	-1921
1032.256	-1828
1032.321	-1277
1032.386	-1609
1032.452	-595
1032.517	-2096
1032.582	-1286
1032.647	-2208
1032.713	-2087
1032.778	-1627
1032.843	-1548
1032.908	-2104
1032.974	-801
1033.039	-1627
1033.104	-1002
1033.169	-886
1033.234	-1890
1033.299	-534
1033.364	457
1033.429	-265
1033.494	-1086
1033.559	-1639
1033.624	-714
1033.688	-690
1033.753	-1126
1033.818	-92
1033.883	539
1033.948	1465
1034.013	915
1034.077	3885
1034.142	4967
1034.207	6557
1034.271	10436
1034.336	12449
1034.400	8268
1034.465	3801
1034.530	2740
1034.594	727
1034.658	-733
1034.723	-776
1034.787	-561
1034.852	-123
1034.916	-1316
1034.981	-1746
1035.045	-1451
1035.109	-1964
1035.173	-1113
1035.238	-1214
1035.302	-1435
1035.366	-1101
1035.430	-1553
1035.495	-1118
1035.559	-1154
1035.623	-1608
1035.687	-2229
1035.751	-1262
1035.815	-1557
1035.879	-1153
1035.943	-283
1036.007	-1297
1036.071	-1122
1036.135	-2266
1036.198	-1466
1036.262	-2020
1036.326	-896
1036.390	-917
1036.454	54
1036.517	290
1036.581	761
1036.645	1365
1036.709	187
1036.772	-826
1036.836	-909
1036.900	-2095
1036.963	-1669
1037.026	-1001
1037.090	-1651
1037.154	-962
1037.217	-981
1037.280	-1070
1037.344	-1333
1037.407	-1998
1037.471	-443
1037.534	-1149
1037.597	-841
1037.661	-622
1037.724	-974
1037.787	-1627
1037.850	-598
1037.913	-1308
1037.977	-1132
1038.040	-1333
1038.103	-2171
1038.166	-2033
1038.229	-1718
1038.292	-1846
1038.355	-1799
1038.418	-1562
1038.481	-922
1038.544	-1485
1038.607	-1676
1038.670	-1729
1038.732	-1627
1038.795	-2271
1038.858	-1801
1038.921	-1694
1038.984	-1419
1039.046	-1835
1039.109	-1371
1039.172	-1026
1039.234	-1328
1039.297	-1732
1039.360	-2011
1039.422	-1781
1039.485	-1301
1039.547	-1713
1039.610	-1075
1039.672	-2581
1039.734	-1764
1039.797	-2138
1039.859	-1844
1039.922	-1968
1039.984	-1832
1040.046	-1523
1040.109	-1190
1040.171	-2329
1040.233	-2230
1040.295	-1871
1040.358	-1834
1040.420	-1972
1040.482	-1577
1040.544	-2245
1040.606	-2125
1040.668	-1453
1040.730	-1349
1040.792	-2247
1040.854	-1617
1040.916	-1896
1040.978	-1844
1041.040	-1226
1041.102	-1041
1041.164	-987
1041.225	-2333
1041.287	-1602
1041.349	-1666
1041.411	-2109
1041.472	-2534
1041.534	-1929
1041.596	-2853
1041.657	-2355
1041.719	-1283
1041.781	-1862
1041.842	-1858
1041.904	-1257
1041.965	-2269
1042.027	-2368
1042.088	-1666
1042.150	-2140
1042.211	-2418
1042.272	-1819
1042.334	-1923
1042.395	-1593
1042.456	-2287
1042.518	-2027
1042.579	-1299
1042.640	-2289
1042.701	-1729
1042.763	-2882
1042.824	-2126
1042.885	-1377
1042.946	-1980
1043.007	-2395
1043.068	-2706
1043.129	-1647
1043.190	-2195
1043.251	-2396
1043.312	-1753
1043.373	-2344
1043.434	-751
1043.495	-1317
1043.556	-1396
1043.616	-1905
1043.677	-1735
1043.738	-1683
1043.799	-1922
1043.859	-2396
1043.920	-2500
1043.981	-2346
1044.041	-2370
1044.102	-1875
1044.162	-2263
1044.223	-2584
1044.284	-2376
1044.344	-1519
1044.405	-1235
1044.465	-2003
1044.525	-1804
1044.586	-2412
1044.646	-976
1044.707	-1841
1044.767	-1347
1044.827	-1408
1044.887	-2546
1044.948	-624
1045.008	-2458
1045.068	-2753
1045.128	-1261
1045.188	-1849
1045.249	-1059
1045.309	-1620
1045.369	-794
1045.429	-1763
1045.489	-1235
1045.549	-1912
1045.609	-2057
1045.669	-1734
1045.729	-1763
1045.789	-1867
1045.848	-1213
1045.908	-2329
1045.968	-1813
1046.028	-1367
1046.088	-1515
1046.147	-1540
1046.207	-2147
1046.267	-1405
1046.326	-354
1046.386	-1311
1046.446	-1393
1046.505	-1193
1046.565	-1738
1046.624	-1077
1046.684	-1223
1046.743	134
1046.803	-1549
1046.862	-878
1046.922	0
