'Start Wavelength	183.907
'End Wavelength	1046.922
'Gate Delay	5.000
'Gate Width (ms)	1.050
'Laser Output Level	0.000
'X Position	0.000
'Y Position	0.000
'Z Position	0.000
'Grid Point Number	1.000
'Shot Number	100.000
183.907	503.000
183.977	142.000
184.047	569
184.116	489
184.186	338
184.256	-526
184.325	116
184.395	-334
184.465	200
184.534	220
184.604	610
184.674	-225
184.743	216
184.813	148
184.883	-32
184.952	284
185.022	354
185.092	76
185.161	753
185.231	296
185.301	614
185.370	1402
185.440	-245
185.509	367
185.579	524
185.649	51
185.718	954
185.788	-8
185.857	1429
185.927	127
185.996	22
186.066	-49
186.136	606
186.205	-410
186.275	244
186.344	341
186.414	229
186.483	165
186.553	546
186.622	1323
186.692	1323
186.761	-227
186.831	590
186.900	594
186.970	795
187.039	1030
187.109	1234
187.178	781
187.248	887
187.317	421
187.387	436
187.456	404
187.526	1280
187.595	981
187.664	731
187.734	-3
187.803	265
187.873	396
187.942	1931
188.012	1462
188.081	1233
188.150	555
188.220	708
188.289	1332
188.358	809
188.428	814
188.497	1196
188.567	563
188.636	394
188.705	1021
188.775	1059
188.844	782
188.913	1089
188.983	726
189.052	469
189.121	1178
189.191	661
189.260	870
189.329	1734
189.399	944
189.468	1410
189.537	494
189.606	943
189.676	539
189.745	1370
189.814	1250
189.883	1000
189.953	883
190.022	2164
190.091	2721
190.161	3432
190.230	1768
190.299	744
190.368	729
190.437	546
190.507	1014
190.576	893
190.645	1226
190.714	611
190.783	888
190.853	1184
190.922	1670
190.991	910
191.060	923
191.129	1331
191.198	1102
191.268	922
191.337	880
191.406	1351
191.475	550
191.544	404
191.613	800
191.682	733
191.752	1103
191.821	1387
191.890	1244
191.959	1048
192.028	1413
192.097	1648
192.166	961
192.235	1301
192.304	1292
192.373	1496
192.442	84
192.511	1052
192.580	618
192.650	257
192.719	1503
192.788	1389
192.857	1154
192.926	1123
192.995	857
193.064	2552
193.133	2186
193.202	2755
193.271	2766
193.340	2611
193.409	2734
193.478	2899
193.547	3659
193.615	4410
193.684	3258
193.753	3194
193.822	1575
193.891	1591
193.960	1810
194.029	1976
194.098	1629
194.167	2055
194.236	1446
194.305	1399
194.374	1478
194.443	1414
194.512	985
194.580	1920
194.649	1570
194.718	1682
194.787	1447
194.856	1219
194.925	778
194.994	1371
195.062	1761
195.131	1870
195.200	1744
195.269	2503
195.338	1696
195.407	1253
195.475	1747
195.544	2461
195.613	1129
195.682	1935
195.751	2377
195.819	2086
195.888	1126
195.957	3296
196.026	2227
196.094	3178
196.163	2121
196.232	2541
196.301	1552
196.369	2543
196.438	1451
196.507	2158
196.576	1795
196.644	1606
196.713	1876
196.782	1148
196.850	1249
196.919	2027
196.988	1743
197.056	1671
197.125	933
197.194	1824
197.262	1515
197.331	1769
197.400	1470
197.468	1519
197.537	1252
197.606	2442
197.674	3434
197.743	4330
197.812	1655
197.880	3964
197.949	3201
198.017	4146
198.086	2041
198.155	2227
198.223	2457
198.292	4749
198.360	2216
198.429	1919
198.497	2096
198.566	4116
198.635	3429
198.703	3235
198.772	3023
198.840	5758
198.909	4199
198.977	2350
199.046	1722
199.114	3120
199.183	2092
199.251	2192
199.320	1690
199.388	2242
199.457	1204
199.525	1835
199.594	1512
199.662	1840
199.731	1818
199.799	2220
199.867	2338
199.936	1552
200.004	1372
200.073	2846
200.141	1161
200.210	1781
200.278	1432
200.346	2387
200.415	3003
200.483	2757
200.552	2723
200.620	2475
200.688	1789
200.757	1818
200.825	1731
200.893	2702
200.962	1901
201.030	2175
201.098	1841
201.167	2232
201.235	2260
201.303	2664
201.372	2603
201.440	1984
201.508	2215
201.577	2764
201.645	2410
201.713	2031
201.781	1243
201.850	3082
201.918	2165
201.986	2857
202.055	2763
202.123	2470
202.191	1949
202.259	2125
202.327	2387
202.396	2529
202.464	2838
202.532	3468
202.600	5204
202.669	3939
202.737	1978
202.805	2495
202.873	1962
202.941	1996
203.009	2522
203.078	2567
203.146	1817
203.214	2792
203.282	2484
203.350	2918
203.418	2633
203.487	2830
203.555	2204
203.623	3345
203.691	2435
203.759	2484
203.827	2312
203.895	2794
203.963	2686
204.031	2731
204.099	3202
204.168	1815
204.236	2703
204.304	3143
204.372	2094
204.440	3136
204.508	2280
204.576	2507
204.644	2750
204.712	2470
204.780	2564
204.848	3599
204.916	2504
204.984	3170
205.052	2817
205.120	2644
205.188	2882
205.256	3004
205.324	3088
205.392	2893
205.460	2719
205.528	2679
205.596	2239
205.664	2251
205.732	3823
205.799	7535
205.867	7714
205.935	3257
206.003	3348
206.071	3599
206.139	3869
206.207	3042
206.275	2680
206.343	3527
206.411	2729
206.478	3816
206.546	3733
206.614	2870
206.682	2821
206.750	2769
206.818	2877
206.885	3289
206.953	2546
207.021	3377
207.089	2667
207.157	3624
207.225	3357
207.292	3602
207.360	4354
207.428	3574
207.496	3024
207.563	2983
207.631	3283
207.699	3604
207.767	2432
207.834	3440
207.902	3088
207.970	3478
208.038	3103
208.105	4169
208.173	4102
208.241	5632
208.309	4704
208.376	4980
208.444	6268
208.512	4568
208.579	3759
208.647	4350
208.715	3675
208.782	3263
208.850	3921
208.918	4009
208.985	3727
209.053	4757
209.120	3070
209.188	3972
209.256	3730
209.323	4139
209.391	4907
209.459	3944
209.526	4542
209.594	3477
209.661	3775
209.729	4187
209.796	3994
209.864	3726
209.932	3979
209.999	4658
210.067	4114
210.134	4376
210.202	5026
210.269	5382
210.337	4516
210.404	4080
210.472	3885
210.539	3972
210.607	5430
210.674	3969
210.742	4264
210.809	4049
210.877	4924
210.944	5028
211.012	4406
211.079	4966
211.146	4294
211.214	5241
211.281	5364
211.349	5155
211.416	5177
211.484	5796
211.551	4023
211.618	4557
211.686	5249
211.753	4740
211.821	4785
211.888	4806
211.955	4752
212.023	4680
212.090	4951
212.157	5372
212.225	6335
212.292	9221
212.359	14068
212.427	20396
212.494	12024
212.561	7474
212.629	6591
212.696	6859
212.763	5809
212.831	4859
212.898	4123
212.965	4930
213.032	4887
213.100	5778
213.167	5660
213.234	5817
213.301	5271
213.369	5413
213.436	4663
213.503	5341
213.570	5418
213.638	5786
213.705	5324
213.772	4858
213.839	5765
213.906	5797
213.973	6928
214.041	5890
214.108	5650
214.175	5311
214.242	5332
214.309	5706
214.376	6359
214.444	6137
214.511	6101
214.578	5517
214.645	5993
214.712	6702
214.779	6002
214.846	5779
214.913	6687
214.980	6834
215.048	6720
215.115	7047
215.182	6612
215.249	5972
215.316	5760
215.383	5887
215.450	5197
215.517	6109
215.584	5458
215.651	5119
215.718	5497
215.785	6242
215.852	5675
215.919	6901
215.986	5834
216.053	5442
216.120	5545
216.187	6269
216.254	5642
216.321	6038
216.388	5854
216.455	7090
216.522	6544
216.589	7578
216.656	9207
216.722	8922
216.789	7038
216.856	8037
216.923	7314
216.990	7323
217.057	7888
217.124	8418
217.191	8809
217.258	9340
217.324	10619
217.391	9662
217.458	8793
217.525	7747
217.592	7665
217.659	6633
217.725	7307
217.792	8737
217.859	7456
217.926	5922
217.993	6009
218.059	6040
218.126	5766
218.193	5764
218.260	5255
218.327	5046
218.393	5775
218.460	5279
218.527	5392
218.594	6402
218.660	8139
218.727	7750
218.794	5026
218.860	5387
218.927	4670
218.994	5288
219.061	5268
219.127	6594
219.194	7041
219.261	5176
219.327	5166
219.394	5075
219.461	3825
219.527	4640
219.594	6683
219.661	5901
219.727	4664
219.794	5748
219.860	5882
219.927	7074
219.994	7195
220.060	9943
220.127	8355
220.193	8054
220.260	7675
220.326	12126
220.393	14305
220.460	16500
220.526	11542
220.593	10348
220.659	10322
220.726	11698
220.792	18013
220.859	16812
220.925	21452
220.992	23276
221.058	22491
221.125	20312
221.191	15995
221.258	9785
221.324	7792
221.391	7554
221.457	6902
221.524	7397
221.590	9606
221.657	18125
221.723	12073
221.789	13117
221.856	10534
221.922	8337
221.989	6217
222.055	6497
222.121	6487
222.188	7160
222.254	6794
222.321	5110
222.387	4675
222.453	5439
222.520	4996
222.586	5520
222.652	5864
222.719	5516
222.785	5633
222.851	4247
222.918	4962
222.984	6029
223.050	5227
223.116	5199
223.183	5353
223.249	4965
223.315	3576
223.382	5410
223.448	4249
223.514	4635
223.580	4689
223.647	4877
223.713	4592
223.779	4871
223.845	5012
223.911	5941
223.978	3841
224.044	5433
224.110	4246
224.176	5256
224.242	4382
224.309	4527
224.375	4439
224.441	4128
224.507	4653
224.573	5187
224.639	4569
224.705	4438
224.772	4254
224.838	4363
224.904	5441
224.970	4805
225.036	4318
225.102	4970
225.168	4522
225.234	4316
225.300	4298
225.366	4979
225.432	5261
225.499	4549
225.565	5514
225.631	5791
225.697	5830
225.763	7145
225.829	7900
225.895	8880
225.961	10523
226.027	10622
226.093	9914
226.159	13799
226.225	18520
226.291	31356
226.357	33976
226.423	22407
226.489	15850
226.554	12447
226.620	12468
226.686	15632
226.752	21439
226.818	32821
226.884	41858
226.950	35327
227.016	21338
227.082	14548
227.148	12176
227.214	12321
227.279	10466
227.345	9318
227.411	8917
227.477	8790
227.543	11225
227.609	11670
227.674	9233
227.740	8266
227.806	6974
227.872	8257
227.938	7981
228.003	10557
228.069	6920
228.135	6516
228.201	5761
228.267	6295
228.332	7459
228.398	8600
228.464	5796
228.530	5582
228.595	5350
228.661	5705
228.727	8027
228.792	6528
228.858	5495
228.924	6252
228.990	7284
229.055	7117
229.121	7330
229.187	5811
229.252	6013
229.318	5088
229.384	5628
229.449	6321
229.515	5160
229.581	4091
229.646	5899
229.712	6461
229.777	11454
229.843	9701
229.909	9310
229.974	10861
230.040	9163
230.105	8261
230.171	9330
230.236	11684
230.302	13849
230.368	10797
230.433	8221
230.499	8466
230.564	10201
230.630	7777
230.695	6761
230.761	7344
230.826	6154
230.892	9212
230.957	6809
231.023	5603
231.088	6609
231.154	6375
231.219	6438
231.284	9826
231.350	8186
231.415	6133
231.481	6093
231.546	6773
231.612	5280
231.677	5339
231.742	5509
231.808	6221
231.873	5670
231.939	4583
232.004	8523
232.069	7610
232.135	6780
232.200	6395
232.265	4994
232.331	6117
232.396	4772
232.461	5093
232.527	4834
232.592	5308
232.657	4860
232.723	7663
232.788	5982
232.853	5549
232.918	4946
232.984	5505
233.049	4936
233.114	7168
233.179	6121
233.245	9145
233.310	7916
233.375	5650
233.440	5769
233.506	5852
233.571	4386
233.636	5296
233.701	5141
233.766	8015
233.832	7538
233.897	7333
233.962	6326
234.027	6584
234.092	5536
234.157	6173
234.222	6377
234.288	9389
234.353	17198
234.418	14771
234.483	10964
234.548	10150
234.613	9367
234.678	9061
234.743	10647
234.808	19949
234.873	12703
234.938	8688
235.004	8269
235.069	8543
235.134	7414
235.199	8159
235.264	7045
235.329	7204
235.394	7222
235.459	8724
235.524	7714
235.589	7079
235.654	6664
235.719	6911
235.784	6524
235.849	8418
235.913	12212
235.978	12514
236.043	11325
236.108	8035
236.173	8658
236.238	9372
236.303	7151
236.368	8497
236.433	11927
236.498	15944
236.563	15483
236.627	32394
236.692	61809
236.757	47680
236.822	26696
236.887	20893
236.952	16553
237.017	16089
237.081	17871
237.146	24811
237.211	42408
237.276	65384
237.341	71554
237.405	46144
237.470	25994
237.535	18751
237.600	14303
237.664	11903
237.729	11477
237.794	17025
237.859	24328
237.923	16121
237.988	10937
238.053	12909
238.118	12308
238.182	25107
238.247	16213
238.312	13786
238.376	9782
238.441	9851
238.506	9159
238.570	6666
238.635	6830
238.700	6825
238.764	7404
238.829	14380
238.893	12937
238.958	10399
239.023	9568
239.087	7957
239.152	8875
239.216	7186
239.281	7872
239.346	7706
239.410	7587
239.475	8503
239.539	23670
239.604	13614
239.668	7595
239.733	6924
239.797	9476
239.862	17312
239.926	18152
239.991	9204
240.055	7784
240.120	7072
240.184	6943
240.249	6024
240.313	5901
240.378	7887
240.442	16395
240.507	17224
240.571	8603
240.635	13076
240.700	11258
240.764	7825
240.829	6422
240.893	5859
240.957	6479
241.022	15219
241.086	17945
241.151	9900
241.215	5919
241.279	10329
241.344	11371
241.408	9906
241.472	10709
241.537	10824
241.601	9592
241.665	9982
241.730	9374
241.794	9284
241.858	9864
241.922	10575
241.987	9417
242.051	8389
242.115	9507
242.179	9506
242.244	8147
242.308	9009
242.372	9935
242.436	10747
242.501	9115
242.565	8163
242.629	7751
242.693	8354
242.757	7704
242.822	9003
242.886	8243
242.950	8643
243.014	8889
243.078	11485
243.142	9845
243.206	8720
243.271	9593
243.335	11281
243.399	17550
243.463	51973
243.527	72321
243.591	25213
243.655	14983
243.719	11074
243.783	11668
243.847	19636
243.911	20845
243.975	23078
244.040	14091
244.104	11191
244.168	9102
244.232	14922
244.296	16514
244.360	17143
244.424	10611
244.488	8922
244.552	8725
244.615	7705
244.679	6961
244.743	10950
244.807	8521
244.871	7058
244.935	7823
244.999	7301
245.063	7803
245.127	9559
245.191	15844
245.255	12253
245.319	12040
245.383	9478
245.446	8596
245.510	8066
245.574	7835
245.638	7823
245.702	9848
245.766	16227
245.829	10826
245.893	10434
245.957	9609
246.021	10754
246.085	9526
246.149	12677
246.212	26099
246.276	28279
246.340	14850
246.404	11384
246.467	14162
246.531	17402
246.595	12206
246.659	11422
246.722	11298
246.786	12054
246.850	14674
246.913	15256
246.977	10054
247.041	10425
247.104	10461
247.168	11736
247.232	24548
247.295	37956
247.359	16757
247.423	13798
247.486	18361
247.550	11576
247.614	11188
247.677	13861
247.741	9180
247.804	9835
247.868	10636
247.932	26238
247.995	32969
248.059	15200
248.122	11019
248.186	14282
248.249	27369
248.313	61554
248.376	54437
248.440	36989
248.503	17652
248.567	16906
248.630	24088
248.694	30229
248.757	39600
248.821	60134
248.884	37208
248.948	43157
249.011	53341
249.075	70338
249.138	52131
249.202	26065
249.265	20370
249.328	21436
249.392	18879
249.455	15940
249.519	14816
249.582	18679
249.645	25874
249.709	19133
249.772	17700
249.835	15688
249.899	15683
249.962	14367
250.025	14838
250.089	32655
250.152	31843
250.215	19502
250.279	16602
250.342	16943
250.405	16348
250.468	17214
250.532	21223
250.595	35578
250.658	97265
250.721	99385
250.785	46409
250.848	28142
250.911	20427
250.974	20138
251.038	30137
251.101	40185
251.164	25192
251.227	27416
251.290	26829
251.354	46039
251.417	117975
251.480	93006
251.543	101667
251.606	169110
251.669	117366
251.732	66036
251.795	65771
251.859	73558
251.922	121433
251.985	63170
252.048	34084
252.111	27050
252.174	28388
252.237	49787
252.300	74217
252.363	100139
252.426	126526
252.489	60562
252.552	36971
252.615	28503
252.678	33101
252.741	65199
252.804	95816
252.867	138969
252.930	84095
252.993	48927
253.056	34353
253.119	26109
253.182	24252
253.245	37426
253.308	25296
253.371	24951
253.434	21925
253.497	23441
253.559	38015
253.622	26551
253.685	35928
253.748	29187
253.811	18242
253.874	22341
253.937	19063
254.000	18645
254.062	33086
254.125	35888
254.188	41944
254.251	26688
254.314	18105
254.376	32547
254.439	29389
254.502	25308
254.565	33580
254.628	43373
254.690	25504
254.753	16539
254.816	15060
254.878	16935
254.941	32179
255.004	24448
255.067	15162
255.129	14300
255.192	10094
255.255	10421
255.317	11647
255.380	8469
255.443	7704
255.505	8007
255.568	8474
255.631	9150
255.693	9678
255.756	8651
255.819	8650
255.881	8347
255.944	7536
256.006	7872
256.069	7999
256.132	8231
256.194	11916
256.257	20003
256.319	15239
256.382	14004
256.444	12318
256.507	11795
256.569	11213
256.632	13441
256.694	20784
256.757	57303
256.819	100690
256.882	45086
256.944	22650
257.007	20060
257.069	18708
257.132	13419
257.194	12315
257.257	13583
257.319	13264
257.381	19036
257.444	46121
257.506	127585
257.569	108137
257.631	54466
257.693	31817
257.756	21564
257.818	16638
257.880	13746
257.943	12314
258.005	11449
258.067	11712
258.130	11226
258.192	13632
258.254	20070
258.317	12198
258.379	12000
258.441	26503
258.503	18969
258.566	27722
258.628	23323
258.690	11698
258.753	13629
258.815	20877
258.877	13881
258.939	11542
259.001	11747
259.064	12243
259.126	13137
259.188	13923
259.250	13363
259.312	15441
259.375	24831
259.437	14489
259.499	11710
259.561	10786
259.623	11464
259.685	11693
259.747	12400
259.809	28278
259.872	33677
259.934	63529
259.996	47972
260.058	16818
260.120	11737
260.182	9999
260.244	9837
260.306	8826
260.368	8996
260.430	10101
260.492	25141
260.554	27117
260.616	18224
260.678	39461
260.740	31060
260.802	13581
260.864	12315
260.926	10700
260.988	11769
261.050	13096
261.112	36340
261.174	52459
261.236	26250
261.298	14470
261.359	24584
261.421	21634
261.483	11394
261.545	10966
261.607	7873
261.669	8496
261.731	17363
261.793	27467
261.854	14391
261.916	11472
261.978	14551
262.040	11933
262.102	10237
262.164	14100
262.225	10390
262.287	11147
262.349	23780
262.411	13500
262.472	10240
262.534	17625
262.596	20174
262.658	9993
262.719	8253
262.781	12455
262.843	22490
262.904	11189
262.966	11953
263.028	16173
263.090	74057
263.151	107329
263.213	40983
263.275	25794
263.336	12824
263.398	10915
263.459	9445
263.521	10644
263.583	20869
263.644	11999
263.706	8154
263.767	6469
263.829	7041
263.891	6320
263.952	6730
264.014	6856
264.075	21802
264.137	31844
264.198	12831
264.260	7379
264.321	8944
264.383	28276
264.444	43618
264.506	14299
264.567	12626
264.629	29046
264.690	38625
264.752	15277
264.813	10853
264.875	9189
264.936	9696
264.998	7507
265.059	8514
265.120	10213
265.182	20928
265.243	75623
265.305	51745
265.366	17528
265.427	12560
265.489	10373
265.550	8535
265.611	10716
265.673	10312
265.734	8518
265.795	7351
265.857	8768
265.918	11272
265.979	28693
266.040	106190
266.102	64694
266.163	27525
266.224	20009
266.286	13241
266.347	9997
266.408	9209
266.469	8326
266.530	7523
266.592	6950
266.653	17492
266.714	19127
266.775	8363
266.836	7181
266.898	8275
266.959	14843
267.020	9499
267.081	8174
267.142	7331
267.203	7401
267.264	6518
267.326	8141
267.387	8068
267.448	6589
267.509	7592
267.570	7718
267.631	7811
267.692	7129
267.753	8216
267.814	7774
267.875	19790
267.936	26384
267.997	23126
268.058	16451
268.119	11403
268.180	9280
268.241	8116
268.302	7913
268.363	7852
268.424	8458
268.485	9064
268.546	6431
268.607	6352
268.668	6853
268.729	6575
268.790	6344
268.851	9183
268.912	21625
268.972	18640
269.033	11382
269.094	8054
269.155	7066
269.216	7305
269.277	6881
269.338	7794
269.398	8238
269.459	10425
269.520	11971
269.581	14469
269.642	15425
269.702	12060
269.763	10005
269.824	8965
269.885	12416
269.945	14674
270.006	8364
270.067	6986
270.128	6937
270.188	7630
270.249	7527
270.310	7126
270.370	7612
270.431	7357
270.492	6691
270.553	9341
270.613	16820
270.674	24476
270.734	10764
270.795	8262
270.856	12452
270.916	8895
270.977	8849
271.038	10583
271.098	9287
271.159	17602
271.219	11625
271.280	8099
271.340	7384
271.401	9918
271.462	14642
271.522	11648
271.583	8562
271.643	9061
271.704	7665
271.764	11322
271.825	27914
271.885	70713
271.946	63742
272.006	26707
272.066	47508
272.127	50644
272.187	17999
272.248	13915
272.308	17832
272.369	42127
272.429	19211
272.489	23801
272.550	19449
272.610	23032
272.671	14623
272.731	17325
272.791	19358
272.852	13332
272.912	11909
272.972	8495
273.033	10154
273.093	13662
273.153	13254
273.214	10116
273.274	12761
273.334	46285
273.394	51540
273.455	23372
273.515	32361
273.575	47733
273.635	20359
273.696	35088
273.756	48343
273.816	20121
273.876	14533
273.936	30363
273.997	33401
274.057	12696
274.117	13553
274.177	25297
274.237	79395
274.297	46127
274.358	36161
274.418	45859
274.478	30070
274.538	14588
274.598	15060
274.658	34679
274.718	34673
274.778	15737
274.838	11639
274.898	28799
274.958	51446
275.018	55589
275.078	29589
275.138	15422
275.198	9772
275.258	10066
275.318	13071
275.378	21869
275.438	19417
275.498	15052
275.558	33390
275.618	52652
275.678	32519
275.738	28202
275.798	21256
275.858	13251
275.918	8736
275.978	12789
276.038	9016
276.098	10133
276.157	23827
276.217	40186
276.277	18392
276.337	15952
276.397	10585
276.457	11756
276.517	8688
276.576	7915
276.636	8298
276.696	14975
276.756	29236
276.815	16693
276.875	10270
276.935	12961
276.995	9902
277.055	7994
277.114	7945
277.174	16608
277.234	31639
277.293	13361
277.353	9870
277.413	8137
277.472	10023
277.532	8748
277.592	11346
277.651	31189
277.711	33022
277.771	19176
277.830	56639
277.890	31884
277.950	39949
278.009	67489
278.069	24770
278.128	35525
278.188	33428
278.248	22249
278.307	47174
278.367	21968
278.426	12487
278.486	10256
278.545	8628
278.605	8498
278.664	8055
278.724	11092
278.783	31973
278.843	46378
278.902	16256
278.962	13288
279.021	13187
279.081	14666
279.140	14395
279.199	14674
279.259	13184
279.318	11664
279.378	16351
279.437	34160
279.496	93474
279.556	191415
279.615	97848
279.675	35672
279.734	28703
279.793	49292
279.853	54377
279.912	22447
279.971	15276
280.031	15478
280.090	33594
280.149	39803
280.208	42113
280.268	151815
280.327	89412
280.386	29650
280.445	32036
280.505	24389
280.564	16143
280.623	14771
280.682	25006
280.742	24194
280.801	10753
280.860	9210
280.919	8817
280.978	9266
281.037	7777
281.097	7622
281.156	7596
281.215	8246
281.274	12665
281.333	40127
281.392	19798
281.451	9019
281.510	7876
281.569	8183
281.628	6642
281.688	7187
281.747	9918
281.806	8143
281.865	6902
281.924	7365
281.983	6554
282.042	6217
282.101	6059
282.160	6142
282.219	5726
282.278	10537
282.337	24042
282.396	12397
282.454	8501
282.513	14107
282.572	35166
282.631	15455
282.690	8349
282.749	8668
282.808	9938
282.867	10625
282.926	8718
282.985	6799
283.043	6276
283.102	7661
283.161	8810
283.220	24631
283.279	30366
283.338	11169
283.396	8531
283.455	8908
283.514	10378
283.573	15174
283.631	10233
283.690	8755
283.749	8561
283.808	20227
283.866	15398
283.925	8668
283.984	8631
284.043	12594
284.101	10150
284.160	10310
284.219	12011
284.277	10413
284.336	19120
284.395	47769
284.453	26774
284.512	15407
284.570	20590
284.629	15371
284.688	13663
284.746	15204
284.805	17844
284.863	22097
284.922	26396
284.981	32043
285.039	48090
285.098	89482
285.156	179732
285.215	230261
285.273	223319
285.332	148708
285.390	85845
285.449	57011
285.507	40618
285.566	31135
285.624	23973
285.683	20482
285.741	16658
285.799	15463
285.858	14098
285.916	13473
285.975	11229
286.033	9588
286.091	9152
286.150	8648
286.208	9469
286.267	10813
286.325	11846
286.383	17442
286.442	12014
286.500	8329
286.558	8144
286.616	9234
286.675	11847
286.733	9606
286.791	9115
286.850	10416
286.908	15481
286.966	18572
287.024	8812
287.083	9016
287.141	7231
287.199	9591
287.257	11885
287.315	9624
287.374	12778
287.432	25607
287.490	13694
287.548	11173
287.606	8959
287.664	9883
287.723	13708
287.781	14263
287.839	10819
287.897	13936
287.955	17549
288.013	29048
288.071	67514
288.129	214917
288.187	324618
288.245	152833
288.303	64405
288.361	39783
288.419	30228
288.477	22369
288.535	17134
288.593	14817
288.651	12204
288.709	9704
288.767	10095
288.825	9093
288.883	8147
288.941	8317
288.999	7830
289.057	7428
289.115	7347
289.173	7704
289.231	7743
289.289	7649
289.346	7523
289.404	10078
289.462	14229
289.520	13727
289.578	7481
289.636	6067
289.694	6384
289.751	6258
289.809	6236
289.867	6919
289.925	10014
289.983	10688
290.040	6825
290.098	6739
290.156	8252
290.214	9522
290.271	6716
290.329	6935
290.387	6369
290.444	5704
290.502	5360
290.560	7066
290.617	6782
290.675	7119
290.733	6247
290.790	7192
290.848	6068
290.906	8086
290.963	6108
291.021	6653
291.078	6868
291.136	9959
291.194	29655
291.251	37646
291.309	11301
291.366	7893
291.424	7029
291.481	7749
291.539	6636
291.596	5807
291.654	5832
291.711	5554
291.769	9158
291.826	12695
291.884	8073
291.941	6205
291.999	6288
292.056	8146
292.114	6974
292.171	6431
292.228	7101
292.286	9729
292.343	15593
292.401	15375
292.458	9363
292.515	8616
292.573	9847
292.630	9646
292.687	9050
292.745	9848
292.802	15566
292.859	31876
292.917	38866
292.974	18102
293.031	9790
293.089	7647
293.146	7196
293.203	7221
293.260	6848
293.318	9871
293.375	13714
293.432	8977
293.489	7436
293.546	7875
293.604	12501
293.661	32928
293.718	58845
293.775	27749
293.832	15345
293.889	12329
293.947	11057
294.004	9815
294.061	12607
294.118	26696
294.175	48161
294.232	51748
294.289	19713
294.346	17045
294.403	15345
294.460	12079
294.517	9260
294.574	9065
294.631	8654
294.688	13477
294.745	31128
294.802	84653
294.859	71179
294.916	27470
294.973	18155
295.030	15098
295.087	13000
295.144	10832
295.201	9169
295.258	9530
295.315	13139
295.372	35781
295.429	44523
295.486	21343
295.542	20430
295.599	52872
295.656	62052
295.713	46242
295.770	42798
295.827	18756
295.883	13736
295.940	13725
295.997	20442
296.054	16407
296.111	10063
296.167	9920
296.224	8023
296.281	8143
296.338	8529
296.394	9201
296.451	12040
296.508	30626
296.564	40658
296.621	34678
296.678	69880
296.734	71082
296.791	28078
296.848	20193
296.904	23742
296.961	42420
297.018	55901
297.074	35104
297.131	17417
297.187	16507
297.244	23591
297.301	65519
297.357	75027
297.414	28906
297.470	15481
297.527	12994
297.583	11630
297.640	11702
297.696	9550
297.753	8425
297.809	7734
297.866	6666
297.922	8095
297.979	7550
298.035	9895
298.092	16697
298.148	34983
298.204	26622
298.261	18629
298.317	38954
298.374	67662
298.430	33586
298.486	19392
298.543	15924
298.599	16687
298.656	20691
298.712	34247
298.768	65871
298.824	37461
298.881	17047
298.937	11785
298.993	12837
299.050	14143
299.106	12440
299.162	10623
299.218	10788
299.275	9012
299.331	13226
299.387	24278
299.443	63963
299.500	47477
299.556	20897
299.612	13523
299.668	14189
299.724	14391
299.780	13614
299.837	12192
299.893	21193
299.949	55642
300.005	50038
300.061	55405
300.117	73988
300.173	32195
300.229	20632
300.285	26053
300.341	25533
300.397	13955
300.453	10731
300.510	10133
300.566	10553
300.622	13557
300.678	29421
300.734	46676
300.790	48209
300.845	52029
300.901	34848
300.957	49127
301.013	32355
301.069	15702
301.125	14320
301.181	13807
301.237	11454
301.293	8347
301.349	9086
301.405	8900
301.461	10655
301.516	12538
301.572	13024
301.628	19238
301.684	18010
301.740	28183
301.796	34412
301.851	26705
301.907	44170
301.963	44140
302.019	77818
302.074	155437
302.130	130056
302.186	60693
302.242	29580
302.297	23753
302.353	24951
302.409	38231
302.464	31102
302.520	32524
302.576	66731
302.631	60583
302.687	34574
302.743	16923
302.798	14262
302.854	11874
302.910	13408
302.965	16648
303.021	25600
303.076	22346
303.132	29619
303.187	29877
303.243	15977
303.299	12274
303.354	10980
303.410	10796
303.465	10439
303.521	9962
303.576	11210
303.632	14240
303.687	27391
303.743	54684
303.798	38122
303.853	19068
303.909	14064
303.964	14049
304.020	21457
304.075	25347
304.130	26193
304.186	40601
304.241	38154
304.297	29401
304.352	17767
304.358	17249
304.407	13024
304.449	12599
304.463	12465
304.518	13851
304.539	13356
304.573	12527
304.629	13542
304.630	13717
304.684	22095
304.720	40146
304.739	49406
304.794	55571
304.811	47858
304.850	28145
304.902	16908
304.905	16252
304.960	13586
304.992	14522
305.015	15274
305.071	13403
305.083	13080
305.126	11627
305.173	9836
305.181	9581
305.236	9538
305.264	9886
305.292	10407
305.347	12346
305.354	12567
305.402	13945
305.445	15684
305.457	16148
305.512	17216
305.535	17342
305.567	17350
305.622	19336
305.626	19941
305.678	34169
305.716	58087
305.733	67030
305.788	65258
305.807	59776
305.843	48098
305.897	60912
305.898	61090
305.953	52188
305.988	39270
306.008	31580
306.063	21988
306.078	19941
306.118	15595
306.168	11890
306.173	11657
306.228	11288
306.259	10333
306.283	9802
306.338	10560
306.349	10766
306.393	12271
306.440	14732
306.448	14984
306.503	14586
306.530	16195
306.558	21795
306.613	43260
306.620	45420
306.668	57604
306.711	69129
306.723	69480
306.778	49586
306.801	40585
306.833	29201
306.888	17286
306.892	16599
306.943	13350
306.982	12544
306.997	12559
307.052	12379
307.072	12714
307.107	14425
307.162	18365
307.163	18421
307.217	27318
307.253	33360
307.272	34918
307.327	35491
307.343	34215
307.381	28776
307.434	24771
307.436	25412
307.491	48128
307.524	64973
307.546	70018
307.600	65476
307.614	61493
307.655	40401
307.704	23291
307.710	23208
307.765	28849
307.795	34267
307.819	43117
307.874	66093
307.885	67514
307.929	54378
307.975	44275
307.984	45839
308.038	63942
308.065	78729
308.093	118318
308.148	220599
308.156	238256
308.202	341554
308.246	399505
308.257	386749
308.312	263127
308.336	211970
308.366	169089
308.421	104619
308.426	98686
308.475	68115
308.517	48128
308.530	45705
308.585	38532
308.607	36181
308.639	35787
308.694	36925
308.697	37183
308.748	60245
308.787	81781
308.803	82677
308.857	70904
308.877	65913
308.912	58312
308.967	53088
308.967	52972
309.021	69707
309.058	84246
309.076	103080
309.130	171101
309.148	197437
309.185	296009
309.238	447956
309.239	449877
309.293	488534
309.328	485385
309.348	439354
309.402	289587
309.418	249557
309.457	185224
309.508	111049
309.511	109472
309.566	86243
309.598	73883
309.620	74977
309.674	80436
309.688	81961
309.729	80922
309.778	76090
309.783	74939
309.837	60807
309.868	53470
309.892	59950
309.946	79534
309.959	85300
310.001	120948
310.049	153987
310.055	148864
310.109	93313
310.139	63054
310.163	51971
310.218	32079
310.229	28326
310.272	24717
310.319	21193
310.326	21042
310.381	19882
310.409	19331
310.435	18797
310.489	17997
310.499	17845
310.543	18496
310.589	19098
310.598	19420
310.652	21565
310.679	22202
310.706	20172
310.760	16086
310.769	15477
310.814	13901
310.859	12250
310.868	12291
310.923	12495
310.948	12619
310.977	14067
311.031	16942
311.038	17303
311.085	17202
311.128	16841
311.139	16856
311.193	16869
311.218	16837
311.247	16123
311.301	14579
311.308	14374
311.356	14943
311.398	15455
311.410	15363
311.464	14642
311.488	14301
311.518	13970
311.572	13317
311.578	13242
311.626	18370
311.668	22766
311.680	23046
311.734	23901
311.758	24233
311.788	24364
311.842	24499
311.847	24454
311.896	29190
311.937	33276
311.950	34211
312.004	37813
312.027	39215
312.058	32474
312.112	20327
312.117	19060
312.165	17591
312.207	16262
312.297	27882
312.386	24627
312.476	19440
312.566	35101
312.656	23143
312.745	14428
312.835	16754
312.925	20162
313.015	17541
313.104	19948
313.194	14796
313.284	14952
313.374	19558
313.463	20878
313.553	14013
313.643	13912
313.732	13107
313.822	13522
313.912	15344
314.001	17656
314.091	20412
314.180	32693
314.270	24830
314.360	25217
314.449	23941
314.539	16532
314.628	14091
314.718	18043
314.808	23136
314.897	15560
314.987	13990
315.076	17689
315.166	23547
315.255	22988
315.345	22099
315.434	23729
315.524	20574
315.613	22983
315.703	26118
315.792	26768
315.881	37979
315.971	28642
316.060	35099
316.150	59748
316.239	64815
316.328	33088
316.418	15465
316.507	15307
316.597	19257
316.686	21699
316.775	26525
316.865	65322
316.954	22554
317.043	11812
317.133	15180
317.222	14557
317.311	13953
317.400	14583
317.490	17841
317.579	24209
317.668	16396
317.757	19631
317.847	29701
317.936	62941
318.025	60140
318.114	34578
318.203	28104
318.293	36786
318.382	81598
318.471	66179
318.560	81758
318.649	155319
318.738	54645
318.828	25656
318.917	31084
319.006	32312
319.095	73453
319.184	172850
319.273	126840
319.362	65392
319.451	25279
319.540	21439
319.629	37432
319.718	77219
319.807	41355
319.896	58278
319.985	207110
320.074	120218
320.163	32668
320.252	45003
320.341	40425
320.430	42452
320.519	39697
320.608	29900
320.697	22399
320.786	23197
320.875	24614
320.964	31982
321.053	48098
321.142	63803
321.230	81873
321.319	56108
321.408	123728
321.497	72968
321.586	50633
321.675	61669
321.764	72921
321.852	47817
321.941	69768
322.030	61436
322.119	53349
322.207	125286
322.296	106732
322.385	60471
322.474	53925
322.562	134862
322.651	107866
322.740	52891
322.829	81935
322.917	88650
323.006	58360
323.095	43610
323.183	36352
323.272	50823
323.361	74510
323.449	210014
323.538	103014
323.626	141478
323.715	129292
323.804	46363
323.892	133274
323.981	112010
324.069	34535
324.158	68881
324.246	97853
324.335	31185
324.424	49792
324.512	24683
324.601	28986
324.689	45553
324.778	105382
324.866	72837
324.954	28622
325.043	21708
325.131	37809
325.220	68260
325.308	82797
325.397	53967
325.485	47046
325.574	16761
325.662	16171
325.750	17094
325.839	15265
325.927	14461
326.015	20423
326.104	27270
326.192	48668
326.280	18291
326.369	16628
326.457	21935
326.545	39242
326.634	24930
326.722	13260
326.810	14464
326.898	14600
326.987	15829
327.075	33735
327.163	42865
327.251	26732
327.340	30579
327.428	62763
327.516	17677
327.604	14339
327.692	16925
327.781	18273
327.869	34427
327.957	25102
328.045	22526
328.133	13576
328.221	17727
328.309	18739
328.397	14152
328.485	19938
328.574	24421
328.662	69982
328.750	59909
328.838	27573
328.926	17776
329.014	15066
329.102	22734
329.190	55924
329.278	49825
329.366	17207
329.454	15322
329.542	17443
329.630	17567
329.718	18839
329.806	25937
329.893	30962
329.981	46154
330.069	76372
330.157	212222
330.245	476236
330.333	364287
330.421	107880
330.509	52697
330.597	96609
330.684	90986
330.772	37205
330.860	46331
330.948	60572
331.036	35506
331.123	15585
331.211	16590
331.299	23370
331.387	38765
331.475	93357
331.562	32443
331.650	15500
331.738	16629
331.825	24896
331.913	15974
332.001	13302
332.089	18645
332.176	41569
332.264	73702
332.352	81735
332.439	28608
332.527	20079
332.614	15947
332.702	22031
332.790	16617
332.877	33201
332.965	80702
333.052	27899
333.140	19143
333.228	41757
333.315	20975
333.403	18430
333.490	43288
333.578	49072
333.665	36777
333.753	31236
333.840	16929
333.928	19592
334.015	48868
334.103	73116
334.190	209151
334.278	90149
334.365	28504
334.452	21014
334.540	16307
334.627	20354
334.715	31621
334.802	50143
334.889	212690
334.977	289679
335.064	43747
335.151	21820
335.239	21723
335.326	31896
335.413	87390
335.501	174386
335.588	34640
335.675	20535
335.762	24150
335.850	50852
335.937	31671
336.024	57914
336.111	245104
336.199	149408
336.286	30575
336.373	16934
336.460	13195
336.547	13705
336.635	18348
336.722	19563
336.809	17813
336.896	24871
336.983	66039
337.070	174173
337.157	236817
337.245	169362
337.332	154979
337.419	26592
337.506	17393
337.593	20928
337.680	51137
337.767	190251
337.854	70461
337.941	69643
338.028	72787
338.115	36764
338.202	31764
338.289	52683
338.376	165812
338.463	84169
338.550	91599
338.637	141083
338.724	38977
338.811	66904
338.898	19853
338.984	14565
339.071	21861
339.158	20424
339.245	46739
339.332	41680
339.419	36792
339.506	49870
339.593	12818
339.679	12503
339.766	13606
339.853	18071
339.940	37213
340.027	18646
340.113	14240
340.200	21181
340.287	17653
340.374	18334
340.460	35211
340.547	19446
340.634	23429
340.720	75998
340.807	70671
340.894	14673
340.980	13366
341.067	13918
341.154	15379
341.240	19940
341.327	47965
341.414	20312
341.500	18223
341.587	15898
341.674	13587
341.760	27012
341.847	41789
341.933	17907
342.020	9858
342.106	9729
342.193	13430
342.279	27717
342.366	19223
342.452	34492
342.539	21710
342.625	35010
342.712	95244
342.798	51267
342.885	23589
342.971	10698
343.058	9063
343.144	10685
343.230	11222
343.317	11366
343.403	12416
343.490	9936
343.576	10412
343.662	11110
343.749	13944
343.835	18669
343.921	28907
344.008	107283
344.094	303442
344.180	102180
344.267	35687
344.353	74877
344.439	117176
344.525	57580
344.612	35779
344.698	37744
344.784	28706
344.870	13995
344.957	12397
345.043	21083
345.129	16067
345.215	31528
345.301	22018
345.387	14249
345.474	9623
345.560	11517
345.646	16147
345.732	14694
345.818	14810
345.904	14822
345.990	16028
346.076	15622
346.162	31327
346.249	17552
346.335	11817
346.421	13906
346.507	29751
346.593	115873
346.679	48021
346.765	17227
346.851	12710
346.937	14284
347.023	12045
347.108	13546
347.194	14938
347.280	13007
347.366	14824
347.452	31540
347.538	129221
347.624	114570
347.710	110584
347.796	28470
347.882	14951
347.967	13023
348.053	22502
348.139	16845
348.225	12386
348.311	12318
348.397	11032
348.482	11939
348.568	19828
348.654	10579
348.740	9972
348.825	13496
348.911	18619
348.997	54469
349.083	141079
349.168	39859
349.254	14559
349.340	16241
349.425	11641
349.511	15787
349.597	21773
349.682	29056
349.768	86532
349.854	61142
349.939	17239
350.025	11805
350.110	13928
350.196	10413
350.282	9300
350.367	9370
350.453	19589
350.538	26130
350.624	17280
350.709	20939
350.795	12681
350.880	13618
350.966	12610
351.051	20353
351.137	19827
351.222	13105
351.308	25709
351.393	90555
351.479	35005
351.564	13498
351.649	12766
351.735	11286
351.820	9048
351.906	11262
351.991	16419
352.076	45865
352.162	96168
352.247	26269
352.332	15453
352.418	27593
352.503	34913
352.588	105811
352.673	130492
352.759	33145
352.844	18568
352.929	15209
353.014	24000
353.100	16712
353.185	21503
353.270	34373
353.355	41575
353.441	15616
353.526	16458
353.611	29190
353.696	44013
353.781	25649
353.866	16110
353.952	13930
354.037	28761
354.122	70807
354.207	69889
354.292	35392
354.377	15235
354.462	13255
354.547	17074
354.632	17767
354.717	24210
354.802	28488
354.887	15832
354.972	11087
355.057	10979
355.142	10148
355.227	13678
355.312	21376
355.397	44724
355.482	106464
355.567	73838
355.652	38458
355.737	45127
355.822	87870
355.907	110219
355.991	22890
356.076	14002
356.161	12146
356.246	12035
356.331	14265
356.416	25875
356.501	123793
356.585	191902
356.670	42485
356.755	22894
356.840	28252
356.924	93386
357.009	352527
357.094	207226
357.179	49676
357.263	34277
357.348	27225
357.433	33881
357.517	28297
357.602	24616
357.687	19285
357.771	26690
357.856	83068
357.941	70479
358.025	76384
358.110	328634
358.195	239388
358.279	49828
358.364	28971
358.448	68066
358.533	199743
358.617	177180
358.702	151089
358.787	76824
358.871	37988
358.956	38537
359.040	16361
359.125	12489
359.209	14418
359.294	35098
359.378	82001
359.462	37894
359.547	22747
359.631	17452
359.716	13523
359.800	13553
359.885	24227
359.969	18767
360.053	13736
360.138	14221
360.222	18708
360.306	35949
360.391	34376
360.475	42774
360.559	118484
360.644	89646
360.728	81743
360.812	69359
360.896	231142
360.981	136730
361.065	93748
361.149	24912
361.233	22803
361.318	19419
361.402	20174
361.486	18744
361.570	15620
361.654	18557
361.739	38280
361.823	130065
361.907	255172
361.991	69599
362.075	31312
362.159	68884
362.243	57166
362.327	40455
362.411	38106
362.495	28411
362.580	21164
362.664	16028
362.748	15753
362.832	17784
362.916	24740
363.000	50115
363.084	136888
363.168	284208
363.252	103963
363.336	36840
363.420	40764
363.503	124998
363.587	211093
363.671	50244
363.755	27952
363.839	39716
363.923	24118
364.007	33947
364.091	50570
364.175	53678
364.258	211655
364.342	176142
364.426	92404
364.510	62985
364.594	47409
364.677	51661
364.761	175299
364.845	184133
364.929	64393
365.013	59275
365.096	39811
365.180	58861
365.264	53379
365.347	222118
365.431	144910
365.515	46773
365.598	22181
365.682	17526
365.766	31169
365.849	55290
365.933	23805
366.017	28313
366.100	32937
366.184	14377
366.267	13863
366.351	12903
366.435	12846
366.518	11576
366.602	10141
366.685	12869
366.769	15653
366.852	26869
366.936	55335
367.019	34123
367.103	23319
367.186	53746
367.270	23204
367.353	11581
367.436	12246
367.520	12451
367.603	16035
367.687	22302
367.770	45150
367.853	28577
367.937	49856
368.020	117099
368.104	40397
368.187	29401
368.270	45204
368.353	46874
368.437	50521
368.520	121270
368.603	90984
368.687	69461
368.770	160959
368.853	57069
368.936	42725
369.020	57250
369.103	25960
369.186	15057
369.269	18921
369.352	25034
369.436	47629
369.519	32835
369.602	20072
369.685	15753
369.768	21099
369.851	18786
369.934	13863
370.018	16058
370.101	36738
370.184	32194
370.267	25757
370.350	37481
370.433	58303
370.516	98641
370.599	142558
370.682	51634
370.765	83161
370.848	102288
370.931	172086
371.014	102261
371.097	27496
371.180	17469
371.263	12499
371.346	12093
371.429	12307
371.511	13983
371.594	23797
371.677	40507
371.760	58473
371.843	40128
371.926	105429
372.009	320182
372.091	146000
372.174	69566
372.257	152556
372.340	86475
372.423	60628
372.505	94822
372.588	44235
372.671	46281
372.754	158789
372.836	113421
372.919	63251
373.002	168686
373.085	68781
373.167	34376
373.250	72213
373.332	155195
373.415	180029
373.498	410737
373.580	211773
373.663	154490
373.746	286901
373.828	97072
373.911	42993
373.993	39234
374.076	125011
374.159	172442
374.241	58893
374.324	138117
374.406	128283
374.489	93260
374.571	317358
374.654	187475
374.736	66397
374.819	187124
374.901	270933
374.983	337066
375.066	91538
375.148	31731
375.231	86740
375.313	234547
375.395	121935
375.478	31682
375.560	17983
375.643	22218
375.725	52410
375.807	227352
375.890	249296
375.972	137680
376.054	65282
376.136	104191
376.219	59448
376.301	55536
376.383	210980
376.465	115033
376.548	65032
376.630	66391
376.712	173923
376.794	120844
376.877	21973
376.959	14309
377.041	17489
377.123	33652
377.205	59439
377.287	17571
377.369	11713
377.452	13578
377.534	13263
377.616	13012
377.698	13895
377.780	11711
377.862	14425
377.944	13972
378.026	12031
378.108	11487
378.190	12274
378.272	10818
378.354	9069
378.436	9722
378.518	19383
378.600	77479
378.682	70565
378.764	94751
378.846	107762
378.928	34924
379.010	45103
379.091	29621
379.173	14672
379.255	13656
379.337	17727
379.419	40302
379.501	143000
379.583	86979
379.664	23210
379.746	38534
379.828	97807
379.910	143281
379.991	144327
380.073	36150
380.155	21103
380.237	18129
380.318	13280
380.400	14699
380.482	24790
380.564	47761
380.645	41306
380.727	43522
380.809	27969
380.890	20922
380.972	18181
381.053	15584
381.135	18185
381.217	30895
381.298	109657
381.380	77957
381.461	44947
381.543	147219
381.624	265825
381.706	71624
381.787	34314
381.869	35100
381.951	63259
382.032	274783
382.113	248489
382.195	73195
382.276	39528
382.358	54410
382.439	161598
382.521	175727
382.602	288947
382.684	158319
382.765	222486
382.846	275956
382.928	281888
383.009	199795
383.090	126242
383.172	342033
383.253	625457
383.334	283543
383.416	260883
383.497	179040
383.578	77382
383.659	118424
383.741	313522
383.822	839036
383.903	575366
383.984	203331
384.066	314946
384.147	266580
384.228	68386
384.309	42192
384.390	35972
384.471	25238
384.553	27952
384.634	35480
384.715	42574
384.796	24794
384.877	25415
384.958	74892
385.039	135879
385.120	62108
385.201	26659
385.282	34434
385.363	38860
385.444	31760
385.525	39135
385.606	120127
385.687	142359
385.768	45604
385.849	46839
385.930	120167
386.011	276040
386.092	111455
386.173	31803
386.254	23629
386.335	24433
386.416	24087
386.496	55111
386.577	124549
386.658	62364
386.739	37923
386.820	35036
386.901	31630
386.981	27990
387.062	19432
387.143	23917
387.224	87378
387.304	118736
387.385	48274
387.466	33632
387.547	40726
387.627	29621
387.708	32441
387.789	138811
387.869	232491
387.950	84229
388.031	20652
388.111	22257
388.192	50025
388.273	81881
388.353	57471
388.434	27486
388.514	33457
388.595	124626
388.676	219931
388.756	130490
388.837	101727
388.917	92200
388.998	24817
389.078	19459
389.159	17546
389.239	17389
389.320	23805
389.400	26724
389.480	34368
389.561	106750
389.641	74843
389.722	23863
389.802	41422
389.883	44871
389.963	111971
390.043	105528
390.124	48227
390.204	36908
390.284	117985
390.365	107422
390.445	97950
390.525	268648
390.605	293782
390.686	105760
390.766	34252
390.846	19697
390.927	15531
391.007	18419
391.087	19015
391.167	22065
391.247	18848
391.328	26046
391.408	44844
391.488	42576
391.568	16845
391.648	18949
391.728	30065
391.808	25491
391.888	31145
391.969	47066
392.049	108032
392.129	61250
392.209	47079
392.289	110938
392.369	85021
392.449	79059
392.529	61169
392.609	34578
392.689	34988
392.769	94970
392.849	117897
392.929	62855
393.009	164322
393.089	144780
393.169	69504
393.248	147645
393.328	637314
393.408	952334
393.488	307974
393.568	84323
393.648	46123
393.728	33856
393.807	27692
393.887	27202
393.967	27282
394.047	34049
394.127	46964
394.206	70821
394.286	180874
394.366	655262
394.446	924410
394.525	397296
394.605	121970
394.685	70018
394.764	105957
394.844	176902
394.924	158296
395.003	53018
395.083	34607
395.163	30661
395.242	28104
395.322	29898
395.402	25386
395.481	28961
395.561	56136
395.640	184830
395.720	152997
395.799	183322
395.879	211101
395.958	125958
396.038	282910
396.117	848817
396.197	1116212
396.276	611837
396.356	242389
396.435	148015
396.515	90734
396.594	68355
396.673	82777
396.753	169350
396.832	661238
396.912	703456
396.991	227019
397.070	61346
397.150	36270
397.229	27012
397.308	25005
397.388	38693
397.467	30985
397.546	18963
397.625	16870
397.705	21942
397.784	25711
397.863	19013
397.942	13889
398.022	14982
398.101	39005
398.180	163014
398.259	127996
398.338	36247
398.417	22787
398.497	18361
398.576	17658
398.655	14498
398.734	12804
398.813	15049
398.892	35239
398.971	163358
399.050	125396
399.129	22606
399.208	12618
399.287	12779
399.366	12318
399.445	13280
399.524	12715
399.603	12852
399.682	20054
399.761	45574
399.840	154537
399.919	180824
399.998	38035
400.077	12735
400.156	11128
400.235	14166
400.313	13848
400.392	17238
400.471	43660
400.550	110506
400.629	45594
400.708	18961
400.786	18538
400.865	43430
400.944	67149
401.023	33288
401.102	10955
401.180	9589
401.259	11943
401.338	15585
401.416	18307
401.495	19546
401.574	17056
401.652	14393
401.731	17726
401.810	19315
401.888	13371
401.967	10180
402.046	11804
402.124	15129
402.203	25933
402.281	17333
402.360	16427
402.438	54070
402.517	62743
402.596	21503
402.674	19611
402.753	14877
402.831	12194
402.910	12297
402.988	26810
403.066	107753
403.145	91007
403.223	34616
403.302	90352
403.380	81983
403.459	72437
403.537	43322
403.615	20129
403.694	10827
403.772	9738
403.850	9869
403.929	9668
404.007	11114
404.085	17665
404.164	24090
404.242	18261
404.320	32647
404.398	116468
404.477	172015
404.555	224390
404.633	269817
404.711	122986
404.789	96982
404.868	33889
404.946	16989
405.024	11222
405.102	10321
405.180	10220
405.258	8961
405.336	9873
405.415	10807
405.493	22807
405.571	24581
405.649	11798
405.727	10585
405.805	16045
405.883	17047
405.961	16396
406.039	25591
406.117	15849
406.195	15325
406.273	38764
406.351	180234
406.429	173502
406.507	41813
406.585	20843
406.663	12484
406.740	17665
406.818	18069
406.896	12982
406.974	11818
407.052	17477
407.130	86946
407.208	201589
407.285	59487
407.363	14332
407.441	12391
407.519	12147
407.596	12250
407.674	22956
407.752	64305
407.830	94219
407.907	52396
407.985	19654
408.063	12598
408.141	9060
408.218	16480
408.296	23256
408.373	13781
408.451	13129
408.529	14345
408.606	9715
408.684	7942
408.762	7637
408.839	7099
408.917	6758
408.994	7361
409.072	8741
409.149	8913
409.227	9757
409.304	14527
409.382	10626
409.459	9329
409.537	11102
409.614	14717
409.692	10558
409.769	10894
409.846	13103
409.924	16877
410.001	19477
410.079	15950
410.156	13050
410.233	13108
410.311	13303
410.388	9694
410.465	10937
410.543	15045
410.620	10625
410.697	9417
410.775	14299
410.852	8738
410.929	11345
411.006	19295
411.083	12116
411.161	21481
411.238	33894
411.315	23522
411.392	10928
411.469	13037
411.547	19045
411.624	12334
411.701	11828
411.778	10042
411.855	21996
411.932	19054
412.009	10226
412.086	9621
412.163	11122
412.240	16271
412.317	17388
412.394	21001
412.471	10711
412.548	8118
412.625	9719
412.702	11429
412.779	23833
412.856	22437
412.933	11530
413.010	9057
413.087	12162
413.164	40468
413.241	95424
413.318	35289
413.395	14418
413.471	23870
413.548	17179
413.625	8423
413.702	13559
413.779	14704
413.855	7883
413.932	6158
414.009	7706
414.086	6914
414.162	7823
414.239	11969
414.316	38383
414.393	120933
414.469	70594
414.546	12381
414.623	7742
414.699	8259
414.776	11090
414.853	9545
414.929	9380
415.006	10060
415.082	12723
415.159	13283
415.236	9663
415.312	9132
415.389	13542
415.465	23942
415.542	16855
415.618	8336
415.695	16159
415.771	12956
415.848	11672
415.924	10936
416.000	12444
416.077	8261
416.153	6726
416.230	5755
416.306	6032
416.383	8018
416.459	8012
416.535	7084
416.612	6274
416.688	6773
416.764	7511
416.841	7028
416.917	7878
416.993	8716
417.069	9638
417.146	16260
417.222	27938
417.298	19699
417.374	9838
417.451	10706
417.527	12117
417.603	15230
417.679	11245
417.755	10282
417.831	7643
417.908	6334
417.984	6414
418.060	6665
418.136	13236
418.212	27661
418.288	15163
418.364	8472
418.440	7924
418.516	14215
418.592	19048
418.668	31340
418.744	43017
418.820	40347
418.896	15833
418.972	8310
419.048	7797
419.124	15951
419.200	22403
419.276	9743
419.352	5230
419.428	6224
419.504	7048
419.579	11906
419.655	10975
419.731	9345
419.807	20007
419.883	46552
419.959	45165
420.034	15209
420.110	15702
420.186	59027
420.262	80491
420.337	20085
420.413	13923
420.489	9682
420.565	8590
420.640	7944
420.716	8887
420.792	7459
420.867	8328
420.943	8139
421.019	12800
421.094	15000
421.170	9364
421.245	7925
421.321	8220
421.397	10112
421.472	13128
421.548	34190
421.623	39181
421.699	16749
421.774	13331
421.850	12445
421.925	17199
422.001	20202
422.076	15065
422.152	14882
422.227	22612
422.302	27288
422.378	31308
422.453	52936
422.529	103649
422.604	294881
422.679	611688
422.755	525755
422.830	221218
422.905	80014
422.981	42951
423.056	28267
423.131	21086
423.207	17069
423.282	16296
423.357	26350
423.432	27960
423.508	17705
423.583	36049
423.658	44550
423.733	16267
423.808	17450
423.883	17409
423.959	15636
424.034	12647
424.109	9617
424.184	8078
424.259	7562
424.334	7377
424.409	7299
424.484	7654
424.559	9869
424.634	8667
424.709	9610
424.784	14711
424.859	11845
424.934	12740
425.009	39303
425.084	92012
425.159	55336
425.234	12906
425.309	9087
425.384	16081
425.459	47866
425.534	24072
425.609	11204
425.683	10188
425.758	7359
425.833	8353
425.908	12102
425.983	20475
426.058	86296
426.132	68135
426.207	17775
426.282	17617
426.357	25215
426.431	11375
426.506	8447
426.581	9871
426.655	9755
426.730	8930
426.805	8793
426.879	9142
426.954	9642
427.029	13384
427.103	49165
427.178	171982
427.253	127998
427.327	23421
427.402	16636
427.476	51566
427.551	43407
427.625	14579
427.700	14778
427.774	9552
427.849	12647
427.923	9838
427.998	7903
428.072	10043
428.147	17459
428.221	36823
428.296	120101
428.370	101084
428.444	21647
428.519	22702
428.593	45237
428.667	51020
428.742	48430
428.816	48075
428.890	72981
428.965	170375
429.039	86043
429.113	64009
429.188	35983
429.262	11924
429.336	11949
429.410	39536
429.485	42093
429.559	35629
429.633	45520
429.707	16517
429.781	18686
429.855	87925
429.930	191301
430.004	125980
430.078	182965
430.152	195118
430.226	147100
430.300	215788
430.374	57531
430.448	18971
430.522	36834
430.596	164526
430.670	139127
430.744	104183
430.818	259125
430.892	98578
430.966	19887
431.040	10714
431.114	8536
431.188	7841
431.262	7885
431.336	8495
431.410	14154
431.484	53262
431.557	55527
431.631	13453
431.705	8235
431.779	14594
431.853	79151
431.927	106780
432.000	21926
432.074	8714
432.148	10921
432.222	14234
432.295	8237
432.369	7634
432.443	10982
432.516	42768
432.590	168353
432.664	114816
432.737	20817
432.811	7333
432.885	5932
432.958	5380
433.032	5820
433.106	5598
433.179	5071
433.253	4884
433.326	5818
433.400	5068
433.473	5831
433.547	5552
433.620	5753
433.694	10714
433.767	16420
433.841	9925
433.914	6234
433.988	6158
434.061	6475
434.134	6884
434.208	5692
434.281	4023
434.355	5262
434.428	6461
434.501	6263
434.575	5444
434.648	6972
434.721	5607
434.795	4994
434.868	4395
434.941	4911
435.014	3948
435.088	4632
435.161	7271
435.234	9656
435.307	15806
435.381	10201
435.454	6631
435.527	7455
435.600	6993
435.673	6071
435.746	5539
435.819	6207
435.892	6117
435.966	5959
436.039	6436
436.112	7375
436.185	5395
436.258	4938
436.331	3715
436.404	4619
436.477	3688
436.550	4825
436.623	4003
436.696	4676
436.769	6059
436.842	6879
436.915	6509
436.987	11329
437.060	8722
437.133	5188
437.206	4873
437.279	6325
437.352	5979
437.425	5651
437.498	6735
437.570	11119
437.643	18164
437.716	8265
437.789	6159
437.861	8765
437.934	31835
438.007	27663
438.080	8719
438.152	7377
438.225	11593
438.298	45801
438.370	210439
438.443	158689
438.516	46864
438.588	15819
438.661	6902
438.734	7198
438.806	7613
438.879	9784
438.951	9148
439.024	19541
439.096	12749
439.169	7695
439.241	5900
439.314	5669
439.386	10779
439.459	16072
439.531	22065
439.604	16053
439.676	6877
439.749	4999
439.821	4913
439.893	5485
439.966	6013
440.038	8063
440.110	11142
440.183	7515
440.255	6384
440.327	9131
440.400	23039
440.472	122393
440.544	150923
440.617	32117
440.689	14834
440.761	16886
440.833	27388
440.905	26133
440.978	8315
441.050	5427
441.122	5741
441.194	4937
441.266	5620
441.338	6297
441.411	8505
441.483	31953
441.555	89851
441.627	35541
441.699	15126
441.771	19545
441.843	10796
441.915	5816
441.987	5393
442.059	5724
442.131	7185
442.203	12609
442.275	15130
442.347	15768
442.419	11826
442.491	26168
442.563	87854
442.635	71662
442.706	48609
442.778	59375
442.850	16410
442.922	7919
442.994	8553
443.066	14138
443.137	13179
443.209	9021
443.281	10342
443.353	17503
443.425	43542
443.496	145933
443.568	198347
443.640	91325
443.711	27174
443.783	12597
443.855	11161
443.926	7780
443.998	7604
444.070	11837
444.141	11391
444.213	12919
444.285	15416
444.356	14612
444.428	15171
444.499	9647
444.571	5967
444.642	5663
444.714	6073
444.785	11433
444.857	15333
444.928	37683
445.000	35644
445.071	22810
445.143	37707
445.214	20090
445.285	20232
445.357	62293
445.428	111137
445.500	281521
445.571	252038
445.642	122597
445.714	54146
445.785	74544
445.856	33462
445.928	17584
445.999	17473
446.070	14686
446.141	12122
446.213	16107
446.284	11495
446.355	12051
446.426	10945
446.497	7517
446.569	12368
446.640	22246
446.711	18533
446.782	8363
446.853	9659
446.924	11545
446.995	9172
447.066	8424
447.138	17172
447.209	15759
447.280	6016
447.351	5149
447.422	4908
447.493	8427
447.564	11468
447.635	13697
447.706	10093
447.777	5737
447.847	4866
447.918	5538
447.989	9275
448.060	12675
448.131	23794
448.202	31284
448.273	19811
448.344	12508
448.414	7400
448.485	6869
448.556	5844
448.627	4980
448.698	5378
448.768	5566
448.839	5623
448.910	13880
448.981	18720
449.051	9672
449.122	5540
449.193	5420
449.263	6155
449.334	6732
449.405	7284
449.475	16208
449.546	17383
449.616	16266
449.687	21009
449.758	9366
449.828	6705
449.899	6749
449.969	6283
450.040	6691
450.110	8367
450.181	10755
450.251	8034
450.322	6433
450.392	7360
450.463	7039
450.533	6091
450.604	7070
450.674	7159
450.744	6669
450.815	6344
450.885	7289
450.955	6405
451.026	5064
451.096	6410
451.166	8915
451.237	12470
451.307	43122
451.377	28870
451.447	8861
451.518	5762
451.588	5975
451.658	6855
451.728	9451
451.799	31040
451.869	63479
451.939	22270
452.009	7806
452.079	7013
452.149	6789
452.219	10517
452.289	39237
452.360	55037
452.430	15509
452.500	8229
452.570	9683
452.640	11024
452.710	20077
452.780	50601
452.850	33893
452.920	32494
452.990	15568
453.060	9955
453.129	11414
453.199	15867
453.269	29822
453.339	121600
453.409	213437
453.479	136048
453.549	230599
453.619	274141
453.688	166190
453.758	32350
453.828	12541
453.898	9385
453.968	8677
454.037	7463
454.087	7598
454.107	7640
454.168	7136
454.177	7050
454.247	6086
454.249	6121
454.316	6648
454.330	6917
454.386	8051
454.411	11798
454.456	17326
454.492	31967
454.525	44787
454.574	28242
454.595	21173
454.655	10182
454.665	8447
454.734	8768
454.736	8920
454.804	13580
454.817	17529
454.873	31834
454.898	42657
454.943	61130
454.979	43765
455.013	28301
455.060	16589
455.082	11959
455.141	11798
455.152	11711
455.221	22567
455.222	23231
455.291	64373
455.303	62552
455.360	52876
455.384	64640
455.430	82607
455.465	78718
455.499	74733
455.546	53787
455.569	43574
455.627	39715
455.638	39302
455.707	11892
455.708	11881
455.777	7069
455.789	7337
455.846	8374
455.869	7644
455.916	6253
455.950	6356
455.985	6496
456.031	7262
456.054	7466
456.112	6254
456.124	6084
456.193	5748
456.193	5727
456.262	6833
456.274	7287
456.332	9279
456.355	10029
456.401	10668
456.436	10084
456.470	9311
456.516	6498
456.540	5401
456.597	5480
456.609	5439
456.678	4798
456.678	4782
456.747	5039
456.759	4940
456.817	4545
456.840	4616
456.886	4711
456.920	4977
456.955	5276
457.001	5585
457.024	6012
457.082	7357
457.093	7627
457.162	10237
457.163	10285
457.232	12961
457.243	12802
457.301	10381
457.324	8462
457.370	5991
457.405	5537
457.439	5211
457.485	5804
457.508	6187
457.566	6621
457.577	6688
457.646	7011
457.647	7043
457.715	8945
457.727	9196
457.784	10391
457.808	10908
457.853	11824
457.889	14323
457.922	15611
457.969	14724
457.991	14976
458.050	14267
458.060	14209
458.129	17189
458.130	17348
458.198	21131
458.211	21014
458.267	17334
458.292	14118
458.336	11013
458.372	10027
458.405	9747
458.453	10388
458.474	11832
458.533	16924
458.543	17456
458.611	26922
458.614	27366
458.680	29627
458.694	27013
458.749	17748
458.775	13808
458.818	9624
458.855	8201
458.887	7271
458.936	7313
458.955	7394
459.016	7636
459.024	7614
459.093	7591
459.097	7586
459.162	7893
459.177	8050
459.230	8540
459.257	8899
459.299	9568
459.338	10336
459.368	10753
459.418	11550
459.437	11315
459.499	10194
459.505	10204
459.574	8535
459.579	8552
459.643	8034
459.659	7732
459.711	7444
459.740	7597
459.780	8099
459.820	8975
459.849	9553
459.900	9964
459.917	9956
459.981	10721
459.986	10722
460.054	9434
460.061	9340
460.123	8938
460.141	9088
460.191	10406
460.222	10977
460.260	11839
460.302	13558
460.328	13433
460.382	12631
460.397	12619
460.462	10840
460.465	10833
460.534	12068
460.543	12319
460.602	27629
460.623	33153
460.671	54322
460.703	74663
460.739	78904
460.783	89671
460.808	82293
460.864	26613
460.876	21659
460.944	10349
460.945	10235
461.013	9496
461.024	9410
461.081	9426
461.104	9856
461.150	9887
461.184	9501
461.218	9173
461.264	8392
461.286	8376
461.345	8704
461.355	8668
461.423	8929
461.425	8928
461.491	9631
461.505	9835
461.559	14446
461.585	16600
461.628	29918
461.665	42773
461.696	50278
461.745	68953
461.764	62226
461.825	30196
461.832	29607
461.901	12614
461.905	12160
461.969	10314
461.985	10227
462.037	9749
462.065	9310
462.105	9545
462.145	9912
462.173	14756
462.225	24024
462.241	26851
462.305	40039
462.310	39305
462.378	33001
462.385	30813
462.446	16574
462.465	12728
462.514	10646
462.545	10852
462.582	10788
462.625	10250
462.650	9987
462.705	10172
462.718	10358
462.785	10752
462.786	10843
462.854	16761
462.865	17691
462.922	21770
462.945	24106
462.990	20402
463.025	15762
463.058	13760
463.104	10499
463.126	9897
463.184	9300
463.194	9359
463.262	10045
463.264	10078
463.330	10539
463.344	10580
463.398	11638
463.424	12159
463.466	12297
463.504	12471
463.533	12438
463.583	12432
463.601	12799
463.663	13515
463.669	13749
463.737	16963
463.743	17239
463.805	25005
463.823	27456
463.873	43512
463.903	52958
463.940	60828
463.982	73122
464.008	62242
464.062	34171
464.076	31526
464.142	13218
464.144	13060
464.211	11736
464.221	11717
464.279	11429
464.301	11384
464.347	12695
464.381	13669
464.414	15160
464.461	17135
464.482	18356
464.540	22087
464.550	21474
464.617	16883
464.620	16681
464.685	16198
464.699	16108
464.753	19281
464.779	21035
464.820	23247
464.859	25392
464.888	25664
464.938	25845
464.956	25998
465.018	26258
465.023	25911
465.091	21442
465.098	20867
465.158	20300
465.177	20278
465.226	20324
465.257	20257
465.293	20333
465.336	20423
465.361	21489
465.416	23701
465.428	24983
465.495	32055
465.496	32245
465.563	55421
465.575	59383
465.631	75641
465.654	83327
465.698	59664
465.734	38138
465.765	31927
465.813	21165
465.833	20675
465.893	21188
465.900	21211
465.968	21362
465.972	21347
466.035	21257
466.052	21228
466.102	22428
466.131	23025
466.170	23148
466.210	23204
466.237	23817
466.290	25005
466.304	25338
466.369	26549
466.372	26614
466.439	27542
466.449	27611
466.506	29822
466.528	30666
466.573	35959
466.607	39831
466.641	57447
466.687	81837
466.708	92880
466.766	123374
466.775	116424
466.842	63405
466.845	60734
466.909	40158
466.925	35381
466.977	33685
467.004	32910
467.044	33941
467.083	34938
467.111	36464
467.163	39153
467.178	40443
467.242	45522
467.245	45369
467.312	40648
467.321	39957
467.379	38596
467.400	37996
467.446	40024
467.480	41372
467.559	40041
467.638	33231
467.717	32532
467.796	33259
467.875	36122
467.955	35311
468.034	40942
468.113	91073
468.192	142701
468.271	66060
468.350	27956
468.429	27549
468.508	26667
468.588	25737
468.667	25368
468.746	28363
468.825	27508
468.904	25218
468.983	26666
469.062	40929
469.141	52937
469.220	30876
469.299	22567
469.378	27395
469.456	30450
469.535	30786
469.614	28593
469.693	28071
469.772	34359
469.851	44981
469.930	41778
470.009	24676
470.088	24821
470.166	26198
470.245	28081
470.324	31899
470.403	28877
470.482	26090
470.560	23259
470.639	24856
470.718	27087
470.797	25903
470.875	26849
470.954	36222
471.033	43650
471.111	24856
471.190	20446
471.269	19179
471.347	20102
471.426	21651
471.505	24345
471.583	27028
471.662	26597
471.740	23293
471.819	23472
471.898	21542
471.976	22837
472.055	21168
472.133	23305
472.212	31829
472.290	34420
472.369	26397
472.447	20969
472.526	20498
472.604	20153
472.683	21311
472.761	23137
472.839	21653
472.918	20702
472.996	20695
473.075	23942
473.153	24979
473.231	20316
473.310	23950
473.388	25124
473.466	22468
473.545	23818
473.623	29535
473.701	31064
473.780	22702
473.858	20457
473.936	22022
474.014	20748
474.093	23514
474.171	31170
474.249	47064
474.327	42484
474.405	19644
474.484	18623
474.562	20322
474.640	20675
474.718	23184
474.796	26109
474.874	22779
474.952	21701
475.030	21662
475.108	22415
475.187	26222
475.265	28148
475.343	30209
475.421	33598
475.499	25812
475.577	23236
475.655	26676
475.733	49442
475.811	91533
475.889	94608
475.966	81108
476.044	22716
476.122	22772
476.200	26815
476.278	25926
476.356	19653
476.434	20883
476.512	21961
476.590	27074
476.667	26677
476.745	19141
476.823	21008
476.901	20407
476.979	21768
477.056	19896
477.134	21382
477.212	21934
477.290	20983
477.367	19084
477.445	17858
477.523	18549
477.601	18156
477.678	19506
477.756	22667
477.834	27386
477.911	19299
477.989	19124
478.066	18591
478.144	20726
478.222	23599
478.299	25883
478.377	30434
478.454	20012
478.532	17022
478.609	17236
478.687	19697
478.764	17110
478.842	18397
478.919	20114
478.997	19959
479.074	16532
479.152	20924
479.229	27202
479.307	23646
479.384	15198
479.461	16028
479.539	16380
479.616	21347
479.694	20567
479.771	18415
479.848	21225
479.926	26963
480.003	35742
480.080	18176
480.157	16803
480.235	15883
480.312	16464
480.389	18623
480.467	30024
480.544	44123
480.621	27987
480.698	19323
480.775	22355
480.853	24132
480.930	19965
481.007	19444
481.084	22956
481.161	25844
481.238	25856
481.315	18851
481.392	16581
481.470	17405
481.547	18882
481.624	17812
481.701	17407
481.778	17889
481.855	20228
481.932	27041
482.009	51698
482.086	50334
482.163	20097
482.240	18805
482.317	28480
482.393	31541
482.470	18418
482.547	18967
482.624	18208
482.701	18167
482.778	18352
482.855	16041
482.932	15996
483.009	16915
483.085	17337
483.162	20809
483.239	22471
483.316	16777
483.393	15970
483.469	16391
483.546	18580
483.623	23082
483.699	17537
483.776	18330
483.853	21112
483.930	25463
484.006	63650
484.083	135408
484.160	92503
484.236	93553
484.313	89387
484.389	64783
484.466	53963
484.543	51131
484.619	50611
484.696	51895
484.772	54998
484.849	59661
484.925	52766
485.002	47560
485.078	49931
485.155	52124
485.231	48621
485.308	46266
485.384	47674
485.461	52794
485.537	82042
485.614	120536
485.690	61914
485.766	45112
485.843	44352
485.919	53803
485.995	63011
486.072	44976
486.148	41372
486.224	41380
486.301	43122
486.377	46492
486.453	51651
486.530	46388
486.606	57557
486.682	69506
486.758	77244
486.835	98378
486.911	74581
486.987	104671
487.063	121668
487.139	119349
487.215	103010
487.292	62462
487.368	47166
487.444	48344
487.520	53926
487.596	55943
487.672	53149
487.748	74066
487.824	118315
487.900	88741
487.976	51242
488.052	49316
488.128	58487
488.204	55186
488.280	46025
488.356	47347
488.432	84706
488.508	163267
488.584	89941
488.660	42349
488.736	41350
488.812	40724
488.888	49353
488.964	58176
489.039	92273
489.115	163608
489.191	140392
489.267	50989
489.343	42493
489.418	37488
489.494	35890
489.570	35212
489.646	36974
489.722	36791
489.797	37846
489.873	45434
489.949	104089
490.024	133910
490.100	44100
490.176	34718
490.251	38478
490.327	46943
490.403	41251
490.478	32475
490.554	29634
490.629	30194
490.705	30135
490.781	31943
490.856	32672
490.932	35390
491.007	37183
491.083	36856
491.158	33991
491.234	37717
491.309	77170
491.385	116231
491.460	46606
491.536	35108
491.611	34308
491.686	32902
491.762	39400
491.837	60119
491.913	114352
491.988	145427
492.063	224079
492.139	107965
492.214	60849
492.289	31549
492.365	26752
492.440	31653
492.515	32584
492.590	34221
492.666	28812
492.741	30966
492.816	54769
492.891	44232
492.967	27190
493.042	25358
493.117	29173
493.192	30432
493.267	38193
493.342	112288
493.418	231066
493.493	78143
493.568	25448
493.643	24293
493.718	28736
493.793	41189
493.868	51604
493.943	35498
494.018	26481
494.093	25620
494.168	25513
494.243	23677
494.318	22291
494.393	21926
494.468	21508
494.543	22382
494.618	25010
494.693	26187
494.768	23103
494.842	26040
494.917	21781
494.992	22545
495.067	23406
495.142	21342
495.217	24932
495.292	24261
495.366	26157
495.441	34671
495.516	40423
495.591	46374
495.665	99864
495.740	303776
495.815	253609
495.890	53032
495.964	35655
496.039	34807
496.114	34473
496.188	35139
496.263	40208
496.338	36079
496.412	37715
496.487	45918
496.561	43406
496.636	48516
496.710	41938
496.785	42865
496.860	51763
496.934	48545
497.009	42523
497.083	43553
497.158	47256
497.232	51237
497.307	62937
497.381	60687
497.455	64041
497.530	83300
497.604	77497
497.679	71786
497.753	92303
497.827	128536
497.902	129239
497.976	132848
498.050	173754
498.125	534996
498.199	935559
498.273	253423
498.348	147414
498.422	129677
498.496	117823
498.570	111565
498.645	94248
498.719	87392
498.793	89725
498.867	104924
498.941	132134
499.016	202235
499.090	684070
499.164	525523
499.238	74560
499.312	52781
499.386	53697
499.460	56047
499.534	48497
499.609	50907
499.683	72454
499.757	79679
499.831	90249
499.905	364565
499.979	648988
500.053	138140
500.127	93162
500.201	67141
500.275	44907
500.349	40069
500.422	44008
500.496	52866
500.570	87142
500.644	199108
500.718	532466
500.792	268853
500.866	44673
500.940	48119
501.013	48680
501.087	38501
501.161	56222
501.235	82026
501.309	124295
501.382	371636
501.456	578906
501.530	131389
501.603	156119
501.677	119207
501.751	34453
501.825	36095
501.898	48539
501.972	159389
502.046	200083
502.119	45095
502.193	60367
502.266	187584
502.340	176238
502.413	71389
502.487	181755
502.561	151065
502.634	61915
502.708	29924
502.781	28763
502.855	25538
502.928	20728
503.002	22448
503.075	21954
503.149	23606
503.222	24705
503.295	27661
503.369	32838
503.442	39508
503.516	92112
503.589	330914
503.662	357598
503.736	102310
503.809	135818
503.882	186693
503.956	149731
504.029	235026
504.102	79063
504.175	74671
504.249	48614
504.322	31859
504.395	36562
504.468	25393
504.542	24444
504.615	22039
504.688	19286
504.761	17372
504.834	23329
504.907	25225
504.980	39196
505.053	30819
505.127	26429
505.200	34972
505.273	36046
505.346	30514
505.419	21428
505.492	20075
505.565	17349
505.638	15698
505.711	17024
505.784	17320
505.857	16374
505.930	16974
506.003	17675
506.076	19217
506.149	23679
506.221	36331
506.294	29919
506.367	48940
506.440	203214
506.513	234521
506.586	45082
506.659	28546
506.731	19434
506.804	20472
506.877	30201
506.950	29979
507.022	18776
507.095	20477
507.168	32927
507.241	22488
507.313	17201
507.386	17591
507.459	22578
507.531	20516
507.604	17109
507.677	16853
507.749	16359
507.822	18510
507.894	33304
507.967	53773
508.040	37667
508.112	28350
508.185	26868
508.257	23388
508.330	31351
508.402	29722
508.475	25601
508.547	27097
508.620	24636
508.692	37826
508.765	35682
508.837	20920
508.909	20812
508.982	21280
509.054	23044
509.127	23243
509.199	19706
509.271	20321
509.344	20007
509.416	19117
509.488	20731
509.560	21014
509.633	21899
509.705	24330
509.777	24197
509.849	31083
509.922	29595
509.994	24408
510.066	23447
510.138	24580
510.210	38508
510.283	48531
510.355	38287
510.427	33150
510.499	29462
510.571	28022
510.643	28564
510.715	34545
510.787	40930
510.859	30021
510.931	31130
511.003	36943
511.076	41328
511.148	29595
511.219	28194
511.291	36161
511.363	55971
511.435	31958
511.507	24859
511.579	24901
511.651	24668
511.723	24679
511.795	23242
511.867	23298
511.939	27273
512.010	47736
512.082	61767
512.154	28071
512.226	27450
512.298	30575
512.369	50412
512.441	45149
512.513	38683
512.585	34725
512.656	30421
512.728	34397
512.800	31223
512.871	26581
512.943	29304
513.015	26044
513.086	26246
513.158	27712
513.230	29502
513.301	34734
513.373	41445
513.444	31596
513.516	25422
513.588	25020
513.659	26385
513.731	30960
513.802	31398
513.874	37814
513.945	77171
514.016	53851
514.088	26726
514.159	26979
514.231	32592
514.302	45544
514.374	41742
514.445	35974
514.516	54495
514.588	69879
514.659	35511
514.730	54608
514.802	61916
514.873	45300
514.944	54617
515.016	46856
515.087	45156
515.158	47243
515.229	72489
515.301	56512
515.372	71878
515.443	69121
515.514	51663
515.585	38045
515.656	33868
515.728	29426
515.799	26549
515.870	28524
515.941	28217
516.012	28130
516.083	32433
516.154	38019
516.225	41637
516.296	40485
516.367	37557
516.438	36565
516.509	42429
516.580	51120
516.651	87244
516.722	338406
516.793	394541
516.864	80824
516.935	64081
517.006	61186
517.077	74207
517.148	120859
517.219	287871
517.289	798023
517.360	435096
517.431	220738
517.502	50913
517.573	39725
517.643	36293
517.714	39682
517.785	43689
517.856	40862
517.926	44792
517.997	49152
518.068	57448
518.138	68789
518.209	84129
518.280	179547
518.350	841113
518.421	840586
518.492	125117
518.562	55155
518.633	47943
518.703	45434
518.774	48667
518.845	70376
518.915	90371
518.986	59343
519.056	48128
519.127	65373
519.197	101135
519.268	222561
519.338	301130
519.408	67721
519.479	53370
519.549	51127
519.620	33750
519.690	28123
519.760	27615
519.831	28195
519.901	30624
519.971	25747
520.042	27428
520.112	32704
520.182	35575
520.253	37627
520.323	31446
520.393	33757
520.463	56547
520.534	44286
520.604	71832
520.674	58810
520.744	36498
520.814	68029
520.885	99581
520.955	66820
521.025	264267
521.095	269263
521.165	42337
521.235	31725
521.305	29366
521.375	25593
521.445	25473
521.515	31278
521.585	34023
521.655	40870
521.725	30112
521.795	31531
521.865	25426
521.935	31018
522.005	42206
522.075	25410
522.145	25689
522.215	28329
522.285	39600
522.355	46259
522.424	84291
522.494	109662
522.564	57772
522.634	48884
522.704	144291
522.774	134394
522.843	31509
522.913	25626
522.983	29664
523.053	28746
523.122	25868
523.192	27923
523.262	61394
523.331	125272
523.401	42262
523.471	22540
523.540	22387
523.610	19746
523.680	19519
523.749	20143
523.819	23290
523.888	31010
523.958	23018
524.027	20266
524.097	23399
524.166	22861
524.236	22717
524.305	24614
524.375	21503
524.444	20229
524.514	22322
524.583	23403
524.653	29452
524.722	32619
524.791	28536
524.861	21564
524.930	21225
524.999	20112
525.069	26955
525.138	27342
525.207	30657
525.277	27278
525.346	23214
525.415	21833
525.484	21187
525.554	24102
525.623	28489
525.692	22925
525.761	24031
525.830	23179
525.900	22348
525.969	28530
526.038	38890
526.107	44742
526.176	103867
526.245	147555
526.314	72955
526.383	72778
526.452	112960
526.522	119804
526.591	235361
526.660	130407
526.729	76425
526.797	52737
526.867	74966
526.935	297606
527.004	554107
527.073	408606
527.142	77770
527.211	31170
527.280	26443
527.349	30286
527.418	21441
527.487	19663
527.555	18609
527.624	18304
527.693	16569
527.762	18675
527.831	17927
527.899	16943
527.968	18573
528.037	17923
528.106	21293
528.174	30657
528.243	36795
528.312	34176
528.380	63457
528.449	33295
528.518	19566
528.586	16386
528.655	16678
528.723	16743
528.792	16011
528.861	18232
528.929	18433
528.998	16726
529.066	16497
529.135	16427
529.203	16968
529.272	17796
529.340	20529
529.409	21058
529.477	20038
529.545	23586
529.614	30922
529.682	26802
529.751	39558
529.819	32701
529.887	34176
529.956	23510
530.024	22886
530.092	21433
530.161	21585
530.229	29151
530.297	29245
530.365	22608
530.434	20142
530.502	21277
530.570	20823
530.638	18732
530.707	20082
530.775	23145
530.843	20512
530.911	21348
530.979	19792
531.047	20265
531.115	22372
531.183	20672
531.252	20298
531.320	20685
531.388	21178
531.456	20776
531.524	19815
531.592	21427
531.660	23427
531.728	21595
531.796	21996
531.864	21489
531.932	22383
532.000	22482
532.067	22535
532.135	24280
532.203	26429
532.271	29482
532.339	35770
532.407	69592
532.475	82011
532.542	38041
532.610	36392
532.678	39402
532.746	76953
532.814	315343
532.881	194784
532.949	41332
533.017	28680
533.084	24839
533.152	23627
533.220	23844
533.287	25427
533.355	23872
533.423	22416
533.490	22638
533.558	24012
533.625	23485
533.693	27231
533.761	26179
533.828	26974
533.896	27105
533.963	35235
534.031	51731
534.098	57504
534.166	50681
534.233	30242
534.300	28127
534.368	29154
534.435	29303
534.503	27573
534.570	26671
534.637	27307
534.705	26310
534.772	27206
534.840	28341
534.907	48276
534.974	109781
535.041	45700
535.109	29743
535.176	27327
535.243	21989
535.310	22285
535.378	23742
535.445	20466
535.512	19821
535.579	21069
535.646	21612
535.714	21875
535.781	26557
535.848	27007
535.915	27029
535.982	30972
536.049	31745
536.116	31214
536.183	27961
536.250	25425
536.317	26142
536.384	27734
536.451	32305
536.518	36169
536.585	30405
536.652	32398
536.719	39341
536.786	41260
536.853	31855
536.920	36641
536.987	54936
537.053	51989
537.120	106954
537.187	229264
537.254	46928
537.321	25083
537.388	24748
537.454	21469
537.521	20394
537.588	20061
537.654	22361
537.721	26332
537.788	26890
537.855	22871
537.921	23336
537.988	24343
538.055	23793
538.121	23131
538.188	24080
538.254	27903
538.321	47671
538.388	47716
538.454	26102
538.521	23266
538.587	21097
538.654	21518
538.720	20589
538.787	20311
538.853	21170
538.920	24837
538.986	28539
539.053	27713
539.119	24610
539.185	23722
539.252	24289
539.318	33460
539.385	34924
539.451	30461
539.517	30416
539.583	30379
539.650	40439
539.716	126998
539.782	92356
539.849	26848
539.915	25673
539.981	24885
540.047	27593
540.114	27750
540.180	26789
540.246	26928
540.312	29346
540.378	44916
540.444	62522
540.510	45305
540.576	127181
540.643	109295
540.709	27746
540.775	24460
540.841	24138
540.907	27128
540.973	45770
541.039	45181
541.105	41034
541.171	30306
541.237	25141
541.303	26459
541.369	26367
541.435	30037
541.500	43493
541.566	41995
541.632	25242
541.698	23333
541.764	20958
541.830	22603
541.896	21322
541.961	23169
542.027	22699
542.093	24263
542.159	23917
542.224	26989
542.290	33609
542.356	44468
542.421	58054
542.487	38043
542.553	28508
542.618	29552
542.684	29178
542.750	25835
542.815	27507
542.881	35822
542.947	92568
543.012	158706
543.078	37931
543.143	25120
543.209	25139
543.274	27205
543.340	28143
543.405	38571
543.471	94050
543.536	47503
543.602	25000
543.667	23748
543.732	24420
543.798	22005
543.863	25607
543.928	23058
543.994	21850
544.059	22794
544.124	22367
544.190	23033
544.255	23929
544.320	24416
544.386	25405
544.451	28775
544.516	34817
544.581	33672
544.646	53169
544.712	153466
544.777	68337
544.842	32858
544.907	34693
544.972	32594
545.037	28491
545.102	30156
545.168	31527
545.233	32853
545.298	33811
545.363	38042
545.428	40411
545.493	46329
545.558	98795
545.623	93075
545.688	35551
545.753	31503
545.818	30668
545.883	31836
545.947	30049
546.012	31515
546.077	36008
546.142	33773
546.207	31637
546.272	35235
546.337	39411
546.401	35731
546.466	34455
546.531	32617
546.596	34237
546.661	33476
546.725	32027
546.790	29871
546.855	31784
546.919	31160
546.984	31701
547.049	34030
547.113	37730
547.178	39610
547.243	36937
547.307	42341
547.372	45842
547.436	53887
547.501	45552
547.565	40834
547.630	45628
547.695	49275
547.759	49916
547.823	53612
547.888	42200
547.952	40428
548.017	42070
548.081	46165
548.146	57196
548.210	60766
548.274	43990
548.339	43213
548.403	40236
548.468	38038
548.532	38624
548.596	39433
548.660	40515
548.725	42639
548.789	46072
548.853	55454
548.917	47187
548.982	50164
549.046	66441
549.110	44481
549.174	39442
549.238	39362
549.303	40589
549.367	42200
549.431	41470
549.495	40641
549.559	40100
549.623	41608
549.687	46385
549.751	56881
549.815	59452
549.879	51630
549.943	48161
550.007	50469
550.071	53597
550.135	55787
550.199	55791
550.263	48747
550.327	47524
550.391	60166
550.455	60193
550.519	49402
550.582	52182
550.646	56921
550.710	72644
550.774	58172
550.838	54608
550.901	56860
550.965	59008
551.029	61694
551.093	66228
551.156	73143
551.220	102958
551.284	159969
551.347	92176
551.411	104219
551.475	192145
551.538	89180
551.602	57706
551.666	53826
551.729	50499
551.793	49485
551.856	50662
551.920	49842
551.983	49124
552.047	48690
552.110	47514
552.174	48072
552.237	49143
552.301	49016
552.364	44696
552.428	44966
552.491	44766
552.554	47559
552.618	46860
552.681	49211
552.745	49647
552.808	55311
552.871	68500
552.934	65346
552.998	52665
553.061	52807
553.124	52641
553.187	51875
553.251	55104
553.314	57773
553.377	57695
553.440	65950
553.503	111810
553.567	314692
553.630	158057
553.693	56306
553.756	51198
553.819	48483
553.882	45846
553.945	45423
554.008	43620
554.071	44955
554.134	44960
554.197	44817
554.260	42045
554.323	44117
554.386	44902
554.449	44955
554.512	45539
554.575	43856
554.638	43023
554.701	44306
554.764	43378
554.827	41704
554.889	41381
554.952	39557
555.015	38641
555.078	39234
555.141	41104
555.203	38340
555.266	38830
555.329	40117
555.391	39353
555.454	39339
555.517	40629
555.580	38605
555.642	35906
555.705	36155
555.768	37317
555.830	38360
555.893	35478
555.955	35356
556.018	35498
556.080	36331
556.143	36358
556.206	34593
556.268	37699
556.330	38771
556.393	37597
556.455	36747
556.518	43633
556.580	58093
556.643	39830
556.705	33883
556.767	32715
556.830	34479
556.892	35904
556.955	42740
557.017	47889
557.079	36528
557.142	32870
557.204	34598
557.266	47511
557.328	63627
557.391	38344
557.453	31869
557.515	31022
557.577	33741
557.639	40148
557.701	34543
557.764	29910
557.826	31124
557.888	33602
557.950	33298
558.012	32613
558.074	35686
558.136	45332
558.198	98405
558.260	95863
558.322	42103
558.384	37910
558.446	40694
558.508	43390
558.570	51793
558.632	64019
558.694	106009
558.756	95956
558.818	136214
558.880	482675
558.942	394659
559.003	123163
559.065	114927
559.127	50101
559.189	43874
559.251	45299
559.312	50988
559.374	76407
559.436	240414
559.498	318836
559.559	72162
559.621	47487
559.683	46819
559.744	57675
559.806	112035
559.868	270455
559.929	137573
559.991	51671
560.052	53783
560.114	90235
560.176	120713
560.237	62418
560.299	116903
560.360	78921
560.422	38988
560.483	35038
560.545	33719
560.606	32974
560.667	33201
560.729	32751
560.790	31577
560.852	30958
560.913	31805
560.974	30073
561.036	31341
561.097	31799
561.158	31634
561.220	32334
561.281	32592
561.342	33744
561.403	35770
561.465	39468
561.526	55372
561.587	104757
561.648	62114
561.709	34284
561.771	33368
561.832	32757
561.893	33314
561.954	33084
562.015	30889
562.076	32448
562.137	31697
562.198	32089
562.259	33236
562.320	32904
562.381	33983
562.442	38284
562.503	43593
562.564	33813
562.625	32071
562.686	31314
562.747	33058
562.808	35992
562.869	32664
562.930	38199
562.991	39684
563.051	37918
563.112	35227
563.173	34627
563.234	33562
563.294	33276
563.355	32320
563.416	33680
563.477	33259
563.537	34750
563.598	35802
563.659	35813
563.720	35162
563.780	34962
563.841	36981
563.901	35410
563.962	34017
564.023	34645
564.083	34635
564.144	34877
564.204	36844
564.265	35741
564.325	38520
564.386	54814
564.446	78138
564.507	42807
564.567	35928
564.628	35417
564.688	34607
564.749	35462
564.809	37423
564.869	44152
564.930	42268
564.990	37022
565.050	35494
565.111	36652
565.171	34836
565.231	36100
565.292	37085
565.352	36452
565.412	38407
565.472	39032
565.532	39793
565.593	40338
565.653	38517
565.713	39570
565.773	42109
565.833	43559
565.893	51668
565.953	47957
566.013	43672
566.074	46612
566.134	49908
566.194	65189
566.254	82040
566.314	67231
566.374	55766
566.434	53368
566.494	55118
566.554	56576
566.614	58425
566.673	60828
566.733	63421
566.793	65733
566.853	70133
566.913	71969
566.973	73305
567.033	74365
567.092	73687
567.152	73136
567.212	74386
567.272	76166
567.331	80569
567.391	83222
567.451	86489
567.511	92001
567.570	101682
567.630	85025
567.690	77039
567.749	77208
567.809	81125
567.868	88396
567.928	97485
567.988	113926
568.047	131935
568.107	153676
568.166	191341
568.226	259262
568.285	367350
568.345	407582
568.404	369056
568.464	330505
568.523	310765
568.582	299989
568.642	312713
568.701	346056
568.761	424965
568.820	581056
568.879	708188
568.939	648320
568.998	540804
569.057	442020
569.116	363186
569.176	304405
569.235	253715
569.294	220337
569.353	189983
569.413	167063
569.472	150967
569.531	132683
569.590	118866
569.649	108747
569.708	99138
569.767	91705
569.827	89189
569.886	85169
569.945	74696
570.004	69805
570.063	67488
570.122	64675
570.181	65122
570.240	61035
570.299	64182
570.358	60414
570.417	55502
570.475	50473
570.534	49679
570.593	48923
570.652	47702
570.711	48228
570.770	46138
570.829	47022
570.887	46585
570.946	44904
571.005	43039
571.064	39493
571.122	40420
571.181	43161
571.240	42173
571.299	38756
571.357	38515
571.416	41431
571.475	40773
571.533	46325
571.592	38415
571.650	38354
571.709	37201
571.768	34481
571.826	35509
571.885	32517
571.943	33183
572.002	32751
572.060	34901
572.119	32232
572.177	32319
572.236	31312
572.294	30951
572.352	30392
572.411	30820
572.469	30528
572.528	30646
572.586	29554
572.644	30614
572.703	36182
572.761	34911
572.819	31930
572.877	29704
572.936	29675
572.994	28556
573.052	29600
573.110	29437
573.169	28856
573.227	28618
573.285	27906
573.343	27156
573.401	28163
573.459	28874
573.517	26239
573.576	28041
573.634	27585
573.692	29330
573.750	28511
573.808	27254
573.866	28854
573.924	32990
573.982	36780
574.040	31911
574.098	28538
574.155	27628
574.213	26880
574.271	26130
574.329	28190
574.387	27076
574.445	25394
574.503	26662
574.560	25261
574.618	25826
574.676	25351
574.734	25396
574.792	25905
574.849	26008
574.907	24689
574.965	24839
575.022	24950
575.080	24777
575.138	25476
575.195	25229
575.253	26422
575.311	28355
575.368	26404
575.426	25554
575.483	25433
575.541	24976
575.598	25144
575.656	26298
575.713	27276
575.771	25654
575.828	25461
575.886	26040
575.943	27811
576.001	27497
576.058	27951
576.115	28489
576.173	30315
576.230	33036
576.287	34840
576.345	33548
576.402	29189
576.459	28711
576.517	28743
576.574	30205
576.631	32921
576.688	30466
576.746	28780
576.803	28200
576.860	27722
576.917	27001
576.974	27372
577.031	26910
577.089	27645
577.146	28098
577.203	29707
577.260	29960
577.317	31047
577.374	32970
577.431	34058
577.488	30369
577.545	30099
577.602	28991
577.659	28939
577.716	29827
577.773	30539
577.830	31776
577.886	29410
577.943	28857
578.000	29359
578.057	31305
578.114	32502
578.171	33203
578.227	38306
578.284	43816
578.341	40040
578.398	37472
578.454	35433
578.511	35549
578.568	37033
578.625	34797
578.681	30834
578.738	29550
578.794	29113
578.851	29691
578.908	29264
578.964	29984
579.021	31834
579.077	31077
579.134	29581
579.190	29192
579.247	28571
579.303	28807
579.360	28965
579.416	30404
579.473	29033
579.529	28594
579.586	29427
579.642	29842
579.698	30255
579.755	31845
579.811	31839
579.867	33016
579.924	32851
579.980	34021
580.036	36898
580.093	41025
580.149	47772
580.205	60001
580.261	56093
580.317	47973
580.374	43801
580.430	42204
580.486	41906
580.542	39494
580.598	36989
580.619	36624
580.654	36029
580.692	35073
580.710	34656
580.765	33868
580.767	33874
580.823	33878
580.838	33958
580.879	34298
580.911	33839
580.935	33546
580.984	33099
580.991	33077
581.047	33843
581.057	33830
581.103	33866
581.130	34739
581.159	35748
581.203	37736
581.215	38283
581.270	39832
581.276	39736
581.326	39127
581.349	38105
581.382	36607
581.422	36647
581.438	36695
581.494	36369
581.494	36355
581.550	37259
581.567	36919
581.606	36306
581.640	36014
581.661	35857
581.713	36299
581.717	36342
581.773	35753
581.786	35631
581.829	35435
581.859	36002
581.885	36498
581.932	35908
581.940	35819
581.996	37181
582.004	36983
582.052	35833
582.077	35430
582.107	35139
582.150	35859
582.163	36053
582.219	36878
582.223	36892
582.274	37055
582.296	37312
582.330	37988
582.368	39329
582.386	39886
582.441	38284
582.441	38288
582.497	37965
582.514	38059
582.552	38583
582.587	39862
582.608	40568
582.659	41068
582.663	41087
582.719	39795
582.732	39686
582.774	39698
582.805	40126
582.830	40438
582.877	40926
582.885	41020
582.941	41689
582.950	41744
582.996	42106
583.023	43417
583.052	45019
583.095	46360
583.107	46744
583.162	49961
583.168	50494
583.218	55620
583.240	55257
583.273	53823
583.313	50941
583.328	49955
583.384	48174
583.385	48146
583.439	47379
583.458	47387
583.494	47373
583.531	46894
583.549	46770
583.603	46622
583.605	46606
583.660	46606
583.676	46447
583.715	46282
583.748	46875
583.770	47330
583.820	46945
583.825	46899
583.881	48623
583.893	48487
583.936	47739
583.965	48356
583.991	49076
584.038	48885
584.046	48843
584.101	49410
584.110	49495
584.156	49895
584.183	50237
584.211	50503
584.255	51101
584.266	51265
584.321	50945
584.328	50907
584.376	51060
584.400	52118
584.431	53213
584.472	52801
584.486	52691
584.541	54978
584.545	54998
584.596	55410
584.617	55469
584.651	55769
584.689	57088
584.706	57620
584.761	59492
584.762	59490
584.816	59241
584.834	59471
584.871	60015
584.906	60839
584.926	61389
584.978	63254
584.980	63328
585.035	64256
585.051	64914
585.090	67051
585.123	67938
585.145	68244
585.195	70607
585.200	70878
585.254	72834
585.267	73459
585.309	76820
585.340	80900
585.364	84109
585.412	87203
585.419	87068
585.473	82436
585.484	82488
585.528	86463
585.556	89940
585.583	94540
585.628	104344
585.637	109051
585.692	145520
585.700	154575
585.747	219372
585.772	237639
585.801	218567
585.845	156595
585.856	142236
585.910	104147
585.917	100524
585.965	97858
585.989	96364
586.019	95673
586.061	96776
586.074	97394
586.128	98292
586.133	98468
586.183	101301
586.205	102564
586.237	104390
586.277	106695
586.292	107509
586.346	109663
586.349	109750
586.401	111759
586.421	113041
586.455	116022
586.493	118440
586.509	121017
586.564	133205
586.565	133555
586.618	159903
586.637	169200
586.672	176482
586.709	165557
586.727	155139
586.781	138896
586.781	138948
586.835	142576
586.853	143257
586.889	145007
586.925	147444
586.944	149535
586.996	155783
586.998	156045
587.052	163402
587.068	165628
587.106	170371
587.140	174314
587.161	177135
587.212	184406
587.215	184917
587.269	194269
587.284	196909
587.323	204234
587.356	209651
587.377	213815
587.427	224902
587.431	225862
587.485	238099
587.499	241336
587.539	251515
587.571	260046
587.593	267287
587.643	282617
587.648	284383
587.702	304660
587.715	309622
587.755	327403
587.786	340441
587.810	351231
587.858	374893
587.864	378134
587.917	409539
587.930	416826
587.971	446087
588.001	468761
588.025	489479
588.073	529876
588.079	535652
588.133	589782
588.145	601716
588.187	652709
588.217	689758
588.241	726771
588.288	801571
588.295	813559
588.348	916288
588.360	938589
588.402	1039324
588.431	1110739
588.456	1184277
588.503	1328444
588.510	1354422
588.564	1566717
588.575	1611788
588.617	1832591
588.646	1982545
588.671	2138812
588.718	2438992
588.725	2486420
588.778	2825413
588.789	2886455
588.832	3045544
588.861	3116732
588.886	3020140
588.932	2758016
588.939	2683162
588.993	2020154
589.004	1925433
589.047	2333406
589.075	2649476
589.100	2902175
589.147	3270890
589.154	3266143
589.207	3129010
589.218	3093654
589.261	2922972
589.290	2805013
589.314	2781469
589.361	2746266
589.368	2765772
589.421	2918347
589.433	2946137
589.475	3047617
589.504	3086807
589.528	2936035
589.576	2541784
589.582	2525139
589.635	2458750
589.647	2463624
589.689	2866016
589.718	3082842
589.742	2956705
589.790	2640114
589.795	2596095
589.849	2135807
589.861	2027515
589.902	1767394
589.932	1576213
589.955	1469108
590.004	1241948
590.009	1226608
590.062	1051642
590.075	1008732
590.115	915519
590.146	843325
590.168	805527
590.218	721903
590.222	717345
590.275	649540
590.289	631536
590.328	591062
590.360	557758
590.381	539807
590.431	496032
590.435	494367
590.488	456903
590.503	446446
590.541	427205
590.574	409401
590.594	398848
590.645	370262
590.647	369847
590.700	347798
590.716	340782
590.753	328312
590.787	316246
590.806	310383
590.859	292655
590.859	292807
590.912	279541
590.930	274720
590.965	266519
591.001	258115
591.018	255258
591.071	245380
591.072	244944
591.124	236126
591.143	232567
591.177	226841
591.214	220009
591.230	218290
591.283	211774
591.285	211208
591.336	205546
591.356	202868
591.389	200569
591.427	197200
591.442	195387
591.495	187366
591.498	186503
591.547	180455
591.569	177340
591.600	174270
591.640	169539
591.653	169038
591.706	166080
591.711	165484
591.759	163009
591.782	161414
591.811	162695
591.853	164156
591.864	163056
591.917	155738
591.924	154406
591.969	149452
591.995	146333
592.022	145068
592.066	142230
592.075	142610
592.127	143696
592.137	143647
592.180	149160
592.208	152365
592.233	149145
592.279	141819
592.285	140975
592.338	131849
592.350	129544
592.390	126113
592.421	123149
592.443	123134
592.491	122440
592.495	122465
592.548	119832
592.562	118894
592.600	118624
592.633	118004
592.653	117245
592.704	114072
592.705	114686
592.775	112622
592.846	111794
592.916	110186
592.987	110523
593.058	108451
593.128	104006
593.199	101125
593.270	97542
593.341	96075
593.411	94246
593.482	95602
593.553	94958
593.623	90883
593.694	89675
593.764	93139
593.835	91673
593.906	85977
593.976	85120
594.047	86314
594.117	91953
594.188	98685
594.258	85623
594.329	78799
594.399	80264
594.470	78607
594.540	76339
594.611	76358
594.681	75806
594.751	77445
594.822	78241
594.892	78852
594.963	80009
595.033	77387
595.103	78547
595.174	78870
595.244	90203
595.314	120842
595.384	96936
595.455	73159
595.525	74423
595.595	74674
595.665	73768
595.736	74226
595.806	72817
595.876	71341
595.946	71073
596.016	69679
596.087	70236
596.157	71093
596.227	70183
596.297	71325
596.367	73391
596.437	75627
596.507	85484
596.577	109455
596.647	93279
596.717	73476
596.787	72074
596.857	70472
596.927	71174
596.997	73117
597.067	72255
597.137	75879
597.207	78525
597.277	72878
597.347	72397
597.417	71070
597.487	69945
597.557	72223
597.626	72431
597.696	73387
597.766	80304
597.836	98180
597.906	95210
597.975	68823
598.045	68515
598.115	66929
598.185	68300
598.254	70997
598.324	73765
598.394	75486
598.464	75624
598.533	73614
598.603	71009
598.672	70860
598.742	70758
598.812	69466
598.881	70836
598.951	69388
599.020	68221
599.090	68237
599.159	69551
599.229	69403
599.299	66701
599.368	67028
599.437	67819
599.507	66530
599.576	68435
599.646	69314
599.715	72219
599.785	68473
599.854	67830
599.924	73831
599.993	73627
600.062	67618
600.132	66981
600.201	67379
600.270	71398
600.340	74422
600.409	72768
600.478	70279
600.547	70691
600.617	72356
600.686	68485
600.755	66247
600.824	66502
600.894	67214
600.963	63700
601.032	63030
601.101	63479
601.170	61590
601.239	63871
601.308	64245
601.378	65942
601.447	64029
601.516	63252
601.585	65713
601.654	67380
601.723	68435
601.792	67766
601.861	70424
601.930	77301
601.999	79320
602.068	73693
602.137	72359
602.206	75202
602.275	71993
602.343	77208
602.412	81020
602.481	74475
602.550	70483
602.619	71495
602.688	72681
602.756	71657
602.825	72153
602.894	70102
602.963	72217
603.032	71085
603.100	73696
603.169	69991
603.238	72024
603.307	72061
603.375	68991
603.444	71414
603.513	70831
603.581	70643
603.650	72305
603.719	69594
603.787	66119
603.856	66731
603.924	67471
603.993	70096
604.061	67914
604.130	69957
604.198	71967
604.267	71768
604.335	70963
604.404	71291
604.472	71441
604.541	72834
604.609	73295
604.678	74028
604.746	74834
604.815	75899
604.883	78349
604.951	75042
605.020	74665
605.088	75482
605.156	71488
605.225	72269
605.293	71411
605.361	73186
605.429	73324
605.498	72831
605.566	75210
605.634	76300
605.702	76752
605.771	76054
605.839	78441
605.907	76310
605.975	73580
606.043	74401
606.111	72995
606.180	75031
606.248	79299
606.316	83950
606.384	78804
606.452	81336
606.520	76113
606.588	74827
606.656	62561
606.724	62164
606.792	60522
606.860	57432
606.928	53890
606.996	52034
607.064	50319
607.132	50676
607.200	52378
607.267	53814
607.335	53650
607.403	54888
607.471	55139
607.539	54728
607.607	54378
607.674	51521
607.742	50629
607.810	53587
607.878	51610
607.946	51285
608.013	51372
608.081	53295
608.149	55034
608.216	52795
608.284	55608
608.352	53355
608.419	54643
608.487	63194
608.555	68294
608.622	52204
608.690	53055
608.757	55409
608.825	58707
608.893	58670
608.960	59702
609.028	68222
609.095	72197
609.163	70080
609.230	54132
609.298	53783
609.365	49818
609.432	49412
609.500	53092
609.567	58657
609.635	62820
609.702	68227
609.769	66826
609.837	68181
609.904	62167
609.971	57822
610.039	63492
610.106	80169
610.173	125380
610.241	272117
610.308	444154
610.375	284193
610.442	119306
610.509	69871
610.577	58998
610.644	55164
610.711	55305
610.778	55670
610.845	56083
610.912	57740
610.980	61622
611.047	73091
611.114	78185
611.181	59925
611.248	55708
611.315	56013
611.382	57057
611.449	57214
611.516	59736
611.583	60112
611.650	59655
611.717	61041
611.784	62096
611.851	64797
611.918	72764
611.984	85895
612.051	106172
612.118	187614
612.185	456359
612.252	764308
612.319	221358
612.386	92301
612.452	77395
612.519	71392
612.586	80144
612.653	85833
612.719	68116
612.786	67076
612.853	61523
612.919	58748
612.986	59352
613.053	58527
613.120	55150
613.186	53521
613.253	55823
613.319	53942
613.386	53980
613.453	55713
613.519	59270
613.586	62914
613.652	80809
613.719	78936
613.785	76779
613.852	62980
613.918	57276
613.985	59328
614.051	70914
614.118	103698
614.184	175271
614.250	87604
614.317	59309
614.383	55928
614.449	56165
614.516	55128
614.582	57311
614.648	57549
614.715	54257
614.781	55556
614.847	56496
614.914	59270
614.980	59295
615.046	58418
615.112	58029
615.179	61916
615.245	69976
615.311	84771
615.377	127209
615.443	212899
615.509	175059
615.575	104058
615.642	83450
615.708	76902
615.774	81654
615.840	90707
615.906	112094
615.972	161109
616.038	287982
616.104	546638
616.170	768322
616.236	1227059
616.302	455036
616.368	156135
616.434	115986
616.500	91830
616.565	86700
616.631	95069
616.697	97653
616.763	85770
616.829	97218
616.895	152937
616.961	217183
617.026	156477
617.092	84566
617.158	67745
617.224	63485
617.289	59421
617.355	59085
617.421	58539
617.487	58720
617.552	54702
617.618	53364
617.684	51707
617.749	53455
617.815	52219
617.880	49730
617.946	51426
618.012	51886
618.077	51873
618.143	52056
618.208	50548
618.274	52608
618.339	55692
618.405	53404
618.470	49317
618.536	50656
618.601	53182
618.667	55189
618.732	49469
618.798	48187
618.863	47890
618.928	47184
618.994	48871
619.059	51106
619.124	61941
619.190	66596
619.255	49751
619.320	48240
619.386	47945
619.451	46340
619.516	45859
619.581	44735
619.647	47082
619.712	47248
619.777	46354
619.842	46295
619.907	47975
619.972	47569
620.038	48036
620.103	47063
620.168	44885
620.233	45620
620.298	44907
620.363	45380
620.428	45920
620.493	46987
620.558	47033
620.623	46718
620.688	46859
620.753	46170
620.818	46097
620.883	47234
620.948	47703
621.013	46813
621.078	47894
621.143	48038
621.207	51007
621.272	49522
621.337	52027
621.402	53470
621.467	57477
621.532	71453
621.596	63044
621.661	55173
621.726	50766
621.791	50314
621.855	51876
621.920	55529
621.985	56397
622.049	62571
622.114	63024
622.179	59392
622.243	56675
622.308	56712
622.373	56129
622.437	56569
622.502	53474
622.566	52736
622.631	54052
622.695	54445
622.760	54705
622.824	53478
622.889	54207
622.953	57045
623.018	65252
623.082	86071
623.147	62031
623.211	54705
623.276	55153
623.340	54588
623.404	51307
623.469	50342
623.533	50941
623.597	51060
623.662	50194
623.726	50287
623.790	47499
623.854	47707
623.919	48408
623.983	47810
624.047	48303
624.111	48118
624.176	48883
624.240	50843
624.304	56336
624.368	51787
624.432	48762
624.496	48607
624.560	51892
624.625	57060
624.689	54648
624.753	49148
624.817	50270
624.881	47590
624.945	48167
625.009	46202
625.073	45846
625.137	48225
625.201	54575
625.265	61850
625.329	50769
625.393	48448
625.456	50580
625.520	50043
625.584	52903
625.648	62105
625.712	77714
625.776	141419
625.839	241519
625.903	182280
625.967	62227
626.031	65975
626.095	120011
626.158	100901
626.222	46358
626.286	40273
626.349	38103
626.413	37831
626.477	39598
626.540	39175
626.604	38783
626.668	37165
626.731	36550
626.795	37014
626.858	39478
626.922	37005
626.986	36361
627.049	34930
627.113	36403
627.176	35073
627.240	35304
627.303	35291
627.366	34502
627.430	35395
627.493	36027
627.557	35679
627.620	36607
627.684	35669
627.747	34850
627.810	35710
627.874	33753
627.937	31887
628.000	33672
628.064	35018
628.127	32809
628.190	30834
628.253	31269
628.317	31386
628.380	29847
628.443	30061
628.506	31074
628.569	29605
628.632	28974
628.696	27639
628.759	28823
628.822	28510
628.885	27728
628.948	27836
629.011	27658
629.074	28947
629.137	28357
629.200	27574
629.263	30154
629.326	29066
629.389	26850
629.452	26722
629.515	28506
629.578	28213
629.641	28579
629.704	29016
629.767	30173
629.830	27553
629.892	26528
629.955	26679
630.018	27781
630.081	28760
630.144	34680
630.207	32361
630.269	30799
630.332	29772
630.395	32638
630.458	25778
630.520	24285
630.583	25243
630.646	23569
630.708	24516
630.771	24058
630.834	24897
630.896	23258
630.959	24980
631.021	23713
631.084	25051
631.146	25944
631.209	30695
631.272	29180
631.334	24275
631.397	24240
631.459	24089
631.522	25049
631.584	25455
631.646	25675
631.709	25845
631.771	30451
631.834	32562
631.896	26403
631.958	23786
632.021	24145
632.083	22214
632.145	23453
632.208	23275
632.270	24654
632.332	22515
632.395	22418
632.457	23148
632.519	23360
632.581	22355
632.643	21697
632.706	23384
632.768	22137
632.830	21598
632.892	21280
632.954	21536
633.016	22640
633.078	21691
633.141	21686
633.203	20988
633.265	21416
633.327	21372
633.389	20621
633.451	22400
633.513	26675
633.575	28805
633.637	29124
633.698	29099
633.760	24385
633.822	22537
633.884	22321
633.946	23100
634.008	22389
634.070	23267
634.132	25298
634.193	29014
634.255	24414
634.317	24316
634.379	24066
634.441	24086
634.502	23330
634.564	22755
634.626	21533
634.687	22257
634.749	22059
634.811	20875
634.873	20119
634.934	19421
634.996	20004
635.057	20121
635.119	20316
635.181	20936
635.242	20138
635.304	19882
635.365	20206
635.427	20765
635.488	20738
635.550	20880
635.611	20235
635.673	19593
635.734	21954
635.796	21747
635.857	22316
635.918	22840
635.980	23115
636.041	23344
636.102	23522
636.164	24625
636.225	23532
636.286	23201
636.348	22663
636.409	21055
636.470	19417
636.531	20545
636.593	22097
636.654	24919
636.715	19426
636.776	17922
636.838	18656
636.899	18585
636.960	18870
637.021	18380
637.082	17790
637.143	18425
637.204	17685
637.265	17351
637.326	17454
637.387	17819
637.448	16084
637.509	16519
637.570	17408
637.631	17184
637.692	16102
637.753	15848
637.814	17028
637.875	16199
637.936	16276
637.997	16135
638.058	17873
638.119	17934
638.179	17461
638.240	16010
638.301	17346
638.362	16289
638.423	16741
638.483	15766
638.544	16691
638.605	16070
638.666	16137
638.726	16027
638.787	16165
638.848	15616
638.908	15921
638.969	15919
639.030	16025
639.090	15697
639.151	14620
639.211	16930
639.272	18796
639.332	25892
639.393	31614
639.453	17219
639.514	16890
639.574	16242
639.635	15452
639.695	15177
639.756	15611
639.816	16171
639.877	17428
639.937	23146
639.997	35829
640.058	29419
640.118	17037
640.178	15494
640.239	13926
640.299	13941
640.359	14025
640.420	14347
640.480	15009
640.540	15592
640.600	15795
640.661	16095
640.721	16848
640.781	19538
640.841	21746
640.901	17491
640.961	16063
641.021	15332
641.082	16843
641.142	21768
641.202	24113
641.262	15520
641.322	14698
641.382	13966
641.442	14961
641.502	14714
641.562	14407
641.622	13729
641.682	13913
641.742	15016
641.802	15974
641.861	16368
641.921	16294
641.981	15941
642.041	16652
642.101	18100
642.161	19717
642.221	14008
642.280	14119
642.340	13035
642.400	12666
642.460	13234
642.519	13935
642.579	13792
642.639	13914
642.698	12930
642.758	14275
642.818	14015
642.877	13925
642.937	14199
642.997	16111
643.056	19266
643.116	21491
643.175	15128
643.235	14170
643.294	14408
643.354	14870
643.414	15771
643.473	17780
643.532	19413
643.592	23917
643.651	32529
643.711	48094
643.770	86656
643.830	166406
643.889	472335
643.948	486128
644.008	62264
644.067	25153
644.126	19948
644.186	17057
644.245	16337
644.304	14876
644.363	14818
644.423	12972
644.482	12808
644.541	13888
644.600	13232
644.659	15534
644.719	16096
644.778	20422
644.837	26522
644.896	40094
644.955	86238
645.014	109653
645.073	29424
645.132	18761
645.191	15830
645.250	14386
645.309	14181
645.368	14600
645.427	15355
645.486	17549
645.545	26015
645.604	24520
645.663	13846
645.722	13831
645.781	14159
645.840	15168
645.898	17015
645.957	21118
646.016	27733
646.075	43764
646.134	73679
646.192	145772
646.251	414695
646.310	257351
646.369	33921
646.427	20345
646.486	17562
646.545	14586
646.603	13469
646.662	13558
646.721	12394
646.779	12116
646.838	11930
646.896	13669
646.955	15530
647.014	18340
647.072	25814
647.131	48672
647.189	79615
647.248	23243
647.306	13358
647.365	12393
647.423	10402
647.481	11947
647.540	10524
647.598	11994
647.657	10710
647.715	10208
647.773	11086
647.832	11945
647.890	10567
647.948	10726
648.007	12189
648.065	10711
648.123	10943
648.181	12793
648.240	12995
648.298	16476
648.356	12700
648.414	12324
648.472	11128
648.531	10901
648.589	11547
648.647	10390
648.705	11176
648.763	10955
648.821	10758
648.879	10968
648.937	11828
648.995	12576
649.053	14543
649.111	16835
649.169	23388
649.227	34152
649.285	58053
649.343	129864
649.401	241456
649.459	67270
649.516	49469
649.574	28013
649.632	33116
649.690	64059
649.748	44889
649.806	24017
649.863	40794
649.921	46456
649.979	64294
650.037	25180
650.094	12053
650.152	10690
650.210	10316
650.268	10926
650.325	10810
650.383	11277
650.440	11107
650.498	10633
650.556	10325
650.613	9766
650.671	10041
650.728	9153
650.786	10876
650.843	11291
650.901	9807
650.958	9410
651.016	8665
651.073	8953
651.131	9054
651.188	8587
651.246	9238
651.303	9202
651.360	8758
651.418	8586
651.475	9175
651.532	9089
651.590	8653
651.647	8323
651.704	8486
651.762	9071
651.819	9051
651.876	9155
651.933	8625
651.990	9272
652.048	8767
652.105	8536
652.162	9173
652.219	8028
652.276	8077
652.333	8714
652.390	8167
652.448	9128
652.505	9080
652.562	9852
652.619	10334
652.676	12288
652.733	19620
652.790	12637
652.847	8278
652.904	8622
652.961	7416
653.017	7460
653.074	9313
653.131	8581
653.188	8129
653.245	8347
653.302	8627
653.359	7925
653.415	8442
653.472	7519
653.529	7902
653.586	7819
653.642	8086
653.699	7745
653.756	7517
653.813	7705
653.869	7897
653.926	6710
653.983	7491
654.039	7833
654.096	8295
654.152	8680
654.209	7440
654.266	8146
654.322	8614
654.379	8973
654.435	9610
654.492	10012
654.548	11859
654.605	17480
654.661	20070
654.717	9336
654.774	8804
654.830	9081
654.887	9404
654.943	8999
655.000	9087
655.056	9967
655.112	9095
655.168	8997
655.225	8953
655.281	10122
655.337	11224
655.394	16933
655.450	21094
655.506	15263
655.562	15171
655.618	24015
655.675	11653
655.731	9152
655.787	8301
655.843	8656
655.899	8169
655.955	9961
656.011	8065
656.067	8141
656.123	9021
656.179	9709
656.235	9795
656.291	8887
656.347	8771
656.403	8874
656.459	9573
656.515	9159
656.571	10264
656.627	10254
656.683	9933
656.739	9755
656.795	7889
656.850	8307
656.906	9997
656.962	9745
657.018	8393
657.074	6815
657.129	8812
657.185	9720
657.241	10008
657.297	12068
657.352	9569
657.408	7626
657.464	9647
657.519	9492
657.575	8213
657.630	7941
657.686	7543
657.742	7748
657.797	7771
657.853	8291
657.908	8889
657.964	7795
658.019	7204
658.075	8202
658.130	7961
658.186	6970
658.241	6947
658.297	7010
658.352	7838
658.407	8691
658.463	6756
658.518	7398
658.573	7930
658.629	7288
658.684	7330
658.739	7733
658.795	6522
658.850	7320
658.905	6954
658.960	8705
659.016	7307
659.071	7570
659.126	9008
659.181	9006
659.236	10034
659.291	14835
659.346	11943
659.401	10072
659.457	10056
659.512	12141
659.567	14511
659.622	9044
659.677	8095
659.732	7708
659.787	8194
659.842	8216
659.897	10451
659.952	10957
660.007	8081
660.061	7430
660.116	8254
660.171	7909
660.226	7844
660.281	8424
660.336	7720
660.391	7617
660.445	6369
660.500	7159
660.555	7486
660.610	8002
660.664	8434
660.719	7498
660.774	8482
660.828	7588
660.883	7635
660.938	7741
660.992	6953
661.047	8375
661.101	7730
661.156	7085
661.211	7156
661.265	7227
661.320	6396
661.374	7674
661.429	7949
661.483	7816
661.538	6834
661.592	7363
661.647	6880
661.701	8507
661.755	8036
661.810	8235
661.864	7122
661.919	8056
661.973	7307
662.027	7676
662.081	6916
662.136	6773
662.190	6928
662.244	8142
662.299	8170
662.353	7678
662.407	7632
662.461	7999
662.515	8018
662.569	7642
662.624	7069
662.678	7778
662.732	8121
662.786	7268
662.840	8313
662.894	8279
662.948	7424
663.002	7667
663.056	7364
663.110	6690
663.164	7155
663.218	7284
663.272	7205
663.326	8332
663.380	7767
663.434	8442
663.488	7514
663.542	7974
663.595	7791
663.649	7793
663.703	8131
663.757	7874
663.811	7067
663.864	7776
663.918	7518
663.972	6821
664.026	7650
664.079	6818
664.133	7675
664.187	7054
664.240	6954
664.294	7218
664.348	7331
664.401	7800
664.455	7122
664.508	6513
664.562	6836
664.615	7485
664.669	6391
664.722	6509
664.776	7042
664.829	6975
664.883	7740
664.936	6719
664.990	7705
665.043	8389
665.097	7355
665.150	9264
665.203	8255
665.257	8894
665.310	8247
665.363	8180
665.417	9519
665.470	8631
665.523	8644
665.576	7792
665.630	8593
665.683	7768
665.736	8759
665.789	7673
665.842	7305
665.895	7489
665.949	7744
666.002	7866
666.055	8172
666.108	8551
666.161	7983
666.214	8707
666.267	8333
666.320	9389
666.373	9489
666.426	9187
666.479	7686
666.532	8943
666.585	9432
666.638	10760
666.691	10349
666.744	10981
666.796	10057
666.849	9738
666.902	10050
666.955	8206
667.008	7362
667.060	7360
667.113	7808
667.166	7139
667.219	8184
667.271	7595
667.324	7292
667.377	7897
667.430	8539
667.482	8074
667.535	10767
667.587	8264
667.640	9058
667.693	9648
667.745	11636
667.798	15952
667.850	12645
667.903	8977
667.955	7466
668.008	7533
668.060	9084
668.113	9287
668.165	9165
668.218	8716
668.270	8803
668.322	8321
668.375	8395
668.427	7903
668.479	7772
668.532	8685
668.584	8599
668.636	8786
668.689	8211
668.741	8541
668.793	8283
668.845	8189
668.898	8161
668.950	8740
669.002	8512
669.054	8371
669.106	8307
669.158	9090
669.211	9354
669.263	9719
669.315	10201
669.367	10874
669.419	12255
669.471	10630
669.523	11930
669.575	13258
669.627	14652
669.679	12742
669.731	11179
669.783	11244
669.835	11149
669.886	12818
669.938	11916
669.990	10108
670.042	9989
670.094	10347
670.146	10666
670.197	12848
670.249	14096
670.301	17852
670.353	22934
670.404	29330
670.456	40144
670.508	59262
670.560	89229
670.611	137183
670.663	221535
670.715	387175
670.766	848759
670.818	956344
670.869	279444
670.921	69044
670.972	38682
671.024	28437
671.075	21765
671.127	17207
671.178	15584
671.230	14213
671.281	13607
671.333	12025
671.384	11660
671.436	12626
671.487	13175
671.538	13242
671.590	13851
671.641	16098
671.692	18260
671.744	25811
671.795	37432
671.846	26004
671.897	15535
671.949	12065
672.000	10458
672.051	10383
672.102	10357
672.153	8907
672.204	9330
672.256	9795
672.307	9136
672.358	10002
672.409	9249
672.460	9419
672.511	7986
672.562	8143
672.613	8145
672.664	8796
672.715	8212
672.766	8645
672.817	7977
672.868	8040
672.919	8249
672.970	7710
673.021	7439
673.071	8169
673.122	8001
673.173	8054
673.224	7979
673.275	7343
673.326	7714
673.376	7410
673.427	6786
673.478	7996
673.528	7949
673.579	7849
673.630	7443
673.680	6984
673.731	7389
673.782	6994
673.832	7976
673.883	7954
673.934	7098
673.984	7896
674.035	7893
674.085	8369
674.136	7410
674.186	8004
674.237	9466
674.287	11317
674.338	13917
674.388	8528
674.438	7033
674.489	7811
674.539	8194
674.589	7948
674.640	8178
674.690	7819
674.740	7040
674.791	8277
674.841	8467
674.891	8259
674.942	7695
674.992	7001
675.042	8201
675.092	6938
675.142	6974
675.193	6657
675.243	7277
675.293	7267
675.343	6998
675.393	7749
675.443	8092
675.493	7346
675.543	6297
675.593	7640
675.643	7009
675.693	6925
675.743	6776
675.793	7287
675.843	6461
675.893	7261
675.943	7213
675.993	6817
676.043	5737
676.093	7252
676.142	6165
676.192	7207
676.242	7132
676.292	6032
676.341	6752
676.391	7119
676.441	7278
676.491	6322
676.540	6462
676.590	6714
676.640	6313
676.689	6734
676.739	6408
676.789	6284
676.838	5561
676.888	6448
676.937	5871
676.987	6807
677.037	5621
677.086	5700
677.136	6373
677.185	6879
677.235	5463
677.284	4942
677.333	5885
677.383	5909
677.432	5568
677.482	6309
677.531	5537
677.580	5418
677.630	6420
677.679	5456
677.728	5862
677.778	5286
677.827	5053
677.876	5365
677.925	5674
677.975	5832
678.024	6656
678.073	6118
678.122	5984
678.171	5835
678.220	6855
678.269	7144
678.319	7230
678.368	7183
678.417	6563
678.466	6736
678.515	6331
678.564	6560
678.613	7353
678.662	6666
678.711	6426
678.760	5987
678.809	6489
678.857	7014
678.906	5414
678.955	6127
679.004	7577
679.053	6377
679.102	6526
679.151	6458
679.199	6767
679.248	6053
679.297	5678
679.346	6458
679.394	6484
679.443	5876
679.492	6358
679.540	4570
679.589	5617
679.638	7163
679.686	5992
679.735	5365
679.784	6677
679.832	6166
679.881	5462
679.929	6214
679.978	5560
680.026	5568
680.075	6206
680.123	5765
680.172	6134
680.220	5005
680.268	4567
680.317	6275
680.365	5159
680.414	5137
680.462	6062
680.510	4946
680.559	5335
680.607	5414
680.655	5956
680.703	5283
680.752	5427
680.800	5360
680.848	5821
680.896	5040
680.945	6438
680.993	5067
681.041	4951
681.089	5460
681.137	4827
681.185	4005
681.233	4935
681.258	4577
681.281	4217
681.329	5361
681.377	4934
681.380	4980
681.425	5426
681.473	5267
681.502	5096
681.521	4934
681.569	6266
681.617	5826
681.624	5926
681.665	6407
681.713	5522
681.745	5160
681.761	4953
681.809	5503
681.857	5965
681.867	5768
681.904	5009
681.952	5337
681.989	5200
682.000	5127
682.048	5958
682.096	5536
682.111	5658
682.143	5830
682.191	5808
682.233	6332
682.239	6391
682.286	5850
682.334	6037
682.354	6107
682.382	6152
682.430	5490
682.476	5827
682.477	5814
682.525	6435
682.572	6243
682.598	5972
682.620	5721
682.667	6396
682.715	6059
682.720	6149
682.763	6722
682.810	5724
682.841	6145
682.857	6360
682.905	6041
682.952	6454
682.963	6458
683.000	6320
683.047	6084
683.085	6562
683.095	6681
683.142	5924
683.190	6801
683.206	6669
683.237	6376
683.284	6597
683.328	6362
683.332	6320
683.379	6912
683.426	6856
683.449	6905
683.473	6962
683.521	6868
683.568	6800
683.571	6821
683.615	6776
683.662	6478
683.693	6510
683.709	6547
683.757	6990
683.804	6636
683.814	6858
683.851	7564
683.898	6730
683.936	7250
683.945	7331
683.992	6694
684.039	7196
684.057	7247
684.086	7435
684.133	7601
684.179	7539
684.180	7516
684.227	7717
684.274	8001
684.300	7934
684.321	7833
684.368	6976
684.415	7812
684.422	7732
684.462	7190
684.509	6947
684.543	7254
684.556	7344
684.603	7707
684.649	7317
684.665	7112
684.696	6719
684.743	7842
684.786	7915
684.790	7911
684.837	7919
684.883	8194
684.908	8249
684.930	8344
684.977	9270
685.023	9002
685.029	9009
685.070	8597
685.117	8369
685.150	8115
685.164	8084
685.210	8451
685.257	9191
685.272	9216
685.303	9173
685.350	9217
685.393	9342
685.396	9346
685.443	8758
685.490	9512
685.514	9565
685.536	9663
685.583	9405
685.629	9323
685.636	9318
685.675	8821
685.722	9178
685.757	8907
685.768	8880
685.815	9631
685.861	9559
685.878	9730
685.908	10038
685.954	9694
686.000	9857
686.000	9854
686.047	10188
686.093	11007
686.121	12211
686.139	13070
686.185	11463
686.232	11261
686.242	11324
686.278	10882
686.324	10001
686.363	9816
686.370	9823
686.416	9419
686.463	9367
686.484	9398
686.509	9602
686.555	9942
686.601	10248
686.606	10208
686.647	9450
686.693	9722
686.727	9080
686.739	8953
686.785	9172
686.831	9599
686.848	9701
686.877	9783
686.923	9620
686.969	9772
686.969	9772
687.015	9103
687.061	9227
687.090	9488
687.107	9643
687.153	9975
687.199	10172
687.211	10074
687.245	9816
687.291	9402
687.332	9501
687.336	9539
687.382	11314
687.428	10594
687.453	10983
687.474	11038
687.520	10301
687.565	9993
687.574	9954
687.611	10073
687.657	10590
687.695	10573
687.702	10594
687.748	10893
687.794	11060
687.816	11403
687.839	11690
687.885	11569
687.931	11862
687.937	11717
687.976	10584
688.022	10805
688.058	10746
688.067	10806
688.113	10328
688.158	10374
688.179	10708
688.204	11070
688.249	10595
688.295	10693
688.300	10745
688.340	11280
688.386	11573
688.421	11460
688.431	11379
688.477	10738
688.522	10987
688.542	10877
688.567	10934
688.613	11162
688.658	11779
688.663	11780
688.703	11516
688.749	10837
688.784	11077
688.794	11262
688.839	11317
688.884	11910
688.905	11866
688.930	11570
688.975	11624
689.020	11105
689.026	11172
689.065	11817
689.110	11337
689.146	11528
689.155	11583
689.201	11206
689.246	11605
689.267	11602
689.291	11655
689.336	11058
689.381	11420
689.388	11425
689.426	11565
689.471	11968
689.509	11681
689.516	11623
689.561	11159
689.606	11378
689.630	11444
689.651	11469
689.696	11325
689.741	11306
689.750	11290
689.785	11644
689.830	11961
689.871	11975
689.875	11929
689.920	11832
689.965	11680
689.992	11257
690.010	11212
690.054	11334
690.099	11588
690.112	11784
690.144	12257
690.189	12104
690.233	11616
690.233	11628
690.278	12363
690.323	12843
690.354	12974
690.367	13047
690.412	12872
690.457	12915
690.474	12995
690.501	13133
690.546	13473
690.590	12773
690.595	12826
690.635	13577
690.680	13538
690.716	13496
690.724	13637
690.769	15475
690.813	16850
690.836	17238
690.857	18004
690.902	19837
690.946	22236
690.957	22830
690.991	28337
691.035	36304
691.077	45412
691.080	46139
691.124	59079
691.168	66405
691.198	70337
691.213	66236
691.257	55235
691.301	45983
691.318	42278
691.346	38031
691.390	31263
691.434	24519
691.439	23712
691.478	21662
691.522	19803
691.559	18102
691.567	18058
691.611	17712
691.655	17081
691.680	16860
691.699	16657
691.743	16013
691.787	15399
691.800	15081
691.831	14845
691.875	15108
691.919	14924
691.921	14903
691.964	14969
692.008	15001
692.041	14963
692.052	14994
692.096	15021
692.139	15063
692.162	14871
692.183	14663
692.227	14777
692.271	14842
692.282	14752
692.315	14566
692.359	14374
692.402	14312
692.403	14338
692.447	14215
692.490	14345
692.523	14612
692.534	14737
692.578	15296
692.622	15022
692.643	15119
692.666	15159
692.709	15216
692.753	15051
692.763	15045
692.797	15173
692.840	15166
692.884	15404
692.884	15432
692.928	15140
692.971	15180
693.004	15167
693.015	15267
693.059	15679
693.102	15886
693.124	15802
693.146	15759
693.189	16055
693.233	16318
693.245	16329
693.276	16762
693.320	17662
693.363	18068
693.365	18054
693.407	18912
693.450	19994
693.485	20800
693.493	21278
693.537	23601
693.580	26000
693.605	27575
693.624	29795
693.667	34793
693.710	39891
693.725	41600
693.753	51936
693.797	69016
693.840	88110
693.845	90413
693.883	113525
693.926	134045
693.966	150079
693.970	147786
694.013	123204
694.056	99788
694.086	83845
694.099	79015
694.142	63031
694.185	47543
694.206	39991
694.229	37554
694.272	32879
694.315	28443
694.326	27216
694.358	26152
694.401	24259
694.444	22614
694.446	22495
694.487	22051
694.530	21496
694.566	20669
694.573	20495
694.616	19544
694.659	18294
694.686	17663
694.702	17540
694.745	16738
694.787	16249
694.806	15935
694.830	15958
694.873	16152
694.916	15913
694.926	15913
694.959	16005
695.002	15906
695.044	16049
695.046	16009
695.087	15973
695.130	16102
695.166	16203
695.172	16268
695.215	16348
695.258	16403
695.286	16434
695.301	16482
695.343	16444
695.386	16549
695.406	16505
695.428	16398
695.471	16226
695.514	15996
695.526	15921
695.556	16054
695.599	16233
695.641	16094
695.646	16075
695.684	15917
695.726	15609
695.766	15225
695.769	15256
695.811	15230
695.854	15400
695.886	15338
695.896	15394
695.938	15581
695.981	15602
696.005	15591
696.023	15636
696.065	15959
696.108	15969
696.125	16041
696.150	16092
696.192	15904
696.235	15796
696.245	15717
696.277	15877
696.319	16119
696.361	16331
696.365	16315
696.404	16422
696.446	16411
696.485	16491
696.488	16558
696.530	16700
696.572	17146
696.604	17250
696.614	17233
696.656	17108
696.698	16923
696.724	16862
696.740	16739
696.783	16065
696.825	15632
696.844	15362
696.867	15532
696.909	15803
696.951	15947
696.964	15997
696.992	16052
697.034	16061
697.076	15990
697.083	15943
697.118	15980
697.160	15980
697.202	16002
697.203	15963
697.244	16067
697.286	16234
697.323	16292
697.327	16299
697.369	16049
697.411	15700
697.442	15492
697.453	15541
697.494	15454
697.536	15488
697.562	15447
697.578	15565
697.620	15787
697.661	15941
697.682	16029
697.703	16344
697.744	16765
697.786	17369
697.801	17496
697.828	17755
697.869	18118
697.911	18520
697.921	18559
697.952	18170
697.994	17619
698.035	17060
698.040	16959
698.077	16969
698.118	16824
698.160	16763
698.160	16721
698.201	16349
698.243	15989
698.279	15623
698.284	15684
698.325	15908
698.367	16085
698.399	16219
698.408	16315
698.449	16526
698.491	16744
698.518	16881
698.532	16932
698.573	16915
698.614	16922
698.638	16888
698.656	17013
698.697	17188
698.738	17356
698.757	17402
698.779	17349
698.820	17154
698.862	16971
698.877	16858
698.903	17309
698.944	17959
698.985	18623
698.996	18761
699.026	18518
699.067	18117
699.116	17596
699.235	16792
699.354	16682
699.474	17459
699.593	17765
699.713	19857
699.832	17434
699.951	18472
700.070	18253
700.190	16874
700.309	17512
700.428	18416
700.547	18402
700.667	17510
700.786	17536
700.905	18640
701.024	18050
701.143	18731
701.262	16286
701.381	15876
701.500	15700
701.619	17841
701.738	17553
701.857	16605
701.976	15965
702.095	15728
702.214	16183
702.333	16544
702.452	16935
702.571	16128
702.690	16058
702.809	15711
702.928	14872
703.047	15644
703.165	15106
703.284	14729
703.403	15562
703.522	15725
703.640	17766
703.759	17598
703.878	21412
703.997	20145
704.115	16659
704.234	15224
704.353	15029
704.471	14952
704.590	13976
704.708	14404
704.827	13972
704.946	14664
705.064	15291
705.183	16316
705.301	15708
705.420	19719
705.538	23600
705.656	20959
705.775	19633
705.893	24858
706.012	45850
706.130	28910
706.249	19885
706.367	19059
706.485	19803
706.604	19968
706.722	19091
706.840	20623
706.958	24274
707.077	23630
707.195	18440
707.313	18044
707.431	17638
707.549	17797
707.668	17687
707.786	17825
707.904	18250
708.022	16617
708.140	17024
708.258	17248
708.376	17372
708.494	16797
708.612	17897
708.730	21224
708.848	25337
708.966	23620
709.084	22375
709.202	19480
709.320	20082
709.438	21337
709.556	22124
709.674	21170
709.791	21167
709.909	20495
710.027	21356
710.145	19586
710.263	20113
710.380	19734
710.498	20791
710.616	20857
710.733	19691
710.851	20319
710.969	21909
711.086	20116
711.204	19771
711.322	19957
711.439	19758
711.557	19772
711.674	19693
711.792	19580
711.909	20634
712.027	22527
712.144	20660
712.262	18659
712.379	20100
712.497	24008
712.614	29680
712.732	25370
712.849	24062
712.966	23375
713.084	26153
713.201	26539
713.318	23757
713.436	23949
713.553	23266
713.670	23154
713.787	25090
713.905	26807
714.022	24026
714.139	21930
714.256	24296
714.373	24353
714.490	28528
714.608	38707
714.725	93840
714.842	290730
714.959	95149
715.076	25849
715.193	22847
715.310	22129
715.427	21040
715.544	20504
715.661	20203
715.778	20248
715.895	21742
716.011	21941
716.128	22299
716.245	20628
716.362	21595
716.479	23956
716.596	22290
716.713	21291
716.829	20563
716.946	19546
717.063	20602
717.180	19506
717.296	19311
717.413	19789
717.530	19020
717.646	19230
717.763	19265
717.880	17795
717.996	18523
718.113	18924
718.229	18394
718.346	18383
718.462	17804
718.579	19613
718.695	23163
718.812	30247
718.928	23800
719.045	23936
719.161	19028
719.277	18089
719.394	17381
719.510	18933
719.626	18821
719.743	20286
719.859	19973
719.975	22126
720.092	33702
720.208	97012
720.324	82450
720.440	20748
720.557	19471
720.673	22984
720.789	30703
720.905	48539
721.021	58370
721.137	20332
721.253	17634
721.369	18434
721.486	18495
721.602	23128
721.718	22371
721.834	15660
721.950	15221
722.066	15954
722.181	16294
722.297	15756
722.413	17160
722.529	15854
722.645	16352
722.761	15500
722.877	16056
722.993	15571
723.108	15805
723.224	16065
723.340	16193
723.456	15745
723.571	14944
723.687	15562
723.803	15011
723.918	14463
724.034	14413
724.150	15369
724.265	16021
724.381	19516
724.497	39557
724.612	23270
724.728	14120
724.843	14370
724.959	15724
725.074	20371
725.190	36040
725.305	20615
725.421	15822
725.536	14148
725.651	13889
725.767	13520
725.882	12756
725.997	13341
726.113	13909
726.228	13258
726.343	13390
726.459	11822
726.574	12493
726.689	13541
726.804	12442
726.920	13666
727.035	13260
727.150	14310
727.265	12488
727.380	14194
727.495	13250
727.610	13104
727.725	12656
727.841	13700
727.956	18417
728.071	29153
728.186	15604
728.301	12259
728.416	13086
728.531	13621
728.645	11621
728.760	12567
728.875	13639
728.990	14774
729.105	13801
729.220	13164
729.335	13696
729.449	12518
729.564	12429
729.679	10281
729.794	11040
729.908	11497
730.023	12688
730.138	11257
730.253	11038
730.367	11405
730.482	10949
730.596	11234
730.711	12358
730.826	12161
730.940	12173
731.055	12536
731.169	12044
731.284	10182
731.398	11098
731.513	11930
731.627	12282
731.742	11218
731.856	14206
731.970	12300
732.085	12367
732.199	12862
732.313	13474
732.428	18253
732.542	37895
732.656	63792
732.771	23143
732.885	12732
732.999	11330
733.113	12497
733.227	12919
733.342	11795
733.456	10875
733.570	10703
733.684	11017
733.798	11856
733.912	10640
734.026	10177
734.140	10836
734.254	10991
734.368	13334
734.482	23931
734.596	14109
734.710	10637
734.824	10500
734.938	10451
735.052	10867
735.166	10403
735.280	11540
735.393	10176
735.507	11074
735.621	11913
735.735	17465
735.849	19674
735.962	11270
736.076	10827
736.190	10756
736.303	11870
736.417	16781
736.531	13183
736.644	11042
736.758	10282
736.872	10545
736.985	9556
737.099	10132
737.212	9216
737.326	9835
737.439	9833
737.553	10348
737.666	9992
737.780	10175
737.893	10086
738.007	9857
738.120	9338
738.233	9867
738.347	10547
738.460	9531
738.573	9967
738.687	10220
738.800	10507
738.913	10324
739.026	11540
739.140	10552
739.253	10308
739.366	9112
739.479	9319
739.592	9908
739.705	9506
739.818	9729
739.932	9472
740.045	9028
740.158	9796
740.271	10842
740.384	10703
740.497	10065
740.610	10594
740.723	11173
740.836	10631
740.949	10483
741.062	10843
741.174	12375
741.287	11023
741.400	10385
741.513	10107
741.626	11203
741.739	11513
741.851	9526
741.964	9666
742.077	9438
742.189	10261
742.302	11046
742.415	12145
742.527	11454
742.640	9782
742.753	9252
742.865	8612
742.978	8977
743.090	9573
743.203	8940
743.316	9283
743.428	9229
743.541	9385
743.653	8450
743.766	8459
743.878	8676
743.990	9891
744.103	11350
744.215	10141
744.327	10473
744.440	9628
744.552	11243
744.664	12250
744.777	9140
744.889	9234
745.001	8775
745.113	8783
745.226	8855
745.338	9421
745.450	8363
745.562	8854
745.674	8428
745.786	8459
745.898	7934
746.010	9640
746.122	8987
746.234	8423
746.347	8817
746.459	8182
746.570	8659
746.682	8812
746.794	9944
746.906	10795
747.018	8414
747.130	9100
747.242	9298
747.354	8758
747.466	8459
747.577	8488
747.689	9011
747.801	8351
747.913	8448
748.024	7218
748.136	8205
748.248	8193
748.359	9374
748.471	8131
748.583	7486
748.694	8678
748.806	10515
748.918	10264
749.029	10618
749.141	8784
749.252	9072
749.364	8937
749.475	11784
749.587	15001
749.698	9865
749.809	8287
749.921	9047
750.032	8493
750.144	8191
750.255	8885
750.366	8626
750.478	8916
750.589	8794
750.700	8762
750.811	8870
750.923	9561
751.034	11703
751.145	18061
751.256	11692
751.367	9311
751.479	8582
751.590	7458
751.701	8930
751.812	7658
751.923	9134
752.034	8948
752.145	8500
752.256	9686
752.367	8466
752.478	8431
752.589	8528
752.700	8607
752.811	7645
752.922	7980
753.032	7961
753.143	9959
753.254	8840
753.365	8566
753.476	8245
753.586	8208
753.697	7617
753.808	8689
753.919	8665
754.029	8607
754.140	8625
754.251	8517
754.361	9482
754.472	9207
754.582	8950
754.693	8263
754.804	9300
754.914	8066
755.025	7994
755.135	7496
755.246	9030
755.356	7965
755.466	8950
755.577	9735
755.687	9368
755.798	8394
755.908	9916
756.018	8965
756.129	9189
756.239	9029
756.349	9609
756.460	8835
756.570	9880
756.680	9887
756.790	8617
756.900	9695
757.011	9649
757.121	9412
757.231	9053
757.341	10135
757.451	9217
757.561	9767
757.671	9650
757.781	9234
757.891	9810
758.001	10018
758.111	9881
758.221	10907
758.331	11049
758.441	10926
758.551	11431
758.661	13092
758.771	11914
758.880	11281
758.990	11403
759.100	10675
759.210	11418
759.320	10664
759.429	12390
759.539	11498
759.649	11544
759.758	11969
759.868	12661
759.978	11787
760.087	12963
760.197	12580
760.307	12949
760.416	13167
760.526	12939
760.635	13090
760.745	13545
760.854	13554
760.964	14054
761.073	15134
761.182	14310
761.292	15265
761.401	15211
761.511	15916
761.620	15787
761.729	16476
761.839	16327
761.948	16799
762.057	16498
762.166	17656
762.276	16987
762.385	18180
762.494	17680
762.603	18984
762.712	19570
762.822	18899
762.931	20871
763.040	20322
763.149	22212
763.258	22976
763.367	23430
763.476	23876
763.585	25578
763.694	26990
763.803	28205
763.912	29763
764.021	30690
764.130	31774
764.238	33577
764.347	35499
764.456	38712
764.565	41190
764.674	44072
764.783	48559
764.891	52826
765.000	58336
765.109	65516
765.217	74788
765.326	87141
765.435	104381
765.543	123085
765.652	149906
765.761	192124
765.869	255269
765.978	360654
766.086	530243
766.195	808309
766.303	1246490
766.412	1543048
766.520	1231056
766.629	1549876
766.737	1212296
766.846	752650
766.954	494504
767.062	347413
767.171	258344
767.279	200822
767.387	158063
767.496	128967
767.604	110139
767.712	95983
767.820	84514
767.928	76883
768.037	70538
768.145	66257
768.253	63155
768.361	60178
768.469	59390
768.577	59610
768.685	61371
768.793	65527
768.901	69822
769.009	79942
769.117	92445
769.225	114204
769.333	151183
769.441	218465
769.549	345917
769.657	596164
769.765	1057367
769.873	1339385
769.981	1298618
770.088	1044064
770.196	559532
770.304	329614
770.412	223488
770.519	164137
770.627	126759
770.735	102436
770.842	83044
770.950	72225
771.058	63208
771.165	55387
771.273	50629
771.380	45679
771.488	41137
771.595	38456
771.703	35232
771.810	33638
771.918	30862
772.025	29963
772.133	27465
772.240	26988
772.348	25825
772.455	23875
772.562	23458
772.670	22148
772.777	21479
772.884	21059
772.991	20428
773.099	19702
773.206	18766
773.313	18904
773.420	18799
773.528	16739
773.635	16363
773.742	16687
773.849	15759
773.956	15649
774.063	15182
774.170	14585
774.277	15557
774.384	15125
774.491	14342
774.598	14674
774.705	14141
774.812	13862
774.919	15261
775.026	13973
775.133	13681
775.239	12641
775.346	13239
775.453	12027
775.560	12312
775.667	11884
775.773	12640
775.880	11813
775.987	12106
776.093	12472
776.200	11231
776.307	11586
776.413	11676
776.520	11082
776.627	10733
776.733	10701
776.840	10308
776.946	11809
777.053	11821
777.159	13506
777.266	14520
777.372	12628
777.478	14486
777.585	13504
777.691	10845
777.798	10298
777.904	11048
778.010	11757
778.117	13538
778.223	10719
778.329	9717
778.435	9220
778.542	9925
778.648	9604
778.754	9071
778.860	9491
778.966	9682
779.072	9987
779.178	9373
779.284	8690
779.391	8969
779.497	9806
779.603	12134
779.708	16725
779.815	28955
779.920	76706
780.026	267182
780.132	155066
780.238	20211
780.344	12334
780.450	10653
780.556	9911
780.661	9345
780.767	8650
780.873	8813
780.979	7899
781.085	7230
781.190	8058
781.296	7331
781.402	7374
781.507	7817
781.613	8080
781.719	7029
781.824	6777
781.930	7979
782.035	7458
782.141	7606
782.246	7380
782.352	7352
782.457	6843
782.563	6452
782.668	7196
782.773	7154
782.879	7072
782.984	7644
783.090	7241
783.195	8435
783.300	9388
783.405	7407
783.511	7651
783.616	6859
783.721	7224
783.826	6060
783.932	7641
784.037	7590
784.142	7142
784.247	7742
784.352	7013
784.457	7164
784.562	6891
784.667	7187
784.772	6217
784.877	6645
784.982	6450
785.087	6126
785.192	6462
785.297	6539
785.402	6339
785.507	5916
785.611	5970
785.716	6915
785.821	6214
785.926	5698
786.031	5531
786.135	6458
786.240	6726
786.345	6359
786.450	5622
786.554	5838
786.659	5405
786.763	5655
786.868	6285
786.973	5951
787.077	6119
787.182	5847
787.286	5389
787.391	5532
787.495	5625
787.600	5646
787.704	4931
787.809	6129
787.913	5463
788.017	6069
788.122	5030
788.226	5099
788.330	5284
788.435	5285
788.539	5510
788.643	5843
788.747	5812
788.852	5229
788.956	5282
789.060	5660
789.164	5141
789.268	4759
789.372	4900
789.476	5119
789.580	4672
789.684	4790
789.788	5302
789.892	5138
789.996	4799
790.100	5421
790.204	4559
790.308	4953
790.412	4553
790.516	5739
790.620	6323
790.724	5484
790.828	5277
790.931	4978
791.035	5663
791.139	5852
791.242	4643
791.346	5203
791.450	4864
791.554	4992
791.657	4522
791.761	5361
791.864	5163
791.968	4937
792.072	5477
792.175	4895
792.279	5553
792.382	5090
792.486	5339
792.589	5599
792.693	4944
792.796	4371
792.899	5322
793.003	4930
793.106	4882
793.209	4778
793.313	4903
793.416	4398
793.519	4859
793.623	5891
793.726	7144
793.829	6614
793.932	5205
794.035	4378
794.138	5285
794.242	6354
794.345	6680
794.448	11097
794.551	17512
794.654	45544
794.757	143642
794.860	94043
794.963	13044
795.066	6531
795.169	6079
795.272	5579
795.375	5535
795.477	4305
795.580	4491
795.683	4029
795.786	4561
795.889	4565
795.991	4772
796.094	4518
796.197	5214
796.300	5059
796.402	3933
796.505	4098
796.608	4628
796.710	4067
796.813	4120
796.915	3975
797.018	4601
797.120	4062
797.223	3492
797.326	3632
797.428	3948
797.530	3448
797.633	4154
797.735	4125
797.838	5820
797.940	7561
798.042	4778
798.145	3449
798.247	4257
798.349	3472
798.452	3791
798.554	3670
798.656	3939
798.758	5125
798.860	3579
798.962	4483
799.065	3348
799.167	3212
799.269	4142
799.371	4505
799.473	4397
799.575	4278
799.677	5468
799.779	5389
799.881	4526
799.983	5876
800.085	4808
800.187	3726
800.289	3763
800.390	4624
800.492	3296
800.594	3863
800.696	3140
800.798	3206
800.899	3031
801.001	3505
801.103	3083
801.205	4185
801.306	2733
801.408	3152
801.509	3205
801.611	3150
801.713	4565
801.814	3101
801.916	3449
802.017	3631
802.119	2878
802.220	2909
802.322	2775
802.423	4909
802.525	4763
802.626	3691
802.727	3356
802.829	3669
802.930	2884
803.031	4255
803.133	3138
803.234	3188
803.335	4303
803.436	2781
803.538	3132
803.639	2642
803.740	3356
803.841	3504
803.942	2855
804.043	3665
804.144	2431
804.245	2731
804.346	2901
804.447	2883
804.548	3494
804.649	5002
804.750	3064
804.851	2805
804.952	2515
805.053	2601
805.154	2571
805.255	3564
805.355	3035
805.456	3219
805.557	2418
805.658	2778
805.758	3002
805.859	3386
805.960	3237
806.061	2291
806.161	2723
806.262	3708
806.362	3657
806.463	4019
806.564	3602
806.664	3311
806.765	3439
806.865	3906
806.966	3063
807.066	2816
807.166	3231
807.267	3208
807.367	2610
807.468	2386
807.568	2138
807.668	2669
807.769	2308
807.869	3436
807.969	3077
808.069	3185
808.170	2783
808.270	2616
808.370	2849
808.470	3000
808.570	3590
808.670	4077
808.770	2680
808.870	2521
808.970	2748
809.070	3033
809.170	2274
809.271	3412
809.370	3027
809.470	2962
809.570	2760
809.670	3494
809.770	2536
809.870	2926
809.970	2928
810.070	2873
810.169	2992
810.269	2216
810.369	3417
810.469	2800
810.568	2418
810.668	3056
810.768	2648
810.867	2999
810.967	2798
811.066	2460
811.166	2917
811.265	3162
811.365	2259
811.464	1923
811.564	2704
811.663	3215
811.763	3152
811.862	2838
811.962	2908
812.061	3157
812.160	3074
812.260	3548
812.359	3612
812.458	3685
812.557	6674
812.657	9951
812.756	10358
812.855	4516
812.954	2876
813.053	3386
813.153	3302
813.252	3247
813.351	3540
813.450	3455
813.549	3067
813.648	3591
813.747	3384
813.846	3333
813.945	3675
814.044	3261
814.143	3229
814.242	2868
814.341	3504
814.439	4639
814.538	3941
814.637	3766
814.736	3052
814.835	4614
814.933	4391
815.032	4417
815.131	4175
815.229	3687
815.328	4704
815.427	4516
815.525	4772
815.624	5210
815.722	5242
815.821	4784
815.919	5275
816.018	5823
816.116	5802
816.215	5966
816.313	6372
816.412	6536
816.510	7687
816.609	7739
816.707	7805
816.805	8267
816.904	8113
817.002	9014
817.100	9839
817.198	11564
817.296	13543
817.395	14895
817.493	17047
817.591	19604
817.689	25701
817.787	33971
817.885	48956
817.983	76871
818.081	137385
818.179	272222
818.277	573542
818.375	903982
818.473	588039
818.571	253599
818.669	134627
818.767	95258
818.865	83563
818.963	86151
819.061	103390
819.158	149706
819.256	249204
819.354	463660
819.452	874347
819.549	1052741
819.647	673779
819.745	336398
819.842	183144
819.940	115485
820.038	81772
820.135	60069
820.233	47310
820.330	37125
820.428	30663
820.525	26386
820.623	23199
820.720	19106
820.818	17827
820.915	15438
821.012	14244
821.110	12227
821.207	12264
821.304	10836
821.402	10265
821.499	10727
821.596	10367
821.693	10154
821.791	8681
821.888	7964
821.985	9285
822.082	10889
822.179	8696
822.276	6966
822.373	6345
822.470	5924
822.567	5462
822.664	4057
822.761	5240
822.858	4122
822.955	5405
823.052	4714
823.149	4240
823.246	4617
823.343	4164
823.440	4467
823.536	3192
823.633	3732
823.730	3549
823.827	3982
823.923	3838
824.020	4178
824.117	3817
824.213	3595
824.310	4214
824.407	3004
824.503	3690
824.600	3175
824.696	3642
824.793	2701
824.889	3104
824.986	3355
825.082	3074
825.179	3483
825.275	3290
825.371	2757
825.468	2668
825.564	2668
825.660	2849
825.757	3547
825.853	3232
825.949	2249
826.045	2222
826.142	2272
826.238	2255
826.334	3454
826.430	1486
826.526	2872
826.622	2641
826.718	1862
826.814	2238
826.910	2676
827.006	2373
827.102	1198
827.198	3029
827.294	1738
827.390	2393
827.486	2642
827.582	2053
827.678	1703
827.774	2130
827.869	2268
827.965	2964
828.061	1405
828.157	2101
828.252	2413
828.348	2328
828.444	2049
828.539	1748
828.635	2036
828.731	1713
828.826	2075
828.922	1952
829.017	1652
829.113	2435
829.208	1347
829.304	1353
829.399	2338
829.495	1715
829.590	2176
829.685	1073
829.781	1747
829.876	2228
829.971	1820
830.066	2037
830.162	1920
830.257	1899
830.352	1518
830.447	2843
830.543	1723
830.638	1913
830.733	1827
830.828	1546
830.923	1998
831.018	1996
831.113	1704
831.208	1354
831.303	2562
831.398	1667
831.493	1986
831.588	1348
831.683	576
831.778	1345
831.873	1397
831.967	1780
832.062	1450
832.157	886
832.252	1767
832.346	1821
832.441	1496
832.536	2903
832.631	3791
832.725	6185
832.820	2643
832.914	1523
833.009	1600
833.104	1475
833.198	2585
833.293	1802
833.387	2729
833.482	1891
833.576	2363
833.670	1342
833.765	1486
833.859	791
833.954	1624
834.048	1940
834.142	1882
834.237	1649
834.331	1186
834.425	1673
834.519	1591
834.613	1500
834.708	1015
834.802	1325
834.896	1921
834.990	1052
835.084	930
835.178	1494
835.272	1295
835.366	2214
835.460	1579
835.554	1892
835.648	1580
835.742	1403
835.836	1386
835.930	854
836.024	1205
836.117	1440
836.211	2168
836.305	2487
836.399	3353
836.493	2769
836.586	2485
836.680	1254
836.774	1079
836.867	1636
836.961	774
837.055	1289
837.148	1798
837.242	1541
837.335	692
837.429	1622
837.522	1558
837.616	1601
837.709	2205
837.803	3556
837.896	2065
837.989	1130
838.083	2061
838.176	3692
838.269	5493
838.363	3376
838.456	1090
838.549	2209
838.642	2761
838.735	5297
838.829	4313
838.922	2035
839.015	1541
839.108	1560
839.201	809
839.294	1353
839.387	1132
839.480	1174
839.573	1420
839.666	3077
839.759	2294
839.852	1360
839.945	1337
840.038	369
840.131	1110
840.223	1427
840.316	958
840.409	1487
840.502	797
840.594	1366
840.687	460
840.780	1751
840.873	1423
840.965	1502
841.058	2683
841.150	2297
841.243	5103
841.336	2398
841.428	1769
841.521	1129
841.613	1112
841.706	1867
841.798	1073
841.890	1244
841.983	319
842.075	1017
842.167	1015
842.260	1326
842.352	1832
842.444	1391
842.537	3069
842.629	6978
842.721	5880
842.813	1440
842.905	1022
842.997	1634
843.090	1245
843.182	1820
843.274	3546
843.366	6675
843.458	14011
843.550	20884
843.642	8255
843.734	1836
843.826	1721
843.918	3148
844.009	2061
844.101	1772
844.193	1456
844.285	1323
844.377	1520
844.469	1328
844.560	2602
844.652	2582
844.744	1668
844.835	1215
844.927	1627
845.019	1306
845.110	1834
845.202	1678
845.293	1183
845.385	790
845.476	634
845.568	1814
845.659	1399
845.751	1819
845.842	916
845.934	541
846.025	642
846.116	1001
846.208	947
846.299	730
846.390	1107
846.482	1416
846.573	1338
846.664	1786
846.755	1745
846.846	3235
846.937	906
847.029	1000
847.120	824
847.211	1507
847.302	1532
847.393	818
847.484	945
847.575	391
847.666	814
847.757	883
847.847	433
847.938	1586
848.029	868
848.120	1031
848.211	1043
848.302	1416
848.392	847
848.483	1031
848.574	1159
848.664	1143
848.755	1222
848.846	1543
848.936	1119
849.027	1139
849.118	954
849.208	799
849.299	791
849.389	668
849.480	1673
849.570	3359
849.661	4269
849.751	8804
849.841	9605
849.932	2304
850.022	1518
850.112	1854
850.203	1416
850.293	1554
850.383	1165
850.474	502
850.564	1302
850.654	1072
850.744	352
850.834	898
850.924	857
851.014	1625
851.104	1210
851.194	1024
851.284	847
851.374	1978
851.464	1955
851.554	1522
851.644	1258
851.734	2879
851.824	2337
851.914	2403
852.004	3901
852.094	6535
852.183	4107
852.273	2088
852.363	986
852.452	1340
852.542	729
852.632	1023
852.721	1631
852.811	286
852.901	1614
852.990	409
853.080	1119
853.169	897
853.259	1093
853.348	878
853.438	776
853.527	1229
853.617	1805
853.706	2672
853.795	3484
853.885	8031
853.974	17537
854.063	30516
854.152	60887
854.242	69801
854.331	16756
854.420	3567
854.509	1834
854.598	2215
854.687	1568
854.777	1783
854.866	920
854.955	1458
855.044	420
855.133	641
855.222	1105
855.311	675
855.400	1740
855.488	574
855.577	678
855.666	582
855.755	1048
855.844	1424
855.933	1274
856.021	1020
856.110	1739
856.199	178
856.288	541
856.376	648
856.465	-12
856.554	763
856.642	768
856.731	955
856.819	1378
856.908	666
856.996	402
857.085	489
857.173	894
857.262	813
857.350	1156
857.438	1083
857.527	796
857.615	748
857.703	829
857.792	676
857.880	1003
857.968	546
858.056	520
858.145	130
858.233	892
858.321	15
858.409	489
858.497	676
858.585	1089
858.673	775
858.761	234
858.849	-58
858.937	566
859.025	651
859.113	-73
859.201	309
859.289	584
859.377	599
859.465	1684
859.552	408
859.640	973
859.728	50
859.816	1120
859.903	941
859.991	193
860.079	187
860.166	867
860.254	617
860.342	642
860.429	370
860.517	229
860.604	792
860.692	159
860.779	423
860.867	524
860.954	831
861.042	330
861.129	863
861.216	1152
861.304	616
861.391	930
861.478	910
861.565	1501
861.653	214
861.740	627
861.827	214
861.914	934
862.001	731
862.089	385
862.176	564
862.263	22
862.350	383
862.437	415
862.524	292
862.611	96
862.698	714
862.785	355
862.871	1174
862.958	566
863.045	575
863.132	192
863.219	776
863.306	488
863.392	1100
863.479	14
863.566	192
863.652	798
863.739	179
863.826	71
863.912	652
863.999	468
864.086	844
864.172	854
864.259	-66
864.345	796
864.432	802
864.518	358
864.604	283
864.691	306
864.777	850
864.863	723
864.950	980
865.036	999
865.122	1064
865.209	1656
865.295	726
865.381	353
865.467	972
865.553	1131
865.639	1135
865.726	1708
865.812	4106
865.898	7630
865.984	13885
866.070	19835
866.156	39596
866.242	30079
866.328	5776
866.414	1703
866.499	1003
866.585	509
866.671	598
866.757	1029
866.843	1208
866.928	1136
867.014	439
867.100	1271
867.186	591
867.271	584
867.357	1790
867.442	1934
867.528	2372
867.614	1431
867.699	651
867.785	1220
867.870	1589
867.956	1434
868.041	1992
868.127	857
868.212	1101
868.297	2282
868.383	2298
868.468	1452
868.553	1895
868.639	2685
868.724	4143
868.809	6729
868.894	4656
868.979	1554
869.065	1097
869.150	96
869.235	423
869.320	-586
869.405	476
869.490	232
869.575	119
869.660	1039
869.745	314
869.830	522
869.915	40
870.000	567
870.085	345
870.169	329
870.254	843
870.339	-346
870.424	-185
870.509	424
870.593	145
870.678	429
870.763	675
870.847	428
870.932	-556
871.016	343
871.101	877
871.186	564
871.270	578
871.355	172
871.439	699
871.523	-256
871.608	502
871.692	286
871.777	957
871.861	596
871.945	1051
872.030	988
872.114	694
872.198	-48
872.282	-152
872.367	550
872.451	-141
872.535	287
872.619	135
872.703	-590
872.787	437
872.871	819
872.955	237
873.039	-87
873.123	453
873.207	118
873.291	489
873.375	565
873.459	334
873.543	-22
873.627	245
873.711	243
873.794	425
873.878	66
873.962	446
874.045	552
874.129	706
874.137	610
874.213	-356
874.245	82
874.296	792
874.352	304
874.380	65
874.460	334
874.464	344
874.547	419
874.568	469
874.631	609
874.676	671
874.714	739
874.784	819
874.798	824
874.881	138
874.892	86
874.965	-162
874.999	280
875.048	807
875.107	253
875.131	52
875.215	380
875.215	381
875.298	116
875.323	219
875.381	455
875.430	429
875.465	433
875.538	-30
875.548	-88
875.631	631
875.646	607
875.714	416
875.753	390
875.798	362
875.861	273
875.881	259
875.964	-215
875.968	-172
876.047	547
876.076	541
876.130	530
876.183	471
876.213	469
876.291	434
876.296	425
876.379	542
876.398	577
876.462	708
876.506	592
876.545	487
876.613	699
876.628	741
876.711	1567
876.721	1400
876.794	181
876.828	294
876.877	512
876.935	1145
876.960	1346
877.043	785
877.043	785
877.125	822
877.150	805
877.208	757
877.258	977
877.291	1116
877.365	765
877.374	740
877.456	1259
877.472	1385
877.539	1854
877.579	1808
877.622	1702
877.687	1507
877.704	1462
877.787	904
877.794	866
877.869	379
877.901	524
877.952	892
878.008	1031
878.034	1103
878.115	931
878.117	927
878.199	723
878.222	644
878.282	411
878.329	802
878.364	1150
878.437	1474
878.447	1515
878.529	616
878.544	736
878.611	1177
878.651	625
878.694	25
878.758	559
878.776	795
878.858	743
878.865	778
878.941	853
878.972	697
879.023	528
879.078	680
879.105	787
879.185	714
879.187	710
879.269	611
879.292	657
879.351	824
879.399	763
879.433	799
879.506	1138
879.516	1183
879.598	934
879.613	892
879.680	444
879.720	735
879.762	1227
879.827	926
879.844	836
879.926	773
879.933	790
880.007	821
880.040	780
880.089	775
880.147	973
880.171	1144
880.253	1293
880.254	1296
880.335	2033
880.360	2240
880.417	2932
880.467	3353
880.499	4039
880.574	7344
880.580	7420
880.662	5458
880.680	4726
880.744	2729
880.787	1820
880.825	1047
880.893	781
880.907	799
880.989	1032
881.000	949
881.070	693
881.106	910
881.152	1096
881.213	1079
881.233	1034
881.315	612
881.319	617
881.396	905
881.426	892
881.478	745
881.532	617
881.559	756
881.639	1061
881.641	1056
881.722	942
881.745	727
881.803	496
881.852	755
881.885	914
881.958	1250
881.966	1275
882.047	1326
882.064	1316
882.129	1202
882.171	1011
882.210	1301
882.277	2186
882.291	2221
882.372	2773
882.383	2576
882.454	1361
882.489	1272
882.535	1027
882.596	593
882.616	528
882.697	728
882.702	734
882.778	1007
882.808	1002
882.859	1057
882.914	1273
882.940	1352
883.020	1157
883.021	1158
883.102	1205
883.127	1182
883.183	1227
883.233	1147
883.264	985
883.339	827
883.345	830
883.426	546
883.445	577
883.507	1164
883.551	1179
883.587	838
883.657	735
883.668	804
883.749	1369
883.763	1376
883.830	1140
883.869	1093
883.910	1055
883.975	966
883.991	940
884.072	599
884.081	603
884.152	1095
884.187	1214
884.233	1123
884.292	1168
884.314	1147
884.394	691
884.398	675
884.475	923
884.504	963
884.555	1136
884.610	1300
884.636	1297
884.716	1575
884.716	1583
884.797	1562
884.821	1589
884.877	1412
884.927	1059
884.958	1080
885.033	1449
885.038	1441
885.118	1065
885.139	925
885.199	1323
885.244	1541
885.279	1400
885.350	1467
885.359	1517
885.439	1812
885.456	1846
885.520	1602
885.561	1402
885.600	1233
885.667	1009
885.680	1065
885.760	1228
885.773	1313
885.840	1230
885.878	917
885.920	1187
885.984	1824
886.000	1795
886.080	1691
886.089	1630
886.160	1480
886.195	1523
886.240	1615
886.300	1774
886.320	1709
886.400	1326
886.406	1298
886.480	1698
886.511	1794
886.560	1995
886.616	2373
886.640	2379
886.720	2172
886.722	2159
886.800	1896
886.827	1812
886.879	1867
886.932	1901
886.959	1854
887.038	1684
887.039	1695
887.119	1981
887.143	2101
887.198	1871
887.248	1655
887.278	1647
887.354	1566
887.358	1570
887.437	1509
887.459	1490
887.517	1744
887.564	1998
887.596	1964
887.669	1741
887.676	1739
887.755	1670
887.774	1652
887.835	1673
887.880	1679
887.914	1646
887.985	1512
887.994	1576
888.073	2124
888.090	2232
888.153	2024
888.195	1833
888.232	1800
888.300	1807
888.311	1897
888.391	2402
888.405	2507
888.470	1828
888.510	1329
888.549	1598
888.615	2152
888.628	2099
888.708	1625
888.720	1549
888.787	1673
888.825	1766
888.866	1593
888.930	1262
888.945	1332
889.024	1716
889.035	1761
889.103	1435
889.140	1256
889.182	1757
889.245	2472
889.261	2323
889.340	1595
889.349	1505
889.419	1994
889.454	2230
889.498	2245
889.559	2260
889.577	2174
889.656	1759
889.664	1714
889.735	2489
889.768	2844
889.814	2598
889.873	2254
889.978	1847
890.083	2618
890.187	2146
890.292	2105
890.397	2359
890.501	2401
890.606	1491
890.710	2448
890.815	1448
890.919	2431
891.024	2378
891.128	2486
891.233	1972
891.337	2009
891.442	733
891.546	1598
891.650	1639
891.755	1941
891.859	2843
891.963	1935
892.068	2565
892.172	2462
892.276	1611
892.380	1662
892.484	2177
892.589	2773
892.693	1744
892.797	1878
892.901	1333
893.005	2380
893.109	1880
893.213	2715
893.317	2529
893.421	1789
893.525	1410
893.629	2028
893.733	1864
893.837	2059
893.941	1507
894.045	2037
894.148	2078
894.252	6421
894.356	5331
894.460	1880
894.564	2743
894.667	2222
894.771	1744
894.875	2233
894.978	2401
895.082	1892
895.186	2503
895.289	1757
895.393	1245
895.496	2119
895.600	1488
895.703	1458
895.807	2000
895.910	1406
896.014	1160
896.117	1860
896.221	2158
896.324	1406
896.427	1268
896.531	1927
896.634	1387
896.737	1689
896.840	2383
896.944	2098
897.047	1853
897.150	1609
897.253	1846
897.356	2359
897.460	1225
897.563	1225
897.666	1058
897.769	1857
897.872	1846
897.975	1790
898.078	2248
898.181	1485
898.284	833
898.387	987
898.490	2299
898.593	2177
898.695	1863
898.798	1992
898.901	1648
899.004	1338
899.107	1497
899.209	1316
899.312	1979
899.415	2277
899.518	1065
899.620	1401
899.723	2227
899.826	2224
899.928	2580
900.031	1591
900.133	1600
900.236	2173
900.338	1416
900.441	1680
900.543	1282
900.646	1832
900.748	1093
900.851	2147
900.953	1971
901.055	1972
901.158	1426
901.260	2254
901.362	2156
901.465	1605
901.567	1676
901.669	2045
901.771	1556
901.873	1913
901.976	1865
902.078	1278
902.180	1664
902.282	1329
902.384	1723
902.486	1964
902.588	2532
902.690	2341
902.792	1852
902.894	2313
902.996	1952
903.098	926
903.200	1422
903.302	1312
903.404	2002
903.505	1680
903.607	1925
903.709	1350
903.811	1661
903.913	2096
904.014	1488
904.116	1230
904.218	1159
904.319	1513
904.421	1532
904.523	1983
904.624	944
904.726	1231
904.827	1472
904.929	1921
905.030	1293
905.132	1318
905.233	1786
905.335	1061
905.436	1008
905.537	925
905.639	1517
905.740	1693
905.841	1666
905.943	1917
906.044	1792
906.145	2298
906.247	1245
906.348	1848
906.449	2258
906.550	2114
906.651	1437
906.752	981
906.854	466
906.955	1804
907.056	954
907.157	2242
907.258	1239
907.359	1881
907.460	1944
907.561	1255
907.662	1733
907.762	1428
907.863	1709
907.964	1874
908.065	1250
908.166	1845
908.267	1110
908.367	1383
908.468	1667
908.569	1269
908.670	1821
908.770	2604
908.871	1892
908.971	1338
909.072	2305
909.173	1392
909.273	1370
909.374	759
909.474	1186
909.575	2022
909.675	1209
909.776	1227
909.876	1509
909.977	1219
910.077	1225
910.177	824
910.278	1429
910.378	801
910.478	1289
910.579	1482
910.679	1709
910.779	1920
910.879	1663
910.980	1540
911.080	952
911.180	1022
911.280	792
911.380	1189
911.480	1359
911.580	1487
911.680	1465
911.780	1139
911.880	1609
911.980	1996
912.080	1668
912.180	2013
912.280	681
912.380	1144
912.480	1167
912.580	1809
912.679	1222
912.779	2054
912.879	1119
912.979	1620
913.078	1022
913.178	1094
913.278	1375
913.377	1274
913.477	1023
913.577	1154
913.676	1368
913.776	1160
913.875	947
913.975	2533
914.074	1829
914.174	1878
914.273	1632
914.373	1525
914.472	1418
914.572	1261
914.671	863
914.770	1641
914.870	1205
914.969	1420
915.068	1011
915.167	741
915.267	1145
915.366	916
915.465	924
915.564	1113
915.663	1112
915.763	1472
915.862	1031
915.961	1224
916.060	736
916.159	960
916.258	654
916.357	1438
916.456	1168
916.555	1739
916.654	1407
916.752	700
916.851	1265
916.950	1008
917.049	1217
917.148	1312
917.247	1497
917.345	1003
917.444	604
917.543	1476
917.642	778
917.740	1221
917.839	1207
917.937	1781
918.036	1477
918.135	485
918.233	1051
918.332	1140
918.430	1263
918.529	1523
918.627	1315
918.726	1844
918.824	1178
918.923	1419
919.021	1241
919.119	1230
919.218	1268
919.316	1194
919.414	858
919.512	1059
919.611	1119
919.709	856
919.807	1162
919.905	846
920.003	846
920.102	1378
920.200	1285
920.298	1317
920.396	1797
920.494	1234
920.592	1091
920.690	1337
920.788	1138
920.886	756
920.984	2164
921.082	1215
921.180	2124
921.277	1581
921.375	950
921.473	1344
921.571	933
921.669	1032
921.766	1064
921.864	1883
921.962	1504
922.060	1442
922.157	1067
922.255	1417
922.352	926
922.450	1632
922.548	1230
922.645	838
922.743	1885
922.840	2355
922.938	1461
923.035	1942
923.133	1776
923.230	1748
923.327	1921
923.425	2216
923.522	1934
923.619	2183
923.717	1655
923.814	1695
923.911	1347
924.008	2319
924.106	833
924.203	1225
924.300	1675
924.397	1322
924.494	1045
924.591	2450
924.688	1600
924.786	1869
924.883	1680
924.979	2438
925.077	1414
925.173	1756
925.270	1642
925.367	2604
925.464	2154
925.561	1797
925.658	1521
925.755	1217
925.852	2494
925.948	2472
926.045	1801
926.142	1583
926.239	3081
926.335	2709
926.432	2523
926.529	2512
926.625	1691
926.722	1756
926.818	767
926.915	1481
927.011	2221
927.108	1821
927.204	934
927.301	1689
927.397	1605
927.494	2075
927.590	1787
927.687	1814
927.783	1970
927.879	1570
927.976	1694
928.072	1752
928.168	1967
928.264	1576
928.361	1944
928.457	1807
928.553	2407
928.649	1122
928.745	1079
928.841	1962
928.937	1528
929.033	1715
929.129	1844
929.225	1969
929.321	1644
929.417	1123
929.513	1723
929.609	1320
929.705	991
929.801	2172
929.897	1680
929.993	1354
930.089	1279
930.184	2227
930.280	1502
930.376	2365
930.471	1081
930.567	1139
930.663	778
930.758	1457
930.854	695
930.950	1358
931.045	1135
931.141	1415
931.236	2187
931.332	1274
931.427	650
931.523	1764
931.618	1161
931.714	1441
931.809	1647
931.905	2274
932.000	727
932.095	1920
932.191	706
932.286	1566
932.381	1331
932.476	2189
932.572	1123
932.667	992
932.762	678
932.857	1525
932.952	817
933.047	977
933.142	307
933.237	1203
933.332	1264
933.427	1484
933.522	1392
933.617	1298
933.712	1014
933.807	1268
933.902	1252
933.997	1226
934.092	659
934.187	1754
934.282	2015
934.376	1514
934.471	2156
934.566	1256
934.661	1288
934.755	1846
934.850	1044
934.945	985
935.039	1276
935.134	1158
935.228	1257
935.323	1953
935.417	1270
935.512	1066
935.606	1294
935.701	1503
935.795	1663
935.890	1337
935.984	1957
936.079	1097
936.173	1776
936.267	705
936.362	706
936.456	1328
936.550	711
936.644	1966
936.738	1357
936.833	1987
936.927	623
937.021	1622
937.115	1253
937.209	1725
937.303	1547
937.397	568
937.491	1203
937.585	1972
937.679	750
937.773	1544
937.867	1800
937.961	1630
938.055	1315
938.149	1355
938.243	798
938.337	1393
938.430	1188
938.524	1923
938.618	1361
938.712	1583
938.805	1730
938.899	1491
938.993	1224
939.086	908
939.180	1005
939.274	1957
939.367	1056
939.461	1606
939.554	897
939.648	400
939.741	539
939.835	1214
939.928	857
940.022	1203
940.115	1144
940.208	1436
940.302	1733
940.395	1531
940.488	678
940.582	1860
940.675	1789
940.768	860
940.861	1146
940.954	747
941.048	1682
941.141	1901
941.234	1327
941.327	1718
941.420	2901
941.513	2412
941.606	1283
941.699	831
941.792	1090
941.885	1228
941.978	1174
942.071	1319
942.164	459
942.257	1068
942.349	1665
942.442	1034
942.535	1187
942.628	1006
942.721	797
942.813	907
942.906	1175
942.999	917
943.091	1353
943.184	966
943.277	253
943.369	1429
943.462	1035
943.554	1298
943.647	1180
943.739	445
943.832	1595
943.924	1452
944.017	660
944.109	458
944.201	1310
944.294	1559
944.386	277
944.478	1122
944.571	1012
944.663	1766
944.755	1260
944.847	1393
944.940	884
945.032	1567
945.124	515
945.216	1418
945.308	983
945.400	869
945.492	524
945.584	790
945.676	434
945.768	681
945.860	1174
945.952	1859
946.044	1044
946.136	704
946.228	1155
946.320	1152
946.412	556
946.503	825
946.595	1004
946.687	850
946.779	1251
946.870	778
946.962	-451
947.054	430
947.145	1025
947.237	1109
947.329	581
947.420	843
947.512	711
947.603	448
947.695	586
947.786	546
947.878	429
947.969	1074
948.061	386
948.152	643
948.243	1071
948.335	495
948.426	-61
948.517	363
948.609	39
948.700	737
948.791	1213
948.882	1087
948.973	1268
949.065	70
949.156	236
949.247	895
949.338	534
949.429	899
949.520	555
949.611	922
949.702	938
949.793	240
949.884	850
949.975	613
950.066	503
950.157	187
950.247	794
950.338	-16
950.429	679
950.520	555
950.611	435
950.701	607
950.792	1045
950.883	1779
950.973	920
951.064	846
951.155	1170
951.245	1316
951.336	469
951.427	124
951.517	5
951.608	459
951.698	272
951.788	282
951.879	-313
951.969	594
952.060	-58
952.150	1128
952.240	314
952.331	362
952.421	703
952.511	132
952.602	798
952.692	699
952.782	285
952.872	1287
952.962	622
953.052	356
953.143	648
953.233	349
953.323	1400
953.413	-79
953.503	466
953.593	1063
953.683	595
953.773	-196
953.863	457
953.953	851
954.042	425
954.132	874
954.222	879
954.312	673
954.402	566
954.492	1279
954.581	2167
954.671	893
954.761	-608
954.850	724
954.940	716
955.030	350
955.119	54
955.209	-294
955.298	-163
955.388	512
955.477	-316
955.567	334
955.656	675
955.746	1147
955.835	535
955.925	661
956.014	206
956.103	774
956.193	-291
956.282	411
956.371	69
956.461	189
956.550	703
956.639	188
956.728	224
956.817	724
956.906	758
956.995	691
957.085	577
957.174	251
957.263	42
957.352	301
957.441	517
957.530	-386
957.619	188
957.708	1062
957.796	-104
957.885	885
957.974	90
958.063	454
958.152	-89
958.241	1302
958.329	462
958.418	1061
958.507	535
958.596	1208
958.684	556
958.773	1042
958.861	1237
958.950	1634
959.039	902
959.127	504
959.216	1298
959.304	1419
959.393	835
959.481	1323
959.570	1556
959.658	1312
959.746	869
959.835	1592
959.923	2929
960.011	2685
960.100	889
960.188	753
960.276	833
960.365	1059
960.453	256
960.541	417
960.629	56
960.717	626
960.805	448
960.893	483
960.981	121
961.069	456
961.158	763
961.245	820
961.333	802
961.421	984
961.509	220
961.597	920
961.685	637
961.773	-305
961.861	-152
961.949	479
962.036	610
962.124	695
962.212	-323
962.299	511
962.387	380
962.475	829
962.562	-522
962.650	1579
962.738	892
962.825	-326
962.913	-194
963.000	285
963.088	679
963.175	686
963.263	299
963.350	54
963.438	409
963.525	605
963.612	1162
963.700	4158
963.787	8925
963.874	8845
963.962	986
964.049	156
964.136	603
964.223	696
964.310	46
964.398	305
964.485	216
964.572	832
964.659	1328
964.746	1731
964.833	-14
964.920	34
965.007	68
965.094	585
965.181	89
965.268	270
965.355	-422
965.441	-383
965.528	279
965.615	614
965.702	-339
965.789	156
965.875	-193
965.962	728
966.049	-295
966.136	-27
966.222	567
966.309	91
966.395	-689
966.482	-207
966.569	276
966.655	260
966.742	-395
966.828	833
966.915	210
967.001	756
967.087	-6
967.174	889
967.260	484
967.347	1019
967.433	2866
967.519	6857
967.605	4077
967.692	-84
967.778	-240
967.864	358
967.950	-520
968.036	-381
968.123	972
968.209	-241
968.295	-731
968.381	679
968.467	194
968.553	-1246
968.639	511
968.725	-394
968.811	1437
968.897	2308
968.983	-40
969.069	214
969.154	379
969.240	302
969.326	-446
969.412	-548
969.497	-205
969.583	-283
969.669	62
969.755	-774
969.840	-61
969.926	262
970.012	233
970.097	-250
970.183	209
970.268	1000
970.354	390
970.439	2004
970.525	3401
970.610	2419
970.696	918
970.781	208
970.866	857
970.952	-94
971.037	152
971.122	49
971.208	3
971.293	-126
971.378	118
971.463	-238
971.549	-101
971.634	-526
971.719	-237
971.804	321
971.889	244
971.974	1096
972.059	-84
972.144	340
972.229	-451
972.314	-36
972.399	-302
972.484	-516
972.569	141
972.654	204
972.739	1705
972.824	1609
972.908	987
972.993	481
973.078	-148
973.163	-113
973.247	132
973.332	-654
973.417	124
973.501	-703
973.586	-338
973.671	-375
973.755	-343
973.840	260
973.924	548
974.009	317
974.093	-146
974.178	473
974.262	1233
974.346	1970
974.431	170
974.515	-27
974.600	-22
974.684	395
974.768	-788
974.852	141
974.937	-310
975.021	1007
975.105	646
975.189	103
975.273	-350
975.358	264
975.442	-51
975.526	-390
975.610	-1013
975.694	-829
975.778	68
975.862	149
975.946	-1127
976.030	212
976.114	-403
976.198	-137
976.281	-570
976.365	397
976.449	257
976.533	-26
976.617	-838
976.700	-36
976.784	132
976.868	440
976.951	370
977.035	654
977.119	-48
977.202	-939
977.286	-459
977.369	35
977.453	-36
977.536	161
977.620	-475
977.703	491
977.787	-455
977.870	1031
977.953	763
978.037	-539
978.120	-239
978.203	1033
978.287	1091
978.370	1449
978.453	696
978.536	-42
978.620	-471
978.703	815
978.786	671
978.869	79
978.952	-821
979.035	684
979.118	-958
979.201	-628
979.284	-564
979.367	95
979.450	-119
979.533	432
979.616	-3
979.699	-589
979.782	469
979.865	-291
979.948	-795
980.030	-35
980.113	-69
980.196	-387
980.279	14
980.361	-348
980.444	-93
980.526	-864
980.609	-476
980.692	55
980.774	-633
980.857	-626
980.939	514
981.022	-374
981.104	161
981.187	-442
981.269	-272
981.352	55
981.434	-13
981.516	-273
981.599	-268
981.681	-615
981.763	123
981.846	65
981.928	-107
982.010	-423
982.092	58
982.174	-234
982.256	1
982.339	-69
982.421	321
982.503	-793
982.585	-728
982.667	-553
982.749	-206
982.831	-1216
982.913	134
982.995	471
983.077	-779
983.158	329
983.240	-226
983.322	224
983.404	28
983.486	-435
983.568	-489
983.649	-504
983.731	-347
983.813	-739
983.894	-1490
983.976	-14
984.058	-787
984.139	-310
984.221	-62
984.302	-83
984.384	-328
984.465	-473
984.547	-478
984.628	261
984.710	-342
984.791	538
984.872	258
984.954	-552
985.035	-394
985.116	-1250
985.198	-510
985.279	-180
985.360	-1210
985.441	-539
985.522	-595
985.604	-963
985.685	-1767
985.766	-102
985.847	191
985.928	-207
986.009	-1153
986.090	-689
986.171	-553
986.252	-132
986.333	-504
986.414	-628
986.495	-588
986.576	-47
986.656	-720
986.737	-457
986.818	-785
986.899	-587
986.980	-623
987.060	-447
987.141	-1107
987.222	134
987.302	-958
987.383	-494
987.464	-173
987.544	-90
987.625	-1255
987.705	-125
987.786	-288
987.866	-1369
987.947	-353
988.027	6
988.108	-278
988.188	-54
988.268	-1095
988.349	580
988.429	-1189
988.509	-446
988.589	-1019
988.670	-1072
988.750	517
988.830	157
988.910	-127
988.990	-566
989.070	-1372
989.151	-48
989.231	-910
989.311	267
989.391	270
989.471	-609
989.551	-463
989.631	-149
989.711	-1117
989.791	-641
989.870	-744
989.950	-486
990.030	-558
990.110	-491
990.190	-1088
990.269	-116
990.349	-1058
990.429	-296
990.509	-366
990.588	-969
990.668	-302
990.747	-334
990.827	-428
990.907	-392
990.986	-451
991.066	-238
991.145	-467
991.225	-144
991.304	-1013
991.383	-288
991.463	-775
991.542	-193
991.622	-844
991.701	-1128
991.780	-422
991.859	-834
991.939	-1415
992.018	-427
992.097	-680
992.176	-797
992.256	-695
992.335	-860
992.414	-997
992.493	-563
992.572	-988
992.651	367
992.730	-92
992.809	-267
992.888	-610
992.967	-1074
993.046	-682
993.125	-628
993.203	-970
993.282	-143
993.361	-741
993.440	-928
993.519	-998
993.597	-773
993.676	-664
993.755	334
993.834	-497
993.912	-927
993.991	-127
994.069	-1727
994.148	-889
994.226	-597
994.305	-7
994.384	-1551
994.462	594
994.540	-1466
994.619	-1048
994.697	-639
994.776	-1348
994.854	59
994.932	-803
995.011	-160
995.089	-728
995.167	-443
995.245	-1086
995.324	-831
995.402	-351
995.480	-481
995.558	-279
995.636	-1352
995.714	-1074
995.792	-487
995.870	-1273
995.948	-457
996.026	-989
996.104	-981
996.182	-1428
996.260	-412
996.338	-622
996.416	-464
996.494	-1397
996.572	-398
996.649	-917
996.727	-1153
996.805	-838
996.883	-249
996.960	-1121
997.038	-1098
997.116	-1163
997.193	-360
997.271	-905
997.348	-882
997.426	-900
997.504	-1407
997.581	-422
997.658	-810
997.736	-1737
997.813	-401
997.891	-1012
997.968	-1466
998.046	-1692
998.123	-887
998.200	-248
998.277	-757
998.355	-616
998.432	-1129
998.509	-1903
998.586	-423
998.663	-365
998.741	-81
998.818	-1447
998.895	-538
998.972	-578
999.049	-422
999.126	-729
999.203	-515
999.280	-645
999.357	-565
999.434	-1935
999.511	-648
999.587	-517
999.664	-888
999.741	-64
999.818	662
999.895	-797
999.971	-1102
1000.048	-1158
1000.125	-340
1000.202	-689
1000.278	-1420
1000.355	-285
1000.431	-1331
1000.508	-1429
1000.584	-706
1000.661	-990
1000.738	-958
1000.814	-916
1000.890	-1014
1000.967	-1390
1001.043	-99
1001.120	-851
1001.196	-414
1001.272	-751
1001.349	-408
1001.425	-293
1001.501	-1078
1001.577	-1488
1001.654	-1347
1001.730	-801
1001.806	-1030
1001.882	-1642
1001.958	-617
1002.034	-1058
1002.110	-303
1002.186	-2034
1002.262	-614
1002.338	-1578
1002.414	-1200
1002.490	-1373
1002.566	-723
1002.642	-2019
1002.718	-260
1002.794	-582
1002.870	-989
1002.945	-879
1003.021	-824
1003.097	-1496
1003.173	-274
1003.248	-1125
1003.324	-775
1003.400	-1174
1003.475	-1231
1003.551	-1260
1003.626	-755
1003.702	-1009
1003.777	-1602
1003.853	-1386
1003.928	-913
1004.004	-2162
1004.079	-729
1004.155	-1042
1004.230	-1234
1004.305	-862
1004.381	-1102
1004.456	-1730
1004.531	-1971
1004.607	-1482
1004.682	-1099
1004.757	-1196
1004.832	-1120
1004.907	-1358
1004.982	-498
1005.057	-1715
1005.133	-889
1005.208	-1502
1005.283	-1610
1005.358	-443
1005.433	-1407
1005.508	-1458
1005.583	-947
1005.657	-1181
1005.732	-314
1005.807	-1200
1005.882	-1151
1005.957	-980
1006.032	-1175
1006.106	-1723
1006.181	-1488
1006.256	-1589
1006.331	-1694
1006.405	-888
1006.480	-997
1006.554	-1228
1006.629	-1569
1006.704	-1976
1006.778	-882
1006.853	-685
1006.927	-1384
1007.002	-1387
1007.076	-408
1007.150	-989
1007.225	-1661
1007.299	-1541
1007.373	-1867
1007.448	-1524
1007.522	-1279
1007.596	-895
1007.671	-1664
1007.745	-1235
1007.819	-1365
1007.893	-857
1007.967	-1364
1008.041	-2587
1008.115	-1845
1008.190	-1725
1008.264	-910
1008.338	-2106
1008.412	-1489
1008.486	-1697
1008.560	-865
1008.633	-1560
1008.707	-1050
1008.781	-1494
1008.855	-1645
1008.929	-1086
1009.003	-1651
1009.076	-1738
1009.150	-1149
1009.224	-1851
1009.298	-1043
1009.371	-1393
1009.445	-243
1009.519	-1040
1009.592	-1804
1009.666	-901
1009.739	-1025
1009.813	-1702
1009.886	-642
1009.960	-1558
1010.033	-799
1010.107	-680
1010.180	-2368
1010.253	-1664
1010.327	-1164
1010.400	-1510
1010.473	-1844
1010.547	-1065
1010.620	-712
1010.693	-808
1010.766	-1664
1010.840	-1395
1010.913	-2122
1010.986	-1471
1011.059	-1773
1011.132	-1584
1011.205	-842
1011.278	-1491
1011.351	-1706
1011.424	-1831
1011.497	-1184
1011.570	-1364
1011.643	-1666
1011.716	-1823
1011.789	-2067
1011.862	-1228
1011.934	-1487
1012.007	-1455
1012.080	-381
1012.153	-1394
1012.225	-1045
1012.298	-1869
1012.371	-1394
1012.443	-1592
1012.516	-2211
1012.588	-798
1012.661	-517
1012.733	-1765
1012.806	-996
1012.879	-1095
1012.951	-1289
1013.023	-1660
1013.096	-830
1013.168	-1317
1013.241	-1246
1013.313	-1834
1013.385	-1836
1013.458	-1023
1013.530	-623
1013.602	-1825
1013.674	-1476
1013.746	-1826
1013.819	-1495
1013.891	-1059
1013.963	-1475
1014.035	-2318
1014.107	-995
1014.179	-1385
1014.251	-1270
1014.323	-1559
1014.395	-1627
1014.467	-1789
1014.539	-1143
1014.611	-1749
1014.683	-2034
1014.754	-1071
1014.826	-1955
1014.898	-1015
1014.970	-1616
1015.042	-1232
1015.113	-1216
1015.185	-1338
1015.257	-1612
1015.328	-2612
1015.400	-1621
1015.471	-1136
1015.543	-2128
1015.615	-1048
1015.686	-1647
1015.757	-1779
1015.829	-1045
1015.901	-1655
1015.972	-1555
1016.043	-1832
1016.115	-1421
1016.186	-1923
1016.257	-2210
1016.328	-1223
1016.400	-1061
1016.471	-1792
1016.542	-980
1016.613	-1392
1016.685	-1358
1016.756	-1571
1016.827	-1097
1016.898	-2423
1016.969	-716
1017.040	-1203
1017.111	-1743
1017.182	-2040
1017.253	-1914
1017.324	-2000
1017.395	-882
1017.466	-1707
1017.537	-1739
1017.608	-1314
1017.678	-2069
1017.749	-883
1017.820	-617
1017.891	-1811
1017.961	-1635
1018.032	-1789
1018.103	-1270
1018.173	-1372
1018.244	-1415
1018.315	-1538
1018.385	-1092
1018.456	-2588
1018.526	-2334
1018.597	-1323
1018.667	-1745
1018.738	-1979
1018.808	-1634
1018.878	-1742
1018.949	-1309
1019.019	-1728
1019.089	-2110
1019.160	-1527
1019.230	-2185
1019.300	-1821
1019.371	-1254
1019.441	-761
1019.511	-915
1019.581	-1969
1019.651	-1254
1019.721	-1352
1019.791	-2303
1019.861	-1637
1019.931	-1859
1020.001	-2294
1020.071	-1529
1020.141	-926
1020.211	-1752
1020.281	-1942
1020.351	-1706
1020.421	-1202
1020.491	-1665
1020.560	-1679
1020.630	-1549
1020.700	-1947
1020.770	-1574
1020.839	-2006
1020.909	-2086
1020.979	-1893
1021.048	-1835
1021.118	-1576
1021.187	-2238
1021.257	-2034
1021.326	-553
1021.396	-1190
1021.465	-1368
1021.535	-2164
1021.604	-2193
1021.674	-1866
1021.743	-2267
1021.812	-2142
1021.882	-1929
1021.951	-1467
1022.020	-1746
1022.089	-1158
1022.159	-2150
1022.228	-1319
1022.297	-1906
1022.366	-1984
1022.435	-1774
1022.504	-2172
1022.573	-2082
1022.642	-1255
1022.711	-1766
1022.781	-2106
1022.849	-1792
1022.918	-2633
1022.987	-1727
1023.056	-1670
1023.125	-1836
1023.194	-1505
1023.263	-1316
1023.331	-934
1023.400	-1608
1023.469	-1553
1023.538	-1515
1023.606	-1884
1023.675	-1766
1023.744	-2006
1023.812	-2003
1023.881	-2193
1023.949	-2008
1024.018	-1849
1024.086	-1499
1024.155	-1444
1024.223	-1831
1024.292	-1711
1024.360	-1632
1024.429	-1478
1024.497	-1622
1024.565	-1923
1024.634	-1212
1024.702	-1615
1024.770	-1339
1024.838	-2337
1024.907	-1172
1024.975	-1972
1025.043	-1518
1025.111	-1775
1025.179	-1436
1025.247	-1986
1025.315	-1760
1025.383	-2084
1025.451	-1979
1025.519	-2697
1025.587	-2043
1025.655	-1377
1025.723	-1989
1025.791	-2217
1025.859	-749
1025.927	-1300
1025.995	-1210
1026.062	-1604
1026.130	-2029
1026.198	-2840
1026.266	-1593
1026.333	-1542
1026.401	-1450
1026.469	-1366
1026.536	-1664
1026.604	-1730
1026.671	-1479
1026.739	-1699
1026.806	-1860
1026.874	-2323
1026.941	-2100
1027.009	-1434
1027.076	-1102
1027.144	-1491
1027.211	-1719
1027.278	-1487
1027.345	-2087
1027.413	-1006
1027.480	-1736
1027.547	-1972
1027.614	-1376
1027.682	-1653
1027.749	-2276
1027.816	-1780
1027.883	-1947
1027.950	-1538
1028.017	-2347
1028.084	-1559
1028.151	-1702
1028.218	-1752
1028.285	-1987
1028.352	-2053
1028.419	-1960
1028.486	-2117
1028.553	-1738
1028.619	-1708
1028.686	-1124
1028.753	-2168
1028.820	-1751
1028.886	-2258
1028.953	-1594
1029.020	-1554
1029.086	-1915
1029.153	-2338
1029.220	-2457
1029.286	-1879
1029.353	-1551
1029.419	-2397
1029.486	-1412
1029.552	-2389
1029.619	-1821
1029.685	-1802
1029.751	-2231
1029.818	-1604
1029.884	-2033
1029.951	-1723
1030.017	-2554
1030.083	-1681
1030.149	-1326
1030.216	-1617
1030.282	-1810
1030.348	-1523
1030.414	-2527
1030.480	-2046
1030.546	-2348
1030.612	-797
1030.678	-2246
1030.744	-1869
1030.810	-1706
1030.876	-1779
1030.942	-1722
1031.008	-1571
1031.074	-1533
1031.140	-2123
1031.206	-1087
1031.272	-1944
1031.337	-1658
1031.403	-1923
1031.469	-1747
1031.534	-1429
1031.600	-1118
1031.666	-1468
1031.731	-1676
1031.797	-1918
1031.863	-1629
1031.928	-1765
1031.994	-1700
1032.059	-2055
1032.125	-1449
1032.190	-2118
1032.256	-1944
1032.321	-2464
1032.386	-2254
1032.452	-1590
1032.517	-1899
1032.582	-2310
1032.647	-1371
1032.713	-1608
1032.778	-1582
1032.843	-1309
1032.908	-1736
1032.974	-1746
1033.039	-1438
1033.104	-1720
1033.169	-1628
1033.234	-2137
1033.299	-2078
1033.364	-1606
1033.429	-2037
1033.494	-1577
1033.559	-2189
1033.624	-1083
1033.688	-1478
1033.753	-2364
1033.818	-1671
1033.883	-1627
1033.948	-1788
1034.013	-1057
1034.077	-912
1034.142	-2064
1034.207	-2275
1034.271	-1283
1034.336	-1419
1034.400	-1367
1034.465	-1036
1034.530	-1651
1034.594	-807
1034.658	-1310
1034.723	-1871
1034.787	-1631
1034.852	-1869
1034.916	-1178
1034.981	-1688
1035.045	-1463
1035.109	-1212
1035.173	-1044
1035.238	-1833
1035.302	-1384
1035.366	-2199
1035.430	-485
1035.495	-2008
1035.559	-1787
1035.623	-1631
1035.687	-1792
1035.751	-2032
1035.815	-1695
1035.879	-2100
1035.943	-1223
1036.007	-1619
1036.071	-2239
1036.135	-1755
1036.198	-2505
1036.262	-1506
1036.326	-1640
1036.390	-1724
1036.454	-1959
1036.517	-1767
1036.581	-1009
1036.645	-1101
1036.709	-1447
1036.772	-1550
1036.836	-1419
1036.900	-1131
1036.963	-1415
1037.026	-1855
1037.090	-1499
1037.154	-2340
1037.217	-2155
1037.280	-1269
1037.344	-1648
1037.407	-1763
1037.471	-1952
1037.534	-1481
1037.597	-1885
1037.661	-1560
1037.724	-1536
1037.787	-1218
1037.850	-620
1037.913	-1780
1037.977	-2458
1038.040	-2123
1038.103	-2179
1038.166	-1490
1038.229	-2381
1038.292	-2505
1038.355	-1464
1038.418	-1603
1038.481	-1437
1038.544	-1724
1038.607	-1879
1038.670	-1675
1038.732	-1517
1038.795	-1315
1038.858	-1808
1038.921	-1298
1038.984	-1093
1039.046	-1881
1039.109	-1688
1039.172	-1846
1039.234	-1779
1039.297	-1287
1039.360	-1867
1039.422	-1962
1039.485	-1690
1039.547	-1537
1039.610	-1203
1039.672	-1811
1039.734	-1997
1039.797	-2217
1039.859	-2265
1039.922	-1667
1039.984	-1337
1040.046	-1537
1040.109	-2614
1040.171	-2343
1040.233	-1542
1040.295	-1618
1040.358	-2601
1040.420	-1830
1040.482	-2369
1040.544	-1766
1040.606	-1549
1040.668	-2280
1040.730	-2528
1040.792	-1334
1040.854	-1658
1040.916	-1295
1040.978	-2564
1041.040	-1758
1041.102	-2465
1041.164	-1619
1041.225	-1809
1041.287	-2015
1041.349	-1767
1041.411	-1503
1041.472	-2360
1041.534	-1199
1041.596	-2294
1041.657	-1529
1041.719	-3045
1041.781	-1803
1041.842	-2190
1041.904	-1818
1041.965	-1732
1042.027	-1612
1042.088	-1955
1042.150	-1572
1042.211	-1793
1042.272	-1548
1042.334	-1221
1042.395	-1585
1042.456	-1759
1042.518	-1748
1042.579	-2812
1042.640	-1325
1042.701	-2395
1042.763	-2277
1042.824	-2530
1042.885	-2289
1042.946	-1386
1043.007	-1888
1043.068	-2397
1043.129	-1328
1043.190	-2070
1043.251	-1706
1043.312	-2264
1043.373	-1649
1043.434	-1614
1043.495	-1465
1043.556	-2146
1043.616	-1610
1043.677	-2146
1043.738	-1907
1043.799	-1520
1043.859	-2154
1043.920	-2620
1043.981	-2019
1044.041	-1876
1044.102	-2098
1044.162	-2004
1044.223	-1589
1044.284	-2428
1044.344	-1947
1044.405	-1975
1044.465	-2023
1044.525	-2343
1044.586	-1916
1044.646	-1671
1044.707	-1930
1044.767	-1269
1044.827	-1486
1044.887	-2072
1044.948	-1971
1045.008	-1454
1045.068	-1508
1045.128	-1971
1045.188	-1677
1045.249	-1468
1045.309	-2046
1045.369	-1713
1045.429	-1251
1045.489	-2118
1045.549	-1584
1045.609	-1403
1045.669	-2118
1045.729	-2055
1045.789	-1738
1045.848	-1341
1045.908	-1968
1045.968	-2357
1046.028	-1552
1046.088	-1474
1046.147	-1038
1046.207	-1467
1046.267	-1491
1046.326	-981
1046.386	-1761
1046.446	-1503
1046.505	-1486
1046.565	-969
1046.624	-1090
1046.684	-1555
1046.743	-766
1046.803	247
1046.862	-324
1046.922	0
