'Start Wavelength	183.907
'End Wavelength	1046.922
'Gate Delay	5.000
'Gate Width (ms)	1.050
'Laser Output Level	0.000
'X Position	0.000
'Y Position	0.000
'Z Position	0.000
'Grid Point Number	1.000
'Shot Number	100.000
183.907	687.000
183.977	-916.000
184.047	98
184.116	339
184.186	-566
184.256	-636
184.325	-404
184.395	-1540
184.465	712
184.534	-225
184.604	-1015
184.674	-339
184.743	-260
184.813	115
184.883	-385
184.952	109
185.022	-164
185.092	173
185.161	-448
185.231	-870
185.301	-110
185.370	745
185.440	-42
185.509	-505
185.579	-40
185.649	440
185.718	-89
185.788	710
185.857	-418
185.927	-260
185.996	289
186.066	-151
186.136	-176
186.205	-825
186.275	-328
186.344	-282
186.414	-147
186.483	-275
186.553	938
186.622	246
186.692	132
186.761	6
186.831	262
186.900	-837
186.970	351
187.039	631
187.109	282
187.178	-220
187.248	89
187.317	-18
187.387	229
187.456	-157
187.526	604
187.595	141
187.664	-751
187.734	150
187.803	66
187.873	-362
187.942	145
188.012	191
188.081	-257
188.150	-301
188.220	-426
188.289	690
188.358	139
188.428	-369
188.497	-242
188.567	399
188.636	-416
188.705	703
188.775	37
188.844	-594
188.913	506
188.983	-282
189.052	-1099
189.121	110
189.191	-253
189.260	576
189.329	808
189.399	-9
189.468	324
189.537	-1079
189.606	336
189.676	356
189.745	-340
189.814	843
189.883	-441
189.953	477
190.022	239
190.091	-916
190.161	-472
190.230	-13
190.299	325
190.368	-1054
190.437	-592
190.507	-461
190.576	26
190.645	-170
190.714	-168
190.783	-417
190.853	595
190.922	-570
190.991	437
191.060	-587
191.129	-380
191.198	-98
191.268	206
191.337	235
191.406	-164
191.475	-631
191.544	-325
191.613	-505
191.682	-478
191.752	18
191.821	-592
191.890	-950
191.959	360
192.028	-712
192.097	187
192.166	-300
192.235	-464
192.304	765
192.373	530
192.442	-94
192.511	-35
192.580	-350
192.650	257
192.719	-499
192.788	326
192.857	-897
192.926	-359
192.995	-283
193.064	957
193.133	-357
193.202	-412
193.271	-139
193.340	406
193.409	-420
193.478	17
193.547	-732
193.615	-402
193.684	40
193.753	127
193.822	42
193.891	-805
193.960	400
194.029	-439
194.098	-768
194.167	112
194.236	458
194.305	279
194.374	128
194.443	321
194.512	-381
194.580	57
194.649	-188
194.718	318
194.787	-384
194.856	-240
194.925	-126
194.994	-437
195.062	-62
195.131	131
195.200	-59
195.269	754
195.338	930
195.407	-190
195.475	-63
195.544	508
195.613	-71
195.682	321
195.751	431
195.819	-308
195.888	-500
195.957	324
196.026	-282
196.094	462
196.163	-157
196.232	-66
196.301	-543
196.369	-811
196.438	-500
196.507	-154
196.576	-180
196.644	132
196.713	-528
196.782	-219
196.850	141
196.919	330
196.988	1
197.056	-45
197.125	79
197.194	-11
197.262	-831
197.331	-542
197.400	-341
197.468	-388
197.537	-504
197.606	203
197.674	-411
197.743	21
197.812	-425
197.880	-121
197.949	-520
198.017	-140
198.086	-339
198.155	-417
198.223	-162
198.292	-60
198.360	-389
198.429	-159
198.497	-356
198.566	1
198.635	207
198.703	-385
198.772	80
198.840	-682
198.909	-1040
198.977	700
199.046	-170
199.114	-497
199.183	-467
199.251	208
199.320	-8
199.388	-317
199.457	-489
199.525	432
199.594	-350
199.662	254
199.731	-718
199.799	-684
199.867	402
199.936	-860
200.004	340
200.073	467
200.141	-794
200.210	-628
200.278	-129
200.346	-332
200.415	-91
200.483	-339
200.552	-332
200.620	710
200.688	55
200.757	-265
200.825	-73
200.893	-533
200.962	-1111
201.030	301
201.098	157
201.167	-128
201.235	-312
201.303	-63
201.372	516
201.440	597
201.508	-772
201.577	718
201.645	148
201.713	59
201.781	-768
201.850	841
201.918	55
201.986	9
202.055	-110
202.123	-548
202.191	-160
202.259	-620
202.327	-699
202.396	-371
202.464	-566
202.532	329
202.600	1986
202.669	632
202.737	-139
202.805	-57
202.873	322
202.941	122
203.009	-523
203.078	-249
203.146	-883
203.214	-662
203.282	-570
203.350	1358
203.418	-602
203.487	620
203.555	-787
203.623	-286
203.691	-601
203.759	-573
203.827	-723
203.895	-852
203.963	-246
204.031	-609
204.099	-603
204.168	-369
204.236	216
204.304	402
204.372	-348
204.440	62
204.508	40
204.576	-606
204.644	-381
204.712	-392
204.780	-95
204.848	796
204.916	-616
204.984	-163
205.052	-267
205.120	-463
205.188	-587
205.256	-329
205.324	-43
205.392	66
205.460	-973
205.528	-725
205.596	153
205.664	-176
205.732	-375
205.799	-280
205.867	-461
205.935	-935
206.003	-474
206.071	127
206.139	-423
206.207	-77
206.275	91
206.343	-438
206.411	-570
206.478	-275
206.546	-169
206.614	0
206.682	-464
206.750	-397
206.818	18
206.885	550
206.953	-1122
207.021	669
207.089	175
207.157	-836
207.225	134
207.292	-98
207.360	-641
207.428	-713
207.496	-1128
207.563	81
207.631	-30
207.699	-924
207.767	-120
207.834	-578
207.902	13
207.970	-21
208.038	-817
208.105	-21
208.173	-1305
208.241	-21
208.309	-16
208.376	129
208.444	341
208.512	-250
208.579	-1487
208.647	-5
208.715	715
208.782	-814
208.850	189
208.918	-786
208.985	-102
209.053	185
209.120	-55
209.188	325
209.256	-73
209.323	-721
209.391	-1047
209.459	260
209.526	-631
209.594	-133
209.661	-290
209.729	-441
209.796	307
209.864	525
209.932	-1036
209.999	1601
210.067	122
210.134	-367
210.202	-1011
210.269	88
210.337	504
210.404	-550
210.472	-4
210.539	-413
210.607	-641
210.674	-602
210.742	-114
210.809	-317
210.877	-804
210.944	556
211.012	-1216
211.079	1401
211.146	270
211.214	-43
211.281	338
211.349	454
211.416	-251
211.484	-229
211.551	-495
211.618	304
211.686	-236
211.753	-587
211.821	-1
211.888	-234
211.955	-158
212.023	538
212.090	-277
212.157	-503
212.225	-1005
212.292	-25
212.359	102
212.427	785
212.494	-263
212.561	-576
212.629	252
212.696	-652
212.763	-855
212.831	-1557
212.898	-260
212.965	-138
213.032	-537
213.100	-1520
213.167	-1415
213.234	821
213.301	-1123
213.369	-211
213.436	-297
213.503	-258
213.570	379
213.638	-968
213.705	-75
213.772	-1351
213.839	-295
213.906	121
213.973	-110
214.041	-133
214.108	-47
214.175	282
214.242	-485
214.309	-62
214.376	318
214.444	-198
214.511	-354
214.578	-669
214.645	1221
214.712	95
214.779	-581
214.846	-65
214.913	-268
214.980	378
215.048	96
215.115	842
215.182	207
215.249	-227
215.316	-1091
215.383	809
215.450	-217
215.517	399
215.584	-556
215.651	-209
215.718	-94
215.785	-218
215.852	-1000
215.919	154
215.986	-174
216.053	-304
216.120	-735
216.187	-856
216.254	972
216.321	87
216.388	-817
216.455	-240
216.522	-247
216.589	-243
216.656	-831
216.722	-350
216.789	-183
216.856	-653
216.923	-758
216.990	-175
217.057	-999
217.124	-641
217.191	-399
217.258	223
217.324	-567
217.391	-321
217.458	-610
217.525	-51
217.592	-375
217.659	-1401
217.725	68
217.792	-61
217.859	-147
217.926	-951
217.993	-866
218.059	35
218.126	231
218.193	-376
218.260	-344
218.327	-235
218.393	-946
218.460	-845
218.527	-744
218.594	452
218.660	-636
218.727	603
218.794	-1084
218.860	521
218.927	-637
218.994	-441
219.061	-748
219.127	-324
219.194	-145
219.261	481
219.327	-606
219.394	-116
219.461	-1323
219.527	-553
219.594	450
219.661	-483
219.727	-1429
219.794	687
219.860	-628
219.927	44
219.994	811
220.060	2941
220.127	3695
220.193	1170
220.260	-298
220.326	-64
220.393	-816
220.460	-716
220.526	-131
220.593	-1246
220.659	860
220.726	-914
220.792	-222
220.859	-724
220.925	-248
220.992	208
221.058	724
221.125	509
221.191	-32
221.258	-320
221.324	-245
221.391	-248
221.457	-412
221.524	204
221.590	-31
221.657	986
221.723	-437
221.789	-428
221.856	-94
221.922	-999
221.989	321
222.055	-667
222.121	-1052
222.188	1752
222.254	20
222.321	265
222.387	-386
222.453	-315
222.520	44
222.586	-1342
222.652	-206
222.719	-969
222.785	246
222.851	-599
222.918	230
222.984	382
223.050	-865
223.116	-1713
223.183	251
223.249	-790
223.315	-1064
223.382	393
223.448	-77
223.514	-340
223.580	-41
223.647	-902
223.713	-1297
223.779	-10
223.845	-602
223.911	216
223.978	-1477
224.044	389
224.110	65
224.176	370
224.242	-150
224.309	-700
224.375	191
224.441	291
224.507	-954
224.573	-618
224.639	749
224.705	-550
224.772	-321
224.838	-301
224.904	249
224.970	235
225.036	470
225.102	-620
225.168	-85
225.234	282
225.300	-44
225.366	-54
225.432	-413
225.499	-202
225.565	-363
225.631	-796
225.697	-911
225.763	-128
225.829	-593
225.895	-100
225.961	-438
226.027	36
226.093	-1392
226.159	575
226.225	1291
226.291	93
226.357	363
226.423	319
226.489	143
226.554	40
226.620	-640
226.686	73
226.752	-228
226.818	246
226.884	1075
226.950	1459
227.016	-345
227.082	746
227.148	145
227.214	-286
227.279	-235
227.345	-46
227.411	168
227.477	2902
227.543	6232
227.609	6000
227.674	3717
227.740	682
227.806	736
227.872	-729
227.938	-302
228.003	844
228.069	-21
228.135	-501
228.201	-140
228.267	-1273
228.332	-118
228.398	-1382
228.464	191
228.530	-882
228.595	546
228.661	-1140
228.727	-783
228.792	840
228.858	-1476
228.924	-1780
228.990	1754
229.055	-1183
229.121	-17
229.187	-91
229.252	-756
229.318	-137
229.384	-268
229.449	101
229.515	-2026
229.581	-820
229.646	700
229.712	161
229.777	-193
229.843	-227
229.909	856
229.974	293
230.040	86
230.105	-392
230.171	-959
230.236	193
230.302	-690
230.368	-248
230.433	-1354
230.499	-396
230.564	535
230.630	-1336
230.695	651
230.761	597
230.826	-1213
230.892	842
230.957	-1227
231.023	-209
231.088	247
231.154	-434
231.219	521
231.284	-44
231.350	-285
231.415	-525
231.481	615
231.546	-455
231.612	388
231.677	-290
231.742	-1644
231.808	1402
231.873	-719
231.939	-1435
232.004	1205
232.069	613
232.135	-757
232.200	-275
232.265	149
232.331	-462
232.396	-1046
232.461	-495
232.527	-581
232.592	-820
232.657	602
232.723	-130
232.788	-675
232.853	147
232.918	145
232.984	-361
233.049	-593
233.114	-1060
233.179	781
233.245	727
233.310	403
233.375	-1692
233.440	1177
233.506	-545
233.571	-332
233.636	-565
233.701	-32
233.766	16
233.832	581
233.897	289
233.962	-1321
234.027	1015
234.092	-5
234.157	454
234.222	-601
234.288	524
234.353	327
234.418	959
234.483	244
234.548	-334
234.613	30
234.678	-185
234.743	-639
234.808	1490
234.873	-2048
234.938	335
235.004	-1070
235.069	123
235.134	-1075
235.199	-47
235.264	-82
235.329	-1484
235.394	573
235.459	349
235.524	-1206
235.589	792
235.654	534
235.719	-1856
235.784	301
235.849	-779
235.913	212
235.978	616
236.043	295
236.108	-26
236.173	-491
236.238	769
236.303	-1303
236.368	-1
236.433	224
236.498	-718
236.563	-218
236.627	446
236.692	2301
236.757	1930
236.822	-610
236.887	-552
236.952	208
237.017	-1402
237.081	411
237.146	-839
237.211	661
237.276	2178
237.341	3926
237.405	-8
237.470	-76
237.535	-737
237.600	51
237.664	747
237.729	-1623
237.794	-973
237.859	417
237.923	474
237.988	-565
238.053	571
238.118	-295
238.182	1015
238.247	2500
238.312	-1302
238.376	306
238.441	-1565
238.506	1223
238.570	-794
238.635	495
238.700	344
238.764	5
238.829	494
238.893	-1094
238.958	1734
239.023	-131
239.087	-868
239.152	-62
239.216	-265
239.281	-162
239.346	206
239.410	236
239.475	-95
239.539	2403
239.604	329
239.668	1739
239.733	1772
239.797	5425
239.862	13792
239.926	8343
239.991	3439
240.055	1524
240.120	518
240.184	1139
240.249	-488
240.313	-780
240.378	-672
240.442	775
240.507	1521
240.571	646
240.635	-977
240.700	790
240.764	-353
240.829	103
240.893	-174
240.957	439
241.022	1194
241.086	1184
241.151	-788
241.215	-1310
241.279	942
241.344	-609
241.408	363
241.472	-794
241.537	958
241.601	-430
241.665	-789
241.730	-750
241.794	1610
241.858	-765
241.922	-16
241.987	-162
242.051	-989
242.115	-1325
242.179	154
242.244	-382
242.308	965
242.372	-20
242.436	-630
242.501	-272
242.565	-20
242.629	-840
242.693	611
242.757	-1533
242.822	106
242.886	-64
242.950	574
243.014	-1355
243.078	-294
243.142	-552
243.206	-1017
243.271	110
243.335	219
243.399	958
243.463	385
243.527	3341
243.591	339
243.655	-35
243.719	-643
243.783	880
243.847	713
243.911	257
243.975	-127
244.040	-1166
244.104	1320
244.168	-207
244.232	-1145
244.296	163
244.360	82
244.424	-195
244.488	691
244.552	1014
244.615	-1633
244.679	554
244.743	-24
244.807	-847
244.871	-404
244.935	64
244.999	-486
245.063	-96
245.127	1259
245.191	339
245.255	425
245.319	736
245.383	-1096
245.446	2285
245.510	-102
245.574	516
245.638	454
245.702	-935
245.766	988
245.829	1460
245.893	-723
245.957	-908
246.021	1023
246.085	123
246.149	-111
246.212	1674
246.276	2355
246.340	146
246.404	336
246.467	730
246.531	-1180
246.595	1045
246.659	1606
246.722	-1093
246.786	40
246.850	34
246.913	237
246.977	-1264
247.041	432
247.104	-305
247.168	261
247.232	1330
247.295	3737
247.359	1978
247.423	574
247.486	890
247.550	1568
247.614	-95
247.677	365
247.741	139
247.804	1029
247.868	2683
247.932	847
247.995	4645
248.059	527
248.122	-239
248.186	1440
248.249	1294
248.313	5373
248.376	5388
248.440	3103
248.503	-732
248.567	1888
248.630	-366
248.694	785
248.757	1719
248.821	6749
248.884	3065
248.948	2759
249.011	3901
249.075	7008
249.138	6279
249.202	1577
249.265	-4
249.328	887
249.392	-304
249.455	1499
249.519	446
249.582	370
249.645	1571
249.709	699
249.772	-478
249.835	564
249.899	1035
249.962	961
250.025	-1
250.089	1532
250.152	2297
250.215	1094
250.279	484
250.342	471
250.405	956
250.468	146
250.532	404
250.595	1625
250.658	4284
250.721	10443
250.785	2157
250.848	1630
250.911	175
250.974	2151
251.038	1524
251.101	4572
251.164	604
251.227	1520
251.290	-450
251.354	2040
251.417	7551
251.480	7642
251.543	4628
251.606	17460
251.669	10544
251.732	3345
251.795	4364
251.859	4253
251.922	9291
251.985	4580
252.048	2756
252.111	1218
252.174	-64
252.237	2395
252.300	6970
252.363	5355
252.426	15222
252.489	4226
252.552	2021
252.615	695
252.678	1538
252.741	5147
252.804	5207
252.867	15261
252.930	7740
252.993	3270
253.056	2728
253.119	1420
253.182	516
253.245	706
253.308	1018
253.371	85
253.434	585
253.497	790
253.559	3460
253.622	1684
253.685	1568
253.748	1204
253.811	771
253.874	1659
253.937	24
254.000	560
254.062	1666
254.125	3519
254.188	1736
254.251	1282
254.314	377
254.376	68
254.439	1221
254.502	917
254.565	1302
254.628	4687
254.690	314
254.753	420
254.816	759
254.878	1069
254.941	2785
255.004	2740
255.067	1308
255.129	-367
255.192	-187
255.255	-734
255.317	256
255.380	720
255.443	489
255.505	128
255.568	-1002
255.631	-339
255.693	850
255.756	123
255.819	1169
255.881	789
255.944	236
256.006	113
256.069	-599
256.132	55
256.194	450
256.257	1796
256.319	469
256.382	1510
256.444	2089
256.507	1165
256.569	441
256.632	419
256.694	-95
256.757	1870
256.819	3579
256.882	209
256.944	1336
257.007	1539
257.069	474
257.132	66
257.194	1646
257.257	10
257.319	-7
257.381	301
257.444	1514
257.506	4670
257.569	5049
257.631	2008
257.693	374
257.756	499
257.818	475
257.880	735
257.943	557
258.005	253
258.067	-200
258.130	520
258.192	40
258.254	543
258.317	190
258.379	959
258.441	1879
258.503	2225
258.566	1093
258.628	1335
258.690	-187
258.753	1406
258.815	1584
258.877	126
258.939	610
259.001	705
259.064	-12
259.126	17
259.188	161
259.250	550
259.312	698
259.375	769
259.437	85
259.499	742
259.561	561
259.623	756
259.685	-172
259.747	1070
259.809	1958
259.872	2716
259.934	3798
259.996	3421
260.058	1942
260.120	52
260.182	241
260.244	174
260.306	134
260.368	1838
260.430	180
260.492	24
260.554	2124
260.616	951
260.678	1669
260.740	1375
260.802	325
260.864	1399
260.926	-20
260.988	1380
261.050	494
261.112	974
261.174	2866
261.236	1917
261.298	842
261.359	976
261.421	2296
261.483	531
261.545	1034
261.607	-215
261.669	912
261.731	648
261.793	1474
261.854	-31
261.916	804
261.978	894
262.040	1253
262.102	1320
262.164	612
262.225	1211
262.287	1125
262.349	578
262.411	799
262.472	1371
262.534	308
262.596	1108
262.658	1502
262.719	433
262.781	1793
262.843	614
262.904	1608
262.966	982
263.028	1003
263.090	2327
263.151	3133
263.213	2740
263.275	550
263.336	1209
263.398	1728
263.459	895
263.521	1236
263.583	1727
263.644	1423
263.706	481
263.767	660
263.829	1005
263.891	950
263.952	390
264.014	963
264.075	962
264.137	963
264.198	1935
264.260	231
264.321	196
264.383	501
264.444	1494
264.506	175
264.567	894
264.629	521
264.690	-581
264.752	616
264.813	1356
264.875	-247
264.936	1386
264.998	598
265.059	716
265.120	1251
265.182	369
265.243	981
265.305	1601
265.366	1340
265.427	415
265.489	1289
265.550	-227
265.611	-49
265.673	-156
265.734	524
265.795	764
265.857	-759
265.918	186
265.979	1277
266.040	2811
266.102	2254
266.163	1200
266.224	910
266.286	869
266.347	-382
266.408	980
266.469	1535
266.530	1438
266.592	771
266.653	1509
266.714	1583
266.775	1631
266.836	1656
266.898	1276
266.959	1428
267.020	1128
267.081	2167
267.142	1268
267.203	951
267.264	1399
267.326	2507
267.387	991
267.448	502
267.509	2124
267.570	1153
267.631	312
267.692	1208
267.753	1441
267.814	296
267.875	911
267.936	1207
267.997	221
268.058	625
268.119	117
268.180	615
268.241	-444
268.302	-479
268.363	419
268.424	-761
268.485	121
268.546	35
268.607	223
268.668	-531
268.729	597
268.790	-467
268.851	236
268.912	64
268.972	27
269.033	214
269.094	1169
269.155	272
269.216	1120
269.277	722
269.338	1028
269.398	70
269.459	-65
269.520	670
269.581	588
269.642	974
269.702	867
269.763	21
269.824	757
269.885	270
269.945	801
270.006	618
270.067	345
270.128	864
270.188	-458
270.249	613
270.310	123
270.370	612
270.431	408
270.492	-395
270.553	459
270.613	793
270.674	763
270.734	60
270.795	554
270.856	456
270.916	585
270.977	-419
271.038	1006
271.098	1191
271.159	146
271.219	315
271.280	629
271.340	1609
271.401	102
271.462	437
271.522	1065
271.583	766
271.643	958
271.704	1434
271.764	792
271.825	1942
271.885	5244
271.946	8187
272.006	2227
272.066	4423
272.127	8528
272.187	6421
272.248	3206
272.308	1397
272.369	4479
272.429	2394
272.489	1482
272.550	2129
272.610	2061
272.671	1741
272.731	1612
272.791	1702
272.852	1741
272.912	1758
272.972	1788
273.033	2443
273.093	2027
273.153	2494
273.214	2577
273.274	3193
273.334	4922
273.394	7161
273.455	5346
273.515	5124
273.575	5826
273.635	4935
273.696	6185
273.756	10222
273.816	6404
273.876	4764
273.936	4418
273.997	4319
274.057	2946
274.117	1315
274.177	2011
274.237	6096
274.297	6057
274.358	2916
274.418	3788
274.478	2452
274.538	1607
274.598	930
274.658	2211
274.718	2288
274.778	1770
274.838	1156
274.898	1926
274.958	2897
275.018	5698
275.078	3844
275.138	2528
275.198	841
275.258	867
275.318	549
275.378	671
275.438	941
275.498	1119
275.558	1700
275.618	4187
275.678	2507
275.738	2205
275.798	1627
275.858	1026
275.918	878
275.978	1092
276.038	1295
276.098	383
276.157	965
276.217	2631
276.277	1973
276.337	1325
276.397	1056
276.457	1842
276.517	1439
276.576	2120
276.636	583
276.696	1375
276.756	1578
276.815	1933
276.875	2223
276.935	2017
276.995	1802
277.055	2146
277.114	2118
277.174	2594
277.234	2817
277.293	2384
277.353	1777
277.413	2036
277.472	2409
277.532	2789
277.592	5198
277.651	16053
277.711	27493
277.771	11332
277.830	28510
277.890	24795
277.950	21427
278.009	47307
278.069	22696
278.128	23199
278.188	30252
278.248	15538
278.307	33599
278.367	19934
278.426	6969
278.486	4037
278.545	3605
278.605	3605
278.664	3381
278.724	3650
278.783	4307
278.843	8501
278.902	4312
278.962	3869
279.021	4880
279.081	9321
279.140	9695
279.199	6349
279.259	6521
279.318	8810
279.378	12525
279.437	20933
279.496	52077
279.556	152573
279.615	123534
279.675	41883
279.734	22833
279.793	21873
279.853	26271
279.912	13221
279.971	10202
280.031	9740
280.090	12464
280.149	19655
280.208	30272
280.268	104063
280.327	103199
280.386	30516
280.445	15494
280.505	10414
280.564	8908
280.623	6382
280.682	6228
280.742	6685
280.801	4433
280.860	4095
280.919	2721
280.978	3685
281.037	3410
281.097	3340
281.156	5068
281.215	3555
281.274	3173
281.333	4178
281.392	3863
281.451	2624
281.510	2916
281.569	2710
281.628	2554
281.688	2535
281.747	3045
281.806	2080
281.865	2678
281.924	2167
281.983	2410
282.042	1578
282.101	2187
282.160	2002
282.219	1886
282.278	793
282.337	2959
282.396	1724
282.454	2305
282.513	2612
282.572	2551
282.631	2903
282.690	2252
282.749	1262
282.808	2136
282.867	3214
282.926	2350
282.985	2426
283.043	1689
283.102	3095
283.161	2835
283.220	3341
283.279	4606
283.338	2497
283.396	2176
283.455	3171
283.514	3636
283.573	3019
283.631	2861
283.690	4267
283.749	3160
283.808	4260
283.866	4307
283.925	4843
283.984	4532
284.043	4390
284.101	5449
284.160	5585
284.219	6890
284.277	6947
284.336	6937
284.395	9038
284.453	10183
284.512	10473
284.570	11441
284.629	13715
284.688	16559
284.746	20752
284.805	24845
284.863	31420
284.922	39490
284.981	49382
285.039	67703
285.098	91028
285.156	106298
285.215	78724
285.273	81472
285.332	109446
285.390	95498
285.449	72116
285.507	53034
285.566	39575
285.624	32290
285.683	26139
285.741	20628
285.799	17335
285.858	14399
285.916	12419
285.975	10716
286.033	8574
286.091	8348
286.150	6818
286.208	6882
286.267	7078
286.325	5403
286.383	5845
286.442	4416
286.500	4232
286.558	4396
286.616	3619
286.675	3590
286.733	3453
286.791	2756
286.850	3560
286.908	2938
286.966	2504
287.024	2693
287.083	2982
287.141	2546
287.199	3384
287.257	2133
287.315	3162
287.374	1985
287.432	2513
287.490	2908
287.548	1829
287.606	1807
287.664	1926
287.723	1594
287.781	2124
287.839	2759
287.897	1694
287.955	2446
288.013	2616
288.071	4413
288.129	9703
288.187	28029
288.245	11899
288.303	3981
288.361	2323
288.419	2170
288.477	1778
288.535	1509
288.593	1743
288.651	1967
288.709	1091
288.767	778
288.825	825
288.883	1232
288.941	1645
288.999	647
289.057	670
289.115	825
289.173	1363
289.231	1682
289.289	994
289.346	1363
289.404	2066
289.462	1493
289.520	2203
289.578	1024
289.636	575
289.694	1359
289.751	1328
289.809	1198
289.867	956
289.925	2035
289.983	945
290.040	1407
290.098	1159
290.156	491
290.214	1890
290.271	242
290.329	2073
290.387	1188
290.444	875
290.502	330
290.560	1054
290.617	1030
290.675	233
290.733	1097
290.790	525
290.848	1798
290.906	1109
290.963	852
291.021	485
291.078	915
291.136	594
291.194	383
291.251	2444
291.309	873
291.366	1261
291.424	794
291.481	1440
291.539	1561
291.596	3829
291.654	1020
291.711	2048
291.769	1881
291.826	1495
291.884	1027
291.941	494
291.999	1083
292.056	1514
292.114	457
292.171	1269
292.228	1769
292.286	1614
292.343	376
292.401	1749
292.458	1066
292.515	906
292.573	2695
292.630	1627
292.687	1324
292.745	1246
292.802	330
292.859	1918
292.917	4216
292.974	1304
293.031	1606
293.089	1974
293.146	957
293.203	1196
293.260	856
293.318	1250
293.375	1379
293.432	1121
293.489	2075
293.546	2018
293.604	1751
293.661	5363
293.718	9314
293.775	4701
293.832	3492
293.889	6064
293.947	4404
294.004	2212
294.061	1709
294.118	2317
294.175	4182
294.232	6573
294.289	4320
294.346	2297
294.403	2633
294.460	1595
294.517	702
294.574	820
294.631	881
294.688	1354
294.745	1255
294.802	6342
294.859	3730
294.916	1915
294.973	808
295.030	1283
295.087	305
295.144	945
295.201	679
295.258	1029
295.315	793
295.372	2320
295.429	3930
295.486	1523
295.542	1087
295.599	1104
295.656	1540
295.713	1328
295.770	2785
295.827	1448
295.883	1054
295.940	283
295.997	933
296.054	652
296.111	72
296.167	1737
296.224	252
296.281	-570
296.338	30
296.394	300
296.451	318
296.508	1391
296.564	1378
296.621	3110
296.678	4857
296.734	7147
296.791	2303
296.848	2387
296.904	1169
296.961	1932
297.018	3283
297.074	2311
297.131	1230
297.187	713
297.244	1899
297.301	4697
297.357	8627
297.414	3071
297.470	1050
297.527	705
297.583	749
297.640	501
297.696	970
297.753	798
297.809	662
297.866	-355
297.922	436
297.979	340
298.035	-245
298.092	1093
298.148	1518
298.204	2064
298.261	760
298.317	2243
298.374	5480
298.430	4149
298.486	1232
298.543	374
298.599	256
298.656	159
298.712	1315
298.768	1207
298.824	1440
298.881	-396
298.937	243
298.993	546
299.050	93
299.106	156
299.162	392
299.218	1521
299.275	772
299.331	1670
299.387	3510
299.443	7782
299.500	14611
299.556	9996
299.612	4530
299.668	4184
299.724	10317
299.780	13097
299.837	4999
299.893	4432
299.949	9205
300.005	13608
300.061	11631
300.117	18658
300.173	7414
300.229	3793
300.285	1811
300.341	2354
300.397	1650
300.453	1665
300.510	1494
300.566	2061
300.622	5031
300.678	17071
300.734	20697
300.790	9953
300.845	8930
300.901	9774
300.957	15255
301.013	6942
301.069	2379
301.125	2328
301.181	1266
301.237	1654
301.293	363
301.349	2036
301.405	944
301.461	835
301.516	367
301.572	913
301.628	767
301.684	527
301.740	642
301.796	1466
301.851	1378
301.907	1012
301.963	2560
302.019	5165
302.074	15643
302.130	15318
302.186	6654
302.242	2559
302.297	1077
302.353	2066
302.409	1920
302.464	2348
302.520	1589
302.576	3849
302.631	4420
302.687	2413
302.743	1743
302.798	404
302.854	706
302.910	1175
302.965	569
303.021	884
303.076	727
303.132	351
303.187	1036
303.243	988
303.299	261
303.354	189
303.410	-163
303.465	245
303.521	-389
303.576	421
303.632	1277
303.687	840
303.743	5161
303.798	3664
303.853	968
303.909	689
303.964	492
304.020	337
304.075	565
304.130	283
304.186	673
304.241	1505
304.297	1204
304.352	479
304.358	580
304.407	1401
304.449	944
304.463	793
304.518	274
304.539	334
304.573	409
304.629	558
304.630	587
304.684	1944
304.720	2524
304.739	2786
304.794	5593
304.811	4816
304.850	2881
304.902	999
304.905	882
304.960	1223
304.992	960
305.015	773
305.071	1198
305.083	1124
305.126	795
305.173	380
305.181	327
305.236	6
305.264	286
305.292	529
305.347	1485
305.354	1284
305.402	73
305.445	338
305.457	400
305.512	1494
305.535	1066
305.567	558
305.622	821
305.626	840
305.678	1304
305.716	2706
305.733	3196
305.788	4392
305.807	3790
305.843	2994
305.897	5708
305.898	5735
305.953	4995
305.988	3339
306.008	2516
306.063	1521
306.078	1373
306.118	1177
306.168	659
306.173	604
306.228	561
306.259	643
306.283	756
306.338	1044
306.349	966
306.393	561
306.440	762
306.448	835
306.503	1581
306.530	1394
306.558	1176
306.613	1218
306.620	1291
306.668	2153
306.711	2963
306.723	2972
306.778	2513
306.801	2340
306.833	2271
306.888	1605
306.892	1548
306.943	1111
306.982	1316
306.997	1353
307.052	779
307.072	754
307.107	862
307.162	1217
307.163	1214
307.217	1449
307.253	1589
307.272	1444
307.327	1708
307.343	1421
307.381	1229
307.434	1828
307.436	1863
307.491	2289
307.524	2388
307.546	2311
307.600	2921
307.614	2708
307.655	1871
307.704	1814
307.710	1871
307.765	1594
307.795	1848
307.819	1991
307.874	2195
307.885	2243
307.929	2578
307.975	3134
307.984	3285
308.038	3758
308.065	4186
308.093	6598
308.148	12281
308.156	13703
308.202	20308
308.246	24073
308.257	23249
308.312	11588
308.336	7795
308.366	6435
308.421	5143
308.426	5014
308.475	4551
308.517	4742
308.530	4839
308.585	5083
308.607	5086
308.639	5067
308.694	5327
308.697	5332
308.748	5890
308.787	6167
308.803	6214
308.857	6591
308.877	6724
308.912	7863
308.967	10234
308.967	10263
309.021	17879
309.058	23718
309.076	26791
309.130	37713
309.148	40773
309.185	54993
309.238	77017
309.239	77421
309.293	93955
309.328	97790
309.348	88371
309.402	55506
309.418	46365
309.457	37661
309.508	28793
309.511	29142
309.566	38221
309.598	44894
309.620	58240
309.674	95635
309.688	105074
309.729	97312
309.778	78140
309.783	76015
309.837	47975
309.868	32961
309.892	28781
309.946	21015
309.959	19595
310.001	17060
310.049	13988
310.055	13592
310.109	10264
310.139	8494
310.163	7546
310.218	5806
310.229	5463
310.272	5433
310.319	5463
310.326	5333
310.381	4397
310.409	3857
310.435	3520
310.489	3138
310.499	3070
310.543	3381
310.589	3447
310.598	3406
310.652	3251
310.679	3205
310.706	3270
310.760	3293
310.769	3294
310.814	3212
310.859	3184
310.868	3173
310.923	2940
310.948	2835
310.977	2863
311.031	2918
311.038	2924
311.085	2799
311.128	2605
311.139	2612
311.193	2776
311.218	2722
311.247	2682
311.301	2644
311.308	2652
311.356	2883
311.398	3010
311.410	3034
311.464	3037
311.488	3068
311.518	2995
311.572	2829
311.578	2796
311.626	2554
311.668	2427
311.680	2460
311.734	2466
311.758	2481
311.788	2572
311.842	2757
311.847	2763
311.896	2870
311.937	3016
311.950	2959
312.004	2630
312.027	2502
312.058	2555
312.112	2621
312.117	2623
312.165	2299
312.207	2018
312.297	1616
312.386	2574
312.476	2459
312.566	2777
312.656	2602
312.745	1782
312.835	2814
312.925	2940
313.015	2646
313.104	2572
313.194	3715
313.284	2854
313.374	3716
313.463	4005
313.553	4072
313.643	3546
313.732	4062
313.822	3822
313.912	5173
314.001	4424
314.091	5357
314.180	4214
314.270	5041
314.360	4953
314.449	4230
314.539	4163
314.628	4035
314.718	4711
314.808	5142
314.897	5406
314.987	6597
315.076	5720
315.166	6356
315.255	4694
315.345	5849
315.434	5224
315.524	6225
315.613	6562
315.703	9396
315.792	27410
315.881	95956
315.971	28428
316.060	8926
316.150	6467
316.239	6642
316.328	3930
316.418	5325
316.507	4720
316.597	7071
316.686	6057
316.775	6760
316.865	5839
316.954	5019
317.043	4260
317.133	4923
317.222	4421
317.311	3862
317.400	3290
317.490	6418
317.579	6331
317.668	8757
317.757	14483
317.847	44899
317.936	141550
318.025	40485
318.114	36847
318.203	15491
318.293	6670
318.382	8195
318.471	8926
318.560	8640
318.649	7720
318.738	4803
318.828	4690
318.917	3093
319.006	3134
319.095	3467
319.184	5930
319.273	5055
319.362	4259
319.451	3160
319.540	3601
319.629	3170
319.718	4079
319.807	3767
319.896	3773
319.985	6989
320.074	4668
320.163	3714
320.252	3805
320.341	3875
320.430	3933
320.519	5215
320.608	4211
320.697	5196
320.786	5754
320.875	6958
320.964	6755
321.053	7964
321.142	8799
321.230	10922
321.319	11178
321.408	12433
321.497	12312
321.586	9918
321.675	7351
321.764	8207
321.852	7711
321.941	8955
322.030	8323
322.119	8428
322.207	11340
322.296	12038
322.385	13783
322.474	17137
322.562	19086
322.651	13670
322.740	9965
322.829	9412
322.917	7375
323.006	6455
323.095	6495
323.183	4808
323.272	5026
323.361	5585
323.449	7260
323.538	4731
323.626	5582
323.715	5470
323.804	4573
323.892	5815
323.981	3728
324.069	3924
324.158	4673
324.246	4300
324.335	3927
324.424	4228
324.512	3986
324.601	3702
324.689	4242
324.778	5699
324.866	4293
324.954	3553
325.043	2645
325.131	2662
325.220	4367
325.308	3983
325.397	3864
325.485	3972
325.574	3285
325.662	2881
325.750	1950
325.839	3540
325.927	2758
326.015	2768
326.104	3230
326.192	3257
326.280	1797
326.369	2360
326.457	2848
326.545	3800
326.634	2204
326.722	2846
326.810	3299
326.898	4572
326.987	4304
327.075	3548
327.163	4022
327.251	3919
327.340	4310
327.428	6834
327.516	5654
327.604	5520
327.692	3864
327.781	3808
327.869	2885
327.957	2599
328.045	2654
328.133	3582
328.221	2403
328.309	1999
328.397	2469
328.485	4332
328.574	6052
328.662	9887
328.750	5055
328.838	3625
328.926	2846
329.014	3246
329.102	2962
329.190	3566
329.278	3348
329.366	2549
329.454	2559
329.542	3137
329.630	1884
329.718	3231
329.806	1843
329.893	2822
329.981	1704
330.069	3124
330.157	3800
330.245	4996
330.333	3863
330.421	2796
330.509	2765
330.597	5135
330.684	3541
330.772	3188
330.860	1941
330.948	2568
331.036	2429
331.123	2039
331.211	1880
331.299	2592
331.387	3569
331.475	3292
331.562	3339
331.650	2959
331.738	3058
331.825	2955
331.913	2751
332.001	3228
332.089	2958
332.176	2575
332.264	3405
332.352	2479
332.439	3341
332.527	3115
332.614	2373
332.702	4286
332.790	3036
332.877	4870
332.965	14339
333.052	12673
333.140	15898
333.228	36982
333.315	10718
333.403	5829
333.490	6635
333.578	17455
333.665	56190
333.753	21837
333.840	6440
333.928	5839
334.015	6517
334.103	7963
334.190	11267
334.278	12032
334.365	17770
334.452	17233
334.540	10846
334.627	10532
334.715	12963
334.802	20804
334.889	34079
334.977	46516
335.064	28900
335.151	13332
335.239	9333
335.326	7354
335.413	8857
335.501	8684
335.588	8343
335.675	9281
335.762	11025
335.850	15298
335.937	22756
336.024	39494
336.111	64390
336.199	57362
336.286	25285
336.373	13967
336.460	7804
336.547	7557
336.635	6118
336.722	6069
336.809	4547
336.896	4448
336.983	5506
337.070	7020
337.157	6697
337.245	6263
337.332	6429
337.419	4336
337.506	4005
337.593	4127
337.680	3977
337.767	4996
337.854	3611
337.941	4620
338.028	4438
338.115	3351
338.202	4807
338.289	4300
338.376	5114
338.463	4051
338.550	3449
338.637	3414
338.724	3204
338.811	4369
338.898	3737
338.984	3222
339.071	2933
339.158	3866
339.245	3629
339.332	3686
339.419	3152
339.506	4247
339.593	2741
339.679	3736
339.766	2896
339.853	3364
339.940	2812
340.027	4183
340.113	2455
340.200	3147
340.287	3215
340.374	3565
340.460	2729
340.547	2317
340.634	3847
340.720	5413
340.807	3379
340.894	3409
340.980	3498
341.067	3146
341.154	4061
341.240	3564
341.327	3610
341.414	3757
341.500	2685
341.587	3811
341.674	3229
341.760	4434
341.847	3254
341.933	3086
342.020	2383
342.106	3390
342.193	3342
342.279	3777
342.366	2208
342.452	3327
342.539	3144
342.625	3675
342.712	4628
342.798	3567
342.885	2731
342.971	2412
343.058	3028
343.144	3415
343.230	3844
343.317	4191
343.403	3267
343.490	3044
343.576	2544
343.662	2640
343.749	2685
343.835	4034
343.921	4481
344.008	18917
344.094	33708
344.180	7385
344.267	3974
344.353	7346
344.439	6861
344.525	3562
344.612	3191
344.698	2964
344.784	2428
344.870	3155
344.957	3135
345.043	4347
345.129	2272
345.215	3754
345.301	1920
345.387	2165
345.474	3007
345.560	2924
345.646	2583
345.732	3817
345.818	3029
345.904	3255
345.990	2334
346.076	2195
346.162	2783
346.249	3045
346.335	2498
346.421	4229
346.507	5547
346.593	10794
346.679	3564
346.765	5433
346.851	6649
346.937	4204
347.023	3969
347.108	3984
347.194	3025
347.280	3380
347.366	6035
347.452	15629
347.538	20650
347.624	11993
347.710	6447
347.796	3657
347.882	3019
347.967	3327
348.053	2702
348.139	3606
348.225	3251
348.311	3735
348.397	3472
348.482	4993
348.568	4293
348.654	6631
348.740	18627
348.825	15601
348.911	7468
348.997	9360
349.083	12395
349.168	4724
349.254	3637
349.340	3973
349.425	3260
349.511	3403
349.597	3356
349.682	4206
349.768	6964
349.854	4317
349.939	3239
350.025	3626
350.110	3724
350.196	2890
350.282	2710
350.367	4105
350.453	3660
350.538	3046
350.624	2616
350.709	3673
350.795	2659
350.880	1888
350.966	3984
351.051	3289
351.137	3289
351.222	3961
351.308	4138
351.393	5617
351.479	3151
351.564	2461
351.649	2921
351.735	2694
351.820	2995
351.906	3027
351.991	2915
352.076	5328
352.162	5966
352.247	3214
352.332	2936
352.418	3307
352.503	3755
352.588	7544
352.673	5131
352.759	3637
352.844	2445
352.929	3995
353.014	3233
353.100	4208
353.185	3505
353.270	3441
353.355	3376
353.441	3954
353.526	2680
353.611	3592
353.696	3562
353.781	3931
353.866	2007
353.952	4364
354.037	3559
354.122	5656
354.207	3814
354.292	3056
354.377	2873
354.462	3325
354.547	2788
354.632	3593
354.717	3947
354.802	3829
354.887	3268
354.972	3746
355.057	3408
355.142	2413
355.227	4106
355.312	3478
355.397	3309
355.482	6041
355.567	3504
355.652	5192
355.737	4861
355.822	7909
355.907	5404
355.991	4702
356.076	2230
356.161	4714
356.246	2793
356.331	4258
356.416	4592
356.501	16727
356.585	13302
356.670	4582
356.755	5735
356.840	5214
356.924	13647
357.009	35496
357.094	12962
357.179	4547
357.263	4002
357.348	5470
357.433	3916
357.517	4924
357.602	3036
357.687	3048
357.771	4556
357.856	5182
357.941	5877
358.025	13855
358.110	45755
358.195	19153
358.279	5858
358.364	5961
358.448	7864
358.533	13091
358.617	8370
358.702	8903
358.787	5361
358.871	4944
358.956	4652
359.040	4671
359.125	3632
359.209	4515
359.294	4793
359.378	7189
359.462	5810
359.547	4601
359.631	3638
359.716	3551
359.800	3477
359.885	4330
359.969	3171
360.053	5009
360.138	3217
360.222	3081
360.306	4071
360.391	4476
360.475	4357
360.559	5550
360.644	5610
360.728	5139
360.812	11989
360.896	22143
360.981	7428
361.065	4790
361.149	4408
361.233	5220
361.318	3109
361.402	4375
361.486	5313
361.570	4496
361.654	4316
361.739	5907
361.823	17102
361.907	23589
361.991	7089
362.075	8193
362.159	9596
362.243	20268
362.327	47722
362.411	68524
362.495	25474
362.580	12521
362.664	11387
362.748	13188
362.832	21239
362.916	44530
363.000	123387
363.084	171749
363.168	73513
363.252	21386
363.336	11817
363.420	10242
363.503	10447
363.587	9307
363.671	8016
363.755	8368
363.839	9660
363.923	8412
364.007	11693
364.091	16136
364.175	24225
364.258	57941
364.342	139878
364.426	246076
364.510	122849
364.594	36293
364.677	19442
364.761	25756
364.845	16333
364.929	8687
365.013	5773
365.096	6396
365.180	5474
365.264	6546
365.347	8591
365.431	5235
365.515	4094
365.598	3970
365.682	6373
365.766	4403
365.849	4457
365.933	4609
366.017	5795
366.100	3593
366.184	4298
366.267	5476
366.351	4688
366.435	3858
366.518	4030
366.602	5100
366.685	4136
366.769	4106
366.852	5343
366.936	5384
367.019	4919
367.103	3346
367.186	5537
367.270	5090
367.353	3706
367.436	6678
367.520	5948
367.603	6970
367.687	4469
367.770	5111
367.853	6150
367.937	9483
368.020	9739
368.104	4366
368.187	5055
368.270	5421
368.353	4822
368.437	5059
368.520	5232
368.603	4081
368.687	6493
368.770	8657
368.853	4723
368.936	5528
369.020	4615
369.103	4284
369.186	3234
369.269	3726
369.352	4400
369.436	3981
369.519	4267
369.602	3022
369.685	5156
369.768	3459
369.851	4518
369.934	4089
370.018	3724
370.101	3687
370.184	5914
370.267	5107
370.350	5985
370.433	7362
370.516	22248
370.599	54256
370.682	21966
370.765	10852
370.848	11178
370.931	13078
371.014	8016
371.097	5402
371.180	6420
371.263	6114
371.346	5273
371.429	6847
371.511	5889
371.594	6611
371.677	8032
371.760	8944
371.843	9747
371.926	27906
372.009	46545
372.091	22732
372.174	14562
372.257	20277
372.340	12909
372.423	11642
372.505	12064
372.588	8125
372.671	9624
372.754	14421
372.836	10294
372.919	9643
373.002	10670
373.085	8801
373.167	9881
373.250	10990
373.332	16575
373.415	29729
373.498	51319
373.580	30346
373.663	86182
373.746	81287
373.828	16273
373.911	9784
373.993	7488
374.076	8631
374.159	7537
374.241	7941
374.324	11671
374.406	10923
374.489	18302
374.571	36086
374.654	14307
374.736	11876
374.819	23475
374.901	36014
374.983	34576
375.066	10893
375.148	8156
375.231	8743
375.313	11593
375.395	8530
375.478	6885
375.560	7467
375.643	7405
375.725	12183
375.807	28333
375.890	19241
375.972	6017
376.054	6958
376.136	6950
376.219	5833
376.301	11323
376.383	19372
376.465	9904
376.548	6557
376.630	8071
376.712	15972
376.794	9006
376.877	5323
376.959	4468
377.041	4784
377.123	3660
377.205	4469
377.287	3178
377.369	5153
377.452	4573
377.534	5015
377.616	4366
377.698	4681
377.780	4770
377.862	5234
377.944	6425
378.026	3929
378.108	5119
378.190	4351
378.272	5399
378.354	5045
378.436	4269
378.518	4095
378.600	5427
378.682	6245
378.764	8564
378.846	7805
378.928	4453
379.010	4648
379.091	5956
379.173	4488
379.255	4120
379.337	5548
379.419	6311
379.501	11171
379.583	6579
379.664	6107
379.746	4604
379.828	10942
379.910	8843
379.991	10971
380.073	5152
380.155	5609
380.237	5230
380.318	5465
380.400	5858
380.482	6317
380.564	6755
380.645	6689
380.727	7038
380.809	7189
380.890	6831
380.972	6336
381.053	6914
381.135	8685
381.217	6987
381.298	11632
381.380	8363
381.461	9735
381.543	20323
381.624	21844
381.706	10264
381.787	9824
381.869	10256
381.951	18185
382.032	41985
382.113	27756
382.195	12717
382.276	14714
382.358	16538
382.439	26076
382.521	34753
382.602	47031
382.684	38496
382.765	68011
382.846	178203
382.928	354319
383.009	202315
383.090	177815
383.172	425412
383.253	493449
383.334	181155
383.416	86286
383.497	63563
383.578	79264
383.659	153804
383.741	385076
383.822	619793
383.903	345053
383.984	112548
384.066	66102
384.147	39586
384.228	26908
384.309	22755
384.390	20678
384.471	18156
384.553	16953
384.634	16008
384.715	16834
384.796	15450
384.877	16575
384.958	19533
385.039	17887
385.120	13458
385.201	12707
385.282	13184
385.363	17540
385.444	19012
385.525	18498
385.606	22835
385.687	19468
385.768	14196
385.849	13490
385.930	29807
386.011	39939
386.092	16771
386.173	13355
386.254	11124
386.335	10733
386.416	9430
386.496	11729
386.577	13055
386.658	10044
386.739	9603
386.820	11546
386.901	10215
386.981	13313
387.062	14715
387.143	15701
387.224	17199
387.304	17653
387.385	15385
387.466	13489
387.547	15896
387.627	15286
387.708	17509
387.789	23802
387.869	21915
387.950	15667
388.031	12017
388.111	9923
388.192	14097
388.273	17456
388.353	13686
388.434	9251
388.514	8228
388.595	21118
388.676	18697
388.756	10969
388.837	9681
388.917	7873
388.998	5188
389.078	6603
389.159	7484
389.239	5655
389.320	8379
389.400	5346
389.480	8098
389.561	10807
389.641	8199
389.722	6659
389.802	6283
389.883	8727
389.963	12662
390.043	8236
390.124	5167
390.204	6773
390.284	8860
390.365	7665
390.445	7670
390.525	9072
390.605	9455
390.686	6887
390.766	6563
390.846	8157
390.927	5293
391.007	5510
391.087	7422
391.167	7067
391.247	5415
391.328	8527
391.408	8003
391.488	8368
391.568	7324
391.648	8207
391.728	9779
391.808	10354
391.888	9404
391.969	12846
392.049	14304
392.129	12329
392.209	14119
392.289	19447
392.369	17392
392.449	16972
392.529	16991
392.609	21791
392.689	24408
392.769	31400
392.849	36523
392.929	46997
393.009	65593
393.089	96054
393.169	181150
393.248	406768
393.328	737041
393.408	702101
393.488	358189
393.568	156115
393.648	82883
393.728	52760
393.807	36222
393.887	30274
393.967	24333
394.047	20162
394.127	16453
394.206	17560
394.286	23564
394.366	66100
394.446	59260
394.525	17674
394.605	11516
394.685	11758
394.764	14027
394.844	22564
394.924	24867
395.003	12184
395.083	9451
395.163	9442
395.242	8265
395.322	8673
395.402	7434
395.481	11330
395.561	12955
395.640	36726
395.720	59423
395.799	27269
395.879	14359
395.958	14494
396.038	28134
396.117	90674
396.197	85332
396.276	28029
396.356	22378
396.435	27995
396.515	38557
396.594	63763
396.673	137421
396.753	367334
396.832	665173
396.912	479230
396.991	174325
397.070	73435
397.150	42464
397.229	36940
397.308	62774
397.388	92885
397.467	41191
397.546	18651
397.625	11765
397.705	13436
397.784	10709
397.863	10074
397.942	9032
398.022	8654
398.101	6988
398.180	8262
398.259	6832
398.338	7486
398.417	5972
398.497	6704
398.576	7196
398.655	5328
398.734	5981
398.813	5805
398.892	6396
398.971	7008
399.050	4375
399.129	4756
399.208	4775
399.287	5178
399.366	3786
399.445	4288
399.524	4762
399.603	2814
399.682	4388
399.761	4756
399.840	7102
399.919	6279
399.998	4032
400.077	2467
400.156	2306
400.235	6145
400.313	3742
400.392	2127
400.471	5463
400.550	6630
400.629	2864
400.708	4032
400.786	2796
400.865	3423
400.944	2683
401.023	5006
401.102	1792
401.180	3112
401.259	3042
401.338	2899
401.416	2950
401.495	2311
401.574	3850
401.652	2578
401.731	3384
401.810	2102
401.888	3029
401.967	3314
402.046	2483
402.124	3214
402.203	1920
402.281	3331
402.360	2099
402.438	3694
402.517	1446
402.596	3740
402.674	2139
402.753	2625
402.831	2431
402.910	4128
402.988	4356
403.066	10474
403.145	6568
403.223	7404
403.302	9407
403.380	8239
403.459	7463
403.537	5333
403.615	3367
403.694	2873
403.772	4117
403.850	3612
403.929	1974
404.007	2939
404.085	3859
404.164	2909
404.242	2973
404.320	4536
404.398	6005
404.477	5946
404.555	20257
404.633	16024
404.711	5527
404.789	4202
404.868	2754
404.946	1923
405.024	2031
405.102	1986
405.180	1601
405.258	1699
405.336	3364
405.415	1847
405.493	2678
405.571	3488
405.649	1749
405.727	2233
405.805	4383
405.883	4694
405.961	4308
406.039	2328
406.117	1348
406.195	4258
406.273	5195
406.351	13398
406.429	7153
406.507	2220
406.585	1790
406.663	2805
406.740	2525
406.818	1249
406.896	1734
406.974	2511
407.052	1348
407.130	9377
407.208	8719
407.285	3497
407.363	1560
407.441	2300
407.519	1691
407.596	1684
407.674	4031
407.752	9510
407.830	7052
407.907	3449
407.985	2259
408.063	2387
408.141	1305
408.218	2548
408.296	792
408.373	2233
408.451	3123
408.529	2254
408.606	2827
408.684	3631
408.762	3739
408.839	3236
408.917	3614
408.994	4134
409.072	4397
409.149	5994
409.227	11952
409.304	18037
409.382	17659
409.459	21714
409.537	27894
409.614	22603
409.692	16299
409.769	18468
409.846	29546
409.924	33460
410.001	20523
410.079	14067
410.156	9731
410.233	7777
410.311	6196
410.388	6189
410.465	5809
410.543	4458
410.620	6481
410.697	5706
410.775	5701
410.852	5211
410.929	6978
411.006	7383
411.083	4695
411.161	4959
411.238	5425
411.315	4481
411.392	3751
411.469	4739
411.547	4289
411.624	2452
411.701	2189
411.778	3652
411.855	3217
411.932	2809
412.009	2065
412.086	3167
412.163	2426
412.240	2949
412.317	2504
412.394	2092
412.471	3763
412.548	2945
412.625	2256
412.702	2555
412.779	2380
412.856	2872
412.933	1134
413.010	3437
413.087	2832
413.164	3199
413.241	4224
413.318	3116
413.395	3078
413.471	1912
413.548	2249
413.625	1619
413.702	731
413.779	2809
413.855	1861
413.932	1379
414.009	1581
414.086	2075
414.162	1300
414.239	2832
414.316	3488
414.393	6305
414.469	1713
414.546	1395
414.623	1811
414.699	1930
414.776	1352
414.853	1520
414.929	1735
415.006	1943
415.082	2175
415.159	2045
415.236	1959
415.312	2560
415.389	1455
415.465	1125
415.542	896
415.618	1517
415.695	2598
415.771	1641
415.848	1673
415.924	2094
416.000	1923
416.077	2228
416.153	589
416.230	1452
416.306	1430
416.383	2134
416.459	1755
416.535	2710
416.612	2611
416.688	2466
416.764	3507
416.841	2625
416.917	2148
416.993	2716
417.069	1806
417.146	1337
417.222	1490
417.298	2397
417.374	727
417.451	1784
417.527	1158
417.603	1685
417.679	984
417.755	2452
417.831	1013
417.908	2128
417.984	1442
418.060	1426
418.136	1989
418.212	1455
418.288	2089
418.364	2396
418.440	987
418.516	2645
418.592	722
418.668	2108
418.744	1725
418.820	1994
418.896	1520
418.972	940
419.048	1322
419.124	2995
419.200	193
419.276	1925
419.352	1018
419.428	1619
419.504	1312
419.579	2253
419.655	2532
419.731	2484
419.807	2387
419.883	3118
419.959	2739
420.034	3476
420.110	2758
420.186	4141
420.262	4460
420.337	3520
420.413	2644
420.489	3927
420.565	4988
420.640	3278
420.716	4000
420.792	3672
420.867	5251
420.943	4382
421.019	4851
421.094	5321
421.170	5163
421.245	5422
421.321	7133
421.397	7261
421.472	10654
421.548	12755
421.623	10699
421.699	11380
421.774	13384
421.850	14087
421.925	17844
422.001	20387
422.076	25139
422.152	32048
422.227	43600
422.302	62495
422.378	92273
422.453	155731
422.529	247433
422.604	289131
422.679	248099
422.755	306879
422.830	246081
422.905	146036
422.981	91590
423.056	64605
423.131	46434
423.207	35287
423.282	28366
423.357	24161
423.432	19909
423.508	16715
423.583	15210
423.658	13358
423.733	11398
423.808	11379
423.883	11851
423.959	12637
424.034	14515
424.109	13544
424.184	9524
424.259	7671
424.334	7586
424.409	5191
424.484	5122
424.559	5462
424.634	4345
424.709	4011
424.784	4434
424.859	4328
424.934	3789
425.009	5080
425.084	5218
425.159	4056
425.234	4357
425.309	3626
425.384	3877
425.459	2268
425.534	2731
425.609	3074
425.683	2450
425.758	2770
425.833	2563
425.908	3667
425.983	3196
426.058	5402
426.132	3537
426.207	2423
426.282	3028
426.357	1026
426.431	2300
426.506	2610
426.581	1750
426.655	2775
426.730	2634
426.805	1770
426.879	2303
426.954	1459
427.029	2325
427.103	5328
427.178	9847
427.253	4640
427.327	1874
427.402	1924
427.476	1573
427.551	1566
427.625	2430
427.700	2810
427.774	844
427.849	2572
427.923	920
427.998	2862
428.072	3549
428.147	9489
428.221	44826
428.296	119372
428.370	54766
428.444	7849
428.519	4022
428.593	2976
428.667	3455
428.742	4732
428.816	16230
428.890	78158
428.965	97708
429.039	22734
429.113	4791
429.188	3307
429.262	2150
429.336	2186
429.410	2418
429.485	3003
429.559	2648
429.633	3339
429.707	5047
429.781	15668
429.855	74200
429.930	87232
430.004	22043
430.078	15250
430.152	51474
430.226	161109
430.300	133596
430.374	27203
430.448	8892
430.522	5766
430.596	7044
430.670	26175
430.744	96615
430.818	87578
430.892	14282
430.966	4086
431.040	2503
431.114	1632
431.188	1220
431.262	1758
431.336	1060
431.410	2857
431.484	845
431.557	2924
431.631	2945
431.705	6707
431.779	35934
431.853	114297
431.927	63042
432.000	9488
432.074	2869
432.148	1985
432.222	667
432.295	1392
432.369	701
432.443	975
432.516	3701
432.590	9074
432.664	2503
432.737	723
432.811	-148
432.885	-92
432.958	1256
433.032	2
433.106	-191
433.179	455
433.253	188
433.326	-225
433.400	484
433.473	1173
433.547	-323
433.620	829
433.694	70
433.767	1038
433.841	-489
433.914	764
433.988	278
434.061	1371
434.134	645
434.208	838
434.281	-428
434.355	729
434.428	80
434.501	900
434.575	23
434.648	339
434.721	83
434.795	548
434.868	-374
434.941	845
435.014	363
435.088	2066
435.161	3212
435.234	5822
435.307	5605
435.381	7096
435.454	9152
435.527	14901
435.600	14070
435.673	10693
435.746	6485
435.819	5437
435.892	3541
435.966	2895
436.039	1388
436.112	2491
436.185	640
436.258	1354
436.331	85
436.404	1258
436.477	247
436.550	567
436.623	501
436.696	-159
436.769	-29
436.842	520
436.915	333
436.987	523
437.060	814
437.133	787
437.206	138
437.279	1136
437.352	320
437.425	1012
437.498	16
437.570	1079
437.643	837
437.716	851
437.789	103
437.861	441
437.934	210
438.007	571
438.080	-141
438.152	633
438.225	1533
438.298	7197
438.370	15938
438.443	5208
438.516	206
438.588	-161
438.661	48
438.734	23
438.806	307
438.879	377
438.951	457
439.024	891
439.096	212
439.169	570
439.241	653
439.314	282
439.386	-72
439.459	501
439.531	-331
439.604	105
439.676	154
439.749	128
439.821	186
439.893	233
439.966	-309
440.038	644
440.110	-293
440.183	44
440.255	-460
440.327	998
440.400	2604
440.472	7190
440.544	3718
440.617	745
440.689	1023
440.761	906
440.833	1064
440.905	1279
440.978	-690
441.050	223
441.122	985
441.194	754
441.266	141
441.338	322
441.411	705
441.483	2946
441.555	1629
441.627	949
441.699	1006
441.771	518
441.843	988
441.915	1258
441.987	1076
442.059	1885
442.131	1712
442.203	2478
442.275	4281
442.347	7331
442.419	22239
442.491	96779
442.563	169076
442.635	55086
442.706	11642
442.778	6019
442.850	3684
442.922	2812
442.994	3511
443.066	2468
443.137	4887
443.209	6303
443.281	12722
443.353	30674
443.425	109531
443.496	275109
443.568	256352
443.640	93056
443.711	19620
443.783	8867
443.855	5654
443.926	4082
443.998	2483
444.070	2647
444.141	2087
444.213	2008
444.285	1789
444.356	2768
444.428	2772
444.499	1683
444.571	922
444.642	3063
444.714	917
444.785	1853
444.857	2864
444.928	3202
445.000	2894
445.071	5430
445.143	6646
445.214	11724
445.285	20931
445.357	60016
445.428	192388
445.500	306611
445.571	234086
445.642	141318
445.714	42281
445.785	14386
445.856	6040
445.928	4368
445.999	2936
446.070	2741
446.141	2572
446.213	1604
446.284	762
446.355	1038
446.426	1219
446.497	750
446.569	989
446.640	687
446.711	328
446.782	-273
446.853	-215
446.924	829
446.995	236
447.066	-55
447.138	436
447.209	453
447.280	-262
447.351	-59
447.422	-684
447.493	-8
447.564	-392
447.635	-344
447.706	-1504
447.777	-565
447.847	-1157
447.918	-597
447.989	-465
448.060	-325
448.131	-311
448.202	27
448.273	-264
448.344	223
448.414	-284
448.485	-152
448.556	-279
448.627	-249
448.698	775
448.768	-328
448.839	-1211
448.910	-450
448.981	-237
449.051	-731
449.122	-815
449.193	-505
449.263	-1104
449.334	170
449.405	-709
449.475	-260
449.546	184
449.616	323
449.687	310
449.758	-81
449.828	-713
449.899	-403
449.969	257
450.040	-425
450.110	-578
450.181	-150
450.251	-741
450.322	6
450.392	-586
450.463	68
450.533	-1581
450.604	227
450.674	-799
450.744	649
450.815	573
450.885	640
450.955	1056
451.026	681
451.096	72
451.166	309
451.237	1178
451.307	1130
451.377	-176
451.447	-748
451.518	-766
451.588	-149
451.658	-597
451.728	-672
451.799	-370
451.869	431
451.939	-1334
452.009	728
452.079	-455
452.149	562
452.219	-939
452.289	-77
452.360	316
452.430	468
452.500	529
452.570	3063
452.640	10486
452.710	26210
452.780	22139
452.850	9225
452.920	3367
452.990	2029
453.060	1616
453.129	478
453.199	-29
453.269	823
453.339	531
453.409	241
453.479	792
453.549	1041
453.619	152
453.688	-255
453.758	-345
453.828	-1087
453.898	-538
453.968	-610
454.037	-80
454.087	-412
454.107	-555
454.168	-1095
454.177	-1187
454.247	-729
454.249	-745
454.316	-1422
454.330	-1277
454.386	-738
454.411	-501
454.456	-150
454.492	-366
454.525	-552
454.574	79
454.595	340
454.655	-470
454.665	-615
454.734	-1034
454.736	-1010
454.804	-433
454.817	-383
454.873	-270
454.898	-412
454.943	-706
454.979	-447
455.013	-184
455.060	-7
455.082	47
455.141	-319
455.152	-384
455.221	124
455.222	134
455.291	-167
455.303	-60
455.360	422
455.384	418
455.430	338
455.465	-53
455.499	-428
455.546	-269
455.569	-270
455.627	112
455.638	227
455.707	-418
455.708	-405
455.777	-716
455.789	-694
455.846	-482
455.869	-404
455.916	-247
455.950	-171
455.985	-251
456.031	-187
456.054	-93
456.112	-165
456.124	-181
456.193	157
456.193	146
456.262	-339
456.274	-147
456.332	953
456.355	653
456.401	-173
456.436	-6
456.470	244
456.516	181
456.540	104
456.597	261
456.609	308
456.678	354
456.678	342
456.747	495
456.759	351
456.817	-163
456.840	78
456.886	245
456.920	241
456.955	473
457.001	443
457.024	314
457.082	679
457.093	705
457.162	1004
457.163	1015
457.232	743
457.243	722
457.301	808
457.324	841
457.370	900
457.405	1026
457.439	1113
457.485	1424
457.508	1525
457.566	2076
457.577	2318
457.646	3059
457.647	3095
457.715	8948
457.727	10522
457.784	20384
457.808	29238
457.853	41590
457.889	45573
457.922	43896
457.969	26020
457.991	23808
458.050	31635
458.060	32857
458.129	64676
458.130	65265
458.198	67173
458.211	59597
458.267	25869
458.292	17198
458.336	10613
458.372	9862
458.405	14232
458.453	23434
458.474	29765
458.533	58612
458.543	61406
458.611	106325
458.614	106148
458.680	58964
458.694	46591
458.749	17223
458.775	11573
458.818	6413
458.855	4844
458.887	3868
458.936	3283
458.955	3164
459.016	2534
459.024	2502
459.093	3045
459.097	3035
459.162	1674
459.177	1588
459.230	1837
459.257	1841
459.299	1683
459.338	1507
459.368	1573
459.418	1697
459.437	1633
459.499	1249
459.505	1222
459.574	1648
459.579	1660
459.643	1638
459.659	1631
459.711	1572
459.740	1596
459.780	1608
459.820	1530
459.849	1399
459.900	1233
459.917	1224
459.981	1262
459.986	1254
460.054	1372
460.061	1345
460.123	1195
460.141	1293
460.191	1630
460.222	1663
460.260	1575
460.302	1434
460.328	1391
460.382	1450
460.397	1425
460.462	1718
460.465	1752
460.534	2010
460.543	2107
460.602	4581
460.623	5587
460.671	8042
460.703	10861
460.739	11495
460.783	9353
460.808	7412
460.864	2544
460.876	2231
460.944	1940
460.945	1923
461.013	1035
461.024	879
461.081	1111
461.104	1487
461.150	1906
461.184	1790
461.218	1530
461.264	1448
461.286	1534
461.345	1813
461.355	1815
461.423	1687
461.425	1674
461.491	1612
461.505	1786
461.559	1738
461.585	1436
461.628	1484
461.665	1622
461.696	1560
461.745	1471
461.764	1530
461.825	1794
461.832	1789
461.901	1857
461.905	1853
461.969	1762
461.985	1719
462.037	2682
462.065	3268
462.105	2471
462.145	1710
462.173	1901
462.225	2265
462.241	2281
462.305	2217
462.310	2221
462.378	2188
462.385	2185
462.446	2015
462.465	2011
462.514	2095
462.545	2049
462.582	1897
462.625	1758
462.650	1494
462.705	921
462.718	1034
462.785	1665
462.786	1665
462.854	1787
462.865	1774
462.922	2327
462.945	2475
462.990	2137
463.025	1983
463.058	1850
463.104	1607
463.126	1543
463.184	1770
463.194	1853
463.262	1619
463.264	1629
463.330	2541
463.344	2713
463.398	2951
463.424	3003
463.466	2327
463.504	1711
463.533	1909
463.583	2154
463.601	2146
463.663	2130
463.669	2126
463.737	2418
463.743	2397
463.805	2611
463.823	2821
463.873	2990
463.903	2772
463.940	2294
463.982	2206
464.008	2465
464.062	2524
464.076	2454
464.142	2324
464.144	2322
464.211	2093
464.221	2020
464.279	1900
464.301	2000
464.347	2045
464.381	2023
464.414	1943
464.461	1546
464.482	1564
464.540	1959
464.550	1980
464.617	1809
464.620	1809
464.685	2457
464.699	2498
464.753	2646
464.779	2810
464.820	2625
464.859	2552
464.888	2377
464.938	1946
464.956	2223
465.018	3159
465.023	3098
465.091	2200
465.098	2107
465.158	2441
465.177	2590
465.226	2791
465.257	2751
465.293	2708
465.336	2855
465.361	2749
465.416	2311
465.428	2360
465.495	2636
465.496	2639
465.563	2044
465.575	1967
465.631	2764
465.654	3064
465.698	2999
465.734	2957
465.765	2774
465.813	2338
465.833	2488
465.893	3048
465.900	3016
465.968	2610
465.972	2585
466.035	2595
466.052	2544
466.102	2444
466.131	2430
466.170	2397
466.210	2274
466.237	2638
466.290	3445
466.304	3276
466.369	2298
466.372	2306
466.439	2492
466.449	2501
466.506	2806
466.528	2934
466.573	3196
466.607	3306
466.641	3190
466.687	3109
466.708	3433
466.766	4193
466.775	4050
466.842	2953
466.845	2895
466.909	2963
466.925	2957
466.977	3396
467.004	3629
467.044	3806
467.083	3973
467.111	3813
467.163	3465
467.178	3493
467.242	3601
467.245	3613
467.312	3735
467.321	3746
467.379	3426
467.400	3298
467.446	3384
467.480	3436
467.559	4117
467.638	3632
467.717	3310
467.796	3429
467.875	4046
467.955	3686
468.034	3942
468.113	5188
468.192	6100
468.271	7184
468.350	11421
468.429	17085
468.508	18396
468.588	11889
468.667	6947
468.746	5174
468.825	4943
468.904	3707
468.983	4581
469.062	4406
469.141	4039
469.220	3143
469.299	4501
469.378	2681
469.456	4067
469.535	3320
469.614	3409
469.693	2680
469.772	4768
469.851	4442
469.930	4923
470.009	4824
470.088	6474
470.166	8969
470.245	18107
470.324	24098
470.403	14881
470.482	8232
470.560	6339
470.639	4286
470.718	4780
470.797	4101
470.875	3885
470.954	4406
471.033	4392
471.111	3048
471.190	3483
471.269	3017
471.347	3219
471.426	2985
471.505	3481
471.583	3217
471.662	3944
471.740	4084
471.819	3347
471.898	3444
471.976	3994
472.055	3294
472.133	3673
472.212	3963
472.290	3572
472.369	3003
472.447	3685
472.526	2984
472.604	4248
472.683	3646
472.761	3698
472.839	3701
472.918	4350
472.996	2943
473.075	4138
473.153	3716
473.231	4185
473.310	3512
473.388	4916
473.466	4549
473.545	3841
473.623	4770
473.701	4365
473.780	3723
473.858	3712
473.936	5445
474.014	4207
474.093	4582
474.171	4239
474.249	4712
474.327	4288
474.405	2939
474.484	4071
474.562	4045
474.640	2677
474.718	3795
474.796	3456
474.874	4080
474.952	3905
475.030	3806
475.108	4213
475.187	3428
475.265	4372
475.343	4160
475.421	4293
475.499	3758
475.577	3557
475.655	3478
475.733	4415
475.811	4030
475.889	4785
475.966	3761
476.044	3739
476.122	3530
476.200	3928
476.278	3267
476.356	4343
476.434	3808
476.512	4252
476.590	4123
476.667	4193
476.745	3824
476.823	4070
476.901	3803
476.979	3991
477.056	3443
477.134	3642
477.212	3014
477.290	4024
477.367	2631
477.445	4284
477.523	2623
477.601	4022
477.678	3234
477.756	3972
477.834	3295
477.911	4390
477.989	2762
478.066	4500
478.144	4124
478.222	4200
478.299	4200
478.377	3958
478.454	2948
478.532	4218
478.609	3158
478.687	4350
478.764	3199
478.842	4008
478.919	3805
478.997	3946
479.074	2817
479.152	3507
479.229	3551
479.307	3992
479.384	4064
479.461	4070
479.539	4023
479.616	4345
479.694	3308
479.771	3658
479.848	2564
479.926	2287
480.003	3972
480.080	3651
480.157	4162
480.235	3761
480.312	2750
480.389	3809
480.467	3599
480.544	4445
480.621	5075
480.698	5488
480.775	4711
480.853	4523
480.930	3801
481.007	4318
481.084	3661
481.161	4358
481.238	3875
481.315	3518
481.392	2962
481.470	4274
481.547	4529
481.624	3630
481.701	3528
481.778	4010
481.855	4417
481.932	4954
482.009	5475
482.086	5444
482.163	5392
482.240	7588
482.317	8332
482.393	6658
482.470	5294
482.547	5555
482.624	5353
482.701	5646
482.778	4622
482.855	4128
482.932	4333
483.009	4552
483.085	5744
483.162	6942
483.239	7399
483.316	7361
483.393	7620
483.469	6812
483.546	5907
483.623	4683
483.699	4203
483.776	4600
483.853	4102
483.930	4346
484.006	3172
484.083	5811
484.160	5766
484.236	5862
484.313	5091
484.389	5231
484.466	7179
484.543	6442
484.619	9131
484.696	12905
484.772	8726
484.849	5464
484.925	4945
485.002	5430
485.078	5208
485.155	4198
485.231	4040
485.308	4256
485.384	4017
485.461	4682
485.537	3369
485.614	5812
485.690	3842
485.766	4122
485.843	3742
485.919	4455
485.995	3940
486.072	4448
486.148	3691
486.224	3582
486.301	3990
486.377	4119
486.453	3274
486.530	4898
486.606	4980
486.682	4973
486.758	4866
486.835	4730
486.911	4002
486.987	6201
487.063	7285
487.139	6913
487.215	7859
487.292	8786
487.368	9282
487.444	10762
487.520	16276
487.596	22888
487.672	57864
487.748	200419
487.824	327114
487.900	131145
487.976	29522
488.052	14575
488.128	11428
488.204	7125
488.280	6305
488.356	6074
488.432	6546
488.508	6399
488.584	4593
488.660	5530
488.736	4867
488.812	4734
488.888	4830
488.964	4556
489.039	5897
489.115	7892
489.191	6130
489.267	4673
489.343	4810
489.418	4560
489.494	4342
489.570	3644
489.646	5947
489.722	4518
489.797	4845
489.873	4998
489.949	5076
490.024	5047
490.100	4735
490.176	4775
490.251	4473
490.327	5015
490.403	4146
490.478	4580
490.554	4960
490.629	4590
490.705	3963
490.781	4551
490.856	3592
490.932	4761
491.007	4230
491.083	3855
491.158	4455
491.234	3771
491.309	4853
491.385	3987
491.460	3403
491.536	5686
491.611	3880
491.686	5031
491.762	3935
491.837	5840
491.913	5214
491.988	7641
492.063	7367
492.139	6288
492.214	4921
492.289	5371
492.365	2829
492.440	4278
492.515	4250
492.590	3963
492.666	4597
492.741	5276
492.816	4192
492.891	4324
492.967	4498
493.042	4587
493.117	4218
493.192	5252
493.267	5291
493.342	6183
493.418	5741
493.493	5445
493.568	4845
493.643	4733
493.718	4607
493.793	4771
493.868	5016
493.943	4905
494.018	4633
494.093	4984
494.168	4257
494.243	4255
494.318	5821
494.393	5103
494.468	4087
494.543	5086
494.618	5292
494.693	5220
494.768	4426
494.842	5247
494.917	5392
494.992	5270
495.067	4457
495.142	5365
495.217	4868
495.292	5435
495.366	4630
495.441	4477
495.516	7015
495.591	5625
495.665	7266
495.740	13841
495.815	8974
495.890	5045
495.964	4071
496.039	7369
496.114	5772
496.188	6422
496.263	6869
496.338	5240
496.412	5076
496.487	5654
496.561	5328
496.636	5025
496.710	5448
496.785	5296
496.860	6770
496.934	5203
497.009	5781
497.083	6152
497.158	6516
497.232	6282
497.307	7355
497.381	7613
497.455	6903
497.530	6300
497.604	4086
497.679	5276
497.753	4753
497.827	4058
497.902	4564
497.976	5871
498.050	5396
498.125	11864
498.199	13266
498.273	6540
498.348	7216
498.422	6677
498.496	7969
498.570	9840
498.645	6311
498.719	3909
498.793	4001
498.867	4772
498.941	4961
499.016	6936
499.090	10667
499.164	8802
499.238	6843
499.312	5944
499.386	7733
499.460	6961
499.534	8094
499.609	11039
499.683	8434
499.757	5209
499.831	4317
499.905	7483
499.979	8098
500.053	5210
500.127	4915
500.201	5611
500.275	6402
500.349	5923
500.422	6937
500.496	8386
500.570	9912
500.644	14788
500.718	14965
500.792	6124
500.866	4631
500.940	4614
501.013	4105
501.087	3951
501.161	4048
501.235	3391
501.309	5985
501.382	5528
501.456	8388
501.530	4124
501.603	3153
501.677	4054
501.751	2222
501.825	5002
501.898	4154
501.972	4067
502.046	3844
502.119	2717
502.193	3955
502.266	4248
502.340	3729
502.413	4917
502.487	4623
502.561	3994
502.634	4153
502.708	4285
502.781	2996
502.855	4929
502.928	2550
503.002	3453
503.075	2411
503.149	3518
503.222	3739
503.295	3451
503.369	4066
503.442	3498
503.516	5250
503.589	7974
503.662	7210
503.736	7242
503.809	11280
503.882	13697
503.956	20838
504.029	39205
504.102	122247
504.175	210078
504.249	90636
504.322	28395
504.395	13640
504.468	9977
504.542	5923
504.615	4582
504.688	4786
504.761	2847
504.834	5928
504.907	4275
504.980	3880
505.053	3674
505.127	1173
505.200	6789
505.273	2878
505.346	3649
505.419	2310
505.492	4890
505.565	3034
505.638	3832
505.711	2856
505.784	2181
505.857	2241
505.930	4383
506.003	646
506.076	4734
506.149	2202
506.221	995
506.294	4445
506.367	2037
506.440	3796
506.513	3752
506.586	3025
506.659	3243
506.731	2286
506.804	3348
506.877	1964
506.950	3135
507.022	3411
507.095	2147
507.168	3413
507.241	4149
507.313	2020
507.386	1374
507.459	3495
507.531	3272
507.604	1273
507.677	4094
507.749	793
507.822	3136
507.894	2901
507.967	4024
508.040	2261
508.112	3920
508.185	2572
508.257	2190
508.330	4800
508.402	2272
508.475	2201
508.547	3108
508.620	2231
508.692	3318
508.765	3146
508.837	1911
508.909	2595
508.982	2100
509.054	3808
509.127	2983
509.199	2895
509.271	2662
509.344	2649
509.416	2884
509.488	2687
509.560	3426
509.633	2715
509.705	2716
509.777	3128
509.849	2956
509.922	2196
509.994	1887
510.066	3481
510.138	1575
510.210	4787
510.283	2542
510.355	3412
510.427	2813
510.499	2703
510.571	2405
510.643	2105
510.715	4347
510.787	1431
510.859	3181
510.931	2326
511.003	3592
511.076	3751
511.148	2770
511.219	1351
511.291	3824
511.363	4068
511.435	2708
511.507	1464
511.579	4410
511.651	3395
511.723	2422
511.795	2782
511.867	2674
511.939	3733
512.010	2927
512.082	3541
512.154	2048
512.226	3038
512.298	4399
512.369	3074
512.441	4075
512.513	3099
512.585	2268
512.656	4350
512.728	3177
512.800	2057
512.871	3968
512.943	3786
513.015	2506
513.086	3482
513.158	3441
513.230	2831
513.301	3287
513.373	4200
513.444	3050
513.516	2751
513.588	2672
513.659	3411
513.731	3742
513.802	1757
513.874	4993
513.945	4858
514.016	2886
514.088	3262
514.159	2381
514.231	4493
514.302	3775
514.374	2977
514.445	2089
514.516	5073
514.588	2798
514.659	2624
514.730	2540
514.802	4443
514.873	2014
514.944	6027
515.016	4858
515.087	2864
515.158	3619
515.229	4721
515.301	2778
515.372	4911
515.443	2887
515.514	3214
515.585	3716
515.656	4707
515.728	5470
515.799	2937
515.870	5054
515.941	5128
516.012	5173
516.083	6666
516.154	5650
516.225	8361
516.296	11202
516.367	12235
516.438	14651
516.509	20117
516.580	29896
516.651	110506
516.722	414471
516.793	230575
516.864	35393
516.935	27126
517.006	31925
517.077	41344
517.148	87898
517.219	413740
517.289	736477
517.360	159183
517.431	34692
517.502	17978
517.573	14365
517.643	12508
517.714	12073
517.785	13154
517.856	14637
517.926	21549
517.997	27337
518.068	35069
518.138	49956
518.209	75285
518.280	268861
518.350	907846
518.421	501468
518.492	88881
518.562	42885
518.633	36809
518.703	44231
518.774	89511
518.845	248960
518.915	292251
518.986	88239
519.056	31231
519.127	20353
519.197	14920
519.268	12112
519.338	10489
519.408	8178
519.479	6802
519.549	5590
519.620	7126
519.690	5642
519.760	5166
519.831	5269
519.901	4757
519.971	4644
520.042	3878
520.112	3225
520.182	4825
520.253	5117
520.323	3608
520.393	3050
520.463	5652
520.534	1545
520.604	6587
520.674	4319
520.744	3021
520.814	3886
520.885	4470
520.955	3831
521.025	4592
521.095	4374
521.165	4680
521.235	3311
521.305	2150
521.375	3798
521.445	3741
521.515	3087
521.585	5067
521.655	2353
521.725	4355
521.795	5184
521.865	1249
521.935	6442
522.005	3141
522.075	3310
522.145	4579
522.215	3078
522.285	4054
522.355	3354
522.424	4767
522.494	4245
522.564	4266
522.634	5031
522.704	9531
522.774	4916
522.843	3924
522.913	3501
522.983	3738
523.053	3352
523.122	4373
523.192	2939
523.262	5054
523.331	5176
523.401	4970
523.471	4566
523.540	3943
523.610	3062
523.680	4561
523.749	4430
523.819	4352
523.888	3992
523.958	4241
524.027	4246
524.097	4204
524.166	4163
524.236	3210
524.305	5255
524.375	4271
524.444	2789
524.514	6564
524.583	4175
524.653	3070
524.722	4260
524.791	2448
524.861	5968
524.930	3203
524.999	4727
525.069	6009
525.138	4653
525.207	3919
525.277	5766
525.346	5730
525.415	6610
525.484	6765
525.554	7847
525.623	9940
525.692	13055
525.761	14918
525.830	20420
525.900	26430
525.969	41172
526.038	77139
526.107	148453
526.176	475601
526.245	447903
526.314	123551
526.383	214493
526.452	352435
526.522	414418
526.591	482983
526.660	89871
526.729	42644
526.797	44298
526.867	54885
526.935	155742
527.004	608969
527.073	509920
527.142	76894
527.211	27015
527.280	15439
527.349	11925
527.418	7939
527.487	9537
527.555	5739
527.624	6382
527.693	4899
527.762	6849
527.831	4142
527.899	5979
527.968	4332
528.037	3558
528.106	5200
528.174	6037
528.243	5520
528.312	4768
528.380	4940
528.449	3987
528.518	6021
528.586	2564
528.655	4798
528.723	4881
528.792	3633
528.861	3292
528.929	1956
528.998	5475
529.066	3606
529.135	4250
529.203	3754
529.272	2753
529.340	4508
529.409	5983
529.477	3003
529.545	2997
529.614	6595
529.682	2446
529.751	4372
529.819	7361
529.887	4945
529.956	4518
530.024	5029
530.092	3509
530.161	4421
530.229	4775
530.297	3467
530.365	5895
530.434	5383
530.502	3149
530.570	5384
530.638	3025
530.707	4637
530.775	6058
530.843	4190
530.911	4922
530.979	5362
531.047	4562
531.115	4986
531.183	5234
531.252	4547
531.320	4717
531.388	3455
531.456	5661
531.524	3734
531.592	5683
531.660	7439
531.728	4457
531.796	4376
531.864	5685
531.932	5130
532.000	5023
532.067	4711
532.135	5735
532.203	5980
532.271	6025
532.339	7343
532.407	8600
532.475	7436
532.542	7649
532.610	6856
532.678	5573
532.746	9569
532.814	18342
532.881	9395
532.949	7411
533.017	7111
533.084	6255
533.152	5730
533.220	6120
533.287	4835
533.355	7007
533.423	6825
533.490	5888
533.558	6152
533.625	6928
533.693	6803
533.761	7103
533.828	7180
533.896	5505
533.963	8433
534.031	8339
534.098	10018
534.166	10494
534.233	10340
534.300	13029
534.368	12450
534.435	12183
534.503	13583
534.570	15251
534.637	16457
534.705	18546
534.772	22170
534.840	39982
534.907	189897
534.974	320850
535.041	49939
535.109	17224
535.176	13235
535.243	11766
535.310	10888
535.378	10123
535.445	10484
535.512	10814
535.579	9899
535.646	9720
535.714	9813
535.781	12156
535.848	11870
535.915	12794
535.982	10406
536.049	10908
536.116	11346
536.183	11370
536.250	9435
536.317	10286
536.384	11283
536.451	11757
536.518	11957
536.585	10180
536.652	12305
536.719	12788
536.786	10824
536.853	10347
536.920	11774
536.987	11997
537.053	11006
537.120	16701
537.187	16899
537.254	12738
537.321	12084
537.388	13890
537.454	12112
537.521	11539
537.588	11848
537.654	13505
537.721	13533
537.788	14315
537.855	11715
537.921	12929
537.988	12135
538.055	12888
538.121	11094
538.188	11404
538.254	10854
538.321	11511
538.388	13236
538.454	13842
538.521	14559
538.587	14944
538.654	12310
538.720	13453
538.787	13499
538.853	13590
538.920	12814
538.986	11546
539.053	11636
539.119	12526
539.185	13490
539.252	13348
539.318	12892
539.385	15497
539.451	13144
539.517	13554
539.583	12423
539.650	13382
539.716	15384
539.782	13732
539.849	11350
539.915	12405
539.981	12406
540.047	12591
540.114	12046
540.180	14451
540.246	13313
540.312	14147
540.378	14003
540.444	14676
540.510	14494
540.576	17715
540.643	13148
540.709	12745
540.775	13066
540.841	12630
540.907	12776
540.973	13177
541.039	12584
541.105	14187
541.171	13670
541.237	14266
541.303	15008
541.369	15914
541.435	14954
541.500	14150
541.566	12103
541.632	12084
541.698	12198
541.764	14982
541.830	13432
541.896	11682
541.961	14281
542.027	13325
542.093	13698
542.159	16030
542.224	12881
542.290	14559
542.356	12935
542.421	14102
542.487	13484
542.553	12292
542.618	12591
542.684	11829
542.750	13151
542.815	14727
542.881	13868
542.947	16441
543.012	18051
543.078	13225
543.143	11586
543.209	13800
543.274	11834
543.340	13495
543.405	13621
543.471	15450
543.536	14812
543.602	12982
543.667	12534
543.732	14204
543.798	13005
543.863	14944
543.928	14057
543.994	13994
544.059	14287
544.124	15442
544.190	14333
544.255	16315
544.320	15401
544.386	13501
544.451	16882
544.516	15184
544.581	15385
544.646	17134
544.712	20109
544.777	15690
544.842	16429
544.907	15603
544.972	14751
545.037	16158
545.102	16444
545.168	17929
545.233	18465
545.298	17989
545.363	16939
545.428	18086
545.493	19629
545.558	20292
545.623	19123
545.688	17877
545.753	19169
545.818	20195
545.883	22037
545.947	21592
546.012	21624
546.077	21531
546.142	24627
546.207	25480
546.272	26113
546.337	27235
546.401	29171
546.466	29470
546.531	29465
546.596	33267
546.661	34709
546.725	36518
546.790	37886
546.855	43146
546.919	44522
546.984	51458
547.049	54441
547.113	62397
547.178	70375
547.243	79185
547.307	90580
547.372	103746
547.436	103471
547.501	108249
547.565	119453
547.630	109747
547.695	102710
547.759	103149
547.823	104729
547.888	106842
547.952	109012
548.017	111755
548.081	116193
548.146	115348
548.210	119117
548.274	129370
548.339	127810
548.403	117949
548.468	107543
548.532	107398
548.596	109337
548.660	108075
548.725	119027
548.789	128558
548.853	128318
548.917	121682
548.982	118355
549.046	107273
549.110	95933
549.174	98171
549.238	113506
549.303	126305
549.367	131799
549.431	126223
549.495	117245
549.559	116785
549.623	130592
549.687	147970
549.751	141524
549.815	168829
549.879	175367
549.943	165169
550.007	172850
550.071	173921
550.135	158279
550.199	144982
550.263	147701
550.327	138576
550.391	139143
550.455	154600
550.519	163957
550.582	172993
550.646	196313
550.710	200103
550.774	199012
550.838	198328
550.901	204198
550.965	216797
551.029	222793
551.093	236822
551.156	257661
551.220	284320
551.284	331205
551.347	268738
551.411	219609
551.475	206627
551.538	215158
551.602	204703
551.666	190570
551.729	179494
551.793	174399
551.856	172320
551.920	169713
551.983	168453
552.047	166791
552.110	165691
552.174	168601
552.237	175460
552.301	164027
552.364	153758
552.428	152367
552.491	154957
552.554	160646
552.618	159030
552.681	165643
552.745	161598
552.808	185003
552.871	221219
552.934	189092
552.998	166831
553.061	158151
553.124	150725
553.187	148062
553.251	154931
553.314	154299
553.377	153759
553.440	162205
553.503	166351
553.567	166398
553.630	165266
553.693	164028
553.756	166590
553.819	162695
553.882	156071
553.945	155850
554.008	156070
554.071	156584
554.134	161625
554.197	150659
554.260	146833
554.323	148948
554.386	150615
554.449	156416
554.512	158790
554.575	151311
554.638	150793
554.701	148512
554.764	148420
554.827	142828
554.889	138319
554.952	129209
555.015	125552
555.078	128625
555.141	130809
555.203	127743
555.266	127612
555.329	126908
555.391	121938
555.454	120333
555.517	117564
555.580	112551
555.642	108578
555.705	106117
555.768	104853
555.830	103773
555.893	98089
555.955	95930
556.018	93358
556.080	94618
556.143	96446
556.206	96759
556.268	93698
556.330	91873
556.393	89457
556.455	86006
556.518	85131
556.580	81379
556.643	78472
556.705	77529
556.767	76300
556.830	74165
556.892	73089
556.955	72133
557.017	70884
557.079	69833
557.142	68405
557.204	67373
557.266	67569
557.328	63839
557.391	59500
557.453	56901
557.515	57623
557.577	58091
557.639	59055
557.701	58591
557.764	58499
557.826	58976
557.888	61503
557.950	64088
558.012	67121
558.074	78400
558.136	152132
558.198	407613
558.260	185371
558.322	69167
558.384	66814
558.446	67504
558.508	72283
558.570	80423
558.632	90467
558.694	108060
558.756	161152
558.818	422090
558.880	970441
558.942	476649
559.003	433085
559.065	255372
559.127	90937
559.189	80915
559.251	84187
559.312	106077
559.374	229132
559.436	714513
559.498	456891
559.559	110114
559.621	82534
559.683	85551
559.744	121436
559.806	361159
559.868	627427
559.929	168957
559.991	88146
560.052	124165
560.114	368486
560.176	280157
560.237	201442
560.299	380907
560.360	104456
560.422	39117
560.483	31827
560.545	28056
560.606	27024
560.667	25556
560.729	24508
560.790	23138
560.852	23293
560.913	21906
560.974	21626
561.036	21232
561.097	20979
561.158	21525
561.220	21261
561.281	19773
561.342	19142
561.403	19862
561.465	19116
561.526	19725
561.587	22148
561.648	17721
561.709	18536
561.771	17711
561.832	17697
561.893	17604
561.954	17324
562.015	15969
562.076	16489
562.137	16622
562.198	15902
562.259	16632
562.320	16037
562.381	16233
562.442	15906
562.503	15989
562.564	16482
562.625	15626
562.686	15122
562.747	15253
562.808	15640
562.869	13937
562.930	15391
562.991	14141
563.051	14318
563.112	13627
563.173	15275
563.234	13558
563.294	14366
563.355	11886
563.416	13754
563.477	13406
563.537	13464
563.598	13647
563.659	13058
563.720	12755
563.780	12403
563.841	12322
563.901	13468
563.962	14116
564.023	13780
564.083	12513
564.144	13339
564.204	12407
564.265	12903
564.325	11809
564.386	13088
564.446	11886
564.507	12441
564.567	11868
564.628	12296
564.688	11495
564.749	11387
564.809	11992
564.869	12049
564.930	11807
564.990	11829
565.050	11587
565.111	11889
565.171	10570
565.231	12158
565.292	11923
565.352	10899
565.412	11953
565.472	11060
565.532	12555
565.593	11507
565.653	10492
565.713	11576
565.773	11121
565.833	12639
565.893	12608
565.953	11713
566.013	11114
566.074	11112
566.134	10566
566.194	10849
566.254	10362
566.314	9856
566.374	10844
566.434	10647
566.494	10369
566.554	11652
566.614	11284
566.673	10942
566.733	12139
566.793	11596
566.853	11378
566.913	11719
566.973	11046
567.033	11870
567.092	11008
567.152	11196
567.212	11878
567.272	11599
567.331	11561
567.391	12479
567.451	12839
567.511	12810
567.570	12490
567.630	12199
567.690	11389
567.749	11408
567.809	10945
567.868	12319
567.928	10547
567.988	11288
568.047	12217
568.107	11969
568.166	11178
568.226	11687
568.285	12684
568.345	12709
568.404	12087
568.464	12679
568.523	11236
568.582	11720
568.642	10819
568.701	11594
568.761	11760
568.820	12474
568.879	12077
568.939	12497
568.998	10835
569.057	11217
569.116	11118
569.176	11399
569.235	10113
569.294	12104
569.353	9726
569.413	10981
569.472	10220
569.531	10183
569.590	10473
569.649	10490
569.708	10794
569.767	11608
569.827	10237
569.886	9902
569.945	10500
570.004	10453
570.063	10476
570.122	10570
570.181	10695
570.240	10982
570.299	11119
570.358	11255
570.417	11815
570.475	11183
570.534	12800
570.593	12375
570.652	11633
570.711	11783
570.770	10810
570.829	10972
570.887	11282
570.946	12497
571.005	11521
571.064	13298
571.122	14875
571.181	12205
571.240	11162
571.299	10499
571.357	12260
571.416	10685
571.475	10746
571.533	10867
571.592	11031
571.650	11917
571.709	12563
571.768	14609
571.826	14205
571.885	13535
571.943	12436
572.002	10712
572.060	10795
572.119	10548
572.177	10901
572.236	11124
572.294	10731
572.352	12593
572.411	11234
572.469	11271
572.528	10744
572.586	10881
572.644	9517
572.703	9894
572.761	10049
572.819	10572
572.877	8970
572.936	10496
572.994	9618
573.052	9013
573.110	9664
573.169	11051
573.227	10811
573.285	10822
573.343	10250
573.401	10641
573.459	10401
573.517	9734
573.576	10883
573.634	11029
573.692	10296
573.750	10551
573.808	9887
573.866	9336
573.924	10238
573.982	9467
574.040	9198
574.098	10162
574.155	9378
574.213	10168
574.271	9736
574.329	11358
574.387	9654
574.445	9000
574.503	8764
574.560	9043
574.618	8213
574.676	9221
574.734	9547
574.792	9601
574.849	8258
574.907	7263
574.965	7124
575.022	8013
575.080	6288
575.138	8673
575.195	7951
575.253	7515
575.311	7314
575.368	7381
575.426	6805
575.483	7861
575.541	8016
575.598	7525
575.656	7160
575.713	7625
575.771	9206
575.828	7638
575.886	7713
575.943	7530
576.001	6532
576.058	6123
576.115	6897
576.173	6683
576.230	7019
576.287	7332
576.345	8593
576.402	7632
576.459	8212
576.517	7124
576.574	7429
576.631	6843
576.688	6524
576.746	6806
576.803	6797
576.860	6253
576.917	6399
576.974	6594
577.031	7085
577.089	6315
577.146	6080
577.203	5667
577.260	6582
577.317	5915
577.374	6373
577.431	6498
577.488	6376
577.545	6362
577.602	6166
577.659	6992
577.716	5962
577.773	6544
577.830	5445
577.886	6690
577.943	6240
578.000	5712
578.057	5832
578.114	5958
578.171	6357
578.227	6300
578.284	6016
578.341	6587
578.398	6020
578.454	6591
578.511	5945
578.568	6294
578.625	5618
578.681	6529
578.738	5277
578.794	6196
578.851	6788
578.908	5731
578.964	5836
579.021	6057
579.077	5997
579.134	5971
579.190	6020
579.247	6066
579.303	5532
579.360	5149
579.416	5693
579.473	6075
579.529	6248
579.586	5779
579.642	6270
579.698	7792
579.755	6142
579.811	6675
579.867	6209
579.924	5519
579.980	6277
580.036	5849
580.093	6687
580.149	6667
580.205	7154
580.261	6744
580.317	7450
580.374	7168
580.430	7395
580.486	7266
580.542	5987
580.598	6838
580.619	6585
580.654	6150
580.692	6591
580.710	6824
580.765	6917
580.767	6926
580.823	7584
580.838	7373
580.879	6837
580.911	7194
580.935	7465
580.984	6291
580.991	6143
581.047	7714
581.057	7685
581.103	7553
581.130	7567
581.159	7593
581.203	6708
581.215	6479
581.270	6465
581.276	6450
581.326	6390
581.349	6263
581.382	6028
581.422	6354
581.438	6529
581.494	7030
581.494	7023
581.550	6465
581.567	6425
581.606	6388
581.640	5883
581.661	5613
581.713	6825
581.717	6915
581.773	5969
581.786	6099
581.829	6603
581.859	6772
581.885	6926
581.932	6794
581.940	6760
581.996	6665
582.004	6836
582.052	7779
582.077	7172
582.107	6440
582.150	6602
582.163	6691
582.219	5968
582.223	5987
582.274	6191
582.296	6207
582.330	6282
582.368	6590
582.386	6712
582.441	6373
582.441	6373
582.497	6872
582.514	6861
582.552	6875
582.587	6591
582.608	6426
582.659	6055
582.663	6021
582.719	7072
582.732	6876
582.774	6310
582.805	6563
582.830	6801
582.877	6971
582.885	7005
582.941	7120
582.950	6994
582.996	6109
583.023	6600
583.052	7285
583.095	7104
583.107	7011
583.162	6860
583.168	6825
583.218	6780
583.240	6560
583.273	6161
583.313	6456
583.328	6571
583.384	6972
583.385	6935
583.439	5606
583.458	5753
583.494	6266
583.531	6092
583.549	5955
583.603	6207
583.605	6217
583.660	6701
583.676	6900
583.715	7431
583.748	7146
583.770	7001
583.820	7468
583.825	7468
583.881	6846
583.893	6748
583.936	6839
583.965	6894
583.991	6807
584.038	6956
584.046	6970
584.101	6674
584.110	6657
584.156	6879
584.183	6920
584.211	6830
584.255	7324
584.266	7514
584.321	7839
584.328	7911
584.376	7966
584.400	7883
584.431	8062
584.472	8166
584.486	8159
584.541	7844
584.545	7866
584.596	8084
584.617	8082
584.651	8498
584.689	9052
584.706	9072
584.761	9265
584.762	9263
584.816	9379
584.834	9463
584.871	9752
584.906	10238
584.926	10374
584.978	10721
584.980	10757
585.035	12658
585.051	12933
585.090	13634
585.123	15081
585.145	15983
585.195	17205
585.200	17469
585.254	22186
585.267	23104
585.309	25450
585.340	28000
585.364	30652
585.412	36512
585.419	37517
585.473	46092
585.484	48403
585.528	62551
585.556	76456
585.583	106883
585.628	180271
585.637	208304
585.692	442361
585.700	483607
585.747	608334
585.772	526882
585.801	343410
585.845	120842
585.856	93206
585.910	46122
585.917	41570
585.965	29245
585.989	25266
586.019	22426
586.061	19381
586.074	18656
586.128	17286
586.133	17167
586.183	16145
586.205	15691
586.237	15307
586.277	15243
586.292	15354
586.346	15575
586.349	15571
586.401	15228
586.421	15136
586.455	14790
586.493	14617
586.509	14884
586.564	14984
586.565	15009
586.618	16760
586.637	17356
586.672	19680
586.709	23027
586.727	24219
586.781	26835
586.781	26840
586.835	20457
586.853	18922
586.889	16666
586.925	15106
586.944	14865
586.996	15309
586.998	15333
587.052	14833
587.068	14933
587.106	15276
587.140	15162
587.161	15047
587.212	15295
587.215	15338
587.269	15340
587.284	15607
587.323	16090
587.356	16071
587.377	16254
587.427	17393
587.431	17445
587.485	17158
587.499	17087
587.539	17279
587.571	17454
587.593	17819
587.643	19506
587.648	19649
587.702	20036
587.715	20153
587.755	19899
587.786	19678
587.810	19860
587.858	20413
587.864	20444
587.917	20429
587.930	20350
587.971	20942
588.001	21483
588.025	21199
588.073	20715
588.079	20867
588.133	21708
588.145	21932
588.187	21725
588.217	21746
588.241	22309
588.288	22948
588.295	23060
588.348	24180
588.360	24361
588.402	25386
588.431	26242
588.456	26590
588.503	27140
588.510	27466
588.564	29745
588.575	30411
588.617	32557
588.646	33723
588.671	35155
588.718	38020
588.725	38928
588.778	47689
588.789	49943
588.832	75875
588.861	97130
588.886	142415
588.932	243859
588.939	252649
588.993	312733
589.004	309664
589.047	165017
589.075	80824
589.100	60756
589.147	38633
589.154	37854
589.207	33951
589.218	33307
589.261	35056
589.290	36285
589.314	37079
589.361	39743
589.368	41341
589.421	55625
589.433	59272
589.475	103162
589.504	139128
589.528	184763
589.576	281858
589.582	272862
589.635	135830
589.647	108090
589.689	59088
589.718	32838
589.742	30417
589.790	26212
589.795	26029
589.849	25106
589.861	24885
589.902	24444
589.932	23900
589.955	23675
590.004	23268
590.009	23219
590.062	22643
590.075	22495
590.115	22828
590.146	22852
590.168	22779
590.218	22691
590.222	22755
590.275	23321
590.289	23538
590.328	24734
590.360	25263
590.381	25239
590.431	25328
590.435	25329
590.488	24575
590.503	24420
590.541	25105
590.574	25535
590.594	25675
590.645	26178
590.647	26248
590.700	27059
590.716	27310
590.753	27757
590.787	27913
590.806	28377
590.859	30137
590.859	30186
590.912	30238
590.930	30342
590.965	30699
591.001	30954
591.018	30557
591.071	29013
591.072	28962
591.124	29541
591.143	29804
591.177	29967
591.214	30030
591.230	30144
591.283	30349
591.285	30311
591.336	30310
591.356	30327
591.389	30834
591.427	31271
591.442	31033
591.495	30123
591.498	30006
591.547	30188
591.569	30252
591.600	30432
591.640	30535
591.653	30740
591.706	31473
591.711	31508
591.759	32447
591.782	32954
591.811	33646
591.853	34311
591.864	34392
591.917	34608
591.924	34599
591.969	34727
591.995	34708
592.022	34816
592.066	34847
592.075	35232
592.127	37366
592.137	37702
592.180	37444
592.208	37191
592.233	37254
592.279	37221
592.285	37526
592.338	39719
592.350	40156
592.390	38983
592.421	38005
592.443	38813
592.491	40457
592.495	40578
592.548	41429
592.562	41606
592.600	41563
592.633	41420
592.653	41429
592.704	41076
592.705	41324
592.775	41996
592.846	43786
592.916	43898
592.987	44666
593.058	44487
593.128	45327
593.199	46431
593.270	46204
593.341	47540
593.411	47840
593.482	49738
593.553	52803
593.623	52883
593.694	53315
593.764	53667
593.835	53753
593.906	54776
593.976	56250
594.047	55639
594.117	59765
594.188	60640
594.258	60888
594.329	60248
594.399	61592
594.470	64105
594.540	66416
594.611	67569
594.681	68037
594.751	67477
594.822	70681
594.892	72321
594.963	74583
595.033	75726
595.103	78553
595.174	79209
595.244	81513
595.314	83132
595.384	84696
595.455	88165
595.525	90867
595.595	95462
595.665	95301
595.736	91376
595.806	93107
595.876	94729
595.946	97182
596.016	99609
596.087	102134
596.157	101725
596.227	104706
596.297	109383
596.367	117032
596.437	123850
596.507	123544
596.577	122133
596.647	126284
596.717	133092
596.787	136685
596.857	133871
596.927	136427
596.997	135916
597.067	137831
597.137	139764
597.207	140586
597.277	139981
597.347	134389
597.417	130304
597.487	131768
597.557	133380
597.626	138725
597.696	138971
597.766	137095
597.836	128417
597.906	123019
597.975	121354
598.045	123001
598.115	130405
598.185	139086
598.254	156174
598.324	167642
598.394	170987
598.464	166441
598.533	161303
598.603	151060
598.672	145061
598.742	149136
598.812	149448
598.881	155363
598.951	152302
599.020	155597
599.090	160281
599.159	165127
599.229	156847
599.299	153413
599.368	156788
599.437	154846
599.507	142603
599.576	136636
599.646	133900
599.715	132918
599.785	130815
599.854	126847
599.924	126709
599.993	125947
600.062	128449
600.132	133149
600.201	142102
600.270	164323
600.340	171414
600.409	167778
600.478	165590
600.547	169301
600.617	149544
600.686	118505
600.755	108802
600.824	102822
600.894	99573
600.963	102217
601.032	99408
601.101	95698
601.170	90700
601.239	86479
601.308	86913
601.378	87565
601.447	87637
601.516	88034
601.585	87524
601.654	89806
601.723	89117
601.792	92798
601.861	95819
601.930	98906
601.999	100149
602.068	99245
602.137	101678
602.206	102805
602.275	103169
602.343	104420
602.412	105486
602.481	107605
602.550	108144
602.619	111053
602.688	112387
602.756	113055
602.825	115661
602.894	116661
602.963	120990
603.032	121891
603.100	121587
603.169	121561
603.238	122375
603.307	125004
603.375	125987
603.444	128125
603.513	131051
603.581	132394
603.650	133432
603.719	133562
603.787	135984
603.856	140972
603.924	143267
603.993	149158
604.061	156744
604.130	163399
604.198	164036
604.267	167997
604.335	170998
604.404	171018
604.472	173945
604.541	176900
604.609	177886
604.678	178333
604.746	178968
604.815	185189
604.883	188848
604.951	188886
605.020	192793
605.088	197303
605.156	199983
605.225	203503
605.293	203182
605.361	206762
605.429	207359
605.498	212348
605.566	217846
605.634	229488
605.702	238878
605.771	242569
605.839	243387
605.907	237600
605.975	229152
606.043	226378
606.111	224600
606.180	225854
606.248	223802
606.316	219295
606.384	218697
606.452	222734
606.520	227980
606.588	236837
606.656	237021
606.724	232080
606.792	217083
606.860	196055
606.928	180392
606.996	174056
607.064	172224
607.132	176471
607.200	187696
607.267	193679
607.335	195637
607.403	199546
607.471	192441
607.539	187123
607.607	187010
607.674	165974
607.742	166268
607.810	165577
607.878	164789
607.946	170096
608.013	177139
608.081	180056
608.149	180541
608.216	190362
608.284	194678
608.352	193780
608.419	191178
608.487	188119
608.555	184851
608.622	192437
608.690	204896
608.757	225185
608.825	226754
608.893	219626
608.960	208380
609.028	200688
609.095	198316
609.163	197209
609.230	175835
609.298	166335
609.365	176697
609.432	188744
609.500	205970
609.567	235317
609.635	265567
609.702	273993
609.769	260224
609.837	201297
609.904	180380
609.971	191561
610.039	212499
610.106	267505
610.173	458123
610.241	907778
610.308	483545
610.375	222250
610.442	191623
610.509	184776
610.577	184972
610.644	187377
610.711	193597
610.778	200171
610.845	206882
610.912	220791
610.980	227451
611.047	227784
611.114	222055
611.181	218279
611.248	217403
611.315	228596
611.382	233939
611.449	243593
611.516	246268
611.583	242159
611.650	244230
611.717	249619
611.784	254528
611.851	269823
611.918	286925
611.984	331095
612.051	430312
612.118	730498
612.185	1394687
612.252	875213
612.319	367075
612.386	318272
612.452	290022
612.519	276564
612.586	272008
612.653	275376
612.719	283783
612.786	272459
612.853	253520
612.919	249652
612.986	251822
613.053	238796
613.120	223337
613.186	216657
613.253	218127
613.319	218303
613.386	220002
613.453	223705
613.519	225027
613.586	218563
613.652	224010
613.719	220853
613.785	224895
613.852	226857
613.918	225869
613.985	227723
614.051	236860
614.118	231588
614.184	223775
614.250	225971
614.317	228318
614.383	226187
614.449	231631
614.516	231598
614.582	229139
614.648	225135
614.715	225117
614.781	219886
614.847	218787
614.914	217218
614.980	211376
615.046	214049
615.112	219781
615.179	219904
615.245	222964
615.311	220491
615.377	223858
615.443	226886
615.509	230379
615.575	237741
615.642	235008
615.708	242953
615.774	252332
615.840	270856
615.906	293500
615.972	343488
616.038	472280
616.104	846074
616.170	1513555
616.236	1201857
616.302	482434
616.368	398685
616.434	297634
616.500	283346
616.565	318941
616.631	388966
616.697	322603
616.763	339168
616.829	491492
616.895	809356
616.961	704546
617.026	327733
617.092	246968
617.158	235702
617.224	227511
617.289	210816
617.355	202529
617.421	200302
617.487	198928
617.552	192012
617.618	190079
617.684	188627
617.749	191756
617.815	183356
617.880	180425
617.946	180214
618.012	183688
618.077	187150
618.143	177559
618.208	181141
618.274	192218
618.339	190171
618.405	158910
618.470	162013
618.536	159406
618.601	155908
618.667	145136
618.732	140118
618.798	136969
618.863	138867
618.928	137654
618.994	140083
619.059	138013
619.124	140549
619.190	137962
619.255	137367
619.320	137748
619.386	138378
619.451	136506
619.516	131281
619.581	134677
619.647	137369
619.712	136328
619.777	131244
619.842	133267
619.907	136047
619.972	135729
620.038	136504
620.103	131607
620.168	132494
620.233	135443
620.298	135183
620.363	137610
620.428	142082
620.493	144168
620.558	146667
620.623	146641
620.688	147396
620.753	146057
620.818	148146
620.883	148251
620.948	148505
621.013	146257
621.078	143565
621.143	144173
621.207	147945
621.272	142812
621.337	140537
621.402	137661
621.467	135457
621.532	136410
621.596	137873
621.661	132657
621.726	132916
621.791	133660
621.855	135145
621.920	133957
621.985	134675
622.049	137643
622.114	138180
622.179	139196
622.243	143179
622.308	147949
622.373	153414
622.437	147559
622.502	141928
622.566	138988
622.631	140194
622.695	142335
622.760	141164
622.824	140840
622.889	142545
622.953	141125
623.018	151804
623.082	150348
623.147	148690
623.211	144945
623.276	145788
623.340	140059
623.404	138193
623.469	136228
623.533	137015
623.597	132993
623.662	133050
623.726	123413
623.790	116070
623.854	114396
623.919	118291
623.983	117806
624.047	120869
624.111	121987
624.176	123988
624.240	123630
624.304	128678
624.368	121377
624.432	123728
624.496	128087
624.560	133807
624.625	133019
624.689	132140
624.753	139203
624.817	131362
624.881	127212
624.945	116818
625.009	113820
625.073	116954
625.137	119568
625.201	124227
625.265	125742
625.329	119756
625.393	120484
625.456	122613
625.520	125098
625.584	126326
625.648	129215
625.712	129937
625.776	128571
625.839	122878
625.903	104841
625.967	98136
626.031	106411
626.095	124221
626.158	112888
626.222	90245
626.286	85170
626.349	82191
626.413	76048
626.477	76790
626.540	77038
626.604	77781
626.668	75282
626.731	74636
626.795	73207
626.858	74491
626.922	72746
626.986	72214
627.049	70680
627.113	75307
627.176	72491
627.240	70467
627.303	70630
627.366	70089
627.430	70573
627.493	69314
627.557	68098
627.620	72136
627.684	73549
627.747	73221
627.810	66251
627.874	61766
627.937	56397
628.000	62295
628.064	58812
628.127	51288
628.190	51284
628.253	51215
628.317	47066
628.380	45635
628.443	44529
628.506	43773
628.569	42665
628.632	41567
628.696	40347
628.759	40834
628.822	38556
628.885	38468
628.948	36649
629.011	37663
629.074	36485
629.137	33699
629.200	33527
629.263	34683
629.326	32612
629.389	32908
629.452	32252
629.515	31959
629.578	31237
629.641	32647
629.704	30376
629.767	32111
629.830	30748
629.892	30789
629.955	29128
630.018	32750
630.081	29204
630.144	30829
630.207	27927
630.269	31645
630.332	28631
630.395	28315
630.458	27069
630.520	25920
630.583	28138
630.646	28592
630.708	27811
630.771	27657
630.834	30751
630.896	30053
630.959	29243
631.021	28041
631.084	28529
631.146	28856
631.209	28883
631.272	28755
631.334	28837
631.397	29466
631.459	30547
631.522	32237
631.584	32773
631.646	36373
631.709	36274
631.771	36582
631.834	36562
631.896	34759
631.958	30361
632.021	30741
632.083	27393
632.145	28553
632.208	25995
632.270	28904
632.332	26798
632.395	26974
632.457	27696
632.519	26295
632.581	27730
632.643	25844
632.706	26083
632.768	24755
632.830	26744
632.892	27484
632.954	26859
633.016	27778
633.078	27711
633.141	28007
633.203	26361
633.265	27683
633.327	26831
633.389	26855
633.451	27142
633.513	27348
633.575	28792
633.637	27643
633.698	27399
633.760	30295
633.822	30574
633.884	31337
633.946	32738
634.008	35022
634.070	34844
634.132	37909
634.193	40662
634.255	46579
634.317	45760
634.379	45356
634.441	39123
634.502	36086
634.564	31877
634.626	28846
634.687	27940
634.749	27694
634.811	27463
634.873	26249
634.934	26415
634.996	28069
635.057	26941
635.119	26961
635.181	27439
635.242	29368
635.304	25447
635.365	30768
635.427	26509
635.488	28269
635.550	26592
635.611	28507
635.673	26097
635.734	32146
635.796	31584
635.857	36286
635.918	37839
635.980	44853
636.041	45376
636.102	50151
636.164	49783
636.225	49633
636.286	38959
636.348	36326
636.409	31648
636.470	28760
636.531	28250
636.593	26635
636.654	25850
636.715	25565
636.776	23883
636.838	23628
636.899	23940
636.960	23894
637.021	22738
637.082	21810
637.143	21609
637.204	20543
637.265	21099
637.326	22903
637.387	22800
637.448	22522
637.509	21978
637.570	22593
637.631	22822
637.692	21385
637.753	19091
637.814	21951
637.875	19518
637.936	21521
637.997	19144
638.058	20867
638.119	20906
638.179	21480
638.240	20687
638.301	21531
638.362	18516
638.423	19330
638.483	19855
638.544	17993
638.605	19321
638.666	18818
638.726	19683
638.787	19995
638.848	18647
638.908	19193
638.969	18746
639.030	17149
639.090	16662
639.151	17591
639.211	18627
639.272	19118
639.332	18539
639.393	19501
639.453	19837
639.514	21738
639.574	18842
639.635	17649
639.695	16982
639.756	15849
639.816	16040
639.877	17441
639.937	17649
639.997	18245
640.058	16000
640.118	16646
640.178	17955
640.239	17562
640.299	17359
640.359	17784
640.420	19049
640.480	22939
640.540	25360
640.600	24806
640.661	22094
640.721	19574
640.781	20257
640.841	16627
640.901	18427
640.961	17564
641.021	18896
641.082	19241
641.142	16929
641.202	17421
641.262	14208
641.322	18929
641.382	14535
641.442	16719
641.502	16880
641.562	17522
641.622	16749
641.682	17901
641.742	20715
641.802	18090
641.861	17014
641.921	16067
641.981	15917
642.041	16608
642.101	14595
642.161	13691
642.221	14875
642.280	15185
642.340	15071
642.400	14890
642.460	17341
642.519	15249
642.579	15899
642.639	16992
642.698	13642
642.758	18457
642.818	15625
642.877	15595
642.937	16380
642.997	16031
643.056	16877
643.116	15169
643.175	18299
643.235	16694
643.294	17829
643.354	20930
643.414	22126
643.473	27502
643.532	33621
643.592	47706
643.651	70706
643.711	112699
643.770	202832
643.830	460152
643.889	809961
643.948	224077
644.008	54319
644.067	33644
644.126	25033
644.186	21839
644.245	19467
644.304	17230
644.363	19794
644.423	16679
644.482	18194
644.541	20555
644.600	20220
644.659	28385
644.719	35080
644.778	51511
644.837	83201
644.896	168862
644.955	355238
645.014	114886
645.073	28804
645.132	22452
645.191	19936
645.250	19905
645.309	22713
645.368	23169
645.427	31624
645.486	53900
645.545	89777
645.604	27627
645.663	18213
645.722	18454
645.781	20896
645.840	25513
645.898	31737
645.957	44959
646.016	65187
646.075	108123
646.134	193632
646.192	492578
646.251	628827
646.310	119213
646.369	39452
646.427	33942
646.486	23396
646.545	19591
646.603	17935
646.662	16141
646.721	16939
646.779	17131
646.838	18828
646.896	25183
646.955	32569
647.014	50221
647.072	95113
647.131	251790
647.189	113919
647.248	19231
647.306	16038
647.365	14888
647.423	10941
647.481	14279
647.540	10884
647.598	11859
647.657	11756
647.715	12753
647.773	10721
647.832	11861
647.890	9741
647.948	10067
648.007	10036
648.065	9764
648.123	9127
648.181	11000
648.240	9716
648.298	8893
648.356	9008
648.414	10179
648.472	8420
648.531	9684
648.589	8956
648.647	9987
648.705	9252
648.763	9203
648.821	10610
648.879	11378
648.937	14001
648.995	18341
649.053	22914
649.111	35401
649.169	54248
649.227	90816
649.285	185499
649.343	479357
649.401	220466
649.459	34536
649.516	20210
649.574	15966
649.632	16854
649.690	19599
649.748	25055
649.806	34860
649.863	66153
649.921	184359
649.979	116088
650.037	16911
650.094	9809
650.152	10252
650.210	7662
650.268	7537
650.325	6836
650.383	6630
650.440	5533
650.498	7348
650.556	6792
650.613	6477
650.671	6866
650.728	7181
650.786	6957
650.843	10984
650.901	6570
650.958	6473
651.016	5535
651.073	5486
651.131	4966
651.188	4852
651.246	5424
651.303	4726
651.360	6184
651.418	5038
651.475	4999
651.532	5070
651.590	4354
651.647	3884
651.704	4246
651.762	4664
651.819	4468
651.876	4852
651.933	3886
651.990	5515
652.048	2472
652.105	4788
652.162	4745
652.219	3944
652.276	3997
652.333	5068
652.390	3177
652.448	3537
652.505	3464
652.562	4640
652.619	3790
652.676	4438
652.733	4865
652.790	3726
652.847	2420
652.904	4281
652.961	3170
653.017	3758
653.074	3526
653.131	3196
653.188	2462
653.245	3537
653.302	3040
653.359	3762
653.415	3798
653.472	2756
653.529	3891
653.586	2745
653.642	2933
653.699	4956
653.756	1972
653.813	2921
653.869	3927
653.926	4318
653.983	2927
654.039	3690
654.096	2082
654.152	3958
654.209	2226
654.266	4292
654.322	2083
654.379	3978
654.435	3846
654.492	3709
654.548	3006
654.605	2830
654.661	3327
654.717	3994
654.774	3181
654.830	2987
654.887	2805
654.943	3095
655.000	3431
655.056	3732
655.112	3075
655.168	2848
655.225	3436
655.281	4341
655.337	3508
655.394	2027
655.450	2372
655.506	3044
655.562	2115
655.618	4320
655.675	2792
655.731	3894
655.787	2828
655.843	4240
655.899	3030
655.955	4546
656.011	3929
656.067	3936
656.123	5285
656.179	4596
656.235	5118
656.291	3785
656.347	5640
656.403	4531
656.459	2708
656.515	3896
656.571	3460
656.627	3505
656.683	3283
656.739	4136
656.795	3604
656.850	3318
656.906	3764
656.962	5051
657.018	4098
657.074	6026
657.129	6638
657.185	12096
657.241	26479
657.297	15914
657.352	3913
657.408	2723
657.464	3640
657.519	1856
657.575	1274
657.630	2333
657.686	1713
657.742	1866
657.797	1939
657.853	2993
657.908	2983
657.964	2548
658.019	2823
658.075	2689
658.130	1842
658.186	1871
658.241	2362
658.297	1948
658.352	1397
658.407	2766
658.463	1281
658.518	3046
658.573	2213
658.629	1864
658.684	1618
658.739	2747
658.795	2049
658.850	2533
658.905	1481
658.960	2620
659.016	1646
659.071	2340
659.126	2511
659.181	1501
659.236	2828
659.291	3186
659.346	2236
659.401	2032
659.457	2119
659.512	1776
659.567	2490
659.622	1572
659.677	1833
659.732	1415
659.787	1329
659.842	1745
659.897	1506
659.952	1898
660.007	1857
660.061	2343
660.116	920
660.171	747
660.226	1295
660.281	3143
660.336	1127
660.391	2569
660.445	1528
660.500	1989
660.555	1541
660.610	1670
660.664	1695
660.719	2308
660.774	1484
660.828	1543
660.883	1927
660.938	2571
660.992	731
661.047	2754
661.101	1297
661.156	1525
661.211	1272
661.265	2035
661.320	1896
661.374	2758
661.429	778
661.483	2299
661.538	568
661.592	2156
661.647	1265
661.701	1810
661.755	1274
661.810	1806
661.864	360
661.919	1925
661.973	1640
662.027	1532
662.081	1469
662.136	1127
662.190	1402
662.244	2527
662.299	1218
662.353	1356
662.407	1242
662.461	1848
662.515	933
662.569	1322
662.624	1367
662.678	1467
662.732	854
662.786	1274
662.840	1030
662.894	1984
662.948	628
663.002	1683
663.056	792
663.110	1845
663.164	1684
663.218	1782
663.272	1430
663.326	2429
663.380	2006
663.434	1888
663.488	1425
663.542	1126
663.595	2207
663.649	1564
663.703	1321
663.757	2480
663.811	865
663.864	1920
663.918	2094
663.972	1091
664.026	1359
664.079	1196
664.133	2376
664.187	2037
664.240	1094
664.294	2217
664.348	1505
664.401	2218
664.455	1665
664.508	2365
664.562	1186
664.615	1538
664.669	770
664.722	1838
664.776	835
664.829	2169
664.883	1231
664.936	1203
664.990	1435
665.043	2263
665.097	764
665.150	2220
665.203	1475
665.257	2294
665.310	2019
665.363	2468
665.417	1546
665.470	2369
665.523	1726
665.576	2190
665.630	2126
665.683	1720
665.736	2152
665.789	1417
665.842	1185
665.895	1546
665.949	1937
666.002	2631
666.055	1967
666.108	2614
666.161	1434
666.214	2700
666.267	2325
666.320	3057
666.373	1972
666.426	2608
666.479	1489
666.532	1997
666.585	2624
666.638	2532
666.691	1710
666.744	2398
666.796	1755
666.849	1760
666.902	1800
666.955	2137
667.008	1947
667.060	2188
667.113	1542
667.166	1980
667.219	1621
667.271	2617
667.324	2037
667.377	2153
667.430	2055
667.482	2571
667.535	2142
667.587	3343
667.640	1752
667.693	2375
667.745	1120
667.798	2509
667.850	1039
667.903	2150
667.955	1881
668.008	2164
668.060	1644
668.113	2658
668.165	1891
668.218	2144
668.270	2211
668.322	1935
668.375	135
668.427	2663
668.479	2125
668.532	2260
668.584	1842
668.636	2214
668.689	855
668.741	1780
668.793	1727
668.845	1835
668.898	1489
668.950	2645
669.002	1670
669.054	1986
669.106	1398
669.158	2481
669.211	1724
669.263	2775
669.315	2119
669.367	2096
669.419	1133
669.471	3152
669.523	1101
669.575	2168
669.627	1040
669.679	2491
669.731	2059
669.783	2225
669.835	1817
669.886	1568
669.938	1051
669.990	2026
670.042	817
670.094	1860
670.146	1877
670.197	3201
670.249	2045
670.301	3319
670.353	4176
670.404	5069
670.456	6170
670.508	9350
670.560	12970
670.611	20755
670.663	32895
670.715	75719
670.766	121896
670.818	40490
670.869	7557
670.921	5135
670.972	4092
671.024	3059
671.075	2874
671.127	2907
671.178	2005
671.230	4229
671.281	4625
671.333	5196
671.384	6195
671.436	9308
671.487	13617
671.538	18894
671.590	27991
671.641	44270
671.692	78873
671.744	147877
671.795	99849
671.846	33423
671.897	14469
671.949	8221
672.000	6126
672.051	3957
672.102	3980
672.153	2648
672.204	2043
672.256	3161
672.307	2050
672.358	2041
672.409	1334
672.460	2355
672.511	906
672.562	1947
672.613	289
672.664	1565
672.715	907
672.766	1193
672.817	951
672.868	1682
672.919	725
672.970	1228
673.021	558
673.071	144
673.122	1151
673.173	1406
673.224	677
673.275	760
673.326	928
673.376	871
673.427	662
673.478	1532
673.528	1417
673.579	843
673.630	647
673.680	2397
673.731	352
673.782	937
673.832	812
673.883	830
673.934	654
673.984	1527
674.035	406
674.085	1295
674.136	208
674.186	1313
674.237	411
674.287	1220
674.338	1297
674.388	1437
674.438	362
674.489	934
674.539	1676
674.589	2062
674.640	620
674.690	2109
674.740	845
674.791	1838
674.841	2201
674.891	1228
674.942	709
674.992	1046
675.042	369
675.092	821
675.142	20
675.193	739
675.243	125
675.293	1023
675.343	222
675.393	632
675.443	448
675.493	774
675.543	488
675.593	883
675.643	1285
675.693	1060
675.743	510
675.793	1177
675.843	493
675.893	80
675.943	586
675.993	927
676.043	445
676.093	1121
676.142	775
676.192	1042
676.242	768
676.292	726
676.341	-220
676.391	525
676.441	-421
676.491	347
676.540	239
676.590	-200
676.640	-552
676.689	579
676.739	-171
676.789	266
676.838	-129
676.888	886
676.937	-205
676.987	442
677.037	-231
677.086	-102
677.136	177
677.185	951
677.235	-666
677.284	885
677.333	-399
677.383	-227
677.432	-478
677.482	71
677.531	-319
677.580	-27
677.630	36
677.679	399
677.728	3
677.778	262
677.827	-257
677.876	762
677.925	-498
677.975	475
678.024	-453
678.073	817
678.122	271
678.171	1229
678.220	-391
678.269	386
678.319	1202
678.368	1674
678.417	746
678.466	-171
678.515	-99
678.564	-362
678.613	-172
678.662	121
678.711	-217
678.760	628
678.809	-348
678.857	58
678.906	428
678.955	-571
679.004	-272
679.053	-450
679.102	-739
679.151	-351
679.199	-734
679.248	602
679.297	-58
679.346	-247
679.394	-875
679.443	647
679.492	-1274
679.540	29
679.589	-1225
679.638	-568
679.686	-645
679.735	960
679.784	309
679.832	1172
679.881	-681
679.929	-111
679.978	-674
680.026	527
680.075	278
680.123	-432
680.172	-1136
680.220	-751
680.268	-850
680.317	-571
680.365	-571
680.414	-739
680.462	-1229
680.510	57
680.559	-651
680.607	-490
680.655	-758
680.703	672
680.752	-316
680.800	-183
680.848	-501
680.896	-993
680.945	-807
680.993	-804
681.041	-1396
681.089	-46
681.137	-237
681.185	-518
681.233	-1125
681.258	-330
681.281	418
681.329	-670
681.377	-429
681.380	-432
681.425	-631
681.473	-88
681.502	-171
681.521	-243
681.569	135
681.617	81
681.624	92
681.665	129
681.713	-255
681.745	79
681.761	229
681.809	-350
681.857	462
681.867	288
681.904	-351
681.952	368
681.989	-565
682.000	-855
682.048	2
682.096	-741
682.111	-487
682.143	52
682.191	-725
682.233	640
682.239	836
682.286	463
682.334	-363
682.354	-570
682.382	-857
682.430	417
682.476	-352
682.477	-375
682.525	-762
682.572	-164
682.598	103
682.620	307
682.667	-645
682.715	145
682.720	69
682.763	-651
682.810	108
682.841	-349
682.857	-595
682.905	-191
682.952	-446
682.963	-390
683.000	-285
683.047	-795
683.085	827
683.095	1284
683.142	15
683.190	727
683.206	176
683.237	-879
683.284	421
683.328	-150
683.332	-205
683.379	-29
683.426	-875
683.449	-417
683.473	74
683.521	-345
683.568	684
683.571	679
683.615	464
683.662	290
683.693	-497
683.709	-917
683.757	195
683.804	-236
683.814	-109
683.851	266
683.898	160
683.936	521
683.945	617
683.992	-402
684.039	522
684.057	296
684.086	-89
684.133	1394
684.179	78
684.180	30
684.227	349
684.274	482
684.300	556
684.321	626
684.368	-257
684.415	568
684.422	404
684.462	-545
684.509	-146
684.543	39
684.556	87
684.603	44
684.649	-329
684.665	5
684.696	702
684.743	197
684.786	437
684.790	449
684.837	9
684.883	390
684.908	328
684.930	268
684.977	678
685.023	-63
685.029	-31
685.070	210
685.117	438
685.150	854
685.164	1011
685.210	-479
685.257	927
685.272	886
685.303	680
685.350	851
685.393	-74
685.396	-138
685.443	287
685.490	301
685.514	478
685.536	655
685.583	-166
685.629	1175
685.636	1039
685.675	105
685.722	912
685.757	570
685.768	469
685.815	392
685.861	162
685.878	360
685.908	717
685.954	596
686.000	665
686.000	663
686.047	184
686.093	971
686.121	634
686.139	438
686.185	889
686.232	457
686.242	641
686.278	1226
686.324	653
686.363	738
686.370	754
686.416	559
686.463	1172
686.484	762
686.509	355
686.555	868
686.601	579
686.606	739
686.647	1998
686.693	668
686.727	751
686.739	822
686.785	612
686.831	1001
686.848	870
686.877	566
686.923	1017
686.969	572
686.969	570
687.015	1081
687.061	763
687.090	1223
687.107	1404
687.153	1311
687.199	1118
687.211	1026
687.245	842
687.291	1240
687.332	461
687.336	385
687.382	1308
687.428	479
687.453	758
687.474	1020
687.520	1054
687.565	1752
687.574	1638
687.611	1179
687.657	1508
687.695	999
687.702	916
687.748	2207
687.794	1264
687.816	1508
687.839	1649
687.885	1573
687.931	1620
687.937	1599
687.976	1533
688.022	829
688.058	879
688.067	891
688.113	1010
688.158	815
688.179	809
688.204	870
688.249	597
688.295	1227
688.300	1252
688.340	1363
688.386	1716
688.421	1080
688.431	938
688.477	1534
688.522	1246
688.542	1615
688.567	2107
688.613	1882
688.658	2348
688.663	2303
688.703	1607
688.749	1622
688.784	1682
688.794	1746
688.839	1504
688.884	1440
688.905	1596
688.930	1849
688.975	1538
689.020	1790
689.026	1797
689.065	1711
689.110	1674
689.146	1260
689.155	1185
689.201	1265
689.246	1603
689.267	1640
689.291	1670
689.336	1922
689.381	1996
689.388	1850
689.426	1111
689.471	1540
689.509	1498
689.516	1505
689.561	1999
689.606	1623
689.630	1775
689.651	1856
689.696	1595
689.741	1695
689.750	1755
689.785	2124
689.830	1605
689.871	1869
689.875	1880
689.920	2203
689.965	2050
689.992	1684
690.010	1490
690.054	1691
690.099	1671
690.112	1677
690.144	1729
690.189	1517
690.233	1580
690.233	1585
690.278	2074
690.323	1751
690.354	2116
690.367	2284
690.412	1979
690.457	1556
690.474	1730
690.501	1872
690.546	1717
690.590	1670
690.595	1629
690.635	1539
690.680	1251
690.716	1584
690.724	1674
690.769	1921
690.813	2321
690.836	2153
690.857	2012
690.902	2192
690.946	2191
690.957	2249
690.991	2368
691.035	2011
691.077	2375
691.080	2402
691.124	2106
691.168	2214
691.198	2147
691.213	2079
691.257	2316
691.301	1716
691.318	1855
691.346	2145
691.390	1922
691.434	2004
691.439	1999
691.478	2090
691.522	2187
691.559	2235
691.567	2232
691.611	2191
691.655	2026
691.680	2040
691.699	2145
691.743	1945
691.787	2362
691.800	2359
691.831	2255
691.875	2234
691.919	2284
691.921	2273
691.964	2173
692.008	2138
692.041	2098
692.052	2074
692.096	1752
692.139	2104
692.162	2020
692.183	1980
692.227	2102
692.271	1907
692.282	1983
692.315	2242
692.359	2013
692.402	2270
692.403	2280
692.447	2296
692.490	2452
692.523	2673
692.534	2714
692.578	2900
692.622	2237
692.643	2275
692.666	2299
692.709	2375
692.753	2276
692.763	2258
692.797	2284
692.840	2284
692.884	2217
692.884	2224
692.928	2207
692.971	2048
693.004	1973
693.015	2002
693.059	2040
693.102	2178
693.124	2110
693.146	2070
693.189	2339
693.233	1992
693.245	2113
693.276	2511
693.320	2930
693.363	2825
693.365	2827
693.407	3046
693.450	2953
693.485	2762
693.493	2694
693.537	2849
693.580	2516
693.605	2581
693.624	2701
693.667	2325
693.710	2649
693.725	2639
693.753	2818
693.797	3151
693.840	3437
693.845	3494
693.883	3274
693.926	2281
693.966	2087
693.970	2137
694.013	2174
694.056	2285
694.086	2343
694.099	2365
694.142	2618
694.185	2559
694.206	2682
694.229	2746
694.272	2541
694.315	2445
694.326	2361
694.358	2313
694.401	2647
694.444	2546
694.446	2550
694.487	3055
694.530	3112
694.566	3581
694.573	3581
694.616	3149
694.659	3113
694.686	2724
694.702	2670
694.745	3263
694.787	2959
694.806	3080
694.830	3064
694.873	2899
694.916	2458
694.926	2425
694.959	2655
695.002	2887
695.044	2855
695.046	2852
695.087	2908
695.130	2890
695.166	3037
695.172	3125
695.215	3261
695.258	3813
695.286	3888
695.301	3837
695.343	4056
695.386	3998
695.406	4027
695.428	4288
695.471	4554
695.514	5203
695.526	5300
695.556	5438
695.599	5731
695.641	5726
695.646	5759
695.684	5690
695.726	5211
695.766	4944
695.769	4952
695.811	4550
695.854	4587
695.886	4313
695.896	4307
695.938	4583
695.981	4513
696.005	4690
696.023	4950
696.065	5388
696.108	5712
696.125	5802
696.150	5702
696.192	5709
696.235	5578
696.245	5543
696.277	5671
696.319	5824
696.361	6083
696.365	6061
696.404	5983
696.446	6200
696.485	6290
696.488	6328
696.530	6614
696.572	6765
696.604	7090
696.614	7009
696.656	6302
696.698	5688
696.724	5328
696.740	5484
696.783	5775
696.825	6092
696.844	6266
696.867	6249
696.909	5953
696.951	5950
696.964	5861
696.992	5980
697.034	6141
697.076	6308
697.083	6353
697.118	6758
697.160	6999
697.202	7304
697.203	7292
697.244	7030
697.286	6871
697.323	6527
697.327	6548
697.369	6690
697.411	6754
697.442	6876
697.453	6882
697.494	6666
697.536	6585
697.562	6484
697.578	6558
697.620	6734
697.661	6813
697.682	6895
697.703	7083
697.744	7338
697.786	7728
697.801	7791
697.828	7723
697.869	7616
697.911	7462
697.921	7430
697.952	7393
697.994	7230
698.035	7131
698.040	7095
698.077	7401
698.118	7747
698.160	8054
698.160	8033
698.201	7890
698.243	7667
698.279	7467
698.284	7542
698.325	8063
698.367	8565
698.399	8899
698.408	8911
698.449	8898
698.491	8874
698.518	8845
698.532	8897
698.573	8963
698.614	9035
698.638	9037
698.656	9071
698.697	9143
698.738	9180
698.757	9172
698.779	9194
698.820	9190
698.862	9208
698.877	9185
698.903	9414
698.944	9742
698.985	10078
698.996	10146
699.026	9928
699.067	9590
699.116	9165
699.235	9996
699.354	8802
699.474	8594
699.593	8197
699.713	8065
699.832	9404
699.951	8443
700.070	8738
700.190	8307
700.309	7806
700.428	7892
700.547	8156
700.667	7281
700.786	7918
700.905	6554
701.024	7405
701.143	7659
701.262	8392
701.381	8059
701.500	7628
701.619	8453
701.738	8092
701.857	8401
701.976	7328
702.095	7954
702.214	7576
702.333	7940
702.452	9013
702.571	7397
702.690	7886
702.809	7808
702.928	6982
703.047	7083
703.165	8322
703.284	7048
703.403	6399
703.522	7211
703.640	6971
703.759	6816
703.878	6343
703.997	6525
704.115	7114
704.234	7700
704.353	7694
704.471	5772
704.590	6536
704.708	6291
704.827	6828
704.946	6647
705.064	6710
705.183	6116
705.301	7445
705.420	6172
705.538	6528
705.656	4696
705.775	5485
705.893	6171
706.012	5559
706.130	5892
706.249	6110
706.367	5556
706.485	4933
706.604	4843
706.722	5873
706.840	6392
706.958	5650
707.077	4805
707.195	5965
707.313	5636
707.431	5017
707.549	4224
707.668	4386
707.786	6711
707.904	4789
708.022	6097
708.140	5153
708.258	5800
708.376	5038
708.494	4684
708.612	5272
708.730	4960
708.848	5008
708.966	5648
709.084	5268
709.202	4884
709.320	4300
709.438	5014
709.556	4718
709.674	4093
709.791	4852
709.909	3849
710.027	5073
710.145	4296
710.263	4417
710.380	5207
710.498	4540
710.616	3456
710.733	4385
710.851	4520
710.969	4638
711.086	4414
711.204	3903
711.322	4581
711.439	4197
711.557	3325
711.674	3505
711.792	4819
711.909	4331
712.027	3885
712.144	3751
712.262	4214
712.379	3707
712.497	3868
712.614	4397
712.732	4395
712.849	3707
712.966	4315
713.084	4351
713.201	3396
713.318	4955
713.436	4751
713.553	5077
713.670	5418
713.787	4800
713.905	4174
714.022	4758
714.139	6259
714.256	8527
714.373	14167
714.490	33381
714.608	113847
714.725	447839
714.842	233772
714.959	20037
715.076	9220
715.193	6820
715.310	5825
715.427	4672
715.544	4487
715.661	4383
715.778	3996
715.895	4583
716.011	4413
716.128	3122
716.245	4596
716.362	4648
716.479	3330
716.596	3109
716.713	3356
716.829	3122
716.946	3342
717.063	2973
717.180	3371
717.296	3535
717.413	3280
717.530	2695
717.646	2478
717.763	2817
717.880	2247
717.996	2955
718.113	2948
718.229	3171
718.346	2633
718.462	2825
718.579	3063
718.695	3175
718.812	3246
718.928	3252
719.045	2813
719.161	3032
719.277	2541
719.394	3125
719.510	3418
719.626	3988
719.743	7656
719.859	14236
719.975	39494
720.092	181301
720.208	227728
720.324	17472
720.440	5561
720.557	4064
720.673	4628
720.789	3593
720.905	3467
721.021	3110
721.137	2243
721.253	2735
721.369	2194
721.486	3412
721.602	2155
721.718	3101
721.834	2738
721.950	2601
722.066	2273
722.181	2512
722.297	2102
722.413	2645
722.529	2979
722.645	2216
722.761	1891
722.877	2309
722.993	3497
723.108	4555
723.224	2683
723.340	2293
723.456	2172
723.571	1677
723.687	1851
723.803	1821
723.918	1747
724.034	1374
724.150	2235
724.265	2010
724.381	2017
724.497	1911
724.612	2097
724.728	1639
724.843	1378
724.959	2103
725.074	2006
725.190	1607
725.305	2303
725.421	2137
725.536	2110
725.651	1927
725.767	1807
725.882	1377
725.997	1976
726.113	2413
726.228	1497
726.343	2254
726.459	1237
726.574	1966
726.689	2417
726.804	2154
726.920	2438
727.035	1849
727.150	1784
727.265	2267
727.380	1776
727.495	1889
727.610	1652
727.725	1952
727.841	2121
727.956	2476
728.071	2014
728.186	1613
728.301	713
728.416	1976
728.531	1634
728.645	1887
728.760	1787
728.875	1881
728.990	2031
729.105	2212
729.220	1724
729.335	1636
729.449	1269
729.564	2249
729.679	971
729.794	2048
729.908	1682
730.023	1980
730.138	1900
730.253	2017
730.367	1743
730.482	2375
730.596	1953
730.711	3669
730.826	3564
730.940	3623
731.055	2302
731.169	3001
731.284	2182
731.398	3036
731.513	3891
731.627	3914
731.742	5206
731.856	6236
731.970	6972
732.085	9298
732.199	15606
732.313	31826
732.428	101644
732.542	260112
732.656	84053
732.771	16186
732.885	10262
732.999	10480
733.113	10953
733.227	9271
733.342	8340
733.456	7865
733.570	7606
733.684	8494
733.798	7242
733.912	8245
734.026	7183
734.140	6903
734.254	6911
734.368	7022
734.482	6865
734.596	7107
734.710	6919
734.824	6891
734.938	6269
735.052	6733
735.166	6390
735.280	6783
735.393	5609
735.507	6910
735.621	6414
735.735	5640
735.849	6107
735.962	5285
736.076	6450
736.190	5989
736.303	6056
736.417	5844
736.531	5284
736.644	5444
736.758	5335
736.872	5452
736.985	5405
737.099	5135
737.212	5118
737.326	6245
737.439	5303
737.553	4957
737.666	4430
737.780	5103
737.893	5331
738.007	5311
738.120	4924
738.233	5564
738.347	4866
738.460	5084
738.573	6199
738.687	4901
738.800	5302
738.913	5929
739.026	4856
739.140	5109
739.253	4462
739.366	4441
739.479	4978
739.592	4499
739.705	4845
739.818	4615
739.932	4669
740.045	4370
740.158	4604
740.271	5783
740.384	4357
740.497	4196
740.610	4412
740.723	4240
740.836	5114
740.949	5269
741.062	4904
741.174	4964
741.287	4475
741.400	3909
741.513	4532
741.626	4696
741.739	3124
741.851	3934
741.964	3832
742.077	3456
742.189	4153
742.302	6362
742.415	4295
742.527	3456
742.640	3896
742.753	3721
742.865	3806
742.978	3791
743.090	3534
743.203	3884
743.316	4059
743.428	3596
743.541	4353
743.653	3027
743.766	4547
743.878	3282
743.990	3869
744.103	5762
744.215	5936
744.327	3313
744.440	4499
744.552	3449
744.664	3140
744.777	3865
744.889	2744
745.001	3142
745.113	3879
745.226	3079
745.338	3177
745.450	3630
745.562	2370
745.674	3055
745.786	3627
745.898	3475
746.010	2150
746.122	2679
746.234	3932
746.347	4076
746.459	3473
746.570	2704
746.682	5099
746.794	7611
746.906	3960
747.018	3072
747.130	2554
747.242	3227
747.354	2638
747.466	3079
747.577	2243
747.689	3756
747.801	3002
747.913	2128
748.024	1826
748.136	1629
748.248	3042
748.359	2412
748.471	2850
748.583	2359
748.694	2362
748.806	2469
748.918	1993
749.029	3033
749.141	2934
749.252	3099
749.364	2889
749.475	1976
749.587	2264
749.698	2262
749.809	2469
749.921	2732
750.032	2461
750.144	2501
750.255	2548
750.366	2048
750.478	1763
750.589	2430
750.700	2541
750.811	2533
750.923	2050
751.034	1998
751.145	3275
751.256	2018
751.367	2343
751.479	2156
751.590	2142
751.701	1515
751.812	2059
751.923	1635
752.034	2778
752.145	2442
752.256	1822
752.367	2519
752.478	1414
752.589	2963
752.700	2155
752.811	1366
752.922	2239
753.032	2095
753.143	2936
753.254	1553
753.365	2711
753.476	2852
753.586	2077
753.697	2623
753.808	2198
753.919	1844
754.029	1699
754.140	2403
754.251	1988
754.361	1894
754.472	1886
754.582	1544
754.693	2658
754.804	2462
754.914	1041
755.025	1294
755.135	1853
755.246	3307
755.356	1343
755.466	1573
755.577	2443
755.687	1649
755.798	1083
755.908	1905
756.018	895
756.129	1939
756.239	1713
756.349	2362
756.460	2431
756.570	2022
756.680	1485
756.790	1616
756.900	2924
757.011	1361
757.121	1755
757.231	2069
757.341	2356
757.451	1381
757.561	1416
757.671	1305
757.781	710
757.891	1315
758.001	1431
758.111	1911
758.221	3395
758.331	1601
758.441	915
758.551	1599
758.661	2385
758.771	2358
758.880	1541
758.990	1540
759.100	2174
759.210	1858
759.320	1857
759.429	2229
759.539	2786
759.649	2398
759.758	3788
759.868	4785
759.978	3374
760.087	3770
760.197	3516
760.307	3076
760.416	2581
760.526	1610
760.635	3433
760.745	3949
760.854	4313
760.964	4847
761.073	4291
761.182	3794
761.292	2155
761.401	2532
761.511	1449
761.620	2024
761.729	1502
761.839	1994
761.948	1607
762.057	1032
762.166	1900
762.276	850
762.385	2729
762.494	1373
762.603	1522
762.712	2137
762.822	1188
762.931	1821
763.040	716
763.149	529
763.258	1312
763.367	1331
763.476	561
763.585	1064
763.694	909
763.803	1958
763.912	2184
764.021	1274
764.130	1039
764.238	1632
764.347	906
764.456	1047
764.565	1491
764.674	1290
764.783	1124
764.891	1290
765.000	1885
765.109	645
765.217	1518
765.326	1676
765.435	1746
765.543	2050
765.652	2596
765.761	1838
765.869	3603
765.978	6283
766.086	10467
766.195	22858
766.303	68609
766.412	185356
766.520	91506
766.629	14883
766.737	6663
766.846	3849
766.954	3438
767.062	3171
767.171	1666
767.279	1972
767.387	1492
767.496	1228
767.604	1443
767.712	1918
767.820	1462
767.928	1767
768.037	393
768.145	1391
768.253	2030
768.361	1312
768.469	1542
768.577	1224
768.685	1389
768.793	1712
768.901	525
769.009	1767
769.117	2552
769.225	2048
769.333	2632
769.441	5115
769.549	9112
769.657	22971
769.765	88912
769.873	124649
769.981	21936
770.088	6061
770.196	2891
770.304	3781
770.412	2970
770.519	1594
770.627	2158
770.735	1978
770.842	1680
770.950	2471
771.058	2092
771.165	2727
771.273	3080
771.380	3701
771.488	5315
771.595	5380
771.703	4444
771.810	4044
771.918	4457
772.025	5716
772.133	6640
772.240	5692
772.348	8210
772.455	6160
772.562	6435
772.670	6242
772.777	6278
772.884	6504
772.991	5616
773.099	5191
773.206	5191
773.313	4970
773.420	5145
773.528	5672
773.635	4784
773.742	6286
773.849	6691
773.956	4939
774.063	5524
774.170	5108
774.277	6112
774.384	4387
774.491	5151
774.598	5640
774.705	5057
774.812	4713
774.919	6266
775.026	4947
775.133	5335
775.239	4408
775.346	4527
775.453	4654
775.560	3790
775.667	4941
775.773	3821
775.880	5020
775.987	3553
776.093	5056
776.200	4174
776.307	3394
776.413	4111
776.520	4788
776.627	4518
776.733	4240
776.840	4568
776.946	7263
777.053	7391
777.159	12759
777.266	6159
777.372	10723
777.478	9985
777.585	6257
777.691	2963
777.798	4690
777.904	3419
778.010	3229
778.117	3520
778.223	3371
778.329	3267
778.435	3028
778.542	4307
778.648	4000
778.754	3602
778.860	4131
778.966	3103
779.072	2840
779.178	3247
779.284	2706
779.391	3158
779.497	2194
779.603	4707
779.708	1791
779.815	3215
779.920	5205
780.026	3487
780.132	2804
780.238	2645
780.344	2515
780.450	4039
780.556	2091
780.661	3895
780.767	3239
780.873	2445
780.979	3570
781.085	3015
781.190	3021
781.296	2788
781.402	3313
781.507	2117
781.613	1894
781.719	2595
781.824	3032
781.930	2980
782.035	3132
782.141	2660
782.246	1673
782.352	1993
782.457	2648
782.563	2581
782.668	3093
782.773	1944
782.879	2103
782.984	3253
783.090	2785
783.195	2883
783.300	3332
783.405	2219
783.511	1689
783.616	2301
783.721	2249
783.826	1747
783.932	2003
784.037	2621
784.142	2034
784.247	1981
784.352	3174
784.457	1637
784.562	2386
784.667	1992
784.772	1003
784.877	1139
784.982	3203
785.087	1377
785.192	2379
785.297	1309
785.402	1930
785.507	1787
785.611	2246
785.716	1059
785.821	1699
785.926	1050
786.031	1303
786.135	959
786.240	1373
786.345	-213
786.450	2056
786.554	2053
786.659	1124
786.763	1054
786.868	2088
786.973	3013
787.077	605
787.182	538
787.286	1822
787.391	2659
787.495	919
787.600	403
787.704	1454
787.809	1079
787.913	746
788.017	1878
788.122	1759
788.226	1561
788.330	147
788.435	1669
788.539	1974
788.643	1141
788.747	16
788.852	1687
788.956	888
789.060	785
789.164	964
789.268	1450
789.372	2138
789.476	1183
789.580	296
789.684	813
789.788	1160
789.892	1062
789.996	1100
790.100	545
790.204	1210
790.308	1353
790.412	-297
790.516	-460
790.620	1434
790.724	1541
790.828	712
790.931	-303
791.035	2376
791.139	1288
791.242	238
791.346	1654
791.450	1784
791.554	173
791.657	-72
791.761	1810
791.864	2071
791.968	1030
792.072	2028
792.175	1085
792.279	994
792.382	354
792.486	507
792.589	112
792.693	1555
792.796	155
792.899	1756
793.003	1031
793.106	-1031
793.209	448
793.313	1694
793.416	-1113
793.519	2088
793.623	1761
793.726	839
793.829	306
793.932	185
794.035	-39
794.138	1499
794.242	661
794.345	323
794.448	-545
794.551	-415
794.654	3071
794.757	2003
794.860	1065
794.963	1964
795.066	189
795.169	2051
795.272	303
795.375	599
795.477	87
795.580	722
795.683	497
795.786	715
795.889	-1226
795.991	1107
796.094	1481
796.197	-769
796.300	2275
796.402	62
796.505	-483
796.608	277
796.710	827
796.813	985
796.915	-437
797.018	1245
797.120	743
797.223	-84
797.326	1469
797.428	-255
797.530	680
797.633	829
797.735	1005
797.838	-228
797.940	577
798.042	-241
798.145	205
798.247	1225
798.349	-775
798.452	814
798.554	517
798.656	268
798.758	1235
798.860	953
798.962	-264
799.065	377
799.167	-921
799.269	1225
799.371	1995
799.473	1668
799.575	81
799.677	-575
799.779	853
799.881	-693
799.983	761
800.085	169
800.187	879
800.289	-1341
800.390	28
800.492	871
800.594	767
800.696	-346
800.798	305
800.899	68
801.001	-80
801.103	-269
801.205	45
801.306	661
801.408	-433
801.509	822
801.611	489
801.713	-72
801.814	-575
801.916	371
802.017	466
802.119	-1155
802.220	361
802.322	-981
802.423	1267
802.525	-1311
802.626	-448
802.727	1159
802.829	-167
802.930	-1669
803.031	1531
803.133	-320
803.234	-37
803.335	515
803.436	-874
803.538	446
803.639	-1295
803.740	304
803.841	-91
803.942	310
804.043	404
804.144	733
804.245	227
804.346	-589
804.447	-365
804.548	426
804.649	305
804.750	-111
804.851	-686
804.952	-259
805.053	-319
805.154	-562
805.255	863
805.355	308
805.456	-243
805.557	-617
805.658	-503
805.758	1002
805.859	923
805.960	-447
806.061	-636
806.161	-594
806.262	-39
806.362	-475
806.463	-328
806.564	590
806.664	209
806.765	-88
806.865	-563
806.966	-747
807.066	-1049
807.166	-155
807.267	237
807.367	83
807.468	-429
807.568	-1358
807.668	326
807.769	73
807.869	118
807.969	398
808.069	-571
808.170	193
808.270	-85
808.370	166
808.470	119
808.570	-1368
808.670	-477
808.770	-290
808.870	-83
808.970	431
809.070	-104
809.170	-1091
809.271	556
809.370	77
809.470	347
809.570	-403
809.670	-79
809.770	506
809.870	682
809.970	591
810.070	-271
810.169	237
810.269	-1259
810.369	476
810.469	500
810.568	-832
810.668	-847
810.768	-490
810.867	0
810.967	-628
811.066	-1068
811.166	-75
811.265	-301
811.365	-789
811.464	-200
811.564	128
811.663	-381
811.763	-1116
811.862	321
811.962	892
812.061	-178
812.160	-835
812.260	-432
812.359	410
812.458	-749
812.557	-270
812.657	-362
812.756	738
812.855	-540
812.954	-7
813.053	133
813.153	-564
813.252	-1279
813.351	18
813.450	84
813.549	-224
813.648	546
813.747	-598
813.846	557
813.945	-557
814.044	-244
814.143	-614
814.242	-55
814.341	233
814.439	631
814.538	845
814.637	-525
814.736	-161
814.835	787
814.933	656
815.032	1053
815.131	1528
815.229	3942
815.328	5277
815.427	2547
815.525	3018
815.624	2247
815.722	2128
815.821	3281
815.919	3847
816.018	1900
816.116	3712
816.215	2435
816.313	3944
816.412	4987
816.510	3976
816.609	5918
816.707	5203
816.805	4165
816.904	3999
817.002	3643
817.100	5184
817.198	4523
817.296	3318
817.395	3633
817.493	4201
817.591	2848
817.689	4321
817.787	3485
817.885	3008
817.983	3134
818.081	3699
818.179	4579
818.277	6074
818.375	5187
818.473	4595
818.571	3610
818.669	4454
818.767	4951
818.865	2357
818.963	3314
819.061	3362
819.158	3451
819.256	4968
819.354	4417
819.452	7718
819.549	2614
819.647	4025
819.745	2175
819.842	3761
819.940	3485
820.038	2613
820.135	2728
820.233	4067
820.330	2142
820.428	1965
820.525	2903
820.623	2807
820.720	2547
820.818	2668
820.915	2871
821.012	3508
821.110	1299
821.207	3160
821.304	1887
821.402	2747
821.499	4478
821.596	4854
821.693	3247
821.791	1925
821.888	2020
821.985	3528
822.082	1841
822.179	3109
822.276	2854
822.373	2433
822.470	2418
822.567	3148
822.664	1269
822.761	3064
822.858	2749
822.955	2124
823.052	2205
823.149	2792
823.246	1900
823.343	1670
823.440	1424
823.536	2679
823.633	1765
823.730	2232
823.827	2743
823.923	1728
824.020	1919
824.117	2740
824.213	2319
824.310	1840
824.407	1417
824.503	2449
824.600	1556
824.696	1985
824.793	3015
824.889	2045
824.986	1254
825.082	950
825.179	2182
825.275	3142
825.371	1335
825.468	1614
825.564	49
825.660	2554
825.757	1886
825.853	2465
825.949	1015
826.045	1576
826.142	1356
826.238	1930
826.334	2050
826.430	374
826.526	484
826.622	31
826.718	2215
826.814	1591
826.910	1731
827.006	204
827.102	788
827.198	3564
827.294	1806
827.390	1227
827.486	1284
827.582	-65
827.678	432
827.774	2010
827.869	-199
827.965	1181
828.061	6
828.157	1911
828.252	668
828.348	-98
828.444	1257
828.539	445
828.635	867
828.731	1310
828.826	-64
828.922	1772
829.017	973
829.113	1740
829.208	82
829.304	564
829.399	2681
829.495	552
829.590	1451
829.685	376
829.781	1540
829.876	463
829.971	-415
830.066	268
830.162	1141
830.257	2075
830.352	924
830.447	963
830.543	749
830.638	252
830.733	1216
830.828	-166
830.923	1510
831.018	1056
831.113	890
831.208	-791
831.303	337
831.398	632
831.493	808
831.588	1455
831.683	486
831.778	-476
831.873	963
831.967	1059
832.062	262
832.157	-75
832.252	807
832.346	765
832.441	1581
832.536	479
832.631	1459
832.725	1003
832.820	404
832.914	192
833.009	9
833.104	-835
833.198	927
833.293	402
833.387	766
833.482	697
833.576	14
833.670	1011
833.765	951
833.859	1599
833.954	681
834.048	772
834.142	207
834.237	267
834.331	409
834.425	456
834.519	-669
834.613	439
834.708	19
834.802	683
834.896	258
834.990	248
835.084	359
835.178	-110
835.272	22
835.366	1228
835.460	1176
835.554	147
835.648	389
835.742	-262
835.836	57
835.930	52
836.024	661
836.117	748
836.211	-569
836.305	-717
836.399	-380
836.493	274
836.586	1175
836.680	-235
836.774	-282
836.867	1025
836.961	-194
837.055	-666
837.148	-465
837.242	283
837.335	-61
837.429	-442
837.522	-129
837.616	62
837.709	740
837.803	-287
837.896	687
837.989	-388
838.083	276
838.176	16
838.269	-1776
838.363	1413
838.456	-1033
838.549	1182
838.642	-1037
838.735	496
838.829	567
838.922	-391
839.015	-80
839.108	-649
839.201	-475
839.294	472
839.387	-468
839.480	-708
839.573	-133
839.666	-648
839.759	115
839.852	-711
839.945	40
840.038	-729
840.131	-80
840.223	-1162
840.316	501
840.409	322
840.502	-584
840.594	101
840.687	-1075
840.780	-416
840.873	-676
840.965	-203
841.058	-629
841.150	83
841.243	-1371
841.336	-155
841.428	96
841.521	-234
841.613	-1352
841.706	-445
841.798	-182
841.890	-567
841.983	-1799
842.075	-421
842.167	-390
842.260	217
842.352	529
842.444	-1679
842.537	-929
842.629	-389
842.721	-732
842.813	-481
842.905	-1370
842.997	-243
843.090	-656
843.182	180
843.274	-1605
843.366	-163
843.458	-704
843.550	614
843.642	-572
843.734	22
843.826	-1329
843.918	72
844.009	1063
844.101	-912
844.193	-922
844.285	-37
844.377	655
844.469	50
844.560	621
844.652	631
844.744	4
844.835	-845
844.927	-54
845.019	-530
845.110	-140
845.202	15
845.293	-127
845.385	-1672
845.476	-293
845.568	234
845.659	-766
845.751	283
845.842	-402
845.934	-597
846.025	-964
846.116	-768
846.208	-341
846.299	-269
846.390	-952
846.482	-407
846.573	-477
846.664	-243
846.755	-1225
846.846	-287
846.937	-1948
847.029	-1011
847.120	-478
847.211	-796
847.302	386
847.393	-499
847.484	-687
847.575	-960
847.666	-471
847.757	-97
847.847	-499
847.938	-656
848.029	-862
848.120	-749
848.211	-289
848.302	-836
848.392	-773
848.483	-151
848.574	-741
848.664	-854
848.755	-227
848.846	-139
848.936	-1274
849.027	-229
849.118	-112
849.208	-223
849.299	1250
849.389	4036
849.480	9016
849.570	18045
849.661	38791
849.751	48189
849.841	11764
849.932	1156
850.022	-364
850.112	555
850.203	-378
850.293	-363
850.383	-437
850.474	-1235
850.564	-468
850.654	-614
850.744	-1307
850.834	-647
850.924	-1281
851.014	-227
851.104	-478
851.194	-774
851.284	-750
851.374	-773
851.464	-248
851.554	-692
851.644	168
851.734	-176
851.824	-198
851.914	-564
852.004	-564
852.094	-816
852.183	-785
852.273	490
852.363	-677
852.452	-698
852.542	-890
852.632	-638
852.721	-231
852.811	290
852.901	808
852.990	-125
853.080	264
853.169	548
853.259	208
853.348	-272
853.438	1699
853.527	2715
853.617	3910
853.706	9985
853.795	18665
853.885	41047
853.974	70381
854.063	128381
854.152	140982
854.242	47989
854.331	12476
854.420	5224
854.509	3149
854.598	1824
854.687	1816
854.777	2077
854.866	561
854.955	779
855.044	649
855.133	87
855.222	286
855.311	-759
855.400	396
855.488	-1334
855.577	-849
855.666	367
855.755	9
855.844	-658
855.933	-1839
856.021	-259
856.110	92
856.199	-1303
856.288	-1068
856.376	-243
856.465	-1443
856.554	-667
856.642	-163
856.731	-999
856.819	-232
856.908	-1220
856.996	-1219
857.085	-533
857.173	-776
857.262	-751
857.350	-778
857.438	-865
857.527	-375
857.615	-144
857.703	398
857.792	-854
857.880	-1083
857.968	-1287
858.056	-1593
858.145	-391
858.233	-576
858.321	-1258
858.409	-679
858.497	-1468
858.585	-839
858.673	65
858.761	-1300
858.849	-730
858.937	-1379
859.025	-782
859.113	395
859.201	-479
859.289	-136
859.377	-608
859.465	-1283
859.552	-851
859.640	-1088
859.728	-184
859.816	-1384
859.903	-760
859.991	-1498
860.079	-799
860.166	-1604
860.254	-850
860.342	-529
860.429	-529
860.517	-1630
860.604	-967
860.692	-611
860.779	-768
860.867	-1163
860.954	-477
861.042	-292
861.129	-351
861.216	-1071
861.304	-910
861.391	-763
861.478	286
861.565	-515
861.653	-808
861.740	-1238
861.827	-931
861.914	-265
862.001	-650
862.089	-1487
862.176	-873
862.263	-1283
862.350	-80
862.437	-555
862.524	-699
862.611	-323
862.698	157
862.785	325
862.871	561
862.958	-275
863.045	-35
863.132	-1231
863.219	-849
863.306	-1351
863.392	-94
863.479	-994
863.566	-844
863.652	-117
863.739	-793
863.826	-722
863.912	39
863.999	-683
864.086	-71
864.172	-720
864.259	124
864.345	203
864.432	415
864.518	-662
864.604	-209
864.691	-695
864.777	-7
864.863	819
864.950	1837
865.036	2481
865.122	5085
865.209	4651
865.295	4652
865.381	4356
865.467	4784
865.553	5722
865.639	7622
865.726	12561
865.812	24087
865.898	40223
865.984	57620
866.070	101894
866.156	80124
866.242	22903
866.328	8862
866.414	4911
866.499	4843
866.585	3859
866.671	3628
866.757	3919
866.843	3865
866.928	2545
867.014	3181
867.100	2297
867.186	3116
867.271	3074
867.357	2644
867.442	2061
867.528	2145
867.614	2878
867.699	3360
867.785	3910
867.870	3888
867.956	4128
868.041	3308
868.127	3408
868.212	3409
868.297	2382
868.383	2807
868.468	2728
868.553	2880
868.639	2629
868.724	3257
868.809	2424
868.894	2397
868.979	1853
869.065	3062
869.150	1704
869.235	2640
869.320	1502
869.405	912
869.490	1735
869.575	1760
869.660	1140
869.745	2601
869.830	2339
869.915	1931
870.000	2269
870.085	2578
870.169	3193
870.254	3196
870.339	426
870.424	961
870.509	1873
870.593	2830
870.678	2419
870.763	1745
870.847	2111
870.932	2815
871.016	1962
871.101	1646
871.186	2575
871.270	2791
871.355	704
871.439	2225
871.523	1399
871.608	883
871.692	1076
871.777	2968
871.861	1733
871.945	1252
872.030	1893
872.114	1238
872.198	987
872.282	1073
872.367	1124
872.451	1319
872.535	1789
872.619	1295
872.703	1222
872.787	2271
872.871	1262
872.955	372
873.039	965
873.123	1182
873.207	993
873.291	439
873.375	1521
873.459	1226
873.543	828
873.627	770
873.711	349
873.794	2159
873.878	482
873.962	186
874.045	1222
874.129	1693
874.137	1589
874.213	549
874.245	456
874.296	306
874.352	379
874.380	407
874.460	1398
874.464	1438
874.547	612
874.568	793
874.631	1319
874.676	1197
874.714	1088
874.784	1465
874.798	1535
874.881	1081
874.892	974
874.965	291
874.999	935
875.048	1765
875.107	866
875.131	509
875.215	944
875.215	944
875.298	403
875.323	827
875.381	1764
875.430	1796
875.465	1809
875.538	1299
875.548	1227
875.631	211
875.646	227
875.714	373
875.753	530
875.798	716
875.861	1599
875.881	1840
875.964	673
875.968	666
876.047	704
876.076	1012
876.130	1600
876.183	1682
876.213	1728
876.291	2259
876.296	2276
876.379	1063
876.398	915
876.462	571
876.506	403
876.545	264
876.613	1074
876.628	1304
876.711	803
876.721	980
876.794	2165
876.828	1527
876.877	370
876.935	691
876.960	947
877.043	752
877.043	754
877.125	1692
877.150	1934
877.208	2206
877.258	1674
877.291	1390
877.365	983
877.374	912
877.456	909
877.472	805
877.539	943
877.579	1665
877.622	2227
877.687	2250
877.704	2285
877.787	1809
877.794	1840
877.869	1948
877.901	1940
877.952	1842
878.008	1232
878.034	1011
878.115	1665
878.117	1689
878.199	988
878.222	1236
878.282	1891
878.329	2440
878.364	2623
878.437	2035
878.447	1924
878.529	1566
878.544	1480
878.611	1603
878.651	1981
878.694	2613
878.758	3080
878.776	3107
878.858	1932
878.865	1954
878.941	1633
878.972	1331
879.023	1520
879.078	1737
879.105	1807
879.185	2432
879.187	2449
879.269	3075
879.292	2931
879.351	2254
879.399	2031
879.433	2001
879.506	2472
879.516	2533
879.598	2229
879.613	2249
879.680	2726
879.720	2833
879.762	2600
879.827	2331
879.844	2399
879.926	2672
879.933	2696
880.007	2613
880.040	2736
880.089	3225
880.147	4079
880.171	4379
880.253	5854
880.254	5852
880.335	6790
880.360	7333
880.417	10080
880.467	13811
880.499	15408
880.574	15061
880.580	14692
880.662	6749
880.680	5541
880.744	3134
880.787	2620
880.825	2915
880.893	2727
880.907	2633
880.989	2631
881.000	2665
881.070	3441
881.106	3524
881.152	3095
881.213	2877
881.233	2952
881.315	2531
881.319	2534
881.396	3023
881.426	2961
881.478	3168
881.532	4068
881.559	4014
881.639	3134
881.641	3135
881.722	2835
881.745	2724
881.803	3536
881.852	3933
881.885	3352
881.958	2718
881.966	2801
882.047	3360
882.064	3435
882.129	2823
882.171	2338
882.210	2081
882.277	1939
882.291	2170
882.372	3398
882.383	3556
882.454	4298
882.489	4462
882.535	4354
882.596	4657
882.616	4707
882.697	4244
882.702	4181
882.778	2634
882.808	2335
882.859	2675
882.914	2720
882.940	2752
883.020	3122
883.021	3143
883.102	4055
883.127	4362
883.183	4834
883.233	4885
883.264	4138
883.339	2474
883.345	2442
883.426	2371
883.445	2265
883.507	3045
883.551	3672
883.587	4146
883.657	4959
883.668	5054
883.749	5304
883.763	5299
883.830	3548
883.869	2767
883.910	2836
883.975	2963
883.991	3120
884.072	3621
884.081	3694
884.152	4892
884.187	5184
884.233	5145
884.292	5105
884.314	4414
884.394	1686
884.398	1559
884.475	1819
884.504	1881
884.555	2219
884.610	2455
884.636	2777
884.716	4053
884.716	4079
884.797	5697
884.821	6006
884.877	4989
884.927	4274
884.958	4115
885.033	3518
885.038	3469
885.118	2549
885.139	2338
885.199	2961
885.244	3315
885.279	3810
885.350	4773
885.359	4992
885.439	6929
885.456	7183
885.520	4744
885.561	3525
885.600	3674
885.667	3549
885.680	3714
885.760	4876
885.773	4976
885.840	3420
885.878	2760
885.920	3131
885.984	3395
886.000	3622
886.080	4774
886.089	4866
886.160	5084
886.195	5140
886.240	4851
886.300	4740
886.320	4913
886.400	5360
886.406	5357
886.480	4156
886.511	3660
886.560	3747
886.616	3891
886.640	3976
886.720	4090
886.722	4076
886.800	3916
886.827	3896
886.879	4799
886.932	5607
886.959	5748
887.038	6147
887.039	6159
887.119	5303
887.143	4964
887.198	4896
887.248	4977
887.278	5106
887.354	5143
887.358	5129
887.437	4464
887.459	4278
887.517	5237
887.564	6019
887.596	5374
887.669	3685
887.676	3644
887.755	3067
887.774	2917
887.835	3025
887.880	3118
887.914	3794
887.985	5145
887.994	5357
888.073	6869
888.090	7151
888.153	7211
888.195	7285
888.232	6072
888.300	3801
888.311	3881
888.391	4307
888.405	4353
888.470	3523
888.510	2967
888.549	3647
888.615	4908
888.628	5218
888.708	6874
888.720	7105
888.787	5948
888.825	5248
888.866	4470
888.930	3197
888.945	3555
889.024	5412
889.035	5646
889.103	5800
889.140	5798
889.182	5302
889.245	4613
889.261	4855
889.340	5877
889.349	5974
889.419	5168
889.454	4727
889.498	4548
889.559	4279
889.577	4758
889.656	6781
889.664	6960
889.735	5610
889.768	4938
889.814	5482
889.873	6164
889.978	5056
890.083	4852
890.187	6205
890.292	6148
890.397	4664
890.501	4015
890.606	3773
890.710	5657
890.815	7250
890.919	5749
891.024	4700
891.128	4032
891.233	3962
891.337	6978
891.442	6546
891.546	5066
891.650	3939
891.755	4185
891.859	6186
891.963	7319
892.068	4714
892.172	3683
892.276	3434
892.380	4896
892.484	7466
892.589	6365
892.693	4809
892.797	2861
892.901	2272
893.005	4842
893.109	8052
893.213	5737
893.317	4342
893.421	3025
893.525	2622
893.629	4333
893.733	6191
893.837	4877
893.941	3442
894.045	4480
894.148	3225
894.252	4183
894.356	7426
894.460	7030
894.564	4702
894.667	4461
894.771	2552
894.875	3250
894.978	4846
895.082	6028
895.186	4928
895.289	4166
895.393	4098
895.496	6344
895.600	3681
895.703	4274
895.807	4652
895.910	4388
896.014	4903
896.117	3722
896.221	5638
896.324	5100
896.427	2979
896.531	4210
896.634	4497
896.737	4626
896.840	4886
896.944	6452
897.047	5745
897.150	4249
897.253	2204
897.356	3419
897.460	2447
897.563	4237
897.666	5349
897.769	5443
897.872	3530
897.975	3153
898.078	2977
898.181	4104
898.284	3856
898.387	6511
898.490	5427
898.593	4504
898.695	2314
898.798	3815
898.901	3154
899.004	3932
899.107	3509
899.209	4578
899.312	4898
899.415	3362
899.518	2511
899.620	3143
899.723	3293
899.826	3264
899.928	2815
900.031	4985
900.133	5750
900.236	3037
900.338	2705
900.441	3407
900.543	3164
900.646	4173
900.748	4008
900.851	5521
900.953	2380
901.055	2925
901.158	2857
901.260	2303
901.362	2089
901.465	3811
901.567	5065
901.669	4712
901.771	3296
901.873	3504
901.976	3972
902.078	4588
902.180	2297
902.282	2943
902.384	3965
902.486	5951
902.588	4629
902.690	2896
902.792	2846
902.894	4625
902.996	4892
903.098	3756
903.200	2172
903.302	3646
903.404	2475
903.505	3604
903.607	3775
903.709	6401
903.811	4421
903.913	2810
904.014	1706
904.116	2470
904.218	2937
904.319	4553
904.421	6588
904.523	5104
904.624	3130
904.726	3375
904.827	3043
904.929	3422
905.030	3978
905.132	6051
905.233	3557
905.335	1847
905.436	2960
905.537	2281
905.639	3658
905.740	4067
905.841	4914
905.943	4633
906.044	3300
906.145	3060
906.247	2956
906.348	2688
906.449	3220
906.550	4168
906.651	3597
906.752	3242
906.854	2084
906.955	3764
907.056	3176
907.157	5143
907.258	4746
907.359	2251
907.460	2168
907.561	3080
907.662	2762
907.762	3555
907.863	4516
907.964	3806
908.065	2756
908.166	2800
908.267	2730
908.367	2165
908.468	2454
908.569	3455
908.670	3725
908.770	3921
908.871	3980
908.971	3071
909.072	2525
909.173	3378
909.273	2767
909.374	4684
909.474	2557
909.575	2284
909.675	2080
909.776	3575
909.876	2530
909.977	3242
910.077	4031
910.177	5039
910.278	2486
910.378	2699
910.478	2975
910.579	4530
910.679	3693
910.779	3972
910.879	3927
910.980	4116
911.080	2884
911.180	2091
911.280	2521
911.380	1851
911.480	1991
911.580	3162
911.680	3892
911.780	4502
911.880	3495
911.980	2099
912.080	1909
912.180	3451
912.280	3963
912.380	1780
912.480	1839
912.580	2841
912.679	3577
912.779	4367
912.879	3171
912.979	2864
913.078	1056
913.178	2256
913.278	2547
913.377	3189
913.477	2582
913.577	2898
913.676	3889
913.776	4262
913.875	2784
913.975	3018
914.074	3380
914.174	2380
914.273	2242
914.373	4439
914.472	1991
914.572	1696
914.671	2757
914.770	3123
914.870	2516
914.969	2465
915.068	4321
915.167	3514
915.267	2972
915.366	3446
915.465	2704
915.564	3816
915.663	3205
915.763	3774
915.862	5149
915.961	3467
916.060	1285
916.159	2836
916.258	2433
916.357	3861
916.456	3223
916.555	4378
916.654	2742
916.752	4803
916.851	3223
916.950	2183
917.049	3055
917.148	3255
917.247	2443
917.345	2545
917.444	1904
917.543	3732
917.642	3357
917.740	4843
917.839	5016
917.937	5723
918.036	4110
918.135	2673
918.233	3208
918.332	2586
918.430	2435
918.529	2593
918.627	3372
918.726	5230
918.824	2874
918.923	3305
919.021	2490
919.119	1948
919.218	3137
919.316	3007
919.414	3613
919.512	4475
919.611	3028
919.709	4512
919.807	5809
919.905	5562
920.003	5439
920.102	5231
920.200	4170
920.298	5792
920.396	4302
920.494	5211
920.592	3883
920.690	4790
920.788	3877
920.886	4368
920.984	5308
921.082	5404
921.180	5689
921.277	7035
921.375	7439
921.473	11128
921.571	8278
921.669	8183
921.766	7312
921.864	8862
921.962	7869
922.060	7735
922.157	8578
922.255	9037
922.352	7501
922.450	9598
922.548	9040
922.645	12304
922.743	15746
922.840	24077
922.938	24325
923.035	21430
923.133	20811
923.230	25108
923.327	28878
923.425	26684
923.522	26316
923.619	23594
923.717	21510
923.814	21119
923.911	20523
924.008	22727
924.106	19637
924.203	20562
924.300	21097
924.397	21699
924.494	20827
924.591	20103
924.688	20052
924.786	20298
924.883	20933
924.979	20360
925.077	19574
925.173	20193
925.270	18999
925.367	20560
925.464	20095
925.561	21958
925.658	19229
925.755	18463
925.852	21249
925.948	19262
926.045	18968
926.142	21904
926.239	18731
926.335	17740
926.432	20821
926.529	21607
926.625	21146
926.722	17379
926.818	18488
926.915	19956
927.011	17561
927.108	18443
927.204	17989
927.301	17029
927.397	20924
927.494	20175
927.590	13507
927.687	18234
927.783	20950
927.879	18953
927.976	15710
928.072	15558
928.168	18464
928.264	16636
928.361	18232
928.457	18451
928.553	15548
928.649	17721
928.745	16043
928.841	14701
928.937	17426
929.033	16593
929.129	16773
929.225	19030
929.321	14026
929.417	16583
929.513	17568
929.609	14465
929.705	15811
929.801	17033
929.897	13922
929.993	15729
930.089	14939
930.184	14369
930.280	17078
930.376	18161
930.471	13051
930.567	13726
930.663	14393
930.758	13866
930.854	14039
930.950	14336
931.045	12028
931.141	14609
931.236	18651
931.332	12255
931.427	14368
931.523	17599
931.618	13237
931.714	9878
931.809	14787
931.905	14592
932.000	9816
932.095	12833
932.191	16931
932.286	17972
932.381	12428
932.476	11391
932.572	12271
932.667	10665
932.762	12465
932.857	15140
932.952	16026
933.047	11416
933.142	10783
933.237	14283
933.332	14456
933.427	14486
933.522	12156
933.617	11407
933.712	11929
933.807	16079
933.902	15543
933.997	15090
934.092	10795
934.187	13509
934.282	12576
934.376	14869
934.471	13518
934.566	10021
934.661	11464
934.755	14692
934.850	14069
934.945	11328
935.039	9892
935.134	9288
935.228	14854
935.323	15720
935.417	8449
935.512	8552
935.606	10502
935.701	13220
935.795	13978
935.890	10958
935.984	8859
936.079	10012
936.173	11069
936.267	9805
936.362	9921
936.456	13285
936.550	13842
936.644	10130
936.738	9028
936.833	9043
936.927	7341
937.021	10501
937.115	10969
937.209	11512
937.303	8935
937.397	8831
937.491	12004
937.585	13123
937.679	10071
937.773	9306
937.867	6819
937.961	10277
938.055	12990
938.149	9889
938.243	7388
938.337	7513
938.430	10570
938.524	12505
938.618	10270
938.712	9704
938.805	9534
938.899	13432
938.993	11740
939.086	8154
939.180	8277
939.274	11390
939.367	12143
939.461	10689
939.554	8653
939.648	8131
939.741	7911
939.835	12051
939.928	12037
940.022	10107
940.115	8261
940.208	11635
940.302	12792
940.395	11462
940.488	7786
940.582	9726
940.675	6516
940.768	8723
940.861	11354
940.954	9449
941.048	5933
941.141	7311
941.234	7852
941.327	9175
941.420	9580
941.513	10209
941.606	6288
941.699	8781
941.792	10625
941.885	9385
941.978	9031
942.071	7369
942.164	5177
942.257	6093
942.349	8228
942.442	8272
942.535	6040
942.628	7449
942.721	8171
942.813	7914
942.906	8255
942.999	7360
943.091	7171
943.184	8624
943.277	7414
943.369	5603
943.462	5864
943.554	8030
943.647	7024
943.739	10638
943.832	8195
943.924	4576
944.017	6405
944.109	6235
944.201	7049
944.294	6797
944.386	7086
944.478	6180
944.571	6892
944.663	7158
944.755	7636
944.847	8375
944.940	6409
945.032	5068
945.124	5472
945.216	8364
945.308	7165
945.400	6787
945.492	7613
945.584	9595
945.676	8608
945.768	7185
945.860	8888
945.952	8741
946.044	6754
946.136	6321
946.228	5810
946.320	6713
946.412	8446
946.503	8866
946.595	7602
946.687	6155
946.779	4985
946.870	6500
946.962	5602
947.054	6473
947.145	8042
947.237	5238
947.329	6958
947.420	6926
947.512	5226
947.603	4627
947.695	6066
947.786	5461
947.878	4928
947.969	8164
948.061	8132
948.152	4926
948.243	3828
948.335	5302
948.426	5832
948.517	8189
948.609	7172
948.700	7122
948.791	4942
948.882	4435
948.973	4856
949.065	6765
949.156	5675
949.247	4427
949.338	4594
949.429	4745
949.520	5383
949.611	5822
949.702	6181
949.793	6046
949.884	6582
949.975	4841
950.066	3836
950.157	4973
950.247	4963
950.338	4643
950.429	5667
950.520	5008
950.611	4233
950.701	6413
950.792	7124
950.883	6416
950.973	5975
951.064	6946
951.155	6015
951.245	7268
951.336	6542
951.427	7339
951.517	7673
951.608	6649
951.698	4551
951.788	3888
951.879	3867
951.969	4919
952.060	5181
952.150	6154
952.240	7473
952.331	5156
952.421	6767
952.511	4008
952.602	4157
952.692	3449
952.782	3915
952.872	6058
952.962	4555
953.052	4823
953.143	4418
953.233	4860
953.323	6545
953.413	5979
953.503	6844
953.593	5928
953.683	4347
953.773	3730
953.863	3607
953.953	4189
954.042	5776
954.132	5754
954.222	4615
954.312	4318
954.402	3866
954.492	4408
954.581	5300
954.671	4805
954.761	3762
954.850	5540
954.940	3375
955.030	3117
955.119	2805
955.209	5184
955.298	5043
955.388	6048
955.477	4461
955.567	3794
955.656	3719
955.746	4527
955.835	3634
955.925	4215
956.014	4741
956.103	6522
956.193	6331
956.282	4907
956.371	4631
956.461	5990
956.550	3993
956.639	4604
956.728	4267
956.817	5357
956.906	4537
956.995	5906
957.085	4720
957.174	5298
957.263	4495
957.352	4456
957.441	4030
957.530	4264
957.619	3514
957.708	4223
957.796	3737
957.885	4363
957.974	3729
958.063	4627
958.152	2399
958.241	3091
958.329	3482
958.418	5038
958.507	3999
958.596	6264
958.684	3836
958.773	4767
958.861	2588
958.950	3212
959.039	3568
959.127	5026
959.216	4068
959.304	4357
959.393	3813
959.481	4204
959.570	3613
959.658	2842
959.746	3036
959.835	3646
959.923	2871
960.011	2669
960.100	5321
960.188	5757
960.276	3182
960.365	3404
960.453	3023
960.541	3119
960.629	3865
960.717	2605
960.805	1443
960.893	4011
960.981	4552
961.069	6927
961.158	4959
961.245	6252
961.333	4740
961.421	3911
961.509	4757
961.597	3862
961.685	3681
961.773	4778
961.861	3516
961.949	4548
962.036	2064
962.124	3569
962.212	2930
962.299	3210
962.387	2895
962.475	3686
962.562	3094
962.650	4633
962.738	2817
962.825	2123
962.913	2510
963.000	3735
963.088	3849
963.175	4035
963.263	2488
963.350	3127
963.438	2852
963.525	3019
963.612	3699
963.700	3812
963.787	4109
963.874	2592
963.962	3069
964.049	3348
964.136	3327
964.223	1895
964.310	2917
964.398	3357
964.485	3163
964.572	4339
964.659	3682
964.746	2462
964.833	2188
964.920	4507
965.007	2883
965.094	3010
965.181	4022
965.268	4157
965.355	2738
965.441	3580
965.528	2421
965.615	4413
965.702	3589
965.789	2938
965.875	4216
965.962	4028
966.049	2712
966.136	5259
966.222	3574
966.309	4349
966.395	3365
966.482	4891
966.569	3572
966.655	3958
966.742	3634
966.828	3184
966.915	3114
967.001	3351
967.087	1840
967.174	3697
967.260	2863
967.347	2983
967.433	2293
967.519	3130
967.605	2596
967.692	3114
967.778	2438
967.864	2244
967.950	3169
968.036	3224
968.123	3213
968.209	3080
968.295	1241
968.381	3724
968.467	2278
968.553	1724
968.639	3022
968.725	2789
968.811	3035
968.897	2808
968.983	2755
969.069	2776
969.154	1699
969.240	2828
969.326	1093
969.412	2798
969.497	2360
969.583	2524
969.669	3539
969.755	3639
969.840	3568
969.926	6971
970.012	6098
970.097	6496
970.183	4020
970.268	3180
970.354	3221
970.439	2188
970.525	2967
970.610	2748
970.696	3556
970.781	3177
970.866	1711
970.952	3232
971.037	2388
971.122	3196
971.208	3066
971.293	3356
971.378	1971
971.463	2458
971.549	2638
971.634	2760
971.719	2315
971.804	1557
971.889	2972
971.974	3105
972.059	2246
972.144	3113
972.229	2570
972.314	2127
972.399	2246
972.484	2128
972.569	2649
972.654	2085
972.739	2784
972.824	2327
972.908	2066
972.993	2034
973.078	2259
973.163	2663
973.247	2622
973.332	1315
973.417	3511
973.501	2024
973.586	2684
973.671	2946
973.755	1939
973.840	3471
973.924	3674
974.009	4396
974.093	3498
974.178	4386
974.262	3524
974.346	3751
974.431	2681
974.515	3998
974.600	3005
974.684	3925
974.768	2324
974.852	3875
974.937	1909
975.021	3162
975.105	2141
975.189	2273
975.273	2153
975.358	2157
975.442	1524
975.526	2786
975.610	1674
975.694	1326
975.778	3491
975.862	2680
975.946	-24
976.030	4507
976.114	2845
976.198	3328
976.281	2204
976.365	3369
976.449	1869
976.533	3083
976.617	1837
976.700	2087
976.784	2197
976.868	2011
976.951	2863
977.035	2407
977.119	3214
977.202	3107
977.286	3140
977.369	5306
977.453	5682
977.536	5031
977.620	3392
977.703	3379
977.787	2689
977.870	3551
977.953	4178
978.037	2267
978.120	3214
978.203	3645
978.287	2588
978.370	2736
978.453	1601
978.536	2577
978.620	3289
978.703	3753
978.786	1539
978.869	1695
978.952	1968
979.035	4527
979.118	2850
979.201	2229
979.284	2464
979.367	2208
979.450	2813
979.533	2170
979.616	2553
979.699	2422
979.782	1312
979.865	2867
979.948	1578
980.030	2158
980.113	1996
980.196	1817
980.279	2981
980.361	2464
980.444	2274
980.526	4939
980.609	5915
980.692	5403
980.774	4368
980.857	3013
980.939	3568
981.022	2796
981.104	3034
981.187	3239
981.269	3751
981.352	3231
981.434	2468
981.516	2510
981.599	3531
981.681	3805
981.763	2775
981.846	3113
981.928	2614
982.010	2666
982.092	2590
982.174	3577
982.256	2918
982.339	2561
982.421	3026
982.503	3458
982.585	2066
982.667	3367
982.749	1994
982.831	3205
982.913	1942
982.995	3772
983.077	2974
983.158	4350
983.240	2414
983.322	5380
983.404	7161
983.486	5324
983.568	4574
983.649	4109
983.731	4756
983.813	3520
983.894	4056
983.976	3788
984.058	3191
984.139	4770
984.221	3098
984.302	5027
984.384	3248
984.465	3944
984.547	4077
984.628	3164
984.710	4010
984.791	4333
984.872	3536
984.954	3135
985.035	3921
985.116	3299
985.198	3216
985.279	5517
985.360	3005
985.441	3385
985.522	3073
985.604	4369
985.685	1192
985.766	4835
985.847	5406
985.928	3969
986.009	2905
986.090	3893
986.171	3989
986.252	3649
986.333	3703
986.414	3081
986.495	3525
986.576	4155
986.656	4005
986.737	5496
986.818	4187
986.899	4388
986.980	3494
987.060	5461
987.141	3227
987.222	5802
987.302	6191
987.383	5953
987.464	5862
987.544	5697
987.625	4410
987.705	6566
987.786	4961
987.866	4988
987.947	4581
988.027	4659
988.108	4863
988.188	5499
988.268	4935
988.349	5537
988.429	4743
988.509	4890
988.589	4149
988.670	3636
988.750	6091
988.830	4811
988.910	3838
988.990	4547
989.070	4337
989.151	4621
989.231	3173
989.311	3731
989.391	4092
989.471	3905
989.551	4321
989.631	3979
989.711	4514
989.791	4039
989.870	2870
989.950	5653
990.030	4395
990.110	4371
990.190	3165
990.269	3902
990.349	3739
990.429	3834
990.509	3094
990.588	2771
990.668	4133
990.747	4027
990.827	2657
990.907	4424
990.986	3167
991.066	3289
991.145	2386
991.225	4067
991.304	3115
991.383	4212
991.463	3406
991.542	4081
991.622	3116
991.701	3764
991.780	1831
991.859	2946
991.939	3125
992.018	4028
992.097	2997
992.176	2332
992.256	3439
992.335	3181
992.414	2588
992.493	2946
992.572	2275
992.651	4424
992.730	1767
992.809	3331
992.888	1723
992.967	2637
993.046	2295
993.125	1477
993.203	2870
993.282	3299
993.361	2495
993.440	2713
993.519	1877
993.597	2655
993.676	2192
993.755	2968
993.834	2286
993.912	1240
993.991	2254
994.069	2323
994.148	1877
994.226	2044
994.305	1933
994.384	2757
994.462	2920
994.540	655
994.619	1978
994.697	1961
994.776	2315
994.854	2635
994.932	1798
995.011	3013
995.089	1425
995.167	1888
995.245	2905
995.324	1449
995.402	1410
995.480	1650
995.558	2014
995.636	1261
995.714	1553
995.792	3898
995.870	1192
995.948	1529
996.026	1709
996.104	661
996.182	2021
996.260	1677
996.338	942
996.416	1440
996.494	1209
996.572	2086
996.649	1464
996.727	317
996.805	2189
996.883	2239
996.960	699
997.038	2591
997.116	1517
997.193	1080
997.271	576
997.348	594
997.426	1424
997.504	1793
997.581	1858
997.658	883
997.736	-838
997.813	1048
997.891	1113
997.968	497
998.046	1706
998.123	1610
998.200	1533
998.277	1531
998.355	985
998.432	277
998.509	942
998.586	1552
998.663	1095
998.741	1191
998.818	-161
998.895	540
998.972	1554
999.049	1366
999.126	379
999.203	1940
999.280	301
999.357	1114
999.434	868
999.511	631
999.587	1247
999.664	58
999.741	1089
999.818	2146
999.895	199
999.971	400
1000.048	482
1000.125	1251
1000.202	558
1000.278	1712
1000.355	931
1000.431	590
1000.508	714
1000.584	858
1000.661	1310
1000.738	102
1000.814	334
1000.890	1117
1000.967	406
1001.043	576
1001.120	-999
1001.196	947
1001.272	-300
1001.349	87
1001.425	441
1001.501	682
1001.577	670
1001.654	604
1001.730	-625
1001.806	1091
1001.882	285
1001.958	803
1002.034	1219
1002.110	671
1002.186	-563
1002.262	-234
1002.338	-259
1002.414	597
1002.490	443
1002.566	-202
1002.642	-535
1002.718	1203
1002.794	73
1002.870	304
1002.945	103
1003.021	197
1003.097	219
1003.173	433
1003.248	-702
1003.324	802
1003.400	-504
1003.475	-1120
1003.551	150
1003.626	871
1003.702	-921
1003.777	601
1003.853	71
1003.928	742
1004.004	-77
1004.079	1011
1004.155	640
1004.230	-570
1004.305	1265
1004.381	187
1004.456	-550
1004.531	-124
1004.607	-191
1004.682	109
1004.757	504
1004.832	327
1004.907	-586
1004.982	958
1005.057	-294
1005.133	265
1005.208	-763
1005.283	-264
1005.358	590
1005.433	-344
1005.508	85
1005.583	-10
1005.657	143
1005.732	161
1005.807	-599
1005.882	-628
1005.957	-409
1006.032	-40
1006.106	117
1006.181	-158
1006.256	77
1006.331	-482
1006.405	-211
1006.480	-273
1006.554	-1184
1006.629	-241
1006.704	144
1006.778	282
1006.853	-312
1006.927	-543
1007.002	-1294
1007.076	-616
1007.150	-1140
1007.225	-5
1007.299	268
1007.373	-477
1007.448	100
1007.522	240
1007.596	373
1007.671	-2
1007.745	238
1007.819	-890
1007.893	-850
1007.967	-394
1008.041	-1872
1008.115	-429
1008.190	-677
1008.264	417
1008.338	-1450
1008.412	-373
1008.486	-604
1008.560	-326
1008.633	-485
1008.707	-147
1008.781	-342
1008.855	-972
1008.929	-385
1009.003	-746
1009.076	-268
1009.150	-53
1009.224	-719
1009.298	165
1009.371	-493
1009.445	378
1009.519	49
1009.592	-797
1009.666	-1153
1009.739	-150
1009.813	-1380
1009.886	74
1009.960	-1434
1010.033	-193
1010.107	-404
1010.180	-869
1010.253	-1017
1010.327	-1168
1010.400	-1353
1010.473	-1326
1010.547	105
1010.620	-129
1010.693	-381
1010.766	-63
1010.840	582
1010.913	-622
1010.986	-1369
1011.059	40
1011.132	-1115
1011.205	-109
1011.278	-858
1011.351	-844
1011.424	-64
1011.497	-94
1011.570	-1379
1011.643	-806
1011.716	-683
1011.789	-342
1011.862	-957
1011.934	-891
1012.007	-1855
1012.080	-146
1012.153	-1046
1012.225	-91
1012.298	-908
1012.371	-1419
1012.443	-170
1012.516	-800
1012.588	-689
1012.661	-333
1012.733	-1730
1012.806	-541
1012.879	-909
1012.951	-518
1013.023	-1326
1013.096	-663
1013.168	-836
1013.241	-693
1013.313	-364
1013.385	-642
1013.458	-570
1013.530	-625
1013.602	-878
1013.674	-614
1013.746	-1644
1013.819	-753
1013.891	-339
1013.963	-462
1014.035	-558
1014.107	-311
1014.179	-785
1014.251	-1580
1014.323	-1085
1014.395	-471
1014.467	-855
1014.539	-183
1014.611	-1796
1014.683	-895
1014.754	-1063
1014.826	-1188
1014.898	-990
1014.970	-631
1015.042	-546
1015.113	-358
1015.185	-1421
1015.257	-1269
1015.328	-316
1015.400	-548
1015.471	-1402
1015.543	-1409
1015.615	-1236
1015.686	-837
1015.757	-1806
1015.829	-331
1015.901	-1425
1015.972	-1103
1016.043	-1606
1016.115	-1361
1016.186	-2380
1016.257	-1069
1016.328	-511
1016.400	-325
1016.471	-1158
1016.542	-1315
1016.613	-1487
1016.685	-179
1016.756	-1313
1016.827	-914
1016.898	-1801
1016.969	-552
1017.040	-2014
1017.111	-1042
1017.182	-1623
1017.253	-954
1017.324	-1822
1017.395	-902
1017.466	-1557
1017.537	-1014
1017.608	-866
1017.678	-1055
1017.749	-1850
1017.820	-534
1017.891	-1707
1017.961	-1390
1018.032	-886
1018.103	-1169
1018.173	-1237
1018.244	-782
1018.315	-1017
1018.385	462
1018.456	-1751
1018.526	-844
1018.597	-1065
1018.667	-1070
1018.738	-1572
1018.808	-1185
1018.878	-1779
1018.949	-1098
1019.019	-1510
1019.089	-131
1019.160	-1241
1019.230	-1713
1019.300	-945
1019.371	-1629
1019.441	-1349
1019.511	-1087
1019.581	-2119
1019.651	-1637
1019.721	-1494
1019.791	-2187
1019.861	-1401
1019.931	-1360
1020.001	-1672
1020.071	-1494
1020.141	-2292
1020.211	-1948
1020.281	-1831
1020.351	-1063
1020.421	-1430
1020.491	-1067
1020.560	-2106
1020.630	-1005
1020.700	-2086
1020.770	-2348
1020.839	-1265
1020.909	-467
1020.979	-993
1021.048	-1673
1021.118	-2283
1021.187	-857
1021.257	-1072
1021.326	-767
1021.396	-1337
1021.465	-15
1021.535	-1850
1021.604	-1274
1021.674	-1827
1021.743	-1627
1021.812	-1572
1021.882	-704
1021.951	-1721
1022.020	-1263
1022.089	-1410
1022.159	-1752
1022.228	-1638
1022.297	-907
1022.366	-2263
1022.435	-1840
1022.504	-1954
1022.573	-1821
1022.642	-1805
1022.711	-1531
1022.781	-1516
1022.849	-1127
1022.918	-1997
1022.987	-1068
1023.056	-1016
1023.125	-680
1023.194	-1587
1023.263	-706
1023.331	-1737
1023.400	-964
1023.469	-2177
1023.538	-776
1023.606	-2023
1023.675	-1388
1023.744	-2292
1023.812	-1616
1023.881	-2032
1023.949	-1519
1024.018	-2138
1024.086	-1947
1024.155	-1692
1024.223	-1698
1024.292	-1406
1024.360	-827
1024.429	-2231
1024.497	-1459
1024.565	-1932
1024.634	-1592
1024.702	-1372
1024.770	-1313
1024.838	-1768
1024.907	-1166
1024.975	-2228
1025.043	-1066
1025.111	-1982
1025.179	-1210
1025.247	-1793
1025.315	-1118
1025.383	-2191
1025.451	-2172
1025.519	-2241
1025.587	-1486
1025.655	-1470
1025.723	-2309
1025.791	-2010
1025.859	-1438
1025.927	-1794
1025.995	-2050
1026.062	-1354
1026.130	-1146
1026.198	-1788
1026.266	-2152
1026.333	-1349
1026.401	-663
1026.469	-1488
1026.536	-1661
1026.604	-2527
1026.671	-1225
1026.739	-1718
1026.806	-1441
1026.874	-1614
1026.941	-1378
1027.009	-1240
1027.076	-2300
1027.144	-685
1027.211	-2053
1027.278	-1577
1027.345	-1763
1027.413	-1868
1027.480	-2043
1027.547	-1831
1027.614	-335
1027.682	-1231
1027.749	-1299
1027.816	-2100
1027.883	-2814
1027.950	-1145
1028.017	-2087
1028.084	-1557
1028.151	-1706
1028.218	-1274
1028.285	-2075
1028.352	-2176
1028.419	-2083
1028.486	-1538
1028.553	-993
1028.619	-1616
1028.686	-1256
1028.753	-1728
1028.820	-1155
1028.886	-2462
1028.953	-1359
1029.020	-1911
1029.086	-1050
1029.153	-1993
1029.220	-1263
1029.286	-2234
1029.353	-1276
1029.419	-2355
1029.486	-974
1029.552	-1722
1029.619	-806
1029.685	-1434
1029.751	-1843
1029.818	-1093
1029.884	-2144
1029.951	-1516
1030.017	-1728
1030.083	-1934
1030.149	-1811
1030.216	-2534
1030.282	-2336
1030.348	-1705
1030.414	-1742
1030.480	-1271
1030.546	-1413
1030.612	-2027
1030.678	-2137
1030.744	-1719
1030.810	-1700
1030.876	-2793
1030.942	-1855
1031.008	-2333
1031.074	-2560
1031.140	-1647
1031.206	-1334
1031.272	-1808
1031.337	-2255
1031.403	-1860
1031.469	-1388
1031.534	-2477
1031.600	-1518
1031.666	-1829
1031.731	-2343
1031.797	-1927
1031.863	-1851
1031.928	-1650
1031.994	-2619
1032.059	-1714
1032.125	-973
1032.190	-1569
1032.256	-2328
1032.321	-2677
1032.386	-1693
1032.452	-1406
1032.517	-1284
1032.582	-1941
1032.647	-2248
1032.713	-1717
1032.778	-1365
1032.843	-2625
1032.908	-1529
1032.974	-1835
1033.039	-1735
1033.104	-1380
1033.169	-2117
1033.234	-2248
1033.299	-969
1033.364	-1528
1033.429	-2655
1033.494	-1274
1033.559	-2090
1033.624	-2239
1033.688	-1205
1033.753	-1579
1033.818	-1689
1033.883	-1061
1033.948	-968
1034.013	-1203
1034.077	-351
1034.142	44
1034.207	-159
1034.271	674
1034.336	1103
1034.400	-939
1034.465	-1425
1034.530	-2158
1034.594	-2183
1034.658	-1852
1034.723	-1448
1034.787	-2238
1034.852	-1208
1034.916	-1592
1034.981	-1079
1035.045	-1965
1035.109	-1890
1035.173	-1746
1035.238	-1393
1035.302	-1393
1035.366	-1814
1035.430	-2663
1035.495	-1703
1035.559	-1731
1035.623	-1499
1035.687	-2550
1035.751	-1338
1035.815	-1817
1035.879	-1990
1035.943	-2022
1036.007	-1253
1036.071	-1830
1036.135	-1263
1036.198	-2994
1036.262	-1875
1036.326	-1381
1036.390	-1106
1036.454	-2330
1036.517	-1651
1036.581	-2108
1036.645	-1311
1036.709	-1502
1036.772	-2025
1036.836	-2105
1036.900	-1019
1036.963	-2268
1037.026	-1095
1037.090	-2092
1037.154	-2078
1037.217	-3105
1037.280	-1483
1037.344	-1967
1037.407	-1431
1037.471	-1951
1037.534	-1756
1037.597	-2502
1037.661	-1286
1037.724	-2539
1037.787	-2035
1037.850	-1988
1037.913	-1751
1037.977	-1335
1038.040	-1624
1038.103	-2164
1038.166	-1550
1038.229	-2027
1038.292	-1778
1038.355	-1530
1038.418	-1815
1038.481	-2634
1038.544	-2377
1038.607	-1701
1038.670	-1460
1038.732	-2004
1038.795	-1221
1038.858	-1977
1038.921	-1494
1038.984	-1712
1039.046	-2196
1039.109	-3098
1039.172	-1988
1039.234	-1785
1039.297	-1443
1039.360	-2221
1039.422	-2091
1039.485	-2048
1039.547	-1982
1039.610	-1920
1039.672	-1615
1039.734	-2533
1039.797	-1965
1039.859	-1619
1039.922	-2534
1039.984	-1893
1040.046	-2073
1040.109	-2042
1040.171	-2127
1040.233	-2592
1040.295	-1957
1040.358	-3050
1040.420	-2044
1040.482	-1541
1040.544	-2241
1040.606	-2210
1040.668	-2418
1040.730	-2436
1040.792	-1503
1040.854	-1938
1040.916	-1998
1040.978	-1096
1041.040	-968
1041.102	-2176
1041.164	-2012
1041.225	-2657
1041.287	-2438
1041.349	-1955
1041.411	-1685
1041.472	-2275
1041.534	-1783
1041.596	-2344
1041.657	-1868
1041.719	-1992
1041.781	-2197
1041.842	-2511
1041.904	-1730
1041.965	-1905
1042.027	-1884
1042.088	-2348
1042.150	-2264
1042.211	-2095
1042.272	-555
1042.334	-1652
1042.395	-2013
1042.456	-2369
1042.518	-1375
1042.579	-1780
1042.640	-2445
1042.701	-1508
1042.763	-1229
1042.824	-2368
1042.885	-1491
1042.946	-2230
1043.007	-1976
1043.068	-1796
1043.129	-2036
1043.190	-2478
1043.251	-1583
1043.312	-2621
1043.373	-1384
1043.434	-2327
1043.495	-2046
1043.556	-1692
1043.616	-1592
1043.677	-2027
1043.738	-1657
1043.799	-2035
1043.859	-1060
1043.920	-2090
1043.981	-1247
1044.041	-2194
1044.102	-1644
1044.162	-2814
1044.223	-1756
1044.284	-2568
1044.344	-2119
1044.405	-2264
1044.465	-969
1044.525	-1919
1044.586	-1190
1044.646	-1850
1044.707	-1233
1044.767	-2143
1044.827	-2082
1044.887	-1193
1044.948	-1266
1045.008	-2330
1045.068	-1480
1045.128	-1446
1045.188	-1540
1045.249	-1138
1045.309	-1539
1045.369	-2123
1045.429	-1465
1045.489	-2296
1045.549	-465
1045.609	-1851
1045.669	-1398
1045.729	-1999
1045.789	-2086
1045.848	-1895
1045.908	-653
1045.968	-1756
1046.028	-881
1046.088	-1204
1046.147	-993
1046.207	-1551
1046.267	-1276
1046.326	-1817
1046.386	-1358
1046.446	-1113
1046.505	-1217
1046.565	-1041
1046.624	-150
1046.684	-1548
1046.743	-158
1046.803	-526
1046.862	-271
1046.922	0
