'Start Wavelength	183.907
'End Wavelength	1046.922
'Gate Delay	5.000
'Gate Width (ms)	1.050
'Laser Output Level	0.000
'X Position	0.000
'Y Position	0.000
'Z Position	0.000
'Grid Point Number	1.000
'Shot Number	100.000
183.907	482.000
183.977	-267.000
184.047	381
184.116	805
184.186	191
184.256	-849
184.325	-452
184.395	-482
184.465	1721
184.534	587
184.604	-275
184.674	841
184.743	78
184.813	667
184.883	206
184.952	725
185.022	973
185.092	287
185.161	710
185.231	34
185.301	125
185.370	565
185.440	354
185.509	-26
185.579	95
185.649	162
185.718	109
185.788	553
185.857	-228
185.927	194
185.996	-49
186.066	218
186.136	-156
186.205	5
186.275	108
186.344	359
186.414	352
186.483	-508
186.553	1941
186.622	1274
186.692	38
186.761	986
186.831	-221
186.900	-666
186.970	651
187.039	400
187.109	347
187.178	807
187.248	1068
187.317	403
187.387	403
187.456	586
187.526	619
187.595	261
187.664	379
187.734	651
187.803	523
187.873	130
187.942	224
188.012	533
188.081	-57
188.150	357
188.220	289
188.289	846
188.358	186
188.428	721
188.497	-292
188.567	776
188.636	380
188.705	391
188.775	303
188.844	-731
188.913	1359
188.983	211
189.052	477
189.121	967
189.191	-370
189.260	703
189.329	37
189.399	774
189.468	800
189.537	425
189.606	412
189.676	838
189.745	453
189.814	908
189.883	434
189.953	263
190.022	597
190.091	1161
190.161	962
190.230	1734
190.299	522
190.368	382
190.437	563
190.507	131
190.576	911
190.645	883
190.714	934
190.783	745
190.853	13
190.922	1561
190.991	1004
191.060	665
191.129	1217
191.198	691
191.268	255
191.337	127
191.406	915
191.475	-317
191.544	432
191.613	644
191.682	670
191.752	1026
191.821	686
191.890	743
191.959	642
192.028	66
192.097	430
192.166	513
192.235	420
192.304	521
192.373	477
192.442	590
192.511	390
192.580	547
192.650	153
192.719	226
192.788	501
192.857	-81
192.926	995
192.995	1003
193.064	1224
193.133	358
193.202	1752
193.271	1887
193.340	1483
193.409	870
193.478	1497
193.547	989
193.615	1332
193.684	1540
193.753	973
193.822	1602
193.891	523
193.960	1211
194.029	968
194.098	171
194.167	-176
194.236	945
194.305	309
194.374	595
194.443	278
194.512	1051
194.580	82
194.649	902
194.718	884
194.787	1070
194.856	450
194.925	571
194.994	589
195.062	585
195.131	511
195.200	356
195.269	1607
195.338	293
195.407	1290
195.475	1167
195.544	1743
195.613	667
195.682	1792
195.751	776
195.819	979
195.888	454
195.957	1088
196.026	339
196.094	1374
196.163	413
196.232	860
196.301	767
196.369	1581
196.438	656
196.507	842
196.576	442
196.644	1489
196.713	-666
196.782	453
196.850	887
196.919	969
196.988	1019
197.056	-273
197.125	426
197.194	-20
197.262	1564
197.331	569
197.400	587
197.468	67
197.537	-909
197.606	71
197.674	932
197.743	1102
197.812	610
197.880	2019
197.949	1401
198.017	954
198.086	1302
198.155	612
198.223	1047
198.292	1298
198.360	1735
198.429	762
198.497	1077
198.566	1663
198.635	1768
198.703	1456
198.772	1604
198.840	1272
198.909	1470
198.977	560
199.046	97
199.114	1045
199.183	580
199.251	228
199.320	1144
199.388	698
199.457	288
199.525	199
199.594	522
199.662	750
199.731	-356
199.799	885
199.867	1246
199.936	494
200.004	1178
200.073	843
200.141	-13
200.210	410
200.278	122
200.346	1393
200.415	437
200.483	997
200.552	570
200.620	184
200.688	509
200.757	842
200.825	634
200.893	405
200.962	1263
201.030	726
201.098	965
201.167	547
201.235	578
201.303	474
201.372	847
201.440	1115
201.508	682
201.577	796
201.645	788
201.713	1117
201.781	572
201.850	1189
201.918	1270
201.986	636
202.055	1668
202.123	284
202.191	875
202.259	-149
202.327	659
202.396	1229
202.464	1018
202.532	1203
202.600	3071
202.669	1709
202.737	403
202.805	656
202.873	255
202.941	804
203.009	1333
203.078	1702
203.146	30
203.214	1078
203.282	73
203.350	918
203.418	384
203.487	1785
203.555	1054
203.623	1061
203.691	1122
203.759	336
203.827	396
203.895	971
203.963	1300
204.031	979
204.099	355
204.168	922
204.236	1241
204.304	608
204.372	929
204.440	1026
204.508	1182
204.576	364
204.644	1135
204.712	1150
204.780	716
204.848	11
204.916	419
204.984	977
205.052	1549
205.120	1684
205.188	130
205.256	645
205.324	1598
205.392	656
205.460	2099
205.528	816
205.596	575
205.664	1689
205.732	115
205.799	1798
205.867	2934
205.935	654
206.003	819
206.071	924
206.139	1434
206.207	1065
206.275	1175
206.343	125
206.411	994
206.478	938
206.546	611
206.614	1400
206.682	788
206.750	707
206.818	1441
206.885	1607
206.953	-23
207.021	677
207.089	654
207.157	-391
207.225	1496
207.292	1242
207.360	830
207.428	290
207.496	1116
207.563	769
207.631	659
207.699	785
207.767	966
207.834	156
207.902	974
207.970	920
208.038	597
208.105	1747
208.173	1021
208.241	863
208.309	1592
208.376	1704
208.444	1161
208.512	1431
208.579	598
208.647	1457
208.715	1900
208.782	1301
208.850	890
208.918	1347
208.985	1659
209.053	1352
209.120	1298
209.188	1084
209.256	1040
209.323	1202
209.391	1956
209.459	2403
209.526	1808
209.594	574
209.661	1004
209.729	677
209.796	1696
209.864	828
209.932	539
209.999	2050
210.067	1469
210.134	835
210.202	528
210.269	2562
210.337	2008
210.404	1614
210.472	1395
210.539	1553
210.607	886
210.674	1548
210.742	1349
210.809	1241
210.877	1339
210.944	1966
211.012	-51
211.079	3283
211.146	1512
211.214	1022
211.281	1165
211.349	1975
211.416	1425
211.484	1381
211.551	1414
211.618	1525
211.686	727
211.753	768
211.821	1118
211.888	1541
211.955	1926
212.023	1614
212.090	2211
212.157	838
212.225	1261
212.292	1740
212.359	3066
212.427	6744
212.494	3963
212.561	2057
212.629	1927
212.696	2238
212.763	1559
212.831	1554
212.898	1814
212.965	1141
213.032	1832
213.100	1703
213.167	1257
213.234	2157
213.301	1464
213.369	1723
213.436	1105
213.503	1909
213.570	1571
213.638	1789
213.705	1138
213.772	852
213.839	2395
213.906	1692
213.973	1304
214.041	1752
214.108	2044
214.175	1474
214.242	1437
214.309	1588
214.376	1677
214.444	1177
214.511	2513
214.578	2024
214.645	2493
214.712	1670
214.779	2402
214.846	1297
214.913	1883
214.980	3036
215.048	2299
215.115	1923
215.182	2282
215.249	2252
215.316	1175
215.383	2173
215.450	953
215.517	732
215.584	2089
215.651	1247
215.718	758
215.785	2153
215.852	1762
215.919	2645
215.986	2128
216.053	1196
216.120	569
216.187	1714
216.254	1915
216.321	635
216.388	2186
216.455	1507
216.522	1835
216.589	2457
216.656	3557
216.722	2662
216.789	1627
216.856	2746
216.923	3006
216.990	2466
217.057	2097
217.124	2747
217.191	2519
217.258	3387
217.324	3964
217.391	3940
217.458	2578
217.525	2815
217.592	1631
217.659	1543
217.725	2426
217.792	1503
217.859	2267
217.926	1891
217.993	1693
218.059	808
218.126	2411
218.193	868
218.260	1653
218.327	900
218.393	875
218.460	1436
218.527	338
218.594	1722
218.660	1456
218.727	3303
218.794	1162
218.860	2076
218.927	512
218.994	1236
219.061	1538
219.127	2030
219.194	1954
219.261	1861
219.327	1613
219.394	1034
219.461	269
219.527	644
219.594	2027
219.661	1644
219.727	762
219.794	2548
219.860	536
219.927	1788
219.994	2293
220.060	2684
220.127	3075
220.193	2630
220.260	2135
220.326	2839
220.393	4648
220.460	6469
220.526	3961
220.593	2555
220.659	3927
220.726	2494
220.792	5226
220.859	5427
220.925	8169
220.992	10110
221.058	8970
221.125	8252
221.191	5099
221.258	2910
221.324	2559
221.391	2193
221.457	1294
221.524	1661
221.590	2372
221.657	5668
221.723	3950
221.789	3959
221.856	4023
221.922	1653
221.989	2251
222.055	1490
222.121	763
222.188	3838
222.254	2316
222.321	1577
222.387	932
222.453	1381
222.520	540
222.586	1172
222.652	1440
222.719	801
222.785	1520
222.851	967
222.918	901
222.984	1129
223.050	1108
223.116	797
223.183	2050
223.249	922
223.315	1358
223.382	1810
223.448	813
223.514	696
223.580	1269
223.647	764
223.713	917
223.779	991
223.845	805
223.911	1652
223.978	838
224.044	1195
224.110	1596
224.176	1780
224.242	1389
224.309	218
224.375	1993
224.441	1764
224.507	814
224.573	321
224.639	1978
224.705	1125
224.772	1294
224.838	907
224.904	2138
224.970	1379
225.036	1508
225.102	968
225.168	2034
225.234	1367
225.300	1420
225.366	1314
225.432	1328
225.499	1543
225.565	1437
225.631	1397
225.697	1419
225.763	1781
225.829	2336
225.895	2276
225.961	2681
226.027	2307
226.093	2437
226.159	3752
226.225	4992
226.291	8960
226.357	12942
226.423	7894
226.489	5154
226.554	3795
226.620	3104
226.686	4258
226.752	5723
226.818	7599
226.884	16064
226.950	15256
227.016	6522
227.082	4598
227.148	4305
227.214	3371
227.279	2450
227.345	1694
227.411	1661
227.477	2538
227.543	5146
227.609	5348
227.674	3380
227.740	2070
227.806	2187
227.872	1923
227.938	2315
228.003	2260
228.069	1953
228.135	1021
228.201	1513
228.267	1644
228.332	2015
228.398	1410
228.464	2178
228.530	1191
228.595	698
228.661	410
228.727	1407
228.792	2750
228.858	1523
228.924	597
228.990	3975
229.055	2062
229.121	2759
229.187	1715
229.252	1476
229.318	1148
229.384	1426
229.449	1824
229.515	503
229.581	737
229.646	1948
229.712	1956
229.777	2137
229.843	2654
229.909	2523
229.974	3045
230.040	3117
230.105	2003
230.171	1759
230.236	2983
230.302	4384
230.368	3141
230.433	1832
230.499	2060
230.564	2929
230.630	1123
230.695	2299
230.761	2018
230.826	108
230.892	3539
230.957	1454
231.023	944
231.088	1505
231.154	2036
231.219	2827
231.284	1361
231.350	3236
231.415	1361
231.481	2044
231.546	1659
231.612	1271
231.677	897
231.742	-280
231.808	2253
231.873	1038
231.939	315
232.004	2751
232.069	3202
232.135	1498
232.200	1356
232.265	1904
232.331	1473
232.396	1383
232.461	473
232.527	1227
232.592	501
232.657	1426
232.723	1631
232.788	961
232.853	1667
232.918	1468
232.984	420
233.049	1281
233.114	1128
233.179	2424
233.245	2655
233.310	2806
233.375	112
233.440	2537
233.506	787
233.571	202
233.636	1326
233.701	1459
233.766	2304
233.832	2398
233.897	2016
233.962	593
234.027	2103
234.092	1976
234.157	1333
234.222	1259
234.288	2836
234.353	4262
234.418	5666
234.483	4337
234.548	2411
234.613	2861
234.678	2465
234.743	2151
234.808	5909
234.873	3589
234.938	3346
235.004	1729
235.069	2148
235.134	2349
235.199	2061
235.264	2095
235.329	178
235.394	2582
235.459	2438
235.524	1321
235.589	2621
235.654	1585
235.719	755
235.784	2278
235.849	1826
235.913	2450
235.978	2940
236.043	4218
236.108	1559
236.173	2069
236.238	3033
236.303	1219
236.368	550
236.433	2789
236.498	3798
236.563	4484
236.627	6629
236.692	20038
236.757	18588
236.822	7586
236.887	4820
236.952	4906
237.017	2866
237.081	4874
237.146	4657
237.211	10724
237.276	19052
237.341	30242
237.405	15605
237.470	7689
237.535	5768
237.600	4122
237.664	4286
237.729	2115
237.794	3250
237.859	8213
237.923	5042
237.988	2667
238.053	3727
238.118	3117
238.182	7039
238.247	7888
238.312	3237
238.376	3977
238.441	1453
238.506	3527
238.570	1108
238.635	2233
238.700	1239
238.764	2886
238.829	3840
238.893	4210
238.958	3377
239.023	2104
239.087	2034
239.152	2254
239.216	1781
239.281	1744
239.346	1858
239.410	2328
239.475	2509
239.539	6638
239.604	4727
239.668	3034
239.733	2515
239.797	3755
239.862	7092
239.926	8623
239.991	4272
240.055	2393
240.120	1507
240.184	2207
240.249	864
240.313	1978
240.378	1404
240.442	4853
240.507	7191
240.571	2634
240.635	2316
240.700	4049
240.764	1679
240.829	1788
240.893	568
240.957	1719
241.022	4532
241.086	6622
241.151	2978
241.215	1287
241.279	3117
241.344	3549
241.408	2660
241.472	2392
241.537	3841
241.601	3718
241.665	1376
241.730	1822
241.794	3096
241.858	2206
241.922	2610
241.987	2939
242.051	1846
242.115	2159
242.179	2228
242.244	2167
242.308	2730
242.372	2063
242.436	2675
242.501	2969
242.565	1470
242.629	1712
242.693	3216
242.757	1740
242.822	2254
242.886	2252
242.950	2147
243.014	1707
243.078	2327
243.142	2812
243.206	2061
243.271	2539
243.335	1823
243.399	3220
243.463	9631
243.527	27190
243.591	9724
243.655	4704
243.719	2640
243.783	4414
243.847	5589
243.911	6072
243.975	5192
244.040	4096
244.104	4054
244.168	2271
244.232	3713
244.296	5025
244.360	5630
244.424	3140
244.488	2780
244.552	3582
244.615	1403
244.679	2867
244.743	2730
244.807	2424
244.871	2467
244.935	3090
244.999	1131
245.063	1886
245.127	3407
245.191	4531
245.255	5082
245.319	3481
245.383	1987
245.446	3470
245.510	479
245.574	3056
245.638	2722
245.702	1460
245.766	5654
245.829	4912
245.893	2454
245.957	1947
246.021	2934
246.085	2498
246.149	3055
246.212	7560
246.276	9507
246.340	5185
246.404	4340
246.467	3686
246.531	4958
246.595	4473
246.659	3647
246.722	2157
246.786	4015
246.850	4673
246.913	5873
246.977	2486
247.041	2339
247.104	3214
247.168	3251
247.232	7251
247.295	12541
247.359	7264
247.423	3329
247.486	5697
247.550	4467
247.614	3185
247.677	4250
247.741	2987
247.804	2177
247.868	3728
247.932	5254
247.995	12560
248.059	5406
248.122	3354
248.186	4851
248.249	6963
248.313	18831
248.376	21958
248.440	14383
248.503	6310
248.567	6912
248.630	6823
248.694	10294
248.757	12766
248.821	21113
248.884	16259
248.948	12384
249.011	18749
249.075	24746
249.138	22365
249.202	10283
249.265	6389
249.328	6864
249.392	5352
249.455	5645
249.519	4323
249.582	5274
249.645	8100
249.709	6584
249.772	5166
249.835	4731
249.899	4912
249.962	4565
250.025	3825
250.089	9073
250.152	13479
250.215	7573
250.279	4954
250.342	5253
250.405	5377
250.468	4316
250.532	6236
250.595	9427
250.658	24582
250.721	43802
250.785	16988
250.848	10169
250.911	6334
250.974	5847
251.038	7060
251.101	14412
251.164	8133
251.227	8366
251.290	8645
251.354	11124
251.417	34855
251.480	37856
251.543	26197
251.606	62985
251.669	52228
251.732	21827
251.795	20227
251.859	20621
251.922	41892
251.985	27799
252.048	11769
252.111	8677
252.174	7776
252.237	13210
252.300	26197
252.363	27918
252.426	53396
252.489	24565
252.552	11741
252.615	8115
252.678	9548
252.741	18640
252.804	24888
252.867	53752
252.930	33486
252.993	18935
253.056	12559
253.119	8661
253.182	6027
253.245	10900
253.308	8996
253.371	6583
253.434	7481
253.497	7530
253.559	12324
253.622	9648
253.685	11579
253.748	12743
253.811	5907
253.874	6505
253.937	5768
254.000	5742
254.062	8938
254.125	13512
254.188	12326
254.251	10573
254.314	5429
254.376	8560
254.439	10848
254.502	10784
254.565	8957
254.628	15510
254.690	10356
254.753	5469
254.816	5344
254.878	4789
254.941	8600
255.004	9618
255.067	4884
255.129	5366
255.192	3978
255.255	3073
255.317	4038
255.380	2984
255.443	2028
255.505	1765
255.568	1047
255.631	2644
255.693	3528
255.756	1715
255.819	2686
255.881	1520
255.944	2536
256.006	2657
256.069	2269
256.132	2187
256.194	2437
256.257	6436
256.319	4892
256.382	3729
256.444	4692
256.507	3391
256.569	2419
256.632	3780
256.694	4405
256.757	12253
256.819	33764
256.882	14888
256.944	6540
257.007	5951
257.069	5424
257.132	3891
257.194	4905
257.257	3017
257.319	2764
257.381	3198
257.444	9922
257.506	36234
257.569	44721
257.631	21338
257.693	12222
257.756	6133
257.818	4385
257.880	3394
257.943	4617
258.005	2639
258.067	2591
258.130	3399
258.192	4169
258.254	6214
258.317	4140
258.379	3332
258.441	7413
258.503	8202
258.566	7339
258.628	10992
258.690	3370
258.753	4428
258.815	7738
258.877	3849
258.939	3640
259.001	3005
259.064	2783
259.126	2003
259.188	4656
259.250	3591
259.312	4253
259.375	9091
259.437	6946
259.499	2855
259.561	3403
259.623	3670
259.685	4076
259.747	3564
259.809	7210
259.872	12997
259.934	19026
259.996	20320
260.058	6577
260.120	2810
260.182	2715
260.244	3224
260.306	2453
260.368	4130
260.430	2895
260.492	5470
260.554	9818
260.616	6923
260.678	10701
260.740	14580
260.802	3974
260.864	4809
260.926	2591
260.988	4089
261.050	2304
261.112	6586
261.174	15403
261.236	12172
261.298	4319
261.359	6217
261.421	9423
261.483	3829
261.545	3320
261.607	1292
261.669	2746
261.731	3864
261.793	11068
261.854	4614
261.916	4739
261.978	3175
262.040	3608
262.102	3483
262.164	3448
262.225	3643
262.287	3044
262.349	6594
262.411	5640
262.472	3490
262.534	3811
262.596	8389
262.658	3356
262.719	1057
262.781	3368
262.843	7619
262.904	3694
262.966	3098
263.028	4612
263.090	14521
263.151	42197
263.213	15601
263.275	9102
263.336	4184
263.398	3101
263.459	1999
263.521	2552
263.583	6274
263.644	4446
263.706	2661
263.767	1092
263.829	2297
263.891	1660
263.952	1442
264.014	1139
264.075	3683
264.137	6458
264.198	4476
264.260	1646
264.321	1231
264.383	4892
264.444	12020
264.506	3828
264.567	3264
264.629	4162
264.690	9010
264.752	4525
264.813	2872
264.875	1509
264.936	3132
264.998	1792
265.059	1710
265.120	2029
265.182	3888
265.243	17654
265.305	20695
265.366	4971
265.427	3612
265.489	2755
265.550	514
265.611	3190
265.673	2048
265.734	2439
265.795	1697
265.857	1194
265.918	1485
265.979	5613
266.040	28771
266.102	26716
266.163	7233
266.224	5358
266.286	3290
266.347	2117
266.408	1610
266.469	2210
266.530	1837
266.592	1683
266.653	4323
266.714	8318
266.775	2321
266.836	1977
266.898	1420
266.959	2817
267.020	2820
267.081	2724
267.142	2044
267.203	1469
267.264	1609
267.326	3113
267.387	1954
267.448	1266
267.509	1861
267.570	1852
267.631	1909
267.692	1241
267.753	1863
267.814	1489
267.875	4145
267.936	9548
267.997	5644
268.058	4186
268.119	3017
268.180	2987
268.241	1799
268.302	1513
268.363	1078
268.424	1695
268.485	2614
268.546	1036
268.607	1404
268.668	496
268.729	954
268.790	1370
268.851	2003
268.912	5011
268.972	7264
269.033	3809
269.094	1408
269.155	1841
269.216	707
269.277	1724
269.338	1508
269.398	2140
269.459	2200
269.520	2920
269.581	5144
269.642	5393
269.702	3490
269.763	3013
269.824	2294
269.885	3243
269.945	4510
270.006	2057
270.067	1067
270.128	1353
270.188	1022
270.249	1422
270.310	1795
270.370	1471
270.431	2212
270.492	1594
270.553	2113
270.613	4677
270.674	8724
270.734	3646
270.795	1929
270.856	3841
270.916	2637
270.977	1940
271.038	2629
271.098	3210
271.159	4996
271.219	4414
271.280	1368
271.340	1506
271.401	2537
271.462	3788
271.522	3392
271.583	2484
271.643	2093
271.704	3118
271.764	2731
271.825	6336
271.885	21457
271.946	27900
272.006	10573
272.066	12486
272.127	22203
272.187	9382
272.248	4640
272.308	4228
272.369	14009
272.429	9350
272.489	6561
272.550	7158
272.610	7787
272.671	5771
272.731	4738
272.791	6951
272.852	5177
272.912	4082
272.972	2910
273.033	3073
273.093	3892
273.153	4686
273.214	3322
273.274	3504
273.334	10720
273.394	23094
273.455	10346
273.515	8964
273.575	18725
273.635	9754
273.696	10380
273.756	20615
273.816	11104
273.876	5390
273.936	7964
273.997	15259
274.057	4843
274.117	4377
274.177	7053
274.237	24393
274.297	22516
274.358	13221
274.418	16801
274.478	13625
274.538	5718
274.598	4141
274.658	11685
274.718	15325
274.778	6931
274.838	3503
274.898	6556
274.958	20015
275.018	20145
275.078	14105
275.138	6241
275.198	3019
275.258	3078
275.318	3260
275.378	6006
275.438	8168
275.498	5761
275.558	8759
275.618	20466
275.678	15715
275.738	9737
275.798	8046
275.858	4016
275.918	2893
275.978	2659
276.038	3846
276.098	2679
276.157	5281
276.217	17110
276.277	8583
276.337	6523
276.397	3040
276.457	4343
276.517	3579
276.576	2778
276.636	1604
276.696	4236
276.756	9859
276.815	7856
276.875	3886
276.935	4331
276.995	4655
277.055	3297
277.114	3619
277.174	4272
277.234	12237
277.293	6876
277.353	3755
277.413	2615
277.472	3373
277.532	3317
277.592	4609
277.651	12801
277.711	26471
277.771	9069
277.830	28757
277.890	27153
277.950	15786
278.009	45106
278.069	19772
278.128	19309
278.188	29415
278.248	12377
278.307	27834
278.367	20428
278.426	5945
278.486	4246
278.545	2905
278.605	3102
278.664	3366
278.724	3783
278.783	8726
278.843	20789
278.902	7891
278.962	4363
279.021	5931
279.081	6095
279.140	5967
279.199	5693
279.259	6386
279.318	6200
279.378	9064
279.437	14214
279.496	39718
279.556	106584
279.615	99016
279.675	28468
279.734	16547
279.793	21599
279.853	30846
279.912	13940
279.971	7651
280.031	8309
280.090	11865
280.149	22448
280.208	18519
280.268	70246
280.327	86261
280.386	22725
280.445	14391
280.505	13605
280.564	8282
280.623	6098
280.682	8176
280.742	12657
280.801	5269
280.860	4223
280.919	3443
280.978	3087
281.037	3510
281.097	3302
281.156	2727
281.215	3150
281.274	4189
281.333	13484
281.392	12574
281.451	4052
281.510	3077
281.569	2330
281.628	2164
281.688	2585
281.747	3064
281.806	3279
281.865	2082
281.924	1324
281.983	2678
282.042	2612
282.101	2712
282.160	2402
282.219	1507
282.278	3001
282.337	8830
282.396	6532
282.454	3123
282.513	4271
282.572	13938
282.631	9048
282.690	3371
282.749	2064
282.808	4516
282.867	3347
282.926	3255
282.985	2371
283.043	1797
283.102	2186
283.161	2640
283.220	6421
283.279	14374
283.338	5495
283.396	2183
283.455	3931
283.514	3670
283.573	6404
283.631	4965
283.690	2810
283.749	2997
283.808	6874
283.866	8571
283.925	3554
283.984	4293
284.043	5369
284.101	5863
284.160	3665
284.219	5630
284.277	5056
284.336	7711
284.395	19294
284.453	17710
284.512	9105
284.570	10917
284.629	10908
284.688	9915
284.746	12550
284.805	13228
284.863	17946
284.922	22949
284.981	27491
285.039	37364
285.098	58770
285.156	97068
285.215	106922
285.273	104646
285.332	105447
285.390	71028
285.449	46957
285.507	33664
285.566	25134
285.624	18729
285.683	14837
285.741	12549
285.799	10681
285.858	10010
285.916	9039
285.975	7001
286.033	6128
286.091	5447
286.150	4702
286.208	4330
286.267	4776
286.325	5553
286.383	7154
286.442	6724
286.500	4475
286.558	4093
286.616	3088
286.675	4971
286.733	5084
286.791	3912
286.850	4331
286.908	4729
286.966	8382
287.024	4288
287.083	3001
287.141	2710
287.199	3087
287.257	5883
287.315	3517
287.374	3893
287.432	8552
287.490	6573
287.548	3310
287.606	3052
287.664	2981
287.723	3485
287.781	5159
287.839	3342
287.897	2869
287.955	5853
288.013	7458
288.071	16859
288.129	53643
288.187	151898
288.245	77745
288.303	24362
288.361	13581
288.419	10157
288.477	6898
288.535	5519
288.593	3662
288.651	3673
288.709	2904
288.767	2093
288.825	2044
288.883	2605
288.941	2387
288.999	2800
289.057	1710
289.115	1042
289.173	1879
289.231	2483
289.289	2469
289.346	2497
289.404	2941
289.462	4645
289.520	4837
289.578	3368
289.636	830
289.694	1505
289.751	809
289.809	683
289.867	1864
289.925	2098
289.983	2754
290.040	2504
290.098	1326
290.156	2922
290.214	2603
290.271	1139
290.329	1298
290.387	1106
290.444	656
290.502	736
290.560	1264
290.617	1279
290.675	953
290.733	1339
290.790	2107
290.848	1948
290.906	1836
290.963	1909
291.021	1220
291.078	1982
291.136	2106
291.194	5296
291.251	14834
291.309	4807
291.366	1991
291.424	1909
291.481	1440
291.539	2064
291.596	2099
291.654	1414
291.711	78
291.769	1791
291.826	4997
291.884	3144
291.941	1498
291.999	1376
292.056	2123
292.114	3304
292.171	698
292.228	1767
292.286	2569
292.343	4893
292.401	5802
292.458	4751
292.515	2403
292.573	2982
292.630	2740
292.687	2484
292.745	2310
292.802	2948
292.859	7493
292.917	15965
292.974	10699
293.031	3563
293.089	2452
293.146	2093
293.203	1596
293.260	774
293.318	2282
293.375	3785
293.432	2317
293.489	1715
293.546	1570
293.604	3690
293.661	9276
293.718	24395
293.775	14149
293.832	7401
293.889	5692
293.947	6172
294.004	3319
294.061	4509
294.118	7080
294.175	17076
294.232	18916
294.289	9095
294.346	4564
294.403	3807
294.460	3682
294.517	2885
294.574	2424
294.631	2404
294.688	2876
294.745	7172
294.802	25406
294.859	31148
294.916	13584
294.973	7520
295.030	5642
295.087	5010
295.144	3754
295.201	4062
295.258	2143
295.315	4126
295.372	10315
295.429	19932
295.486	9746
295.542	5978
295.599	11925
295.656	21262
295.713	14668
295.770	19522
295.827	9236
295.883	3791
295.940	3810
295.997	6701
296.054	6895
296.111	3719
296.167	2545
296.224	2175
296.281	2157
296.338	1851
296.394	2365
296.451	3213
296.508	8122
296.564	16983
296.621	12542
296.678	21186
296.734	33071
296.791	14056
296.848	7662
296.904	7327
296.961	16129
297.018	23440
297.074	18095
297.131	7638
297.187	5273
297.244	7724
297.301	19855
297.357	38276
297.414	15989
297.470	6343
297.527	3793
297.583	3839
297.640	4145
297.696	2723
297.753	2374
297.809	1769
297.866	1972
297.922	2195
297.979	1435
298.035	2761
298.092	4433
298.148	12247
298.204	13824
298.261	6773
298.317	9789
298.374	26346
298.430	18032
298.486	8758
298.543	5832
298.599	5922
298.656	8426
298.712	10565
298.768	24772
298.824	19045
298.881	7289
298.937	4789
298.993	2826
299.050	4733
299.106	4698
299.162	3628
299.218	4021
299.275	3402
299.331	3219
299.387	7385
299.443	22760
299.500	30031
299.556	13811
299.612	6971
299.668	6270
299.724	8084
299.780	9377
299.837	4819
299.893	7307
299.949	21404
300.005	28581
300.061	21556
300.117	36671
300.173	20132
300.229	10190
300.285	10311
300.341	13020
300.397	7055
300.453	4421
300.510	3491
300.566	4282
300.622	5987
300.678	14667
300.734	27945
300.790	22779
300.845	27022
300.901	18956
300.957	24938
301.013	20685
301.069	9366
301.125	5440
301.181	5016
301.237	5073
301.293	2860
301.349	2712
301.405	3078
301.461	3111
301.516	5473
301.572	6021
301.628	8664
301.684	7919
301.740	9808
301.796	17818
301.851	11931
301.907	18785
301.963	19626
302.019	25115
302.074	63596
302.130	70332
302.186	37468
302.242	16674
302.297	9937
302.353	8155
302.409	14516
302.464	16104
302.520	12461
302.576	23879
302.631	31892
302.687	19514
302.743	8158
302.798	4690
302.854	4792
302.910	5079
302.965	5194
303.021	9945
303.076	9893
303.132	11182
303.187	15157
303.243	8051
303.299	4208
303.354	3319
303.410	3736
303.465	2807
303.521	3014
303.576	3320
303.632	4093
303.687	7620
303.743	21801
303.798	22590
303.853	9703
303.909	5252
303.964	4500
304.020	6207
304.075	12257
304.130	10256
304.186	17265
304.241	19592
304.297	15741
304.352	9579
304.358	9152
304.407	5681
304.449	5097
304.463	4902
304.518	5269
304.539	5215
304.573	5093
304.629	5504
304.630	5540
304.684	7595
304.720	13434
304.739	16250
304.794	27756
304.811	24192
304.850	15379
304.902	7864
304.905	7403
304.960	5421
304.992	5106
305.015	4924
305.071	5836
305.083	5725
305.126	5072
305.173	3618
305.181	3423
305.236	3358
305.264	3246
305.292	3154
305.347	4899
305.354	5099
305.402	6383
305.445	6238
305.457	6174
305.512	7386
305.535	7287
305.567	7101
305.622	7528
305.626	7690
305.678	13215
305.716	23464
305.733	26569
305.788	33638
305.807	29604
305.843	23247
305.897	26079
305.898	26075
305.953	26827
305.988	19221
306.008	15388
306.063	10486
306.078	9589
306.118	7553
306.168	5002
306.173	4803
306.228	4269
306.259	3661
306.283	3291
306.338	3861
306.349	3990
306.393	4758
306.440	5568
306.448	5649
306.503	5472
306.530	5602
306.558	7189
306.613	14106
306.620	15284
306.668	24061
306.711	31114
306.723	31070
306.778	25818
306.801	20202
306.833	14246
306.888	7278
306.892	7016
306.943	5624
306.982	4725
306.997	4527
307.052	4048
307.072	4197
307.107	4692
307.162	5359
307.163	5374
307.217	7975
307.253	9832
307.272	10404
307.327	11166
307.343	10813
307.381	10087
307.434	9445
307.436	9699
307.491	17217
307.524	24495
307.546	26474
307.600	29520
307.614	27570
307.655	18626
307.704	9267
307.710	8939
307.765	10266
307.795	12037
307.819	13719
307.874	19510
307.885	19726
307.929	18219
307.975	16062
307.984	16688
308.038	23322
308.065	28334
308.093	49518
308.148	98787
308.156	108593
308.202	155626
308.246	193573
308.257	188142
308.312	112465
308.336	80679
308.366	62073
308.421	39413
308.426	37216
308.475	25274
308.517	17531
308.530	16477
308.585	14349
308.607	13677
308.639	13782
308.694	14870
308.697	14974
308.748	20715
308.787	26700
308.803	27022
308.857	25008
308.877	23035
308.912	22321
308.967	23017
308.967	23025
309.021	35184
309.058	44734
309.076	56191
309.130	94425
309.148	108111
309.185	163387
309.238	250459
309.239	251427
309.293	274620
309.328	269077
309.348	238712
309.402	134377
309.418	106368
309.457	79192
309.508	51175
309.511	51005
309.566	52679
309.598	54900
309.620	68916
309.674	108235
309.688	118616
309.729	110596
309.778	91794
309.783	89594
309.837	58984
309.868	43185
309.892	46951
309.946	58349
309.959	61854
310.001	73666
310.049	85838
310.055	82940
310.109	50461
310.139	31598
310.163	25957
310.218	16690
310.229	14953
310.272	12114
310.319	9715
310.326	9491
310.381	7974
310.409	7229
310.435	7186
310.489	7235
310.499	7251
310.543	7240
310.589	7125
310.598	7119
310.652	7401
310.679	7355
310.706	6929
310.760	5838
310.769	5683
310.814	5622
310.859	5768
310.868	5801
310.923	5513
310.948	5549
310.977	6293
311.031	7666
311.038	7845
311.085	7546
311.128	7047
311.139	7012
311.193	6762
311.218	6687
311.247	6589
311.301	6233
311.308	6186
311.356	6268
311.398	6354
311.410	6274
311.464	5700
311.488	5452
311.518	5590
311.572	5863
311.578	5874
311.626	9339
311.668	12469
311.680	12003
311.734	9540
311.758	8436
311.788	8037
311.842	7268
311.847	7175
311.896	9773
311.937	11987
311.950	11823
312.004	10981
312.027	10561
312.058	9785
312.112	8375
312.117	8214
312.165	7494
312.207	6848
312.297	8606
312.386	6444
312.476	9466
312.566	19590
312.656	10302
312.745	5373
312.835	7103
312.925	7805
313.015	6280
313.104	6516
313.194	7260
313.284	7122
313.374	12736
313.463	10302
313.553	7006
313.643	6118
313.732	5935
313.822	6331
313.912	7575
314.001	8295
314.091	8492
314.180	9494
314.270	11958
314.360	11405
314.449	10766
314.539	6354
314.628	6494
314.718	7275
314.808	8719
314.897	6585
314.987	7823
315.076	9575
315.166	12393
315.255	8902
315.345	11194
315.434	8964
315.524	8384
315.613	10388
315.703	15711
315.792	18009
315.881	40093
315.971	16010
316.060	19451
316.150	17319
316.239	17147
316.328	7979
316.418	6864
316.507	7822
316.597	11169
316.686	9567
316.775	10669
316.865	15421
316.954	7472
317.043	5602
317.133	7308
317.222	6699
317.311	6833
317.400	5325
317.490	10980
317.579	12360
317.668	9063
317.757	13803
317.847	25539
317.936	71277
318.025	38784
318.114	21698
318.203	15981
318.293	20762
318.382	42509
318.471	31193
318.560	35372
318.649	48873
318.738	13723
318.828	12018
318.917	13433
319.006	10951
319.095	24869
319.184	66815
319.273	46637
319.362	30275
319.451	11601
319.540	10833
319.629	25586
319.718	42233
319.807	16875
319.896	26178
319.985	83165
320.074	35807
320.163	10266
320.252	12406
320.341	12297
320.430	11036
320.519	21120
320.608	11442
320.697	11504
320.786	9510
320.875	14298
320.964	19466
321.053	29941
321.142	41678
321.230	43616
321.319	28612
321.408	68804
321.497	27272
321.586	28687
321.675	22312
321.764	24246
321.852	16262
321.941	41378
322.030	27342
322.119	27092
322.207	70287
322.296	31940
322.385	19938
322.474	28700
322.562	87349
322.651	41804
322.740	31032
322.829	40392
322.917	27616
323.006	22973
323.095	22214
323.183	13088
323.272	22557
323.361	30772
323.449	67034
323.538	24657
323.626	48958
323.715	29142
323.804	14381
323.892	43642
323.981	30544
324.069	11554
324.158	20219
324.246	20770
324.335	14820
324.424	28789
324.512	11003
324.601	16582
324.689	27882
324.778	47043
324.866	21508
324.954	8779
325.043	9218
325.131	14286
325.220	17150
325.308	20080
325.397	17872
325.485	12488
325.574	6896
325.662	7864
325.750	9452
325.839	7670
325.927	6384
326.015	9159
326.104	8465
326.192	10932
326.280	6134
326.369	7472
326.457	12921
326.545	24546
326.634	9751
326.722	6086
326.810	6958
326.898	7539
326.987	7705
327.075	19970
327.163	16167
327.251	8752
327.340	18430
327.428	26972
327.516	7630
327.604	6988
327.692	6438
327.781	5804
327.869	7702
327.957	8109
328.045	9691
328.133	5762
328.221	5965
328.309	7239
328.397	6679
328.485	10814
328.574	13641
328.662	48621
328.750	20684
328.838	7296
328.926	5817
329.014	7048
329.102	10132
329.190	20763
329.278	15654
329.366	6015
329.454	4774
329.542	5568
329.630	5702
329.718	6158
329.806	9618
329.893	8865
329.981	8747
330.069	17968
330.157	57100
330.245	154056
330.333	85219
330.421	19435
330.509	16694
330.597	59544
330.684	35144
330.772	11563
330.860	10628
330.948	14398
331.036	7684
331.123	4804
331.211	4722
331.299	7187
331.387	12387
331.475	21670
331.562	8525
331.650	5608
331.738	6066
331.825	6773
331.913	4263
332.001	6086
332.089	6183
332.176	9843
332.264	18881
332.352	17535
332.439	8124
332.527	6371
332.614	4387
332.702	6767
332.790	6868
332.877	13938
332.965	26595
333.052	15102
333.140	16678
333.228	44861
333.315	12157
333.403	8266
333.490	14328
333.578	21571
333.665	62724
333.753	26410
333.840	7959
333.928	9178
334.015	14842
334.103	24262
334.190	70439
334.278	21116
334.365	12159
334.452	11798
334.540	6666
334.627	8449
334.715	11093
334.802	19339
334.889	69604
334.977	72910
335.064	17668
335.151	10460
335.239	9109
335.326	11510
335.413	39027
335.501	50866
335.588	11098
335.675	9224
335.762	9314
335.850	14656
335.937	14518
336.024	28697
336.111	85843
336.199	45632
336.286	13777
336.373	8993
336.460	6512
336.547	7498
336.635	8437
336.722	9167
336.809	6421
336.896	12477
336.983	28741
337.070	59666
337.157	76539
337.245	47254
337.332	30397
337.419	7343
337.506	5430
337.593	8419
337.680	18360
337.767	51930
337.854	17814
337.941	19651
338.028	21689
338.115	9684
338.202	10566
338.289	16678
338.376	46516
338.463	18529
338.550	30638
338.637	31807
338.724	11435
338.811	15270
338.898	5628
338.984	5773
339.071	7336
339.158	9539
339.245	26509
339.332	17182
339.419	13006
339.506	12460
339.593	4499
339.679	6870
339.766	6515
339.853	9085
339.940	21357
340.027	7872
340.113	8901
340.200	12253
340.287	7688
340.374	12123
340.460	19770
340.547	10753
340.634	15208
340.720	53532
340.807	29795
340.894	7236
340.980	6856
341.067	7445
341.154	8554
341.240	14878
341.327	29099
341.414	12929
341.500	15563
341.587	8650
341.674	6407
341.760	20298
341.847	23087
341.933	8637
342.020	3728
342.106	5310
342.193	8068
342.279	16884
342.366	12429
342.452	20689
342.539	11329
342.625	27132
342.712	58886
342.798	25588
342.885	9972
342.971	4968
343.058	4486
343.144	5772
343.230	5054
343.317	8427
343.403	6433
343.490	4827
343.576	4116
343.662	6341
343.749	7319
343.835	9314
343.921	16496
344.008	79333
344.094	165785
344.180	40958
344.267	18549
344.353	48747
344.439	49323
344.525	28695
344.612	13627
344.698	11475
344.784	6788
344.870	7116
344.957	7634
345.043	12020
345.129	9474
345.215	21281
345.301	13671
345.387	9679
345.474	4037
345.560	5020
345.646	4966
345.732	5830
345.818	10131
345.904	8674
345.990	8017
346.076	7812
346.162	11854
346.249	8522
346.335	5657
346.421	6988
346.507	21060
346.593	68726
346.679	17081
346.765	7351
346.851	6503
346.937	7550
347.023	6808
347.108	8313
347.194	7089
347.280	7803
347.366	9564
347.452	25717
347.538	84171
347.624	64231
347.710	49819
347.796	9882
347.882	6183
347.967	6181
348.053	6532
348.139	6109
348.225	5337
348.311	6408
348.397	5290
348.482	8363
348.568	10253
348.654	5889
348.740	8941
348.825	8815
348.911	13137
348.997	39102
349.083	70923
349.168	13765
349.254	9379
349.340	10370
349.425	5500
349.511	10243
349.597	10048
349.682	20665
349.768	56360
349.854	25940
349.939	6010
350.025	5940
350.110	4766
350.196	6594
350.282	4979
350.367	5732
350.453	7449
350.538	8777
350.624	10322
350.709	8950
350.795	5302
350.880	6867
350.966	8110
351.051	10274
351.137	6163
351.222	8295
351.308	21955
351.393	56608
351.479	18206
351.564	8369
351.649	6649
351.735	5826
351.820	4371
351.906	6858
351.991	8618
352.076	35668
352.162	52493
352.247	12944
352.332	10141
352.418	22202
352.503	25814
352.588	83973
352.673	67611
352.759	17973
352.844	8994
352.929	11256
353.014	14196
353.100	10681
353.185	16213
353.270	24655
353.355	23573
353.441	8692
353.526	7509
353.611	19658
353.696	24352
353.781	14747
353.866	7118
353.952	9279
354.037	21335
354.122	47032
354.207	41001
354.292	16089
354.377	7952
354.462	7612
354.547	9889
354.632	9285
354.717	13247
354.802	18951
354.887	8459
354.972	6253
355.057	5293
355.142	5493
355.227	8458
355.312	14555
355.397	31376
355.482	72257
355.567	34434
355.652	25582
355.737	25480
355.822	63761
355.907	50352
355.991	11632
356.076	6706
356.161	7378
356.246	6662
356.331	8391
356.416	16534
356.501	89621
356.585	92713
356.670	20432
356.755	14060
356.840	20098
356.924	75786
357.009	233222
357.094	91649
357.179	26990
357.263	17149
357.348	17525
357.433	15989
357.517	16426
357.602	12785
357.687	11493
357.771	19918
357.856	64566
357.941	36915
358.025	57544
358.110	212776
358.195	104427
358.279	22826
358.364	18819
358.448	53578
358.533	133904
358.617	97085
358.702	92537
358.787	35828
358.871	25516
358.956	20139
359.040	8550
359.125	6743
359.209	8924
359.294	31733
359.378	53005
359.462	22848
359.547	12758
359.631	7324
359.716	7201
359.800	7088
359.885	10586
359.969	8904
360.053	8176
360.138	7274
360.222	13311
360.306	23187
360.391	17962
360.475	37014
360.559	79227
360.644	56242
360.728	39063
360.812	53928
360.896	134138
360.981	64203
361.065	37873
361.149	12661
361.233	12638
361.318	9478
361.402	11779
361.486	9839
361.570	8989
361.654	11602
361.739	27452
361.823	93693
361.907	135718
361.991	31186
362.075	20471
362.159	43681
362.243	32038
362.327	31773
362.411	38902
362.495	18262
362.580	11597
362.664	8211
362.748	8468
362.832	11908
362.916	20053
363.000	60407
363.084	145491
363.168	166567
363.252	46156
363.336	19951
363.420	22987
363.503	57273
363.587	64187
363.671	17398
363.755	15024
363.839	21924
363.923	11448
364.007	24005
364.091	25408
364.175	26178
364.258	94991
364.342	88308
364.426	125104
364.510	67751
364.594	31180
364.677	31959
364.761	120286
364.845	82297
364.929	40581
365.013	32600
365.096	27187
365.180	30556
365.264	27174
365.347	84513
365.431	36540
365.515	13847
365.598	10931
365.682	9115
365.766	11982
365.849	13741
365.933	11288
366.017	11888
366.100	8598
366.184	5284
366.267	7628
366.351	7322
366.435	6680
366.518	5791
366.602	6575
366.685	6861
366.769	10056
366.852	12174
366.936	24224
367.019	15425
367.103	10224
367.186	14830
367.270	8078
367.353	5523
367.436	8574
367.520	6355
367.603	10815
367.687	15156
367.770	27959
367.853	15186
367.937	39701
368.020	61896
368.104	18608
368.187	19486
368.270	31692
368.353	25637
368.437	24141
368.520	32423
368.603	30833
368.687	49203
368.770	88285
368.853	23825
368.936	25010
369.020	20130
369.103	11061
369.186	8179
369.269	9908
369.352	19053
369.436	24668
369.519	15180
369.602	8906
369.685	9953
369.768	10963
369.851	7911
369.934	8186
370.018	9407
370.101	23040
370.184	17385
370.267	12795
370.350	23575
370.433	30800
370.516	66504
370.599	79826
370.682	31620
370.765	62047
370.848	64485
370.931	102886
371.014	38371
371.097	12836
371.180	11536
371.263	8493
371.346	6926
371.429	9191
371.511	9273
371.594	18235
371.677	23645
371.760	22547
371.843	24486
371.926	90875
372.009	186079
372.091	72264
372.174	48737
372.257	93403
372.340	41241
372.423	34159
372.505	32848
372.588	19003
372.671	38989
372.754	106046
372.836	52834
372.919	33475
373.002	55386
373.085	26328
373.167	25892
373.250	54301
373.332	95536
373.415	125597
373.498	242616
373.580	96872
373.663	122543
373.746	157162
373.828	43678
373.911	21102
373.993	19070
374.076	51886
374.159	46425
374.241	30830
374.324	93985
374.406	62758
374.489	72504
374.571	192656
374.654	81957
374.736	43954
374.819	119256
374.901	171776
374.983	171085
375.066	36411
375.148	14906
375.231	43455
375.313	77841
375.395	34106
375.478	11272
375.560	9794
375.643	13646
375.725	39707
375.807	145148
375.890	103614
375.972	36811
376.054	26426
376.136	26585
376.219	16405
376.301	44666
376.383	125717
376.465	50379
376.548	41484
376.630	42752
376.712	111755
376.794	51155
376.877	9865
376.959	6566
377.041	8730
377.123	11992
377.205	14320
377.287	6163
377.369	8157
377.452	7164
377.534	7831
377.616	7632
377.698	7456
377.780	6446
377.862	9354
377.944	8645
378.026	5692
378.108	5948
378.190	6426
378.272	6908
378.354	5568
378.436	5183
378.518	10586
378.600	30029
378.682	30265
378.764	69161
378.846	50645
378.928	16623
379.010	28970
379.091	14721
379.173	8283
379.255	7320
379.337	11506
379.419	33975
379.501	92478
379.583	35125
379.664	12948
379.746	27727
379.828	71166
379.910	91004
379.991	76525
380.073	14956
380.155	12004
380.237	9039
380.318	8316
380.400	8969
380.482	18554
380.564	27815
380.645	29042
380.727	26688
380.809	17115
380.890	12342
380.972	9752
381.053	9782
381.135	12107
381.217	27644
381.298	76266
381.380	38253
381.461	30773
381.543	114801
381.624	135853
381.706	30650
381.787	19708
381.869	20406
381.951	55734
382.032	183726
382.113	121690
382.195	34757
382.276	26661
382.358	47935
382.439	108843
382.521	117912
382.602	174964
382.684	93250
382.765	172910
382.846	247815
382.928	445025
383.009	247710
383.090	177120
383.172	524440
383.253	703437
383.334	260691
383.416	191996
383.497	109317
383.578	81597
383.659	151121
383.741	448094
383.822	894138
383.903	494996
383.984	186495
384.066	225291
384.147	139293
384.228	42338
384.309	32679
384.390	26719
384.471	19833
384.553	22984
384.634	26739
384.715	27979
384.796	16040
384.877	21407
384.958	67017
385.039	82823
385.120	34601
385.201	18044
385.282	18950
385.363	19492
385.444	19885
385.525	31881
385.606	84913
385.687	68601
385.768	21383
385.849	26691
385.930	95517
386.011	152409
386.092	45340
386.173	15652
386.254	10837
386.335	12481
386.416	14060
386.496	45556
386.577	68620
386.658	23996
386.739	15196
386.820	12899
386.901	9586
386.981	11991
387.062	8591
387.143	18853
387.224	67173
387.304	61115
387.385	24309
387.466	15770
387.547	17122
387.627	14822
387.708	26386
387.789	108894
387.869	125295
387.950	34871
388.031	9100
388.111	7287
388.192	14886
388.273	21361
388.353	15285
388.434	12292
388.514	23504
388.595	91379
388.676	125552
388.756	68361
388.837	69484
388.917	42721
388.998	9262
389.078	10786
389.159	8250
389.239	8769
389.320	15695
389.400	13561
389.480	23792
389.561	64496
389.641	32839
389.722	15711
389.802	24412
389.883	29296
389.963	70533
390.043	42359
390.124	13890
390.204	27884
390.284	81903
390.365	49598
390.445	43650
390.525	124229
390.605	117817
390.686	45695
390.766	17645
390.846	10614
390.927	7423
391.007	8553
391.087	10319
391.167	11105
391.247	8017
391.328	10825
391.408	14708
391.488	11653
391.568	5658
391.648	13013
391.728	18880
391.808	18335
391.888	17356
391.969	39763
392.049	60754
392.129	25522
392.209	29072
392.289	71664
392.369	36919
392.449	26373
392.529	19522
392.609	19229
392.689	23076
392.769	71286
392.849	59349
392.929	41120
393.009	94244
393.089	77460
393.169	68845
393.248	201098
393.328	653739
393.408	676905
393.488	210477
393.568	68721
393.648	34527
393.728	24045
393.807	18149
393.887	16844
393.967	15815
394.047	19856
394.127	23101
394.206	36763
394.286	109610
394.366	416680
394.446	438321
394.525	121956
394.605	36868
394.685	26434
394.764	39184
394.844	61785
394.924	45471
395.003	21302
395.083	14867
395.163	14240
395.242	13193
395.322	14728
395.402	10158
395.481	14772
395.561	27554
395.640	75225
395.720	67806
395.799	75271
395.879	60463
395.958	52494
396.038	165480
396.117	534979
396.197	572460
396.276	200012
396.356	69114
396.435	45535
396.515	33750
396.594	41193
396.673	67419
396.753	213740
396.832	605284
396.912	466849
396.991	130063
397.070	40459
397.150	23104
397.229	17603
397.308	23592
397.388	43897
397.467	20926
397.546	11083
397.625	7880
397.705	14008
397.784	14941
397.863	9324
397.942	6002
398.022	7302
398.101	19359
398.180	54779
398.259	27758
398.338	11899
398.417	10572
398.497	7122
398.576	7905
398.655	5650
398.734	5917
398.813	5957
398.892	18593
398.971	59670
399.050	28657
399.129	6009
399.208	4995
399.287	5579
399.366	4277
399.445	4688
399.524	5150
399.603	5492
399.682	11182
399.761	28375
399.840	66185
399.919	48485
399.998	8064
400.077	4502
400.156	3905
400.235	6916
400.313	3446
400.392	7640
400.471	38709
400.550	63620
400.629	15671
400.708	7927
400.786	5010
400.865	13580
400.944	17207
401.023	11852
401.102	3474
401.180	4091
401.259	3989
401.338	5279
401.416	8102
401.495	7123
401.574	4933
401.652	5411
401.731	8143
401.810	6919
401.888	4100
401.967	3716
402.046	4614
402.124	8119
402.203	9115
402.281	6114
402.360	7565
402.438	18580
402.517	11018
402.596	5803
402.674	4652
402.753	4496
402.831	3980
402.910	6370
402.988	23475
403.066	81823
403.145	45413
403.223	27780
403.302	73186
403.380	54533
403.459	56322
403.537	22740
403.615	7933
403.694	3287
403.772	3553
403.850	4305
403.929	3367
404.007	3650
404.085	11522
404.164	14281
404.242	4726
404.320	6868
404.398	14632
404.477	33290
404.555	137893
404.633	118096
404.711	20107
404.789	8677
404.868	6117
404.946	4839
405.024	3601
405.102	2196
405.180	3442
405.258	2762
405.336	3504
405.415	4177
405.493	8511
405.571	10370
405.649	3940
405.727	3983
405.805	6839
405.883	8042
405.961	6796
406.039	6580
406.117	4003
406.195	9564
406.273	35101
406.351	127302
406.429	70617
406.507	11266
406.585	5229
406.663	6928
406.740	9110
406.818	7217
406.896	3065
406.974	5861
407.052	12638
407.130	76367
407.208	104245
407.285	21682
407.363	4623
407.441	5798
407.519	3585
407.596	5726
407.674	11473
407.752	30069
407.830	27347
407.907	13366
407.985	6133
408.063	4341
408.141	2483
408.218	6367
408.296	6259
408.373	6619
408.451	7296
408.529	7148
408.606	2951
408.684	3121
408.762	2655
408.839	2424
408.917	3124
408.994	3682
409.072	3374
409.149	4369
409.227	7179
409.304	10121
409.382	7619
409.459	8810
409.537	11819
409.614	11779
409.692	7196
409.769	7470
409.846	12451
409.924	16580
410.001	11320
410.079	8946
410.156	5813
410.233	5611
410.311	4980
410.388	4237
410.465	5893
410.543	5959
410.620	4237
410.697	6289
410.775	6796
410.852	3447
410.929	6907
411.006	10769
411.083	5822
411.161	13439
411.238	13170
411.315	6572
411.392	3444
411.469	8459
411.547	8132
411.624	4882
411.701	4084
411.778	6147
411.855	12609
411.932	8165
412.009	3084
412.086	3858
412.163	4424
412.240	4843
412.317	5666
412.394	6338
412.471	2895
412.548	3582
412.625	3474
412.702	5123
412.779	10243
412.856	7196
412.933	2141
413.010	3842
413.087	6471
413.164	39605
413.241	52998
413.318	13986
413.395	8613
413.471	14105
413.548	5695
413.625	4615
413.702	5167
413.779	3487
413.855	1881
413.932	1909
414.009	1172
414.086	2870
414.162	3128
414.239	6424
414.316	34312
414.393	80240
414.469	27593
414.546	4774
414.623	2374
414.699	3525
414.776	4487
414.853	4242
414.929	3656
415.006	3643
415.082	4330
415.159	3573
415.236	2467
415.312	3980
415.389	9906
415.465	13060
415.542	6242
415.618	4674
415.695	8985
415.771	6455
415.848	4337
415.924	4630
416.000	2260
416.077	3810
416.153	1781
416.230	858
416.306	762
416.383	2590
416.459	1523
416.535	2330
416.612	1949
416.688	2490
416.764	3372
416.841	3555
416.917	3374
416.993	3752
417.069	5047
417.146	6599
417.222	9594
417.298	6950
417.374	3521
417.451	4961
417.527	6549
417.603	7367
417.679	5241
417.755	4865
417.831	2473
417.908	3016
417.984	2226
418.060	2143
418.136	11415
418.212	14930
418.288	5055
418.364	3903
418.440	3456
418.516	7084
418.592	6908
418.668	16532
418.744	27702
418.820	21525
418.896	4398
418.972	2483
419.048	3302
419.124	13967
419.200	9725
419.276	3238
419.352	1210
419.428	2456
419.504	4046
419.579	6687
419.655	3991
419.731	6018
419.807	17427
419.883	32744
419.959	20470
420.034	6590
420.110	11426
420.186	51439
420.262	37823
420.337	6896
420.413	5476
420.489	3979
420.565	3432
420.640	4299
420.716	4047
420.792	2497
420.867	4038
420.943	3806
421.019	9423
421.094	8455
421.170	4472
421.245	3213
421.321	4293
421.397	5068
421.472	7646
421.548	17449
421.623	16142
421.699	9127
421.774	8178
421.850	8065
421.925	13439
422.001	12716
422.076	10781
422.152	13320
422.227	20206
422.302	24961
422.378	33978
422.453	63113
422.529	140741
422.604	331575
422.679	437958
422.755	351383
422.830	157120
422.905	68710
422.981	36566
423.056	24924
423.131	17899
423.207	15316
423.282	14794
423.357	23109
423.432	16143
423.508	14107
423.583	31990
423.658	23714
423.733	8716
423.808	9341
423.883	10930
423.959	9156
424.034	7988
424.109	6801
424.184	4000
424.259	3851
424.334	3457
424.409	3542
424.484	3955
424.559	5518
424.634	4071
424.709	7340
424.784	7947
424.859	5002
424.934	9130
425.009	38700
425.084	60523
425.159	21891
425.234	4241
425.309	3453
425.384	20117
425.459	35055
425.534	9868
425.609	3558
425.683	2357
425.758	4039
425.833	2648
425.908	5939
425.983	23360
426.058	65618
426.132	25722
426.207	5747
426.282	5547
426.357	4757
426.431	2889
426.506	3125
426.581	2894
426.655	3691
426.730	3183
426.805	3595
426.879	4661
426.954	4358
427.029	9316
427.103	52990
427.178	115823
427.253	49067
427.327	6878
427.402	11159
427.476	33536
427.551	16672
427.625	4649
427.700	4332
427.774	2041
427.849	3855
427.923	2099
427.998	2833
428.072	2730
428.147	9606
428.221	41337
428.296	112930
428.370	56178
428.444	8221
428.519	6764
428.593	13339
428.667	10227
428.742	13451
428.816	15069
428.890	69669
428.965	116946
429.039	38550
429.113	16293
429.188	7122
429.262	4366
429.336	9674
429.410	29937
429.485	18234
429.559	11045
429.633	9494
429.707	4365
429.781	13197
429.855	72050
429.930	114544
430.004	47208
430.078	56234
430.152	59216
430.226	132213
430.300	130122
430.374	22829
430.448	9308
430.522	19718
430.596	53789
430.670	40159
430.744	121838
430.818	169464
430.892	35274
430.966	7551
431.040	4069
431.114	2844
431.188	2029
431.262	2165
431.336	2329
431.410	7856
431.484	18562
431.557	15563
431.631	3753
431.705	5188
431.779	21008
431.853	96441
431.927	64304
432.000	8299
432.074	3113
432.148	3374
432.222	3238
432.295	2757
432.369	3008
432.443	7051
432.516	42897
432.590	110369
432.664	40307
432.737	5906
432.811	1752
432.885	1890
432.958	1451
433.032	1347
433.106	825
433.179	1704
433.253	1149
433.326	1250
433.400	109
433.473	1812
433.547	768
433.620	2515
433.694	7898
433.767	7722
433.841	1841
433.914	2416
433.988	1976
434.061	2373
434.134	1982
434.208	1391
434.281	604
434.355	2383
434.428	2187
434.501	3243
434.575	795
434.648	1543
434.721	927
434.795	1635
434.868	1176
434.941	1085
435.014	1143
435.088	2961
435.161	4898
435.234	10818
435.307	11322
435.381	6176
435.454	4246
435.527	6038
435.600	5994
435.673	4512
435.746	3636
435.819	3415
435.892	2155
435.966	2911
436.039	1832
436.112	2147
436.185	1466
436.258	1316
436.331	146
436.404	1740
436.477	535
436.550	1796
436.623	984
436.696	1919
436.769	2029
436.842	3001
436.915	1617
436.987	3616
437.060	1978
437.133	1384
437.206	720
437.279	2184
437.352	1466
437.425	2655
437.498	3731
437.570	9839
437.643	8737
437.716	2776
437.789	1295
437.861	6660
437.934	19475
438.007	9892
438.080	2343
438.152	3836
438.225	8270
438.298	56190
438.370	147181
438.443	64441
438.516	18948
438.588	5333
438.661	1425
438.734	2235
438.806	2540
438.879	4712
438.951	5474
439.024	11035
439.096	3519
439.169	2499
439.241	1536
439.314	1325
439.386	1986
439.459	5207
439.531	8165
439.604	4285
439.676	1655
439.749	1265
439.821	376
439.893	2279
439.966	1237
440.038	4385
440.110	3838
440.183	3198
440.255	2012
440.327	5179
440.400	24207
440.472	101751
440.544	64327
440.617	10121
440.689	7949
440.761	11301
440.833	16059
440.905	10850
440.978	1821
441.050	1937
441.122	1534
441.194	1391
441.266	1140
441.338	2708
441.411	5477
441.483	39872
441.555	56614
441.627	12337
441.699	5627
441.771	5623
441.843	1991
441.915	1845
441.987	1487
442.059	2077
442.131	2722
442.203	5622
442.275	5812
442.347	7194
442.419	8924
442.491	52971
442.563	123626
442.635	50208
442.706	24070
442.778	20598
442.850	4207
442.922	3250
442.994	2640
443.066	6154
443.137	4556
443.209	4680
443.281	6501
443.353	16083
443.425	62938
443.496	219486
443.568	209844
443.640	74550
443.711	14849
443.783	6991
443.855	3583
443.926	3102
443.998	2510
444.070	3983
444.141	3916
444.213	7826
444.285	9887
444.356	6420
444.428	4237
444.499	3112
444.571	502
444.642	2341
444.714	3560
444.785	7770
444.857	7017
444.928	11825
445.000	7120
445.071	8271
445.143	11389
445.214	10900
445.285	13813
445.357	38933
445.428	140581
445.500	308795
445.571	194571
445.642	105314
445.714	33822
445.785	24734
445.856	9726
445.928	11378
445.999	8857
446.070	7153
446.141	8128
446.213	11532
446.284	4760
446.355	4026
446.426	3016
446.497	2507
446.569	4248
446.640	9660
446.711	7490
446.782	3040
446.853	2694
446.924	5218
446.995	3727
447.066	3802
447.138	4284
447.209	3791
447.280	997
447.351	1575
447.422	732
447.493	3044
447.564	4287
447.635	8637
447.706	3020
447.777	1877
447.847	737
447.918	1658
447.989	3238
448.060	4623
448.131	8184
448.202	10568
448.273	8685
448.344	3648
448.414	1828
448.485	2304
448.556	1649
448.627	1672
448.698	1588
448.768	1208
448.839	1895
448.910	4287
448.981	4569
449.051	3579
449.122	1132
449.193	2579
449.263	1260
449.334	2444
449.405	4050
449.475	13118
449.546	7677
449.616	6734
449.687	4872
449.758	3218
449.828	2158
449.899	3130
449.969	2110
450.040	1629
450.110	3271
450.181	3496
450.251	1454
450.322	1795
450.392	1901
450.463	2859
450.533	1387
450.604	2148
450.674	2025
450.744	3416
450.815	1523
450.885	1942
450.955	1225
451.026	2406
451.096	1001
451.166	2530
451.237	4922
451.307	13395
451.377	5956
451.447	2432
451.518	1258
451.588	1589
451.658	1789
451.728	3752
451.799	12039
451.869	14590
451.939	4265
452.009	2767
452.079	1324
452.149	2079
452.219	3342
452.289	15087
452.360	10695
452.430	3757
452.500	2597
452.570	6369
452.640	6615
452.710	17783
452.780	23662
452.850	22508
452.920	22088
452.990	7390
453.060	3577
453.129	6225
453.199	5597
453.269	18436
453.339	38006
453.409	57633
453.479	54215
453.549	78528
453.619	81950
453.688	34632
453.758	5995
453.828	3629
453.898	2834
453.968	2043
454.037	1588
454.087	2045
454.107	2228
454.168	1383
454.177	1252
454.247	2502
454.249	2438
454.316	657
454.330	1051
454.386	2558
454.411	4339
454.456	7148
454.492	9676
454.525	11926
454.574	7109
454.595	5033
454.655	3099
454.665	2812
454.734	2516
454.736	2613
454.804	5652
454.817	7292
454.873	13619
454.898	14535
454.943	15983
454.979	10841
455.013	6253
455.060	4429
455.082	3821
455.141	3778
455.152	3643
455.221	10394
455.222	10511
455.291	16747
455.303	15442
455.360	9823
455.384	9230
455.430	8238
455.465	7683
455.499	7007
455.546	10642
455.569	12031
455.627	10015
455.638	9732
455.707	2312
455.708	2316
455.777	1967
455.789	1963
455.846	1819
455.869	1849
455.916	1871
455.950	1967
455.985	2046
456.031	2295
456.054	2400
456.112	1931
456.124	1877
456.193	2308
456.193	2299
456.262	1615
456.274	1953
456.332	3598
456.355	3433
456.401	2798
456.436	2826
456.470	2902
456.516	1748
456.540	1142
456.597	1636
456.609	1781
456.678	1730
456.678	1722
456.747	1991
456.759	1764
456.817	1052
456.840	1496
456.886	2080
456.920	1759
456.955	1581
457.001	2226
457.024	2618
457.082	3127
457.093	3256
457.162	5178
457.163	5195
457.232	3783
457.243	3717
457.301	3390
457.324	2475
457.370	1112
457.405	1551
457.439	2130
457.485	2510
457.508	2547
457.566	2707
457.577	2828
457.646	3225
457.647	3247
457.715	5651
457.727	6242
457.784	9557
457.808	12352
457.853	16619
457.889	19964
457.922	20736
457.969	13502
457.991	12570
458.050	14879
458.060	15209
458.129	26425
458.130	26730
458.198	31212
458.211	28123
458.267	15371
458.292	11019
458.336	6240
458.372	5461
458.405	6844
458.453	10568
458.474	13083
458.533	24455
458.543	25667
458.611	47218
458.614	47348
458.680	32575
458.694	26236
458.749	10584
458.775	7867
458.818	4681
458.855	3828
458.887	3246
458.936	3143
458.955	3169
459.016	2910
459.024	2866
459.093	3134
459.097	3128
459.162	2758
459.177	2914
459.230	4167
459.257	4663
459.299	4993
459.338	4861
459.368	4484
459.418	4966
459.437	5019
459.499	4045
459.505	4035
459.574	2695
459.579	2741
459.643	3197
459.659	3107
459.711	3090
459.740	3357
459.780	3657
459.820	3794
459.849	3685
459.900	3609
459.917	3675
459.981	4183
459.986	4224
460.054	4595
460.061	4641
460.123	5004
460.141	5033
460.191	5621
460.222	6088
460.260	6479
460.302	8334
460.328	8699
460.382	6794
460.397	6445
460.462	4772
460.465	4779
460.534	5628
460.543	5852
460.602	12443
460.623	14871
460.671	20949
460.703	29301
460.739	30712
460.783	26085
460.808	22472
460.864	7089
460.876	5537
460.944	3717
460.945	3691
461.013	3601
461.024	3533
461.081	3754
461.104	4387
461.150	4957
461.184	4223
461.218	3546
461.264	3339
461.286	3289
461.345	2850
461.355	2813
461.423	3219
461.425	3210
461.491	3061
461.505	3218
461.559	6128
461.585	7254
461.628	10632
461.665	14817
461.696	16492
461.745	20090
461.764	18236
461.825	7768
461.832	7577
461.901	4777
461.905	4765
461.969	3943
461.985	3635
462.037	3529
462.065	3756
462.105	3931
462.145	4031
462.173	5331
462.225	7905
462.241	8570
462.305	12303
462.310	12094
462.378	8685
462.385	7940
462.446	4488
462.465	3890
462.514	4023
462.545	4232
462.582	3934
462.625	3859
462.650	3803
462.705	2912
462.718	3003
462.785	4262
462.786	4284
462.854	4707
462.865	4969
462.922	6429
462.945	7039
462.990	5711
463.025	4129
463.058	3921
463.104	3435
463.126	3183
463.184	3283
463.194	3384
463.262	3385
463.264	3417
463.330	4051
463.344	3988
463.398	4454
463.424	4914
463.466	4502
463.504	3934
463.533	4234
463.583	5023
463.601	5120
463.663	4875
463.669	4865
463.737	5422
463.743	5445
463.805	8824
463.823	9882
463.873	14287
463.903	17004
463.940	17616
463.982	19058
464.008	16153
464.062	7925
464.076	7407
464.142	4090
464.144	4045
464.211	3684
464.221	3715
464.279	4177
464.301	4174
464.347	4352
464.381	4859
464.414	5258
464.461	5451
464.482	5881
464.540	7426
464.550	7329
464.617	5989
464.620	5960
464.685	7106
464.699	7200
464.753	7857
464.779	8380
464.820	9016
464.859	9576
464.888	9006
464.938	7685
464.956	8045
465.018	9605
465.023	9473
465.091	7559
465.098	7342
465.158	7439
465.177	7543
465.226	7354
465.257	7163
465.293	7127
465.336	7027
465.361	7667
465.416	9109
465.428	9492
465.495	12003
465.496	12049
465.563	16933
465.575	17874
465.631	21330
465.654	22928
465.698	15648
465.734	8818
465.765	8366
465.813	7562
465.833	7018
465.893	6243
465.900	6237
465.968	5847
465.972	5830
466.035	6421
466.052	6526
466.102	7193
466.131	7624
466.170	7253
466.210	6813
466.237	7147
466.290	7815
466.304	7737
466.369	7231
466.372	7275
466.439	8462
466.449	8611
466.506	9538
466.528	9921
466.573	12882
466.607	15015
466.641	19914
466.687	26837
466.708	29338
466.766	36352
466.775	34013
466.842	15911
466.845	15028
466.909	11207
466.925	10386
466.977	9986
467.004	9817
467.044	10068
467.083	10327
467.111	10698
467.163	11334
467.178	11878
467.242	14156
467.245	14128
467.312	13230
467.321	13100
467.379	11617
467.400	11052
467.446	11389
467.480	11612
467.559	11488
467.638	10109
467.717	10107
467.796	11888
467.875	12260
467.955	10566
468.034	13890
468.113	29199
468.192	42571
468.271	13580
468.350	10584
468.429	11847
468.508	13329
468.588	10449
468.667	9310
468.746	10880
468.825	9173
468.904	7556
468.983	9281
469.062	13163
469.141	16269
469.220	7966
469.299	7439
469.378	8286
469.456	11235
469.535	10479
469.614	9597
469.693	9690
469.772	11960
469.851	15386
469.930	12459
470.009	9955
470.088	9711
470.166	13321
470.245	21147
470.324	26004
470.403	16743
470.482	11046
470.560	10138
470.639	9929
470.718	11829
470.797	9113
470.875	10633
470.954	12442
471.033	14098
471.111	7340
471.190	7401
471.269	6497
471.347	6561
471.426	5698
471.505	8945
471.583	10008
471.662	8873
471.740	8030
471.819	8913
471.898	7865
471.976	7666
472.055	6588
472.133	8592
472.212	10538
472.290	10256
472.369	7395
472.447	7873
472.526	6710
472.604	8386
472.683	7686
472.761	9191
472.839	7188
472.918	7633
472.996	7062
473.075	9475
473.153	8866
473.231	7078
473.310	8426
473.388	9049
473.466	7416
473.545	9193
473.623	13695
473.701	12754
473.780	8284
473.858	6597
473.936	9641
474.014	7842
474.093	8688
474.171	12089
474.249	14741
474.327	11059
474.405	7136
474.484	7911
474.562	6781
474.640	7685
474.718	7342
474.796	8637
474.874	7118
474.952	7802
475.030	6524
475.108	8059
475.187	8005
475.265	9573
475.343	13631
475.421	14860
475.499	8422
475.577	7702
475.655	9812
475.733	16098
475.811	28110
475.889	25614
475.966	17478
476.044	6705
476.122	9502
476.200	12664
476.278	10329
476.356	6539
476.434	7028
476.512	9462
476.590	11560
476.667	11088
476.745	6364
476.823	7393
476.901	6852
476.979	7563
477.056	6281
477.134	7221
477.212	8008
477.290	7319
477.367	6385
477.445	6204
477.523	6133
477.601	6346
477.678	6243
477.756	8163
477.834	8547
477.911	6128
477.989	6869
478.066	6579
478.144	7245
478.222	8627
478.299	13808
478.377	13724
478.454	5543
478.532	6571
478.609	5789
478.687	7961
478.764	5745
478.842	7659
478.919	6614
478.997	7582
479.074	5825
479.152	6728
479.229	8227
479.307	6315
479.384	5354
479.461	5798
479.539	5858
479.616	6963
479.694	6429
479.771	7454
479.848	6776
479.926	8454
480.003	10526
480.080	6447
480.157	6437
480.235	5665
480.312	4652
480.389	7118
480.467	9571
480.544	12424
480.621	7114
480.698	7155
480.775	6359
480.853	6874
480.930	5128
481.007	6878
481.084	6787
481.161	7049
481.238	7532
481.315	6063
481.392	5600
481.470	5436
481.547	4986
481.624	6593
481.701	5503
481.778	6275
481.855	6548
481.932	9149
482.009	14672
482.086	11465
482.163	7013
482.240	10438
482.317	17781
482.393	14512
482.470	5854
482.547	6594
482.624	5654
482.701	6963
482.778	5926
482.855	5287
482.932	5639
483.009	5540
483.085	7106
483.162	8056
483.239	8528
483.316	6041
483.393	6140
483.469	6043
483.546	6868
483.623	7414
483.699	6732
483.776	6623
483.853	6717
483.930	8802
484.006	22511
484.083	39793
484.160	24703
484.236	36341
484.313	30359
484.389	21309
484.466	19561
484.543	17373
484.619	19553
484.696	20580
484.772	19908
484.849	20139
484.925	17325
485.002	17781
485.078	17677
485.155	18779
485.231	15960
485.308	16364
485.384	15968
485.461	19041
485.537	29476
485.614	33128
485.690	16411
485.766	15404
485.843	16614
485.919	24470
485.995	25147
486.072	15866
486.148	14383
486.224	14726
486.301	16133
486.377	17185
486.453	17042
486.530	17480
486.606	22758
486.682	25861
486.758	27603
486.835	29248
486.911	23536
486.987	36725
487.063	43986
487.139	58683
487.215	40039
487.292	22024
487.368	17105
487.444	19778
487.520	23627
487.596	23561
487.672	33248
487.748	86270
487.824	130668
487.900	49447
487.976	20140
488.052	18766
488.128	22863
488.204	19405
488.280	15528
488.356	18027
488.432	30752
488.508	45714
488.584	19186
488.660	15350
488.736	15649
488.812	16021
488.888	20709
488.964	27004
489.039	52301
489.115	82209
489.191	49942
489.267	16760
489.343	13611
489.418	13481
489.494	12682
489.570	12145
489.646	13993
489.722	12742
489.797	13215
489.873	17769
489.949	33239
490.024	29564
490.100	12644
490.176	12822
490.251	15056
490.327	20728
490.403	12552
490.478	12251
490.554	9954
490.629	10959
490.705	10641
490.781	11898
490.856	10743
490.932	14073
491.007	13505
491.083	12723
491.158	11839
491.234	15072
491.309	25785
491.385	25934
491.460	11633
491.536	12862
491.611	12586
491.686	14171
491.762	18288
491.837	34235
491.913	57201
491.988	77966
492.063	98401
492.139	27735
492.214	15635
492.289	11245
492.365	9243
492.440	12124
492.515	11445
492.590	11454
492.666	8766
492.741	11990
492.816	17083
492.891	9927
492.967	8669
493.042	7999
493.117	8750
493.192	8641
493.267	11305
493.342	18144
493.418	19651
493.493	9791
493.568	7939
493.643	9002
493.718	10955
493.793	15032
493.868	18326
493.943	12888
494.018	10347
494.093	8529
494.168	8489
494.243	8113
494.318	6983
494.393	7657
494.468	7386
494.543	8237
494.618	9418
494.693	9280
494.768	8934
494.842	8926
494.917	7085
494.992	9356
495.067	7679
495.142	7800
495.217	8630
495.292	9841
495.366	9729
495.441	12033
495.516	15859
495.591	21335
495.665	71696
495.740	170561
495.815	72528
495.890	13168
495.964	8341
496.039	13216
496.114	9674
496.188	10802
496.263	10802
496.338	10056
496.412	10240
496.487	12322
496.561	13222
496.636	14584
496.710	10620
496.785	12297
496.860	13679
496.934	11782
497.009	11722
497.083	12369
497.158	12661
497.232	14820
497.307	17644
497.381	14864
497.455	16730
497.530	21044
497.604	16045
497.679	17050
497.753	25221
497.827	33387
497.902	32839
497.976	33840
498.050	64965
498.125	230318
498.199	241091
498.273	53590
498.348	41547
498.422	32731
498.496	29962
498.570	27776
498.645	19442
498.719	17574
498.793	20630
498.867	27132
498.941	32660
499.016	88527
499.090	240251
499.164	89504
499.238	14124
499.312	13000
499.386	15290
499.460	15458
499.534	13248
499.609	16989
499.683	20463
499.757	19967
499.831	37146
499.905	151985
499.979	147296
500.053	24710
500.127	23917
500.201	20013
500.275	13340
500.349	12976
500.422	14571
500.496	21674
500.570	43041
500.644	91881
500.718	159962
500.792	38960
500.866	12106
500.940	13377
501.013	12191
501.087	12460
501.161	21461
501.235	26493
501.309	46856
501.382	129393
501.456	119804
501.530	28190
501.603	40998
501.677	17914
501.751	7959
501.825	11957
501.898	17773
501.972	50465
502.046	34527
502.119	11296
502.193	25388
502.266	55776
502.340	28367
502.413	25117
502.487	47920
502.561	28087
502.634	11424
502.708	10762
502.781	8379
502.855	7758
502.928	6287
503.002	7092
503.075	5724
503.149	7258
503.222	7414
503.295	7780
503.369	9866
503.442	12689
503.516	37676
503.589	96854
503.662	62305
503.736	20889
503.809	45702
503.882	38319
503.956	54122
504.029	54947
504.102	52033
504.175	74276
504.249	27244
504.322	14080
504.395	10471
504.468	8190
504.542	6168
504.615	5905
504.688	6821
504.761	4355
504.834	8379
504.907	10340
504.980	16367
505.053	9109
505.127	9151
505.200	14456
505.273	8871
505.346	6849
505.419	4767
505.492	6486
505.565	4408
505.638	4809
505.711	4175
505.784	4542
505.857	4908
505.930	7485
506.003	3844
506.076	7404
506.149	6993
506.221	7678
506.294	9958
506.367	19021
506.440	68343
506.513	40721
506.586	9871
506.659	6654
506.731	5566
506.804	7761
506.877	10233
506.950	7932
507.022	6722
507.095	6989
507.168	8512
507.241	7428
507.313	5140
507.386	5886
507.459	10274
507.531	7040
507.604	5009
507.677	5628
507.749	3813
507.822	7990
507.894	15339
507.967	20786
508.040	10952
508.112	10267
508.185	9437
508.257	7991
508.330	13754
508.402	9002
508.475	6970
508.547	8532
508.620	8060
508.692	12112
508.765	9075
508.837	6616
508.909	6822
508.982	7738
509.054	8015
509.127	7342
509.199	6408
509.271	6482
509.344	5894
509.416	6683
509.488	6108
509.560	7509
509.633	7563
509.705	9472
509.777	7666
509.849	11749
509.922	7578
509.994	6533
510.066	7728
510.138	6348
510.210	16347
510.283	16034
510.355	11622
510.427	11550
510.499	9149
510.571	10181
510.643	9182
510.715	16806
510.787	13089
510.859	10741
510.931	11089
511.003	15027
511.076	15137
511.148	8547
511.219	8231
511.291	12546
511.363	13346
511.435	9176
511.507	6419
511.579	8741
511.651	8696
511.723	8410
511.795	7143
511.867	8144
511.939	9025
512.010	15935
512.082	13682
512.154	8193
512.226	8237
512.298	13583
512.369	19793
512.441	15887
512.513	15400
512.585	11406
512.656	12571
512.728	12488
512.800	10221
512.871	10429
512.943	9666
513.015	8525
513.086	9922
513.158	10809
513.230	10113
513.301	15411
513.373	19181
513.444	10096
513.516	8978
513.588	9770
513.659	10773
513.731	13148
513.802	10787
513.874	22413
513.945	37151
514.016	14406
514.088	9570
514.159	10179
514.231	13415
514.302	18250
514.374	15454
514.445	11650
514.516	20481
514.588	15514
514.659	11836
514.730	17513
514.802	16405
514.873	13745
514.944	16527
515.016	12277
515.087	12678
515.158	14819
515.229	19078
515.301	14250
515.372	19990
515.443	13276
515.514	10396
515.585	8861
515.656	9836
515.728	10208
515.799	8952
515.870	11288
515.941	10836
516.012	9917
516.083	15082
516.154	16636
516.225	21013
516.296	20824
516.367	18324
516.438	21679
516.509	27281
516.580	37458
516.651	114922
516.722	423524
516.793	202506
516.864	40556
516.935	35848
517.006	40424
517.077	52801
517.148	112533
517.219	450053
517.289	737436
517.360	165584
517.431	47592
517.502	18211
517.573	18335
517.643	16361
517.714	17810
517.785	19855
517.856	20524
517.926	25947
517.997	32668
518.068	40004
518.138	52612
518.209	75578
518.280	284921
518.350	1064839
518.421	451192
518.492	55885
518.562	29254
518.633	23966
518.703	22021
518.774	36516
518.845	84957
518.915	92096
518.986	31609
519.056	23522
519.127	32835
519.197	45946
519.268	87163
519.338	54997
519.408	17179
519.479	22708
519.549	17601
519.620	13751
519.690	10541
519.760	8965
519.831	11365
519.901	9912
519.971	9112
520.042	8817
520.112	10357
520.182	13621
520.253	15000
520.323	10693
520.393	16379
520.463	29790
520.534	18611
520.604	43092
520.674	19161
520.744	15336
520.814	41967
520.885	41135
520.955	26281
521.025	87652
521.095	38944
521.165	11279
521.235	8893
521.305	7679
521.375	8918
521.445	9598
521.515	12299
521.585	15299
521.655	12903
521.725	11520
521.795	10077
521.865	5817
521.935	12562
522.005	9493
522.075	7508
522.145	9630
522.215	8635
522.285	12618
522.355	14597
522.424	25809
522.494	22689
522.564	14336
522.634	28925
522.704	84245
522.774	35957
522.843	10530
522.913	10039
522.983	11890
523.053	9118
523.122	9922
523.192	12931
523.262	44988
523.331	45600
523.401	10941
523.471	7116
523.540	8033
523.610	6717
523.680	6685
523.749	6970
523.819	8397
523.888	7907
523.958	6833
524.027	6865
524.097	7546
524.166	6850
524.236	7083
524.305	9205
524.375	5878
524.444	4864
524.514	7752
524.583	6946
524.653	8416
524.722	10515
524.791	6391
524.861	8242
524.930	5265
524.999	7262
525.069	11254
525.138	8516
525.207	9430
525.277	8643
525.346	7169
525.415	8044
525.484	7588
525.554	8466
525.623	9322
525.692	9043
525.761	9259
525.830	11951
525.900	13889
525.969	18369
526.038	29552
526.107	54248
526.176	169065
526.245	153399
526.314	48912
526.383	86612
526.452	125773
526.522	191603
526.591	218327
526.660	64151
526.729	33639
526.797	33059
526.867	59578
526.935	252886
527.004	464222
527.073	280845
527.142	30083
527.211	14201
527.280	12740
527.349	12075
527.418	6039
527.487	8410
527.555	6582
527.624	7269
527.693	5059
527.762	7887
527.831	4891
527.899	6399
527.968	6147
528.037	5733
528.106	8122
528.174	15026
528.243	11009
528.312	15666
528.380	20852
528.449	7803
528.518	7296
528.586	4489
528.655	6594
528.723	5957
528.792	5130
528.861	4876
528.929	3849
528.998	5858
529.066	4482
529.135	5596
529.203	3716
529.272	3705
529.340	5881
529.409	8276
529.477	4511
529.545	6390
529.614	8922
529.682	7485
529.751	9463
529.819	11816
529.887	7031
529.956	5996
530.024	6365
530.092	4771
530.161	7656
530.229	11057
530.297	6622
530.365	7020
530.434	4715
530.502	4146
530.570	5209
530.638	3827
530.707	5651
530.775	7087
530.843	5024
530.911	5072
530.979	5401
531.047	4543
531.115	5235
531.183	4954
531.252	6446
531.320	4624
531.388	5299
531.456	5659
531.524	4064
531.592	6892
531.660	8367
531.728	4132
531.796	4246
531.864	5802
531.932	5299
532.000	5352
532.067	6014
532.135	6540
532.203	8974
532.271	7304
532.339	13694
532.407	37251
532.475	22813
532.542	11527
532.610	12570
532.678	14527
532.746	59296
532.814	168485
532.881	47478
532.949	10119
533.017	7147
533.084	6205
533.152	5941
533.220	6330
533.287	5743
533.355	7539
533.423	5244
533.490	5090
533.558	6025
533.625	6447
533.693	7665
533.761	7546
533.828	7023
533.896	5843
533.963	13104
534.031	16365
534.098	22838
534.166	11862
534.233	5994
534.300	8437
534.368	7212
534.435	6885
534.503	7553
534.570	10395
534.637	9511
534.705	9873
534.772	10923
534.840	18022
534.907	73405
534.974	109777
535.041	16685
535.109	9807
535.176	6110
535.243	6893
535.310	6783
535.378	7206
535.445	5693
535.512	5646
535.579	6286
535.646	5538
535.714	6698
535.781	9363
535.848	8293
535.915	9191
535.982	6149
536.049	7025
536.116	8481
536.183	6498
536.250	6829
536.317	7943
536.384	9499
536.451	14224
536.518	14172
536.585	9888
536.652	12498
536.719	17858
536.786	13335
536.853	11758
536.920	15561
536.987	24383
537.053	22009
537.120	81107
537.187	80033
537.254	12017
537.321	8462
537.388	9457
537.454	7085
537.521	6918
537.588	6783
537.654	9407
537.721	10657
537.788	10696
537.855	7532
537.921	9517
537.988	8402
538.055	8929
538.121	7803
538.188	9546
538.254	12368
538.321	25850
538.388	16140
538.454	9498
538.521	8972
538.587	9292
538.654	6977
538.720	8158
538.787	8104
538.853	8278
538.920	10277
538.986	10006
539.053	8437
539.119	9892
539.185	8548
539.252	12695
539.318	15048
539.385	14470
539.451	11463
539.517	12653
539.583	13097
539.650	24578
539.716	64910
539.782	22287
539.849	8993
539.915	11060
539.981	9623
540.047	11760
540.114	11210
540.180	12392
540.246	10469
540.312	14321
540.378	24384
540.444	26386
540.510	25718
540.576	73879
540.643	28741
540.709	9636
540.775	10005
540.841	9676
540.907	12373
540.973	19565
541.039	17322
541.105	17701
541.171	11060
541.237	9520
541.303	10822
541.369	12548
541.435	13535
541.500	23707
541.566	14359
541.632	9509
541.698	8630
541.764	9685
541.830	8763
541.896	7993
541.961	9744
542.027	9203
542.093	9622
542.159	11154
542.224	10211
542.290	15683
542.356	21972
542.421	26728
542.487	13785
542.553	10348
542.618	11308
542.684	10146
542.750	9838
542.815	12622
542.881	18330
542.947	61881
543.012	51850
543.078	10074
543.143	9444
543.209	10578
543.274	10103
543.340	12093
543.405	25622
543.471	42372
543.536	13850
543.602	9912
543.667	7455
543.732	10595
543.798	8443
543.863	10279
543.928	8343
543.994	8652
544.059	8931
544.124	9363
544.190	9263
544.255	10764
544.320	10307
544.386	11247
544.451	14351
544.516	16632
544.581	15178
544.646	39780
544.712	68664
544.777	18159
544.842	12165
544.907	11747
544.972	10422
545.037	11492
545.102	11894
545.168	11829
545.233	12256
545.298	14166
545.363	14285
545.428	16677
545.493	25033
545.558	54772
545.623	25448
545.688	12963
545.753	12745
545.818	11502
545.883	12932
545.947	12009
546.012	13536
546.077	13317
546.142	13525
546.207	13967
546.272	16636
546.337	17439
546.401	15306
546.466	14663
546.531	13234
546.596	15857
546.661	14937
546.725	15772
546.790	14339
546.855	15951
546.919	15698
546.984	18571
547.049	19244
547.113	21626
547.178	21508
547.243	24706
547.307	26768
547.372	31680
547.436	32387
547.501	30801
547.565	32021
547.630	34727
547.695	32246
547.759	31994
547.823	30710
547.888	30999
547.952	29696
548.017	31375
548.081	34917
548.146	36108
548.210	34717
548.274	34430
548.339	34241
548.403	32606
548.468	29978
548.532	28926
548.596	29694
548.660	29826
548.725	33499
548.789	36974
548.853	37586
548.917	34347
548.982	35036
549.046	34326
549.110	28170
549.174	28037
549.238	30858
549.303	33757
549.367	36077
549.431	33497
549.495	32189
549.559	31814
549.623	35943
549.687	41337
549.751	45872
549.815	47635
549.879	47091
549.943	42603
550.007	46545
550.071	47224
550.135	46998
550.199	42614
550.263	39885
550.327	39318
550.391	41945
550.455	41824
550.519	44142
550.582	47305
550.646	55785
550.710	58083
550.774	51469
550.838	51381
550.901	53761
550.965	57575
551.029	60235
551.093	63410
551.156	69217
551.220	87782
551.284	99919
551.347	72739
551.411	74705
551.475	74311
551.538	57156
551.602	52869
551.666	49466
551.729	46686
551.793	45546
551.856	47087
551.920	44193
551.983	45252
552.047	43990
552.110	45111
552.174	44449
552.237	45832
552.301	43633
552.364	43054
552.428	41497
552.491	42179
552.554	45589
552.618	42631
552.681	45918
552.745	46694
552.808	62544
552.871	79062
552.934	55364
552.998	46082
553.061	43480
553.124	42782
553.187	41858
553.251	42329
553.314	42508
553.377	42278
553.440	44462
553.503	51682
553.567	56662
553.630	45758
553.693	43953
553.756	44425
553.819	44018
553.882	42160
553.945	43884
554.008	42190
554.071	41850
554.134	43633
554.197	40400
554.260	41212
554.323	43201
554.386	42234
554.449	43411
554.512	43386
554.575	40723
554.638	43155
554.701	40687
554.764	40630
554.827	38814
554.889	38340
554.952	35519
555.015	36362
555.078	36520
555.141	36907
555.203	35377
555.266	36139
555.329	35400
555.391	34648
555.454	35855
555.517	32987
555.580	31477
555.642	30782
555.705	30181
555.768	30588
555.830	30706
555.893	29613
555.955	29248
556.018	27336
556.080	26912
556.143	28483
556.206	27928
556.268	28949
556.330	28102
556.393	27654
556.455	27199
556.518	29938
556.580	28974
556.643	24207
556.705	24936
556.767	24141
556.830	24181
556.892	26007
556.955	31718
557.017	27727
557.079	23535
557.142	23775
557.204	25101
557.266	37190
557.328	31165
557.391	20956
557.453	20060
557.515	21415
557.577	22749
557.639	24355
557.701	20036
557.764	19942
557.826	21227
557.888	22314
557.950	22589
558.012	24980
558.074	28453
558.136	56807
558.198	143817
558.260	62447
558.322	25868
558.384	28258
558.446	30659
558.508	34723
558.570	41479
558.632	57771
558.694	77011
558.756	85265
558.818	238593
558.880	632882
558.942	219518
559.003	153679
559.065	86658
559.127	36053
559.189	36039
559.251	38846
559.312	49794
559.374	114567
559.436	404292
559.498	222910
559.559	40652
559.621	35680
559.683	37558
559.744	58623
559.806	178965
559.868	301773
559.929	65286
559.991	36040
560.052	48505
560.114	135920
560.176	95353
560.237	77335
560.299	134944
560.360	36576
560.422	17233
560.483	16353
560.545	14745
560.606	13636
560.667	13514
560.729	13348
560.790	13049
560.852	13716
560.913	13526
560.974	13280
561.036	12227
561.097	14425
561.158	14032
561.220	15141
561.281	14278
561.342	14215
561.403	17133
561.465	19714
561.526	41230
561.587	53760
561.648	16835
561.709	13289
561.771	14047
561.832	14401
561.893	12574
561.954	12943
562.015	12526
562.076	12975
562.137	13076
562.198	12964
562.259	13249
562.320	14587
562.381	14600
562.442	20169
562.503	16687
562.564	12816
562.625	12452
562.686	12005
562.747	13977
562.808	12970
562.869	12512
562.930	13373
562.991	13362
563.051	12989
563.112	12574
563.173	13402
563.234	11764
563.294	12774
563.355	12320
563.416	13701
563.477	11812
563.537	13256
563.598	13051
563.659	13283
563.720	12105
563.780	13452
563.841	13121
563.901	12660
563.962	11394
564.023	13164
564.083	12866
564.144	13068
564.204	11596
564.265	12422
564.325	14215
564.386	20025
564.446	18356
564.507	12292
564.567	12056
564.628	13322
564.688	12083
564.749	12227
564.809	14029
564.869	15630
564.930	13293
564.990	12947
565.050	12150
565.111	13425
565.171	12403
565.231	12789
565.292	13869
565.352	12725
565.412	13323
565.472	13276
565.532	15071
565.593	14094
565.653	12700
565.713	13891
565.773	15757
565.833	16703
565.893	20630
565.953	15566
566.013	13188
566.074	14599
566.134	16148
566.194	20709
566.254	22025
566.314	16852
566.374	13659
566.434	14678
566.494	14419
566.554	14195
566.614	14843
566.673	15212
566.733	16015
566.793	17163
566.853	17415
566.913	17373
566.973	17853
567.033	18306
567.092	17832
567.152	17455
567.212	18380
567.272	18067
567.331	18224
567.391	18657
567.451	19915
567.511	23687
567.570	22927
567.630	18492
567.690	18021
567.749	18619
567.809	20348
567.868	22530
567.928	24174
567.988	27707
568.047	30875
568.107	37830
568.166	49670
568.226	81494
568.285	115955
568.345	96143
568.404	70954
568.464	59154
568.523	56061
568.582	55141
568.642	61826
568.701	77583
568.761	115571
568.820	192125
568.879	184585
568.939	127979
568.998	87313
569.057	64330
569.116	51431
569.176	42977
569.235	34976
569.294	29679
569.353	26856
569.413	24660
569.472	22040
569.531	21301
569.590	19610
569.649	18587
569.708	17737
569.767	17551
569.827	19459
569.886	17593
569.945	16089
570.004	17414
570.063	14873
570.122	16567
570.181	16233
570.240	17324
570.299	16049
570.358	18353
570.417	15173
570.475	14442
570.534	14245
570.593	16510
570.652	14772
570.711	15300
570.770	14086
570.829	15715
570.887	15749
570.946	17097
571.005	13733
571.064	14685
571.122	16391
571.181	15910
571.240	12749
571.299	12885
571.357	13049
571.416	13288
571.475	14230
571.533	13991
571.592	13435
571.650	14432
571.709	12106
571.768	12903
571.826	12829
571.885	12389
571.943	11737
572.002	12703
572.060	11709
572.119	13137
572.177	12222
572.236	11501
572.294	11657
572.352	11854
572.411	11333
572.469	11555
572.528	11999
572.586	12184
572.644	13124
572.703	16397
572.761	12964
572.819	12250
572.877	11048
572.936	10824
572.994	10622
573.052	10858
573.110	12154
573.169	11925
573.227	11043
573.285	11366
573.343	11437
573.401	11094
573.459	10344
573.517	10340
573.576	10731
573.634	11730
573.692	11205
573.750	11556
573.808	11450
573.866	11111
573.924	12556
573.982	12300
574.040	10783
574.098	11088
574.155	10528
574.213	10904
574.271	10225
574.329	11052
574.387	9823
574.445	9849
574.503	9816
574.560	9144
574.618	10031
574.676	10449
574.734	8583
574.792	11127
574.849	9820
574.907	9644
574.965	8946
575.022	9885
575.080	9427
575.138	11028
575.195	10217
575.253	9250
575.311	11359
575.368	10204
575.426	9179
575.483	9471
575.541	9402
575.598	9720
575.656	9370
575.713	9974
575.771	9405
575.828	10261
575.886	10029
575.943	10711
576.001	10704
576.058	9954
576.115	10828
576.173	11429
576.230	13782
576.287	15901
576.345	13898
576.402	10844
576.459	10849
576.517	10283
576.574	10778
576.631	11341
576.688	10302
576.746	10422
576.803	9931
576.860	9925
576.917	10244
576.974	9934
577.031	9054
577.089	10395
577.146	9412
577.203	10550
577.260	10568
577.317	10463
577.374	11190
577.431	11245
577.488	10017
577.545	10235
577.602	9566
577.659	10286
577.716	10185
577.773	10497
577.830	9115
577.886	9298
577.943	9530
578.000	10060
578.057	10655
578.114	11183
578.171	9755
578.227	10611
578.284	10126
578.341	10137
578.398	9877
578.454	10480
578.511	11644
578.568	12205
578.625	10907
578.681	11189
578.738	10093
578.794	10993
578.851	10592
578.908	10631
578.964	12377
579.021	12289
579.077	10900
579.134	11389
579.190	10328
579.247	10869
579.303	10210
579.360	10745
579.416	9942
579.473	10874
579.529	9516
579.586	11082
579.642	10643
579.698	10734
579.755	11246
579.811	10906
579.867	9858
579.924	10739
579.980	10023
580.036	11212
580.093	10560
580.149	11514
580.205	10425
580.261	11219
580.317	11522
580.374	11392
580.430	12102
580.486	12961
580.542	11196
580.598	12113
580.619	12174
580.654	12287
580.692	12296
580.710	12304
580.765	11596
580.767	11576
580.823	11619
580.838	11735
580.879	12075
580.911	11691
580.935	11385
580.984	11181
580.991	11162
581.047	12043
581.057	11884
581.103	11203
581.130	11921
581.159	12660
581.203	11692
581.215	11439
581.270	12506
581.276	12373
581.326	11066
581.349	11342
581.382	11782
581.422	11812
581.438	11814
581.494	12674
581.494	12675
581.550	12768
581.567	13016
581.606	13455
581.640	12998
581.661	12713
581.713	13192
581.717	13242
581.773	11934
581.786	12308
581.829	13460
581.859	13258
581.885	13086
581.932	13117
581.940	13127
581.996	13364
582.004	13465
582.052	13979
582.077	13468
582.107	12857
582.150	13244
582.163	13350
582.219	13046
582.223	13096
582.274	13796
582.296	13508
582.330	12982
582.368	13706
582.386	14037
582.441	13154
582.441	13150
582.497	13421
582.514	13589
582.552	14020
582.587	14096
582.608	14090
582.659	14218
582.663	14226
582.719	14256
582.732	14197
582.774	14038
582.805	14632
582.830	15124
582.877	15163
582.885	15176
582.941	15404
582.950	15399
582.996	15207
583.023	15230
583.052	15407
583.095	15534
583.107	15521
583.162	15917
583.168	15957
583.218	16244
583.240	16144
583.273	16081
583.313	16644
583.328	16893
583.384	15819
583.385	15851
583.439	16400
583.458	16330
583.494	16357
583.531	16667
583.549	16931
583.603	17950
583.605	17969
583.660	17666
583.676	17462
583.715	17071
583.748	17239
583.770	17417
583.820	18341
583.825	18421
583.881	18077
583.893	18033
583.936	17985
583.965	17720
583.991	17403
584.038	18426
584.046	18657
584.101	18574
584.110	18708
584.156	19405
584.183	19735
584.211	20040
584.255	20149
584.266	20123
584.321	19622
584.328	19561
584.376	19863
584.400	20402
584.431	20801
584.472	20743
584.486	20785
584.541	21678
584.545	21677
584.596	21933
584.617	22081
584.651	22538
584.689	23329
584.706	23636
584.761	23486
584.762	23480
584.816	24631
584.834	24567
584.871	24600
584.906	24656
584.926	24721
584.978	26031
584.980	26111
585.035	27151
585.051	27639
585.090	29355
585.123	30500
585.145	31070
585.195	31316
585.200	31442
585.254	33608
585.267	34245
585.309	36249
585.340	38152
585.364	39904
585.412	42565
585.419	43044
585.473	47101
585.484	47976
585.528	54668
585.556	61552
585.583	77771
585.628	113637
585.637	128608
585.692	247961
585.700	269073
585.747	339235
585.772	306195
585.801	204280
585.845	83783
585.856	71877
585.910	50963
585.917	48642
585.965	44591
585.989	43111
586.019	42269
586.061	41049
586.074	41181
586.128	43107
586.133	43192
586.183	44666
586.205	44985
586.237	44688
586.277	43747
586.292	43789
586.346	45159
586.349	45094
586.401	45457
586.421	45928
586.455	46991
586.493	47663
586.509	49025
586.564	54820
586.565	54910
586.618	64512
586.637	66089
586.672	63222
586.709	58864
586.727	58377
586.781	59676
586.781	59785
586.835	58874
586.853	58598
586.889	58737
586.925	58632
586.944	59272
586.996	61687
586.998	61866
587.052	63782
587.068	64251
587.106	66688
587.140	68081
587.161	68881
587.212	70975
587.215	71322
587.269	75690
587.284	76710
587.323	78592
587.356	79932
587.377	82037
587.427	86876
587.431	87366
587.485	90879
587.499	91833
587.539	96337
587.571	99113
587.593	101371
587.643	106852
587.648	107769
587.702	114658
587.715	116289
587.755	122927
587.786	127335
587.810	131905
587.858	141110
587.864	142635
587.917	155134
587.930	157633
587.971	169508
588.001	177885
588.025	186652
588.073	203509
588.079	206479
588.133	229220
588.145	234149
588.187	258382
588.217	274702
588.241	292767
588.288	328331
588.295	334830
588.348	384005
588.360	393807
588.402	444941
588.431	480707
588.456	519187
588.503	592831
588.510	608916
588.564	732649
588.575	757979
588.617	908686
588.646	1012832
588.671	1148923
588.718	1412020
588.725	1472186
588.778	1934107
588.789	2026879
588.832	2382149
588.861	2609984
588.886	2559092
588.932	2365371
588.939	2340471
588.993	2040978
589.004	2010067
589.047	2504579
589.075	2769723
589.100	2618669
589.147	2256363
589.154	2202726
589.207	1757597
589.218	1666964
589.261	1536872
589.290	1451877
589.314	1493619
589.361	1579928
589.368	1625661
589.421	1992910
589.433	2069410
589.475	2371698
589.504	2566974
589.528	2485714
589.576	2212298
589.582	2235855
589.635	2462746
589.647	2490286
589.689	2146548
589.718	1873363
589.742	1625654
589.790	1138966
589.795	1111981
589.849	843748
589.861	780998
589.902	668130
589.932	582600
589.955	541384
590.004	452803
590.009	448454
590.062	387977
590.075	372422
590.115	339953
590.146	313054
590.168	302066
590.218	274995
590.222	273997
590.275	250237
590.289	243332
590.328	230453
590.360	218835
590.381	213150
590.431	197654
590.435	197616
590.488	185776
590.503	182112
590.541	176782
590.574	170970
590.594	168153
590.645	159070
590.647	159285
590.700	151086
590.716	148145
590.753	144308
590.787	139765
590.806	138596
590.859	134015
590.859	134386
590.912	129171
590.930	127078
590.965	125729
591.001	123482
591.018	122831
591.071	119625
591.072	119180
591.124	118157
591.143	117237
591.177	115555
591.214	112903
591.230	113252
591.283	113302
591.285	112901
591.336	112691
591.356	112167
591.389	110355
591.427	107072
591.442	105990
591.495	100686
591.498	99943
591.547	98355
591.569	97266
591.600	97425
591.640	96514
591.653	96486
591.706	95151
591.711	94661
591.759	93906
591.782	93071
591.811	94353
591.853	95364
591.864	95076
591.917	91874
591.924	91078
591.969	90346
591.995	89450
592.022	89590
592.066	88911
592.075	89481
592.127	91091
592.137	91056
592.180	91615
592.208	91446
592.233	89781
592.279	85586
592.285	85865
592.338	85693
592.350	85336
592.390	84436
592.421	83229
592.443	83774
592.491	84016
592.495	84252
592.548	83300
592.562	82738
592.600	82385
592.633	81530
592.653	81905
592.704	81650
592.705	82097
592.775	80751
592.846	81752
592.916	83395
592.987	86699
593.058	82049
593.128	76927
593.199	77815
593.270	75944
593.341	75422
593.411	77514
593.482	78075
593.553	76417
593.623	74684
593.694	75527
593.764	75492
593.835	74601
593.906	73186
593.976	74565
594.047	74289
594.117	79843
594.188	77160
594.258	73646
594.329	72817
594.399	73962
594.470	73763
594.540	74455
594.611	75154
594.681	74823
594.751	73273
594.822	76670
594.892	79216
594.963	78210
595.033	77306
595.103	77870
595.174	79563
595.244	88049
595.314	91182
595.384	79476
595.455	78378
595.525	81096
595.595	83377
595.665	82332
595.736	80208
595.806	81010
595.876	81027
595.946	81029
596.016	81414
596.087	82955
596.157	83267
596.227	83705
596.297	86207
596.367	90073
596.437	93356
596.507	97926
596.577	102063
596.647	95123
596.717	95360
596.787	95964
596.857	95823
596.927	96142
596.997	97200
597.067	97775
597.137	97772
597.207	99085
597.277	99437
597.347	97432
597.417	96554
597.487	98328
597.557	99663
597.626	99609
597.696	101755
597.766	101984
597.836	104105
597.906	92755
597.975	88870
598.045	90912
598.115	91079
598.185	97054
598.254	105203
598.324	114126
598.394	116301
598.464	115173
598.533	108895
598.603	103399
598.672	102207
598.742	102280
598.812	102203
598.881	102413
598.951	100768
599.020	103470
599.090	104672
599.159	107252
599.229	102238
599.299	100940
599.368	102519
599.437	100903
599.507	95509
599.576	94142
599.646	92581
599.715	91537
599.785	92714
599.854	90228
599.924	89448
599.993	89455
600.062	89266
600.132	90185
600.201	96137
600.270	110816
600.340	112563
600.409	108203
600.478	107043
600.547	108260
600.617	101594
600.686	88685
600.755	83745
600.824	83751
600.894	79242
600.963	75188
601.032	74996
601.101	72834
601.170	71449
601.239	71543
601.308	74333
601.378	73062
601.447	70176
601.516	71080
601.585	75291
601.654	79914
601.723	73611
601.792	73885
601.861	76051
601.930	83207
601.999	86798
602.068	80878
602.137	86244
602.206	86605
602.275	84172
602.343	93014
602.412	92248
602.481	82574
602.550	78998
602.619	81963
602.688	84962
602.756	82052
602.825	80944
602.894	83164
602.963	83486
603.032	86132
603.100	85540
603.169	86231
603.238	86366
603.307	86937
603.375	86254
603.444	89003
603.513	87976
603.581	90036
603.650	90754
603.719	87612
603.787	89381
603.856	93001
603.924	94632
603.993	99047
604.061	98851
604.130	104270
604.198	106575
604.267	106015
604.335	107226
604.404	107815
604.472	108025
604.541	109717
604.609	109401
604.678	110804
604.746	110971
604.815	113792
604.883	115314
604.951	115542
605.020	116502
605.088	118941
605.156	120288
605.225	122137
605.293	121466
605.361	124192
605.429	123957
605.498	127751
605.566	132653
605.634	135897
605.702	138211
605.771	142557
605.839	141463
605.907	138287
605.975	135383
606.043	132742
606.111	131369
606.180	132240
606.248	130197
606.316	130714
606.384	131675
606.452	139988
606.520	157729
606.588	143588
606.656	136415
606.724	132666
606.792	125528
606.860	114289
606.928	105713
606.996	103158
607.064	101080
607.132	103783
607.200	110249
607.267	113107
607.335	113615
607.403	117247
607.471	113837
607.539	111052
607.607	109661
607.674	99554
607.742	102838
607.810	105410
607.878	102578
607.946	103100
608.013	104308
608.081	109932
608.149	109214
608.216	111284
608.284	114887
608.352	113333
608.419	112446
608.487	117203
608.555	109606
608.622	113507
608.690	118016
608.757	129518
608.825	133643
608.893	132271
608.960	131733
609.028	129438
609.095	125521
609.163	118652
609.230	107121
609.298	100990
609.365	106013
609.432	113891
609.500	122183
609.567	137263
609.635	157269
609.702	164787
609.769	157542
609.837	129082
609.904	115995
609.971	125371
610.039	148608
610.106	210146
610.173	415926
610.241	971559
610.308	984477
610.375	544408
610.442	192254
610.509	135660
610.577	124771
610.644	119814
610.711	121886
610.778	122702
610.845	125144
610.912	131633
610.980	134738
611.047	134551
611.114	132541
611.181	129017
611.248	127174
611.315	133560
611.382	135115
611.449	139260
611.516	142489
611.583	140418
611.650	141488
611.717	142674
611.784	148998
611.851	155195
611.918	172232
611.984	201670
612.051	295342
612.118	616395
612.185	1500329
612.252	915258
612.319	237781
612.386	187950
612.452	170417
612.519	162212
612.586	163233
612.653	161686
612.719	163864
612.786	158266
612.853	145967
612.919	143783
612.986	145052
613.053	137974
613.120	131097
613.186	126620
613.253	126787
613.319	126862
613.386	129093
613.453	131273
613.519	140860
613.586	156574
613.652	186086
613.719	163619
613.785	152275
613.852	133320
613.918	128786
613.985	131204
614.051	137474
614.118	141680
614.184	135777
614.250	128050
614.317	131650
614.383	129812
614.449	132485
614.516	131940
614.582	132909
614.648	131069
614.715	129288
614.781	127862
614.847	127984
614.914	128437
614.980	127217
615.046	125570
615.112	128666
615.179	133300
615.245	139638
615.311	154029
615.377	201246
615.443	212164
615.509	158727
615.575	147781
615.642	139906
615.708	147049
615.774	155913
615.840	168512
615.906	196276
615.972	277369
616.038	493876
616.104	888813
616.170	1843357
616.236	1501986
616.302	355062
616.368	251002
616.434	183696
616.500	168551
616.565	182502
616.631	222268
616.697	185311
616.763	191980
616.829	279723
616.895	487309
616.961	460921
617.026	210726
617.092	147549
617.158	137877
617.224	134113
617.289	124871
617.355	120886
617.421	118133
617.487	118591
617.552	113946
617.618	111461
617.684	110563
617.749	112982
617.815	107888
617.880	105315
617.946	105390
618.012	109917
618.077	112463
618.143	107567
618.208	108789
618.274	115516
618.339	115361
618.405	98552
618.470	98606
618.536	99785
618.601	98121
618.667	92398
618.732	90623
618.798	88032
618.863	88761
618.928	86657
618.994	93079
619.059	100279
619.124	125013
619.190	99017
619.255	86822
619.320	86659
619.386	86699
619.451	84390
619.516	83011
619.581	84658
619.647	86681
619.712	87384
619.777	84259
619.842	85128
619.907	89143
619.972	89051
620.038	88796
620.103	83589
620.168	83179
620.233	83840
620.298	84942
620.363	85655
620.428	87626
620.493	89319
620.558	89961
620.623	90509
620.688	89420
620.753	89241
620.818	90555
620.883	91173
620.948	91241
621.013	90548
621.078	89754
621.143	90042
621.207	92954
621.272	93322
621.337	95150
621.402	91697
621.467	94287
621.532	96341
621.596	93659
621.661	88531
621.726	86298
621.791	89299
621.855	93045
621.920	95624
621.985	90417
622.049	93174
622.114	92458
622.179	91543
622.243	95191
622.308	96754
622.373	100665
622.437	98580
622.502	93426
622.566	93084
622.631	92395
622.695	94407
622.760	94163
622.824	94622
622.889	96030
622.953	105212
623.018	143119
623.082	135279
623.147	101040
623.211	99823
623.276	99889
623.340	92071
623.404	90533
623.469	89522
623.533	91887
623.597	87555
623.662	88106
623.726	82757
623.790	81231
623.854	77764
623.919	81849
623.983	82774
624.047	83444
624.111	82330
624.176	84560
624.240	89866
624.304	93944
624.368	82808
624.432	83910
624.496	86394
624.560	96569
624.625	102793
624.689	90793
624.753	91428
624.817	87243
624.881	84542
624.945	78835
625.009	77339
625.073	80375
625.137	88667
625.201	106359
625.265	103747
625.329	84275
625.393	86958
625.456	84023
625.520	85604
625.584	88627
625.648	93983
625.712	102751
625.776	135135
625.839	140773
625.903	87535
625.967	72714
626.031	87798
626.095	109440
626.158	80452
626.222	64433
626.286	63564
626.349	59646
626.413	57633
626.477	64434
626.540	60145
626.604	57495
626.668	56167
626.731	56661
626.795	56548
626.858	57171
626.922	55282
626.986	57706
627.049	54705
627.113	57876
627.176	55145
627.240	54283
627.303	54363
627.366	55244
627.430	56724
627.493	54774
627.557	53691
627.620	55414
627.684	55117
627.747	56663
627.810	51355
627.874	49381
627.937	46774
628.000	51795
628.064	49774
628.127	42691
628.190	46500
628.253	44875
628.317	42872
628.380	41143
628.443	42395
628.506	44109
628.569	40724
628.632	39543
628.696	39630
628.759	38794
628.822	37992
628.885	37330
628.948	38346
629.011	38447
629.074	37406
629.137	36129
629.200	35722
629.263	38585
629.326	34198
629.389	35337
629.452	35696
629.515	34986
629.578	35366
629.641	37758
629.704	35996
629.767	38928
629.830	34623
629.892	33586
629.955	33936
630.018	38001
630.081	41916
630.144	52013
630.207	39400
630.269	39429
630.332	34505
630.395	34012
630.458	32641
630.520	31490
630.583	32354
630.646	32246
630.708	31428
630.771	31256
630.834	33554
630.896	32759
630.959	32876
631.021	31079
631.084	32433
631.146	34145
631.209	33368
631.272	31555
631.334	31593
631.397	31763
631.459	32539
631.522	35466
631.584	34828
631.646	36708
631.709	39153
631.771	48633
631.834	37583
631.896	34282
631.958	31607
632.021	32792
632.083	31079
632.145	32317
632.208	32449
632.270	34184
632.332	30091
632.395	29968
632.457	31505
632.519	30422
632.581	30570
632.643	28589
632.706	30237
632.768	29044
632.830	29389
632.892	29276
632.954	30100
633.016	30712
633.078	28946
633.141	29438
633.203	29562
633.265	29668
633.327	28879
633.389	29700
633.451	34550
633.513	41411
633.575	35500
633.637	38866
633.698	36517
633.760	31384
633.822	30828
633.884	33258
633.946	31767
634.008	31793
634.070	32332
634.132	33607
634.193	35723
634.255	37840
634.317	37037
634.379	38504
634.441	34441
634.502	33121
634.564	32147
634.626	30107
634.687	28284
634.749	29163
634.811	28983
634.873	27197
634.934	27343
634.996	27555
635.057	26999
635.119	27141
635.181	28731
635.242	29450
635.304	26474
635.365	30754
635.427	27701
635.488	30465
635.550	27103
635.611	28891
635.673	26567
635.734	31450
635.796	31250
635.857	34437
635.918	31780
635.980	36409
636.041	36128
636.102	38575
636.164	38491
636.225	39096
636.286	32721
636.348	32437
636.409	30455
636.470	27773
636.531	27657
636.593	27586
636.654	27002
636.715	25280
636.776	24716
636.838	23726
636.899	25178
636.960	23933
637.021	23701
637.082	23924
637.143	23638
637.204	22949
637.265	21315
637.326	23196
637.387	23048
637.448	22742
637.509	23991
637.570	22797
637.631	23989
637.692	21243
637.753	21028
637.814	22361
637.875	22685
637.936	23932
637.997	22516
638.058	23212
638.119	22891
638.179	21501
638.240	21075
638.301	22926
638.362	20572
638.423	20165
638.483	21626
638.544	19689
638.605	21442
638.666	19953
638.726	21658
638.787	21520
638.848	20336
638.908	20186
638.969	20866
639.030	20227
639.090	19646
639.151	21281
639.211	24253
639.272	32827
639.332	53010
639.393	29890
639.453	21720
639.514	22478
639.574	20264
639.635	19392
639.695	21888
639.756	20565
639.816	22835
639.877	27838
639.937	46954
639.997	60088
640.058	24100
640.118	20363
640.178	20370
640.239	18811
640.299	19185
640.359	19344
640.420	18579
640.480	21398
640.540	23369
640.600	22588
640.661	22940
640.721	22896
640.781	29078
640.841	22505
640.901	19871
640.961	21369
641.021	22223
641.082	27676
641.142	38372
641.202	25673
641.262	17180
641.322	19284
641.382	17223
641.442	18974
641.502	17517
641.562	18724
641.622	17511
641.682	19315
641.742	20729
641.802	21118
641.861	20180
641.921	20834
641.981	24391
642.041	24084
642.101	31127
642.161	20572
642.221	16674
642.280	16498
642.340	16775
642.400	17652
642.460	18188
642.519	18169
642.579	16645
642.639	18329
642.698	14507
642.758	19253
642.818	18422
642.877	18542
642.937	19736
642.997	24951
643.056	35508
643.116	22338
643.175	19056
643.235	18140
643.294	18606
643.354	19765
643.414	21104
643.473	24686
643.532	29457
643.592	39580
643.651	61042
643.711	109281
643.770	217523
643.830	538481
643.889	1094468
643.948	243312
644.008	46397
644.067	31013
644.126	24908
644.186	22114
644.245	19844
644.304	17582
644.363	19693
644.423	16645
644.482	18034
644.541	19563
644.600	17065
644.659	23524
644.719	26339
644.778	38527
644.837	62385
644.896	127393
644.955	282529
645.014	88521
645.073	25720
645.132	20882
645.191	20004
645.250	18426
645.309	19715
645.368	20272
645.427	24633
645.486	37846
645.545	58644
645.604	22101
645.663	18604
645.722	18210
645.781	19013
645.840	22139
645.898	25761
645.957	37559
646.016	55663
646.075	103581
646.134	203932
646.192	559443
646.251	774253
646.310	108705
646.369	33662
646.427	28398
646.486	21466
646.545	19503
646.603	18006
646.662	17569
646.721	16750
646.779	16590
646.838	16515
646.896	20597
646.955	26001
647.014	39835
647.072	69725
647.131	181626
647.189	82190
647.248	19003
647.306	15753
647.365	14899
647.423	13098
647.481	15439
647.540	13515
647.598	13848
647.657	12008
647.715	14740
647.773	12278
647.832	13012
647.890	11295
647.948	11962
648.007	12994
648.065	11631
648.123	13167
648.181	14596
648.240	12874
648.298	11779
648.356	11897
648.414	11860
648.472	11946
648.531	11625
648.589	11196
648.647	11588
648.705	11698
648.763	12765
648.821	12293
648.879	12145
648.937	13672
648.995	17046
649.053	20325
649.111	28809
649.169	46240
649.227	83745
649.285	173799
649.343	494623
649.401	224266
649.459	78753
649.516	45400
649.574	19953
649.632	20738
649.690	20905
649.748	21166
649.806	28697
649.863	48413
649.921	127565
649.979	79208
650.037	17674
650.094	11578
650.152	12842
650.210	10370
650.268	11520
650.325	11353
650.383	11778
650.440	9509
650.498	11397
650.556	10067
650.613	10100
650.671	9544
650.728	9877
650.786	10204
650.843	12954
650.901	9536
650.958	10900
651.016	8866
651.073	9714
651.131	9149
651.188	9058
651.246	9340
651.303	8290
651.360	8828
651.418	9541
651.475	9405
651.532	8617
651.590	8972
651.647	8331
651.704	9338
651.762	9785
651.819	10256
651.876	8580
651.933	9290
651.990	8839
652.048	8015
652.105	8627
652.162	8590
652.219	8279
652.276	8647
652.333	9571
652.390	8234
652.448	9173
652.505	8253
652.562	8464
652.619	8633
652.676	9540
652.733	10236
652.790	8332
652.847	6824
652.904	8235
652.961	7710
653.017	7446
653.074	9364
653.131	9279
653.188	7080
653.245	8608
653.302	7714
653.359	8752
653.415	8384
653.472	8517
653.529	7781
653.586	7858
653.642	7958
653.699	7671
653.756	6573
653.813	8137
653.869	8593
653.926	7496
653.983	7641
654.039	7590
654.096	7995
654.152	8706
654.209	6873
654.266	8629
654.322	7148
654.379	8712
654.435	9443
654.492	9651
654.548	13750
654.605	19833
654.661	11309
654.717	7660
654.774	8562
654.830	8197
654.887	7878
654.943	7247
655.000	9258
655.056	8304
655.112	6983
655.168	7334
655.225	8365
655.281	8230
655.337	8610
655.394	11442
655.450	9462
655.506	9417
655.562	12199
655.618	10704
655.675	6883
655.731	7666
655.787	6657
655.843	8141
655.899	6267
655.955	8431
656.011	7938
656.067	7327
656.123	7725
656.179	7436
656.235	8590
656.291	6747
656.347	7799
656.403	7595
656.459	7878
656.515	7614
656.571	8887
656.627	7714
656.683	7883
656.739	9082
656.795	7870
656.850	8879
656.906	10377
656.962	9706
657.018	7022
657.074	8155
657.129	8700
657.185	12461
657.241	19780
657.297	13259
657.352	7949
657.408	7985
657.464	9174
657.519	8069
657.575	6760
657.630	7712
657.686	7714
657.742	6944
657.797	7633
657.853	6617
657.908	8408
657.964	6832
658.019	7077
658.075	7955
658.130	7348
658.186	6165
658.241	6488
658.297	6051
658.352	7061
658.407	7310
658.463	6224
658.518	6556
658.573	7175
658.629	6166
658.684	7286
658.739	7821
658.795	5852
658.850	6761
658.905	6208
658.960	7259
659.016	7228
659.071	6832
659.126	9149
659.181	10384
659.236	16335
659.291	18284
659.346	9455
659.401	9405
659.457	7982
659.512	7434
659.567	8163
659.622	7475
659.677	6548
659.732	6732
659.787	7212
659.842	7575
659.897	8525
659.952	7765
660.007	6663
660.061	6636
660.116	5682
660.171	6190
660.226	6606
660.281	6989
660.336	6181
660.391	6807
660.445	6082
660.500	7234
660.555	6938
660.610	5951
660.664	6439
660.719	6470
660.774	6699
660.828	7578
660.883	7095
660.938	6894
660.992	5630
661.047	7358
661.101	5964
661.156	5860
661.211	5315
661.265	7190
661.320	5810
661.374	6754
661.429	6385
661.483	6566
661.538	5598
661.592	7006
661.647	6640
661.701	7504
661.755	6584
661.810	6736
661.864	6470
661.919	6219
661.973	6351
662.027	7124
662.081	5196
662.136	6076
662.190	6441
662.244	7244
662.299	5655
662.353	5977
662.407	6192
662.461	6579
662.515	6385
662.569	5586
662.624	6576
662.678	5725
662.732	5963
662.786	5584
662.840	5589
662.894	7077
662.948	5637
663.002	5661
663.056	6097
663.110	5804
663.164	6906
663.218	6399
663.272	6350
663.326	8164
663.380	6584
663.434	6513
663.488	5464
663.542	6795
663.595	6589
663.649	5503
663.703	6195
663.757	5439
663.811	5516
663.864	6065
663.918	6430
663.972	5685
664.026	6203
664.079	6253
664.133	6246
664.187	6239
664.240	6107
664.294	5868
664.348	6694
664.401	6045
664.455	5415
664.508	5949
664.562	5938
664.615	5928
664.669	5391
664.722	6372
664.776	4917
664.829	5808
664.883	5145
664.936	6087
664.990	6482
665.043	7143
665.097	6406
665.150	7706
665.203	6087
665.257	5450
665.310	6428
665.363	6669
665.417	6129
665.470	7235
665.523	6676
665.576	6201
665.630	6472
665.683	6354
665.736	6256
665.789	6476
665.842	5835
665.895	6673
665.949	6184
666.002	6570
666.055	6346
666.108	7005
666.161	6909
666.214	7237
666.267	7426
666.320	9443
666.373	6545
666.426	6573
666.479	6089
666.532	6537
666.585	7050
666.638	6888
666.691	7168
666.744	6905
666.796	6822
666.849	6237
666.902	6520
666.955	5425
667.008	5614
667.060	5606
667.113	5165
667.166	6440
667.219	6180
667.271	6182
667.324	5928
667.377	6244
667.430	6418
667.482	7191
667.535	5907
667.587	8010
667.640	8385
667.693	10375
667.745	18326
667.798	17740
667.850	7248
667.903	5536
667.955	5957
668.008	6408
668.060	6422
668.113	7306
668.165	6556
668.218	7443
668.270	6627
668.322	6635
668.375	5887
668.427	6868
668.479	6113
668.532	7069
668.584	6823
668.636	6442
668.689	6572
668.741	6419
668.793	6209
668.845	6949
668.898	7083
668.950	7092
669.002	6624
669.054	6421
669.106	7072
669.158	7663
669.211	7039
669.263	6622
669.315	7253
669.367	7744
669.419	7442
669.471	9530
669.523	11185
669.575	14146
669.627	10759
669.679	8857
669.731	8802
669.783	10520
669.835	11118
669.886	11507
669.938	10162
669.990	9864
670.042	9719
670.094	12440
670.146	13198
670.197	15785
670.249	18713
670.301	22752
670.353	31521
670.404	43765
670.456	63443
670.508	98694
670.560	161459
670.611	275930
670.663	483274
670.715	960163
670.766	1135086
670.818	532307
670.869	148927
670.921	73512
670.972	47662
671.024	34292
671.075	26281
671.127	20727
671.178	17459
671.230	16839
671.281	14725
671.333	14423
671.384	12822
671.436	12675
671.487	14263
671.538	16149
671.590	19348
671.641	28214
671.692	44989
671.744	78518
671.795	51051
671.846	21447
671.897	12127
671.949	10454
672.000	9035
672.051	8809
672.102	7918
672.153	7864
672.204	6920
672.256	8108
672.307	7036
672.358	7847
672.409	7255
672.460	6885
672.511	6214
672.562	6823
672.613	5581
672.664	7176
672.715	5362
672.766	6208
672.817	4849
672.868	6325
672.919	5590
672.970	6277
673.021	5864
673.071	5008
673.122	5487
673.173	5889
673.224	5067
673.275	4978
673.326	5550
673.376	5961
673.427	4813
673.478	4916
673.528	5970
673.579	4944
673.630	4094
673.680	6285
673.731	4997
673.782	5597
673.832	4342
673.883	5538
673.934	4624
673.984	4982
674.035	5163
674.085	5487
674.136	5016
674.186	6021
674.237	5361
674.287	7398
674.338	4950
674.388	4848
674.438	4978
674.489	6133
674.539	5404
674.589	4957
674.640	5814
674.690	5350
674.740	5179
674.791	4934
674.841	5448
674.891	5730
674.942	5352
674.992	6034
675.042	4924
675.092	4411
675.142	3776
675.193	4402
675.243	4937
675.293	5117
675.343	5001
675.393	4603
675.443	4688
675.493	4522
675.543	4539
675.593	4182
675.643	4531
675.693	5184
675.743	4806
675.793	4231
675.843	3853
675.893	4625
675.943	5533
675.993	5224
676.043	4261
676.093	4723
676.142	4353
676.192	4798
676.242	3761
676.292	3261
676.341	4383
676.391	4282
676.441	3248
676.491	4799
676.540	4094
676.590	4224
676.640	4365
676.689	4201
676.739	3036
676.789	3282
676.838	4259
676.888	4263
676.937	4082
676.987	4270
677.037	3469
677.086	3196
677.136	3877
677.185	3327
677.235	2886
677.284	4494
677.333	3679
677.383	3567
677.432	2870
677.482	4394
677.531	4318
677.580	3283
677.630	3357
677.679	3485
677.728	3505
677.778	3832
677.827	3129
677.876	3702
677.925	3547
677.975	3750
678.024	3069
678.073	4138
678.122	4399
678.171	3955
678.220	4094
678.269	5193
678.319	4007
678.368	4476
678.417	3513
678.466	4284
678.515	4029
678.564	4310
678.613	3642
678.662	3808
678.711	3720
678.760	3184
678.809	2763
678.857	3852
678.906	3975
678.955	3022
679.004	3890
679.053	2618
679.102	3828
679.151	4466
679.199	2884
679.248	3469
679.297	3421
679.346	3947
679.394	3549
679.443	3671
679.492	3461
679.540	4404
679.589	3430
679.638	4202
679.686	2097
679.735	3600
679.784	3283
679.832	4121
679.881	2982
679.929	3687
679.978	2598
680.026	3124
680.075	3857
680.123	2846
680.172	2693
680.220	3457
680.268	2923
680.317	2918
680.365	3276
680.414	2026
680.462	2739
680.510	3161
680.559	2793
680.607	3552
680.655	3514
680.703	2772
680.752	2928
680.800	2859
680.848	3266
680.896	2973
680.945	2543
680.993	3709
681.041	2862
681.089	2837
681.137	2397
681.185	2833
681.233	2410
681.258	2839
681.281	3213
681.329	2745
681.377	2632
681.380	2693
681.425	3169
681.473	4036
681.502	3590
681.521	3221
681.569	3828
681.617	3371
681.624	3472
681.665	3860
681.713	3886
681.745	3998
681.761	4007
681.809	3523
681.857	4234
681.867	4132
681.904	3634
681.952	4318
681.989	4357
682.000	4321
682.048	4557
682.096	4046
682.111	4157
682.143	4281
682.191	4111
682.233	5340
682.239	5488
682.286	4433
682.334	5138
682.354	4879
682.382	4497
682.430	3835
682.476	4148
682.477	4123
682.525	4558
682.572	4277
682.598	4671
682.620	4977
682.667	4545
682.715	5417
682.720	5475
682.763	5698
682.810	5986
682.841	5374
682.857	4991
682.905	5214
682.952	5049
682.963	5163
683.000	5397
683.047	5047
683.085	5903
683.095	6112
683.142	4991
683.190	5356
683.206	5295
683.237	5132
683.284	5916
683.328	5616
683.332	5562
683.379	5407
683.426	5288
683.449	5476
683.473	5624
683.521	6031
683.568	6194
683.571	6216
683.615	6176
683.662	6803
683.693	6858
683.709	6815
683.757	6047
683.804	6347
683.814	6423
683.851	6708
683.898	6329
683.936	6942
683.945	7060
683.992	6854
684.039	7559
684.057	7788
684.086	8102
684.133	8064
684.179	7462
684.180	7411
684.227	8821
684.274	7633
684.300	8252
684.321	8707
684.368	7311
684.415	8397
684.422	8327
684.462	7641
684.509	7444
684.543	7543
684.556	7641
684.603	7623
684.649	7444
684.665	7754
684.696	8290
684.743	7857
684.786	8526
684.790	8561
684.837	7814
684.883	8724
684.908	8646
684.930	8594
684.977	8670
685.023	8737
685.029	8746
685.070	8553
685.117	7869
685.150	8449
685.164	8709
685.210	8979
685.257	9805
685.272	9644
685.303	9280
685.350	10306
685.393	9622
685.396	9568
685.443	10165
685.490	11538
685.514	11545
685.536	11136
685.583	10972
685.629	10028
685.636	9904
685.675	9470
685.722	10398
685.757	10095
685.768	9943
685.815	10947
685.861	10399
685.878	10393
685.908	10415
685.954	10555
686.000	10115
686.000	10104
686.047	10457
686.093	10900
686.121	11224
686.139	11248
686.185	10652
686.232	10580
686.242	10617
686.278	10637
686.324	10920
686.363	10422
686.370	10353
686.416	9855
686.463	10559
686.484	10104
686.509	9661
686.555	10340
686.601	10389
686.606	10439
686.647	10697
686.693	10372
686.727	10530
686.739	10617
686.785	10644
686.831	10862
686.848	10826
686.877	10690
686.923	10335
686.969	10540
686.969	10540
687.015	10830
687.061	10965
687.090	11579
687.107	11805
687.153	11545
687.199	10772
687.211	10777
687.245	11047
687.291	11463
687.332	11683
687.336	11687
687.382	12376
687.428	11269
687.453	11513
687.474	11645
687.520	11055
687.565	11252
687.574	11230
687.611	11375
687.657	11800
687.695	11897
687.702	11943
687.748	12751
687.794	12939
687.816	12789
687.839	12307
687.885	11865
687.931	11907
687.937	11763
687.976	11350
688.022	12121
688.058	12187
688.067	12229
688.113	12806
688.158	12357
688.179	12732
688.204	13125
688.249	12656
688.295	12833
688.300	12889
688.340	13249
688.386	13625
688.421	12916
688.431	12749
688.477	12617
688.522	13003
688.542	13065
688.567	13096
688.613	12728
688.658	12316
688.663	12400
688.703	13345
688.749	13193
688.784	13384
688.794	13394
688.839	13093
688.884	12864
688.905	12891
688.930	12985
688.975	12956
689.020	12892
689.026	12818
689.065	12485
689.110	13121
689.146	13155
689.155	13159
689.201	13164
689.246	12760
689.267	12966
689.291	13215
689.336	13154
689.381	13178
689.388	13109
689.426	13105
689.471	13652
689.509	13920
689.516	13927
689.561	14166
689.606	13255
689.630	13390
689.651	13496
689.696	13045
689.741	13689
689.750	13473
689.785	13009
689.830	13619
689.871	13402
689.875	13375
689.920	13431
689.965	13187
689.992	13220
690.010	13357
690.054	13487
690.099	13834
690.112	13818
690.144	13929
690.189	13944
690.233	13960
690.233	13977
690.278	14140
690.323	14258
690.354	14173
690.367	14166
690.412	13892
690.457	13781
690.474	13857
690.501	14036
690.546	13794
690.590	13610
690.595	13581
690.635	13610
690.680	13661
690.716	13786
690.724	13847
690.769	13837
690.813	14460
690.836	14154
690.857	14125
690.902	15055
690.946	14991
690.957	15191
690.991	16116
691.035	17430
691.077	18097
691.080	18114
691.124	17577
691.168	17377
691.198	17455
691.213	17431
691.257	17004
691.301	16100
691.318	15878
691.346	15778
691.390	15513
691.434	16055
691.439	15989
691.478	16008
691.522	16267
691.559	16304
691.567	16369
691.611	17236
691.655	17441
691.680	17459
691.699	17105
691.743	16704
691.787	16254
691.800	15869
691.831	15552
691.875	16295
691.919	16763
691.921	16728
691.964	16328
692.008	15887
692.041	16145
692.052	16348
692.096	16458
692.139	16791
692.162	16740
692.183	16369
692.227	16465
692.271	15703
692.282	15618
692.315	16029
692.359	16353
692.402	16718
692.403	16751
692.447	16907
692.490	16965
692.523	17245
692.534	17330
692.578	17431
692.622	17334
692.643	17337
692.666	17160
692.709	16138
692.753	15734
692.763	15527
692.797	15684
692.840	16496
692.884	16756
692.884	16788
692.928	16981
692.971	16665
693.004	16817
693.015	16949
693.059	16896
693.102	17253
693.124	17271
693.146	17280
693.189	17295
693.233	16981
693.245	17013
693.276	17550
693.320	18231
693.363	18216
693.365	18191
693.407	17978
693.450	18135
693.485	17704
693.493	17747
693.537	18157
693.580	18450
693.605	18689
693.624	18897
693.667	18761
693.710	19324
693.725	19346
693.753	20417
693.797	22315
693.840	24223
693.845	24341
693.883	23244
693.926	22179
693.966	21279
693.970	21231
694.013	19873
694.056	19004
694.086	18358
694.099	18415
694.142	18458
694.185	18305
694.206	18225
694.229	18581
694.272	19182
694.315	19782
694.326	19901
694.358	20604
694.401	21481
694.444	22486
694.446	22476
694.487	22109
694.530	21704
694.566	21219
694.573	21002
694.616	19653
694.659	18076
694.686	17099
694.702	17236
694.745	17708
694.787	17788
694.806	17857
694.830	17854
694.873	17892
694.916	17929
694.926	17770
694.959	17950
695.002	18842
695.044	19450
695.046	19436
695.087	19806
695.130	19859
695.166	20119
695.172	20139
695.215	19601
695.258	19479
695.286	19188
695.301	19135
695.343	19049
695.386	18688
695.406	18536
695.428	18609
695.471	18600
695.514	18915
695.526	18885
695.556	19179
695.599	19428
695.641	19668
695.646	19676
695.684	19488
695.726	18953
695.766	18659
695.769	18727
695.811	18837
695.854	19198
695.886	19227
695.896	19248
695.938	19216
695.981	19425
696.005	19290
696.023	19460
696.065	19938
696.108	20655
696.125	20686
696.150	20477
696.192	20383
696.235	20227
696.245	20139
696.277	20315
696.319	20437
696.361	20585
696.365	20546
696.404	20455
696.446	20413
696.485	20169
696.488	20232
696.530	20489
696.572	20641
696.604	20846
696.614	20899
696.656	20677
696.698	20606
696.724	20437
696.740	20415
696.783	20502
696.825	20364
696.844	20296
696.867	20407
696.909	20380
696.951	20405
696.964	20357
696.992	20176
697.034	20014
697.076	19470
697.083	19395
697.118	20099
697.160	20692
697.202	21327
697.203	21287
697.244	20869
697.286	20690
697.323	20207
697.327	20255
697.369	20337
697.411	20390
697.442	20425
697.453	20662
697.494	21297
697.536	22034
697.562	22424
697.578	22528
697.620	22672
697.661	22780
697.682	22780
697.703	23251
697.744	24066
697.786	25016
697.801	25225
697.828	25371
697.869	25525
697.911	25694
697.921	25702
697.952	24665
697.994	23032
698.035	21535
698.040	21286
698.077	21221
698.118	21139
698.160	21003
698.160	20947
698.201	21097
698.243	21133
698.279	21148
698.284	21227
698.325	21439
698.367	21639
698.399	21736
698.408	21763
698.449	21625
698.491	21510
698.518	21360
698.532	21598
698.573	22159
698.614	22745
698.638	22997
698.656	23002
698.697	22896
698.738	22793
698.757	22692
698.779	22882
698.820	23108
698.862	23335
698.877	23366
698.903	23634
698.944	23951
698.985	24271
698.996	24299
699.026	24106
699.067	23749
699.116	23263
699.235	21889
699.354	22115
699.474	22555
699.593	23244
699.713	22471
699.832	21910
699.951	23775
700.070	23476
700.190	21512
700.309	22102
700.428	22765
700.547	21144
700.667	21541
700.786	23844
700.905	21449
701.024	22661
701.143	21311
701.262	20197
701.381	20996
701.500	22136
701.619	25575
701.738	22374
701.857	19923
701.976	20270
702.095	20254
702.214	23555
702.333	24248
702.452	21975
702.571	21159
702.690	20955
702.809	20058
702.928	20337
703.047	20191
703.165	20812
703.284	19759
703.403	20561
703.522	18981
703.640	20678
703.759	23583
703.878	25582
703.997	19849
704.115	19293
704.234	19500
704.353	20266
704.471	17689
704.590	18131
704.708	17770
704.827	17886
704.946	18638
705.064	18761
705.183	18634
705.301	20403
705.420	24229
705.538	21950
705.656	20018
705.775	20228
705.893	20070
706.012	21812
706.130	19691
706.249	20369
706.367	20522
706.485	21309
706.604	20077
706.722	22206
706.840	24506
706.958	23955
707.077	20476
707.195	20257
707.313	19234
707.431	19653
707.549	19133
707.668	18543
707.786	19006
707.904	18735
708.022	19200
708.140	18880
708.258	18933
708.376	19473
708.494	19474
708.612	20222
708.730	23611
708.848	23651
708.966	22988
709.084	23192
709.202	19360
709.320	21446
709.438	20975
709.556	20658
709.674	20574
709.791	20135
709.909	20001
710.027	19957
710.145	19938
710.263	19015
710.380	19419
710.498	20072
710.616	19311
710.733	20096
710.851	19462
710.969	20185
711.086	18626
711.204	19725
711.322	18898
711.439	18715
711.557	18720
711.674	18223
711.792	18455
711.909	17738
712.027	18075
712.144	18346
712.262	17924
712.379	19732
712.497	23449
712.614	23801
712.732	21735
712.849	20714
712.966	23344
713.084	28350
713.201	22972
713.318	23613
713.436	20406
713.553	21562
713.670	21832
713.787	22423
713.905	21983
714.022	20309
714.139	20647
714.256	25567
714.373	30028
714.490	46378
714.608	113500
714.725	461639
714.842	396098
714.959	38003
715.076	24611
715.193	21411
715.310	20333
715.427	19395
715.544	18821
715.661	19537
715.778	18424
715.895	20161
716.011	19710
716.128	18314
716.245	20291
716.362	25967
716.479	26069
716.596	19177
716.713	17584
716.829	17868
716.946	18175
717.063	18259
717.180	17131
717.296	16805
717.413	16844
717.530	18411
717.646	17254
717.763	17821
717.880	16514
717.996	16876
718.113	18336
718.229	17636
718.346	16447
718.462	18920
718.579	24427
718.695	45018
718.812	26822
718.928	19815
719.045	16649
719.161	16206
719.277	16035
719.394	15643
719.510	15892
719.626	16381
719.743	20067
719.859	23434
719.975	37251
720.092	132070
720.208	253755
720.324	34979
720.440	17565
720.557	21046
720.673	33103
720.789	32568
720.905	41931
721.021	20336
721.137	15325
721.253	16287
721.369	14706
721.486	16854
721.602	18727
721.718	14986
721.834	13104
721.950	15962
722.066	13604
722.181	15038
722.297	15872
722.413	14814
722.529	14260
722.645	14897
722.761	13765
722.877	13598
722.993	13583
723.108	14763
723.224	13658
723.340	13059
723.456	13689
723.571	13641
723.687	12495
723.803	13448
723.918	12892
724.034	13895
724.150	13624
724.265	13788
724.381	19884
724.497	22195
724.612	12990
724.728	12476
724.843	12402
724.959	14068
725.074	20440
725.190	21467
725.305	13371
725.421	13160
725.536	11868
725.651	12676
725.767	11424
725.882	12506
725.997	10722
726.113	12477
726.228	12016
726.343	11817
726.459	10259
726.574	12150
726.689	11146
726.804	12020
726.920	12173
727.035	12129
727.150	11832
727.265	11230
727.380	11773
727.495	12038
727.610	11112
727.725	11529
727.841	10703
727.956	11960
728.071	12153
728.186	11403
728.301	10840
728.416	13484
728.531	10776
728.645	11303
728.760	12038
728.875	13515
728.990	12552
729.105	12808
729.220	12663
729.335	13795
729.449	10681
729.564	10617
729.679	9892
729.794	10913
729.908	11186
730.023	11816
730.138	10428
730.253	10750
730.367	10221
730.482	10966
730.596	10284
730.711	12014
730.826	11482
730.940	12183
731.055	11593
731.169	11059
731.284	10478
731.398	10623
731.513	11491
731.627	11202
731.742	11486
731.856	12227
731.970	11577
732.085	13260
732.199	15937
732.313	23642
732.428	52367
732.542	144136
732.656	73035
732.771	18658
732.885	13511
732.999	12648
733.113	13442
733.227	13799
733.342	11534
733.456	11633
733.570	11033
733.684	11581
733.798	10305
733.912	10742
734.026	9768
734.140	10940
734.254	11299
734.368	14918
734.482	15495
734.596	10632
734.710	10224
734.824	11231
734.938	10253
735.052	11423
735.166	11663
735.280	10253
735.393	10243
735.507	11603
735.621	12714
735.735	15808
735.849	10296
735.962	10739
736.076	10906
736.190	11111
736.303	12530
736.417	13653
736.531	10765
736.644	10563
736.758	9577
736.872	9768
736.985	10069
737.099	10727
737.212	8772
737.326	10286
737.439	9703
737.553	10059
737.666	9360
737.780	9256
737.893	9696
738.007	9864
738.120	9659
738.233	9475
738.347	9727
738.460	9483
738.573	10384
738.687	10837
738.800	11379
738.913	14913
739.026	10888
739.140	9417
739.253	9688
739.366	9095
739.479	9274
739.592	9164
739.705	9108
739.818	8427
739.932	8990
740.045	10241
740.158	9076
740.271	9445
740.384	9399
740.497	9626
740.610	8757
740.723	8885
740.836	9327
740.949	11104
741.062	14467
741.174	11696
741.287	9600
741.400	9817
741.513	9009
741.626	10214
741.739	9609
741.851	9725
741.964	8725
742.077	9148
742.189	8903
742.302	9433
742.415	9450
742.527	8119
742.640	7621
742.753	8499
742.865	7650
742.978	8048
743.090	8152
743.203	8404
743.316	8377
743.428	6981
743.541	7586
743.653	7643
743.766	8112
743.878	8382
743.990	8579
744.103	9448
744.215	7764
744.327	9760
744.440	12635
744.552	18011
744.664	9578
744.777	8046
744.889	7326
745.001	7968
745.113	7418
745.226	7181
745.338	7293
745.450	7115
745.562	6931
745.674	7298
745.786	6987
745.898	7475
746.010	6224
746.122	8198
746.234	8327
746.347	6984
746.459	7032
746.570	6678
746.682	7232
746.794	7457
746.906	6989
747.018	8141
747.130	6838
747.242	7309
747.354	6825
747.466	7850
747.577	7450
747.689	7431
747.801	7385
747.913	6733
748.024	5362
748.136	6215
748.248	6290
748.359	6938
748.471	6430
748.583	6909
748.694	5886
748.806	7776
748.918	8046
749.029	7411
749.141	8722
749.252	8263
749.364	10049
749.475	20987
749.587	11239
749.698	7818
749.809	7230
749.921	6790
750.032	6755
750.144	6300
750.255	6041
750.366	6643
750.478	6725
750.589	7298
750.700	7577
750.811	8464
750.923	11027
751.034	23305
751.145	21644
751.256	7690
751.367	6375
751.479	6937
751.590	5946
751.701	6267
751.812	6014
751.923	6881
752.034	6652
752.145	5227
752.256	6261
752.367	6361
752.478	6145
752.589	6956
752.700	5667
752.811	6088
752.922	5935
753.032	7825
753.143	8906
753.254	6287
753.365	6643
753.476	6018
753.586	5250
753.697	6111
753.808	5172
753.919	5569
754.029	5690
754.140	7322
754.251	6245
754.361	5855
754.472	6013
754.582	6209
754.693	6644
754.804	5549
754.914	5068
755.025	5813
755.135	6114
755.246	7051
755.356	4949
755.466	6764
755.577	5424
755.687	5336
755.798	5126
755.908	6238
756.018	5637
756.129	5234
756.239	5730
756.349	5865
756.460	5731
756.570	5960
756.680	5764
756.790	6529
756.900	7379
757.011	5842
757.121	5669
757.231	5834
757.341	5459
757.451	5515
757.561	4629
757.671	5261
757.781	5002
757.891	6136
758.001	6005
758.111	7267
758.221	6518
758.331	8052
758.441	7073
758.551	11058
758.661	9370
758.771	7224
758.880	5957
758.990	6028
759.100	4953
759.210	5960
759.320	6303
759.429	5998
759.539	5644
759.649	5951
759.758	5619
759.868	6316
759.978	5421
760.087	6158
760.197	6557
760.307	6787
760.416	7108
760.526	6003
760.635	6002
760.745	6623
760.854	6392
760.964	6882
761.073	7098
761.182	6835
761.292	5573
761.401	6794
761.511	5225
761.620	6585
761.729	6091
761.839	5263
761.948	6210
762.057	5990
762.166	6175
762.276	5492
762.385	5736
762.494	5191
762.603	5675
762.712	6004
762.822	5338
762.931	5312
763.040	5019
763.149	5265
763.258	5223
763.367	5952
763.476	5493
763.585	6209
763.694	5185
763.803	5326
763.912	6092
764.021	5438
764.130	5275
764.238	5044
764.347	5115
764.456	5359
764.565	5758
764.674	6394
764.783	6010
764.891	5588
765.000	6669
765.109	8056
765.217	7377
765.326	8881
765.435	9489
765.543	9405
765.652	10823
765.761	11953
765.869	17076
765.978	25214
766.086	43933
766.195	88785
766.303	246393
766.412	693663
766.520	488001
766.629	110056
766.737	42071
766.846	26152
766.954	18440
767.062	15375
767.171	11997
767.279	10608
767.387	8975
767.496	8512
767.604	8045
767.712	7764
767.820	7221
767.928	7560
768.037	6888
768.145	7254
768.253	8095
768.361	6945
768.469	6678
768.577	6645
768.685	6499
768.793	7602
768.901	6922
769.009	7589
769.117	8144
769.225	10413
769.333	12964
769.441	19728
769.549	36683
769.657	85970
769.765	297590
769.873	548169
769.981	144451
770.088	33727
770.196	17317
770.304	15123
770.412	11034
770.519	10031
770.627	8177
770.735	7951
770.842	7194
770.950	7414
771.058	7900
771.165	7584
771.273	6959
771.380	7298
771.488	7034
771.595	6881
771.703	6419
771.810	6890
771.918	6800
772.025	7236
772.133	6758
772.240	6726
772.348	7563
772.455	7207
772.562	5706
772.670	5918
772.777	8003
772.884	6446
772.991	6858
773.099	6477
773.206	5707
773.313	6791
773.420	6213
773.528	6272
773.635	6223
773.742	7654
773.849	6500
773.956	6198
774.063	5929
774.170	5758
774.277	5843
774.384	6273
774.491	6254
774.598	7022
774.705	6749
774.812	9871
774.919	7136
775.026	6959
775.133	6328
775.239	5962
775.346	5848
775.453	6154
775.560	5395
775.667	5105
775.773	5212
775.880	6097
775.987	5524
776.093	6129
776.200	6600
776.307	5387
776.413	5163
776.520	5706
776.627	5403
776.733	6136
776.840	4168
776.946	6589
777.053	5400
777.159	6557
777.266	4876
777.372	6726
777.478	6075
777.585	6160
777.691	5545
777.798	5212
777.904	6483
778.010	9921
778.117	8676
778.223	5322
778.329	4729
778.435	5285
778.542	5597
778.648	4533
778.754	4418
778.860	5086
778.966	5880
779.072	5089
779.178	5120
779.284	4474
779.391	4498
779.497	4337
779.603	6379
779.708	5190
779.815	6746
779.920	13970
780.026	17481
780.132	6123
780.238	5049
780.344	5290
780.450	6066
780.556	4241
780.661	4446
780.767	5127
780.873	4623
780.979	5448
781.085	4321
781.190	4817
781.296	4101
781.402	5715
781.507	4268
781.613	4508
781.719	4781
781.824	4439
781.930	4811
782.035	4874
782.141	5159
782.246	4197
782.352	4823
782.457	4431
782.563	3889
782.668	4767
782.773	5051
782.879	4382
782.984	5230
783.090	6837
783.195	10032
783.300	6798
783.405	5152
783.511	5332
783.616	5211
783.721	4858
783.826	4557
783.932	5369
784.037	4708
784.142	5001
784.247	4033
784.352	5737
784.457	4810
784.562	5006
784.667	4841
784.772	4842
784.877	4688
784.982	5220
785.087	3796
785.192	4723
785.297	4655
785.402	4530
785.507	4356
785.611	4774
785.716	4853
785.821	3900
785.926	4233
786.031	4438
786.135	4289
786.240	4056
786.345	2786
786.450	4820
786.554	3512
786.659	3807
786.763	2349
786.868	4881
786.973	4540
787.077	4286
787.182	3424
787.286	4623
787.391	3212
787.495	3113
787.600	4165
787.704	4044
787.809	4005
787.913	3783
788.017	3925
788.122	3710
788.226	3721
788.330	3295
788.435	3931
788.539	5141
788.643	2904
788.747	3577
788.852	3094
788.956	3107
789.060	3199
789.164	4759
789.268	2671
789.372	4635
789.476	3849
789.580	3409
789.684	3230
789.788	4467
789.892	2430
789.996	4056
790.100	3606
790.204	3650
790.308	4003
790.412	3239
790.516	3504
790.620	3096
790.724	3449
790.828	3458
790.931	2513
791.035	4194
791.139	3273
791.242	3489
791.346	4116
791.450	3445
791.554	3630
791.657	2316
791.761	4138
791.864	4480
791.968	3697
792.072	4002
792.175	3927
792.279	4104
792.382	3909
792.486	3850
792.589	2671
792.693	3665
792.796	2050
792.899	4555
793.003	4036
793.106	1974
793.209	3257
793.313	4985
793.416	2109
793.519	4536
793.623	7284
793.726	10514
793.829	4485
793.932	3676
794.035	2207
794.138	4736
794.242	4211
794.345	4314
794.448	5299
794.551	9537
794.654	11003
794.757	11519
794.860	4615
794.963	4242
795.066	2172
795.169	3692
795.272	2375
795.375	3114
795.477	2914
795.580	4131
795.683	2683
795.786	2747
795.889	1781
795.991	3727
796.094	3455
796.197	3106
796.300	3197
796.402	2839
796.505	1689
796.608	2413
796.710	4165
796.813	2812
796.915	2211
797.018	2886
797.120	3384
797.223	2107
797.326	3987
797.428	2773
797.530	2383
797.633	2932
797.735	4328
797.838	4178
797.940	4425
798.042	2615
798.145	2402
798.247	3070
798.349	1706
798.452	3587
798.554	2404
798.656	2648
798.758	3841
798.860	2112
798.962	1820
799.065	2945
799.167	2632
799.269	4003
799.371	3312
799.473	4018
799.575	2391
799.677	4321
799.779	5946
799.881	8191
799.983	4315
800.085	1831
800.187	3237
800.289	2275
800.390	3078
800.492	2033
800.594	3905
800.696	2837
800.798	2660
800.899	2440
801.001	2010
801.103	2228
801.205	2076
801.306	2290
801.408	1736
801.509	2773
801.611	1885
801.713	2854
801.814	1512
801.916	2939
802.017	2340
802.119	1756
802.220	2500
802.322	833
802.423	4068
802.525	2904
802.626	2533
802.727	3204
802.829	2592
802.930	1063
803.031	4085
803.133	2479
803.234	1593
803.335	2646
803.436	1480
803.538	2612
803.639	1596
803.740	3225
803.841	1565
803.942	2648
804.043	2331
804.144	1602
804.245	2454
804.346	2598
804.447	2147
804.548	5937
804.649	5786
804.750	2432
804.851	2596
804.952	1726
805.053	1996
805.154	2452
805.255	2489
805.355	2577
805.456	1318
805.557	2151
805.658	1409
805.758	3581
805.859	2854
805.960	1927
806.061	1949
806.161	2332
806.262	2764
806.362	2521
806.463	1450
806.564	3559
806.664	1719
806.765	2739
806.865	2696
806.966	2553
807.066	2219
807.166	2678
807.267	3288
807.367	2102
807.468	2903
807.568	1151
807.668	2650
807.769	3314
807.869	1758
807.969	2841
808.069	2337
808.170	1994
808.270	2180
808.370	3198
808.470	3891
808.570	3714
808.670	2254
808.770	2545
808.870	1854
808.970	1987
809.070	1433
809.170	1432
809.271	2312
809.370	2108
809.470	1455
809.570	1797
809.670	1409
809.770	1967
809.870	1512
809.970	2043
810.070	2407
810.169	2605
810.269	1109
810.369	3142
810.469	2345
810.568	725
810.668	1609
810.768	2124
810.867	2284
810.967	1932
811.066	1394
811.166	2197
811.265	2422
811.365	1442
811.464	1415
811.564	2485
811.663	2625
811.763	795
811.862	2769
811.962	3130
812.061	1977
812.160	2732
812.260	2940
812.359	5651
812.458	9146
812.557	27151
812.657	38204
812.756	11450
812.855	3943
812.954	3109
813.053	3019
813.153	3011
813.252	1798
813.351	2299
813.450	2982
813.549	2236
813.648	2586
813.747	1791
813.846	3095
813.945	2546
814.044	2366
814.143	3031
814.242	3136
814.341	1881
814.439	2866
814.538	3622
814.637	2920
814.736	2089
814.835	2983
814.933	3242
815.032	3764
815.131	2957
815.229	3647
815.328	5516
815.427	3983
815.525	5054
815.624	4293
815.722	3806
815.821	3757
815.919	4261
816.018	3275
816.116	5492
816.215	3385
816.313	4650
816.412	4832
816.510	5129
816.609	6781
816.707	5512
816.805	4993
816.904	5723
817.002	6159
817.100	7432
817.198	7683
817.296	8732
817.395	9599
817.493	12436
817.591	12690
817.689	17623
817.787	23013
817.885	37453
817.983	63583
818.081	130440
818.179	297813
818.277	637979
818.375	525938
818.473	183485
818.571	78450
818.669	53162
818.767	43467
818.865	44204
818.963	51658
819.061	73536
819.158	122115
819.256	239481
819.354	503856
819.452	854557
819.549	592073
819.647	235427
819.745	108276
819.842	66092
819.940	45105
820.038	32509
820.135	25578
820.233	21237
820.330	16068
820.428	13758
820.525	12340
820.623	10368
820.720	9435
820.818	9838
820.915	8504
821.012	7304
821.110	6092
821.207	7819
821.304	5341
821.402	6249
821.499	5682
821.596	5676
821.693	5966
821.791	6687
821.888	7519
821.985	13909
822.082	9346
822.179	5961
822.276	3756
822.373	5258
822.470	4029
822.567	4354
822.664	3173
822.761	4852
822.858	3047
822.955	3410
823.052	3736
823.149	2943
823.246	3084
823.343	3497
823.440	3779
823.536	3735
823.633	3165
823.730	2931
823.827	3171
823.923	3323
824.020	4187
824.117	2165
824.213	1215
824.310	3210
824.407	2005
824.503	3362
824.600	2792
824.696	2032
824.793	3711
824.889	2055
824.986	2141
825.082	2489
825.179	2828
825.275	3418
825.371	1848
825.468	3165
825.564	1052
825.660	2583
825.757	2212
825.853	3092
825.949	1804
826.045	2252
826.142	1908
826.238	2312
826.334	2220
826.430	1067
826.526	2192
826.622	1439
826.718	1852
826.814	1855
826.910	3653
827.006	1447
827.102	623
827.198	3528
827.294	1925
827.390	2389
827.486	2377
827.582	839
827.678	1264
827.774	2881
827.869	1347
827.965	3138
828.061	1355
828.157	1914
828.252	2858
828.348	1336
828.444	2076
828.539	1457
828.635	1824
828.731	1791
828.826	533
828.922	3531
829.017	1796
829.113	2789
829.208	1418
829.304	733
829.399	2762
829.495	1782
829.590	2607
829.685	724
829.781	1663
829.876	1606
829.971	1196
830.066	2032
830.162	1072
830.257	1821
830.352	1476
830.447	2139
830.543	1742
830.638	1357
830.733	2956
830.828	2045
830.923	2056
831.018	673
831.113	1449
831.208	1068
831.303	1193
831.398	1577
831.493	939
831.588	3082
831.683	280
831.778	1928
831.873	1451
831.967	2149
832.062	998
832.157	805
832.252	2952
832.346	2277
832.441	3512
832.536	5011
832.631	11885
832.725	9435
832.820	2607
832.914	1599
833.009	1255
833.104	3217
833.198	3180
833.293	2528
833.387	1706
833.482	2200
833.576	2049
833.670	2119
833.765	1825
833.859	1781
833.954	2813
834.048	1625
834.142	1850
834.237	916
834.331	1425
834.425	1215
834.519	265
834.613	2019
834.708	1188
834.802	1777
834.896	792
834.990	1814
835.084	1744
835.178	1946
835.272	1575
835.366	985
835.460	2123
835.554	1702
835.648	1731
835.742	589
835.836	1665
835.930	266
836.024	2196
836.117	2430
836.211	1653
836.305	1645
836.399	2762
836.493	609
836.586	2175
836.680	596
836.774	1259
836.867	1790
836.961	901
837.055	958
837.148	1703
837.242	1428
837.335	1743
837.429	1241
837.522	395
837.616	1391
837.709	3198
837.803	2176
837.896	2307
837.989	1091
838.083	2359
838.176	3137
838.269	1969
838.363	2881
838.456	1464
838.549	4164
838.642	5770
838.735	13276
838.829	5448
838.922	903
839.015	1109
839.108	513
839.201	913
839.294	1983
839.387	2091
839.480	1352
839.573	1975
839.666	1728
839.759	661
839.852	733
839.945	1240
840.038	575
840.131	1107
840.223	1810
840.316	1904
840.409	644
840.502	-71
840.594	1693
840.687	-201
840.780	1610
840.873	862
840.965	977
841.058	1871
841.150	2011
841.243	1050
841.336	2362
841.428	1080
841.521	1087
841.613	256
841.706	1379
841.798	1361
841.890	1228
841.983	72
842.075	2520
842.167	502
842.260	1878
842.352	1877
842.444	1891
842.537	2345
842.629	4177
842.721	599
842.813	1297
842.905	-59
842.997	2198
843.090	303
843.182	2185
843.274	2255
843.366	7291
843.458	11235
843.550	7241
843.642	1966
843.734	951
843.826	1202
843.918	1742
844.009	1065
844.101	1097
844.193	810
844.285	778
844.377	881
844.469	1579
844.560	591
844.652	1826
844.744	1080
844.835	808
844.927	1226
845.019	1275
845.110	1292
845.202	1240
845.293	923
845.385	432
845.476	562
845.568	1924
845.659	705
845.751	2266
845.842	1339
845.934	222
846.025	546
846.116	575
846.208	890
846.299	1051
846.390	610
846.482	1851
846.573	2641
846.664	2623
846.755	3587
846.846	3177
846.937	-68
847.029	1203
847.120	642
847.211	774
847.302	1430
847.393	408
847.484	1740
847.575	1199
847.666	563
847.757	-16
847.847	1673
847.938	2449
848.029	774
848.120	568
848.211	558
848.302	925
848.392	-237
848.483	1887
848.574	686
848.664	961
848.755	1028
848.846	1212
848.936	-105
849.027	1582
849.118	565
849.208	1022
849.299	1381
849.389	2926
849.480	4820
849.570	10551
849.661	17197
849.751	28658
849.841	10020
849.932	1848
850.022	526
850.112	1253
850.203	525
850.293	175
850.383	1133
850.474	413
850.564	481
850.654	732
850.744	1379
850.834	-106
850.924	616
851.014	1524
851.104	503
851.194	1237
851.284	2155
851.374	2813
851.464	2566
851.554	1132
851.644	535
851.734	1276
851.824	1437
851.914	275
852.004	962
852.094	911
852.183	1005
852.273	2385
852.363	1030
852.452	896
852.542	1214
852.632	585
852.721	786
852.811	845
852.901	872
852.990	2237
853.080	1421
853.169	751
853.259	1553
853.348	1214
853.438	1595
853.527	2935
853.617	2586
853.706	8036
853.795	13767
853.885	32728
853.974	59668
854.063	110826
854.152	170688
854.242	57595
854.331	8821
854.420	3351
854.509	2735
854.598	3441
854.687	2016
854.777	2239
854.866	1385
854.955	1509
855.044	896
855.133	1729
855.222	1112
855.311	1273
855.400	806
855.488	1078
855.577	492
855.666	1799
855.755	666
855.844	1132
855.933	694
856.021	721
856.110	712
856.199	993
856.288	349
856.376	1105
856.465	694
856.554	1656
856.642	513
856.731	1038
856.819	160
856.908	905
856.996	567
857.085	682
857.173	703
857.262	1653
857.350	179
857.438	870
857.527	691
857.615	459
857.703	1688
857.792	1174
857.880	677
857.968	861
858.056	938
858.145	959
858.233	652
858.321	541
858.409	609
858.497	641
858.585	342
858.673	1538
858.761	568
858.849	350
858.937	501
859.025	832
859.113	1110
859.201	510
859.289	917
859.377	1163
859.465	1140
859.552	606
859.640	70
859.728	917
859.816	1144
859.903	905
859.991	312
860.079	-116
860.166	559
860.254	955
860.342	1320
860.429	101
860.517	157
860.604	1011
860.692	1129
860.779	556
860.867	335
860.954	1432
861.042	1230
861.129	2293
861.216	1157
861.304	283
861.391	812
861.478	1445
861.565	545
861.653	1091
861.740	124
861.827	145
861.914	797
862.001	348
862.089	1914
862.176	257
862.263	-120
862.350	610
862.437	172
862.524	925
862.611	628
862.698	1249
862.785	726
862.871	747
862.958	256
863.045	-70
863.132	77
863.219	887
863.306	-199
863.392	836
863.479	472
863.566	465
863.652	871
863.739	1048
863.826	414
863.912	1354
863.999	-205
864.086	338
864.172	628
864.259	512
864.345	905
864.432	881
864.518	836
864.604	1241
864.691	307
864.777	1331
864.863	1251
864.950	1400
865.036	1160
865.122	2419
865.209	2115
865.295	2091
865.381	1601
865.467	3336
865.553	2895
865.639	4430
865.726	7181
865.812	15831
865.898	30959
865.984	45336
866.070	85822
866.156	86135
866.242	20689
866.328	4863
866.414	1750
866.499	3264
866.585	2314
866.671	1097
866.757	1902
866.843	2539
866.928	1003
867.014	2232
867.100	2779
867.186	1751
867.271	2428
867.357	2965
867.442	2458
867.528	825
867.614	641
867.699	1882
867.785	1731
867.870	1589
867.956	1207
868.041	2112
868.127	1661
868.212	2345
868.297	2225
868.383	2837
868.468	3557
868.553	6107
868.639	6812
868.724	15537
868.809	13790
868.894	3270
868.979	848
869.065	1552
869.150	60
869.235	848
869.320	973
869.405	1021
869.490	1194
869.575	614
869.660	1744
869.745	1882
869.830	693
869.915	1657
870.000	1050
870.085	1514
870.169	759
870.254	1250
870.339	506
870.424	164
870.509	805
870.593	1714
870.678	673
870.763	1322
870.847	839
870.932	822
871.016	1366
871.101	386
871.186	1503
871.270	1499
871.355	434
871.439	1459
871.523	123
871.608	536
871.692	373
871.777	1081
871.861	558
871.945	1819
872.030	1232
872.114	-190
872.198	968
872.282	733
872.367	1349
872.451	512
872.535	1245
872.619	1115
872.703	-49
872.787	815
872.871	936
872.955	427
873.039	-143
873.123	1567
873.207	1630
873.291	1770
873.375	376
873.459	1282
873.543	708
873.627	1444
873.711	838
873.794	1748
873.878	553
873.962	618
874.045	349
874.129	519
874.137	541
874.213	762
874.245	810
874.296	888
874.352	285
874.380	-12
874.460	607
874.464	632
874.547	745
874.568	854
874.631	1178
874.676	969
874.714	777
874.784	1065
874.798	1130
874.881	1039
874.892	1066
874.965	1259
874.999	1197
875.048	1074
875.107	1030
875.131	1035
875.215	242
875.215	243
875.298	823
875.323	698
875.381	512
875.430	1182
875.465	1638
875.538	909
875.548	803
875.631	1022
875.646	851
875.714	12
875.753	168
875.798	403
875.861	353
875.881	324
875.964	547
875.968	579
876.047	1105
876.076	1166
876.130	1300
876.183	1160
876.213	1104
876.291	1658
876.296	1688
876.379	1284
876.398	1257
876.462	1177
876.506	929
876.545	736
876.613	551
876.628	526
876.711	406
876.721	502
876.794	1176
876.828	957
876.877	575
876.935	486
876.960	505
877.043	1130
877.043	1132
877.125	1506
877.150	1615
877.208	1740
877.258	1434
877.291	1251
877.365	1004
877.374	975
877.456	590
877.472	664
877.539	1083
877.579	1082
877.622	956
877.687	500
877.704	417
877.787	1348
877.794	1282
877.869	701
877.901	910
877.952	1089
878.008	853
878.034	751
878.115	427
878.117	422
878.199	-389
878.222	-39
878.282	776
878.329	853
878.364	1071
878.437	1298
878.447	1301
878.529	223
878.544	257
878.611	283
878.651	285
878.694	427
878.758	806
878.776	895
878.858	375
878.865	464
878.941	1324
878.972	918
879.023	311
879.078	835
879.105	1163
879.185	1222
879.187	1221
879.269	1311
879.292	1297
879.351	1051
879.399	957
879.433	1036
879.506	696
879.516	637
879.598	710
879.613	708
879.680	663
879.720	635
879.762	556
879.827	501
879.844	521
879.926	983
879.933	996
880.007	1134
880.040	1408
880.089	1865
880.147	2808
880.171	3154
880.253	6274
880.254	6302
880.335	9768
880.360	10592
880.417	12541
880.467	18762
880.499	22899
880.574	25287
880.580	25208
880.662	7471
880.680	6110
880.744	2379
880.787	1597
880.825	1088
880.893	1427
880.907	1451
880.989	984
881.000	936
881.070	942
881.106	828
881.152	559
881.213	418
881.233	447
881.315	631
881.319	639
881.396	405
881.426	263
881.478	356
881.532	998
881.559	1274
881.639	904
881.641	884
881.722	287
881.745	197
881.803	369
881.852	587
881.885	655
881.958	535
881.966	509
882.047	1117
882.064	1116
882.129	1114
882.171	1603
882.210	2516
882.277	3425
882.291	3389
882.372	1514
882.383	1354
882.454	753
882.489	603
882.535	126
882.596	-67
882.616	-47
882.697	-304
882.702	-300
882.778	321
882.808	502
882.859	466
882.914	371
882.940	386
883.020	386
883.021	385
883.102	535
883.127	457
883.183	488
883.233	492
883.264	489
883.339	871
883.345	871
883.426	325
883.445	318
883.507	617
883.551	462
883.587	290
883.657	675
883.668	733
883.749	883
883.763	825
883.830	354
883.869	186
883.910	218
883.975	249
883.991	347
884.072	952
884.081	1025
884.152	822
884.187	683
884.233	571
884.292	725
884.314	873
884.394	344
884.398	354
884.475	221
884.504	175
884.555	204
884.610	-111
884.636	-184
884.716	107
884.716	112
884.797	325
884.821	339
884.877	420
884.927	536
884.958	480
885.033	244
885.038	246
885.118	308
885.139	258
885.199	121
885.244	248
885.279	285
885.350	211
885.359	232
885.439	479
885.456	410
885.520	-227
885.561	-126
885.600	315
885.667	595
885.680	603
885.760	796
885.773	786
885.840	531
885.878	505
885.920	544
885.984	423
886.000	425
886.080	616
886.089	625
886.160	497
886.195	482
886.240	512
886.300	435
886.320	392
886.400	468
886.406	456
886.480	727
886.511	943
886.560	813
886.616	492
886.640	605
886.720	894
886.722	900
886.800	376
886.827	230
886.879	704
886.932	1142
886.959	935
887.038	532
887.039	537
887.119	537
887.143	671
887.198	894
887.248	834
887.278	654
887.354	156
887.358	163
887.437	507
887.459	591
887.517	550
887.564	432
887.596	268
887.669	1
887.676	-9
887.755	-242
887.774	-256
887.835	624
887.880	1185
887.914	1001
887.985	751
887.994	751
888.073	571
888.090	562
888.153	914
888.195	1088
888.232	903
888.300	594
888.311	586
888.391	522
888.405	513
888.470	394
888.510	293
888.549	233
888.615	177
888.628	175
888.708	136
888.720	137
888.787	427
888.825	536
888.866	287
888.930	-5
888.945	51
889.024	280
889.035	324
889.103	616
889.140	729
889.182	778
889.245	846
889.261	732
889.340	234
889.349	177
889.419	540
889.454	713
889.498	514
889.559	254
889.577	267
889.656	336
889.664	346
889.735	492
889.768	563
889.814	756
889.873	1012
889.978	34
890.083	-535
890.187	183
890.292	751
890.397	412
890.501	609
890.606	-687
890.710	1015
890.815	436
890.919	508
891.024	404
891.128	359
891.233	217
891.337	338
891.442	885
891.546	128
891.650	318
891.755	1248
891.859	723
891.963	253
892.068	563
892.172	475
892.276	125
892.380	213
892.484	-183
892.589	-95
892.693	947
892.797	276
892.901	250
893.005	657
893.109	387
893.213	105
893.317	831
893.421	-179
893.525	505
893.629	272
893.733	-256
893.837	319
893.941	436
894.045	1289
894.148	595
894.252	1141
894.356	183
894.460	430
894.564	126
894.667	914
894.771	-440
894.875	-526
894.978	848
895.082	-119
895.186	289
895.289	426
895.393	547
895.496	-35
895.600	-208
895.703	234
895.807	636
895.910	841
896.014	-173
896.117	506
896.221	164
896.324	431
896.427	38
896.531	447
896.634	-180
896.737	653
896.840	49
896.944	385
897.047	-112
897.150	352
897.253	0
897.356	995
897.460	43
897.563	-350
897.666	-640
897.769	206
897.872	16
897.975	685
898.078	-305
898.181	7
898.284	-667
898.387	560
898.490	269
898.593	846
898.695	692
898.798	243
898.901	763
899.004	283
899.107	178
899.209	21
899.312	-401
899.415	301
899.518	-107
899.620	-233
899.723	-51
899.826	786
899.928	833
900.031	7
900.133	840
900.236	443
900.338	-109
900.441	455
900.543	464
900.646	595
900.748	604
900.851	489
900.953	98
901.055	-26
901.158	243
901.260	151
901.362	737
901.465	-198
901.567	-300
901.669	759
901.771	-348
901.873	588
901.976	-44
902.078	425
902.180	-244
902.282	-26
902.384	32
902.486	504
902.588	62
902.690	-319
902.792	507
902.894	966
902.996	-225
903.098	-687
903.200	-99
903.302	392
903.404	-530
903.505	-125
903.607	599
903.709	913
903.811	137
903.913	812
904.014	-412
904.116	436
904.218	269
904.319	423
904.421	100
904.523	446
904.624	-189
904.726	528
904.827	-516
904.929	-993
905.030	1
905.132	438
905.233	-556
905.335	-370
905.436	297
905.537	267
905.639	471
905.740	382
905.841	23
905.943	-445
906.044	-116
906.145	73
906.247	-563
906.348	1067
906.449	-557
906.550	951
906.651	178
906.752	715
906.854	162
906.955	654
907.056	100
907.157	90
907.258	379
907.359	-110
907.460	237
907.561	79
907.662	-269
907.762	321
907.863	61
907.964	127
908.065	530
908.166	460
908.267	-388
908.367	18
908.468	334
908.569	-83
908.670	172
908.770	582
908.871	245
908.971	60
909.072	-135
909.173	598
909.273	573
909.374	-312
909.474	197
909.575	668
909.675	359
909.776	716
909.876	21
909.977	166
910.077	592
910.177	-336
910.278	181
910.378	-485
910.478	-267
910.579	-342
910.679	-376
910.779	577
910.879	132
910.980	-838
911.080	232
911.180	-338
911.280	-471
911.380	-203
911.480	443
911.580	-27
911.680	541
911.780	769
911.880	-441
911.980	297
912.080	-225
912.180	699
912.280	-98
912.380	431
912.480	235
912.580	-53
912.679	-67
912.779	103
912.879	729
912.979	66
913.078	-634
913.178	340
913.278	539
913.377	68
913.477	187
913.577	307
913.676	487
913.776	12
913.875	-666
913.975	1080
914.074	-278
914.174	356
914.273	122
914.373	366
914.472	165
914.572	-574
914.671	-40
914.770	-365
914.870	22
914.969	-768
915.068	-276
915.167	-259
915.267	-23
915.366	89
915.465	-813
915.564	44
915.663	-259
915.763	86
915.862	635
915.961	579
916.060	-447
916.159	-235
916.258	-326
916.357	264
916.456	-622
916.555	-62
916.654	-85
916.752	192
916.851	426
916.950	620
917.049	-246
917.148	-364
917.247	71
917.345	449
917.444	17
917.543	-13
917.642	126
917.740	215
917.839	-534
917.937	611
918.036	43
918.135	64
918.233	5
918.332	-390
918.430	-661
918.529	481
918.627	-519
918.726	-572
918.824	131
918.923	500
919.021	86
919.119	823
919.218	106
919.316	-132
919.414	-93
919.512	189
919.611	-161
919.709	-472
919.807	227
919.905	2
920.003	-333
920.102	407
920.200	622
920.298	1266
920.396	-718
920.494	63
920.592	-51
920.690	808
920.788	217
920.886	255
920.984	350
921.082	173
921.180	288
921.277	-494
921.375	622
921.473	220
921.571	-68
921.669	149
921.766	181
921.864	1165
921.962	582
922.060	183
922.157	45
922.255	876
922.352	340
922.450	687
922.548	995
922.645	771
922.743	793
922.840	1862
922.938	1602
923.035	1552
923.133	1622
923.230	2176
923.327	1509
923.425	2134
923.522	1245
923.619	658
923.717	432
923.814	1405
923.911	1255
924.008	1799
924.106	565
924.203	1514
924.300	228
924.397	1676
924.494	1711
924.591	998
924.688	621
924.786	1185
924.883	1582
924.979	1027
925.077	981
925.173	2089
925.270	1212
925.367	1444
925.464	1961
925.561	1542
925.658	893
925.755	971
925.852	1244
925.948	1344
926.045	657
926.142	1837
926.239	950
926.335	1121
926.432	1569
926.529	787
926.625	2503
926.722	1330
926.818	469
926.915	774
927.011	1148
927.108	850
927.204	1390
927.301	1237
927.397	1067
927.494	1487
927.590	756
927.687	1008
927.783	1483
927.879	1040
927.976	656
928.072	1107
928.168	646
928.264	1405
928.361	748
928.457	1228
928.553	1228
928.649	863
928.745	1080
928.841	965
928.937	674
929.033	1033
929.129	800
929.225	749
929.321	1220
929.417	885
929.513	397
929.609	811
929.705	1035
929.801	861
929.897	606
929.993	760
930.089	88
930.184	508
930.280	708
930.376	1427
930.471	339
930.567	906
930.663	975
930.758	1049
930.854	854
930.950	517
931.045	-41
931.141	1103
931.236	801
931.332	377
931.427	275
931.523	1225
931.618	1336
931.714	1217
931.809	1180
931.905	1138
932.000	451
932.095	883
932.191	537
932.286	878
932.381	908
932.476	937
932.572	85
932.667	664
932.762	992
932.857	1042
932.952	602
933.047	1240
933.142	558
933.237	983
933.332	1130
933.427	1552
933.522	262
933.617	988
933.712	1405
933.807	1376
933.902	-281
933.997	1064
934.092	-226
934.187	971
934.282	289
934.376	717
934.471	1033
934.566	548
934.661	975
934.755	360
934.850	553
934.945	941
935.039	98
935.134	446
935.228	56
935.323	1093
935.417	222
935.512	732
935.606	709
935.701	724
935.795	1031
935.890	846
935.984	865
936.079	1185
936.173	816
936.267	568
936.362	31
936.456	563
936.550	562
936.644	409
936.738	648
936.833	1123
936.927	-121
937.021	182
937.115	484
937.209	11
937.303	1229
937.397	481
937.491	580
937.585	548
937.679	526
937.773	842
937.867	615
937.961	515
938.055	203
938.149	806
938.243	20
938.337	115
938.430	598
938.524	647
938.618	470
938.712	54
938.805	499
938.899	1099
938.993	176
939.086	-344
939.180	-631
939.274	354
939.367	445
939.461	1259
939.554	545
939.648	499
939.741	217
939.835	642
939.928	743
940.022	1059
940.115	719
940.208	1355
940.302	715
940.395	1362
940.488	66
940.582	979
940.675	-233
940.768	54
940.861	368
940.954	527
941.048	520
941.141	249
941.234	456
941.327	614
941.420	1363
941.513	672
941.606	-105
941.699	770
941.792	-84
941.885	759
941.978	986
942.071	-402
942.164	-741
942.257	364
942.349	256
942.442	429
942.535	-47
942.628	394
942.721	117
942.813	504
942.906	1221
942.999	292
943.091	-14
943.184	-151
943.277	-237
943.369	344
943.462	-118
943.554	1370
943.647	-93
943.739	763
943.832	246
943.924	-544
944.017	966
944.109	178
944.201	788
944.294	50
944.386	740
944.478	-270
944.571	-257
944.663	350
944.755	568
944.847	407
944.940	223
945.032	-567
945.124	480
945.216	628
945.308	327
945.400	704
945.492	587
945.584	511
945.676	-589
945.768	-121
945.860	98
945.952	9
946.044	-213
946.136	662
946.228	-1100
946.320	-366
946.412	-394
946.503	722
946.595	373
946.687	40
946.779	-628
946.870	200
946.962	-577
947.054	229
947.145	839
947.237	463
947.329	340
947.420	-348
947.512	-207
947.603	-48
947.695	-555
947.786	-546
947.878	-265
947.969	646
948.061	264
948.152	-288
948.243	-145
948.335	573
948.426	26
948.517	40
948.609	227
948.700	-312
948.791	-1002
948.882	-297
948.973	-289
949.065	-203
949.156	697
949.247	-164
949.338	23
949.429	241
949.520	-400
949.611	-236
949.702	1035
949.793	459
949.884	-75
949.975	-763
950.066	-462
950.157	-107
950.247	687
950.338	-119
950.429	-166
950.520	-335
950.611	-118
950.701	-900
950.792	-756
950.883	124
950.973	-27
951.064	589
951.155	-346
951.245	2009
951.336	814
951.427	-492
951.517	238
951.608	-219
951.698	-292
951.788	-501
951.879	-481
951.969	-350
952.060	445
952.150	-88
952.240	-276
952.331	-1123
952.421	1611
952.511	106
952.602	395
952.692	338
952.782	111
952.872	66
952.962	-123
953.052	-473
953.143	-686
953.233	178
953.323	-383
953.413	94
953.503	-139
953.593	61
953.683	-148
953.773	-409
953.863	-30
953.953	-858
954.042	-48
954.132	-47
954.222	-582
954.312	-504
954.402	-429
954.492	-446
954.581	-234
954.671	-841
954.761	-345
954.850	301
954.940	-399
955.030	-408
955.119	-872
955.209	149
955.298	-1298
955.388	-152
955.477	777
955.567	-430
955.656	396
955.746	312
955.835	-1243
955.925	110
956.014	-799
956.103	-749
956.193	-154
956.282	-104
956.371	-630
956.461	-296
956.550	-616
956.639	-258
956.728	-221
956.817	-295
956.906	-1098
956.995	77
957.085	-839
957.174	62
957.263	-514
957.352	-752
957.441	-518
957.530	-994
957.619	-660
957.708	-107
957.796	-245
957.885	-1066
957.974	-627
958.063	-408
958.152	-1532
958.241	179
958.329	-609
958.418	-316
958.507	-1492
958.596	18
958.684	-1031
958.773	65
958.861	-478
958.950	-796
959.039	-968
959.127	-458
959.216	-33
959.304	-781
959.393	-540
959.481	-420
959.570	-144
959.658	-377
959.746	-885
959.835	152
959.923	-576
960.011	-687
960.100	2
960.188	118
960.276	-1487
960.365	-540
960.453	-1187
960.541	-1149
960.629	-475
960.717	-371
960.805	-1210
960.893	-1035
960.981	-1501
961.069	414
961.158	-735
961.245	461
961.333	-324
961.421	-683
961.509	-509
961.597	-341
961.685	-423
961.773	-138
961.861	-1309
961.949	226
962.036	-1618
962.124	-692
962.212	-732
962.299	-832
962.387	-1069
962.475	-1102
962.562	-1819
962.650	-404
962.738	-1113
962.825	-1334
962.913	-1030
963.000	-320
963.088	-758
963.175	-716
963.263	-850
963.350	-1000
963.438	-434
963.525	-1545
963.612	136
963.700	635
963.787	1628
963.874	-237
963.962	-728
964.049	-1175
964.136	-734
964.223	-366
964.310	-943
964.398	-604
964.485	-1729
964.572	-27
964.659	-1211
964.746	-391
964.833	-212
964.920	-973
965.007	-376
965.094	-336
965.181	-1164
965.268	-1228
965.355	-842
965.441	-627
965.528	-1214
965.615	-295
965.702	-973
965.789	-1473
965.875	-991
965.962	-545
966.049	-1257
966.136	106
966.222	-320
966.309	-164
966.395	-1355
966.482	-228
966.569	-1301
966.655	-842
966.742	-1577
966.828	-382
966.915	-1381
967.001	10
967.087	-499
967.174	-978
967.260	-804
967.347	-323
967.433	-332
967.519	1535
967.605	-684
967.692	-633
967.778	-1076
967.864	-506
967.950	-1448
968.036	-1569
968.123	-343
968.209	-599
968.295	-1887
968.381	62
968.467	-439
968.553	-1837
968.639	-969
968.725	-453
968.811	-233
968.897	49
968.983	-847
969.069	-1237
969.154	-22
969.240	-640
969.326	-2200
969.412	-1439
969.497	-591
969.583	-667
969.669	-767
969.755	-134
969.840	-1355
969.926	-393
970.012	-1141
970.097	-435
970.183	-840
970.268	-921
970.354	-908
970.439	-632
970.525	1113
970.610	-1330
970.696	-566
970.781	-36
970.866	-2174
970.952	-258
971.037	-1839
971.122	-1013
971.208	-1219
971.293	-573
971.378	-2023
971.463	-913
971.549	-786
971.634	-887
971.719	-534
971.804	-1726
971.889	-457
971.974	-302
972.059	-1049
972.144	-222
972.229	-1333
972.314	-1056
972.399	-882
972.484	-1328
972.569	-1008
972.654	-1877
972.739	-256
972.824	-1132
972.908	-1163
972.993	-1061
973.078	-1475
973.163	-1112
973.247	-582
973.332	-1902
973.417	-437
973.501	-1558
973.586	-1371
973.671	-766
973.755	-302
973.840	-172
973.924	-477
974.009	-329
974.093	-1341
974.178	453
974.262	-690
974.346	-1283
974.431	-1844
974.515	-1527
974.600	-1726
974.684	-754
974.768	-896
974.852	463
974.937	-2185
975.021	-305
975.105	-1273
975.189	-599
975.273	-919
975.358	-1472
975.442	-1943
975.526	-771
975.610	-1944
975.694	-1293
975.778	-1095
975.862	-1015
975.946	-3237
976.030	-716
976.114	-1333
976.198	-612
976.281	-1719
976.365	-1253
976.449	-1437
976.533	-256
976.617	-1205
976.700	-1127
976.784	-959
976.868	-769
976.951	-562
977.035	-860
977.119	-534
977.202	-1005
977.286	-992
977.369	-718
977.453	-146
977.536	-1272
977.620	-1386
977.703	-847
977.787	-1338
977.870	-157
977.953	130
978.037	-1773
978.120	-555
978.203	-1424
978.287	-1053
978.370	-495
978.453	-374
978.536	-1082
978.620	245
978.703	-158
978.786	-1331
978.869	-1509
978.952	-1923
979.035	269
979.118	-908
979.201	-1776
979.284	-677
979.367	-1290
979.450	-1428
979.533	-1767
979.616	-1780
979.699	-681
979.782	-1107
979.865	-881
979.948	-1658
980.030	-672
980.113	-662
980.196	-1920
980.279	-932
980.361	-1729
980.444	-1338
980.526	-74
980.609	-1067
980.692	-754
980.774	-919
980.857	-1816
980.939	397
981.022	-1177
981.104	-1416
981.187	-1056
981.269	-600
981.352	-700
981.434	-1902
981.516	-1541
981.599	-632
981.681	-237
981.763	-1391
981.846	-1273
981.928	-1143
982.010	-680
982.092	-1430
982.174	-173
982.256	-1252
982.339	-978
982.421	-828
982.503	-552
982.585	-2001
982.667	-715
982.749	-1447
982.831	-734
982.913	-1032
982.995	291
983.077	-1257
983.158	-100
983.240	-1816
983.322	-367
983.404	-430
983.486	-1699
983.568	-370
983.649	-929
983.731	-1084
983.813	-1361
983.894	-1105
983.976	-1668
984.058	-1550
984.139	-758
984.221	-2117
984.302	86
984.384	-893
984.465	-1713
984.547	-261
984.628	-671
984.710	-233
984.791	-814
984.872	-947
984.954	-886
985.035	-1097
985.116	-1398
985.198	-1372
985.279	459
985.360	-895
985.441	-1199
985.522	-297
985.604	-701
985.685	-2694
985.766	784
985.847	109
985.928	-839
986.009	-535
986.090	-96
986.171	-365
986.252	-1290
986.333	-861
986.414	-1134
986.495	-1382
986.576	-689
986.656	-468
986.737	-1087
986.818	-1545
986.899	-719
986.980	-1234
987.060	-506
987.141	-1625
987.222	479
987.302	-772
987.383	14
987.464	-1543
987.544	-415
987.625	-586
987.705	-175
987.786	-931
987.866	-1233
987.947	-1880
988.027	165
988.108	-1789
988.188	-421
988.268	-956
988.349	-748
988.429	-670
988.509	-201
988.589	-828
988.670	-2065
988.750	-103
988.830	-671
988.910	-72
988.990	-1321
989.070	-730
989.151	-825
989.231	-2028
989.311	175
989.391	-1716
989.471	-326
989.551	-1594
989.631	-1015
989.711	-609
989.791	-964
989.870	-642
989.950	-139
990.030	-1517
990.110	-1245
990.190	-1709
990.269	-957
990.349	-1618
990.429	-605
990.509	-936
990.588	-1297
990.668	-839
990.747	-1086
990.827	-621
990.907	-349
990.986	-1133
991.066	-89
991.145	-1437
991.225	-132
991.304	-771
991.383	-773
991.463	-1453
991.542	-412
991.622	-1347
991.701	-784
991.780	-981
991.859	-875
991.939	-720
992.018	-1044
992.097	-1237
992.176	-1364
992.256	-829
992.335	-1335
992.414	174
992.493	-1352
992.572	-1430
992.651	-182
992.730	-1757
992.809	-756
992.888	-2474
992.967	-2649
993.046	-310
993.125	-1802
993.203	-795
993.282	-623
993.361	-1448
993.440	-1073
993.519	-1855
993.597	-1166
993.676	-1656
993.755	103
993.834	-1168
993.912	-2072
993.991	-31
994.069	-1446
994.148	-1456
994.226	-457
994.305	-1139
994.384	-1060
994.462	191
994.540	-1580
994.619	-1286
994.697	-506
994.776	-1826
994.854	-112
994.932	-1554
995.011	-1241
995.089	-1252
995.167	-1270
995.245	-1218
995.324	-2054
995.402	-1587
995.480	-1060
995.558	-838
995.636	-1156
995.714	-1448
995.792	-386
995.870	-2316
995.948	-1542
996.026	-1429
996.104	-1814
996.182	-486
996.260	-1461
996.338	-454
996.416	-1805
996.494	-402
996.572	-610
996.649	-1428
996.727	-1871
996.805	-1560
996.883	-1218
996.960	-941
997.038	-454
997.116	-1433
997.193	-1358
997.271	-1386
997.348	-2017
997.426	-1174
997.504	-1612
997.581	-584
997.658	-916
997.736	-2487
997.813	-956
997.891	-920
997.968	-1846
998.046	-916
998.123	-1309
998.200	-1565
998.277	-1644
998.355	-1467
998.432	-3149
998.509	-876
998.586	-1114
998.663	-306
998.741	-1106
998.818	-1011
998.895	-1287
998.972	-1032
999.049	-886
999.126	-2154
999.203	-1044
999.280	-1535
999.357	-1882
999.434	-1389
999.511	-204
999.587	-410
999.664	-1731
999.741	-2224
999.818	-285
999.895	-1905
999.971	-1382
1000.048	-1382
1000.125	586
1000.202	-1678
1000.278	-221
1000.355	-1023
1000.431	-1100
1000.508	-2191
1000.584	-735
1000.661	-1670
1000.738	-1657
1000.814	-1711
1000.890	-768
1000.967	-1479
1001.043	-1466
1001.120	-1933
1001.196	-687
1001.272	-1858
1001.349	-1180
1001.425	-1344
1001.501	-1533
1001.577	-1616
1001.654	-438
1001.730	-1943
1001.806	-1013
1001.882	-634
1001.958	-695
1002.034	-1561
1002.110	-1030
1002.186	-1452
1002.262	-1224
1002.338	-1764
1002.414	0
1002.490	-708
1002.566	-1060
1002.642	-1754
1002.718	-967
1002.794	-1739
1002.870	-708
1002.945	-1454
1003.021	-957
1003.097	-2027
1003.173	-849
1003.248	-1482
1003.324	-894
1003.400	-1262
1003.475	-1441
1003.551	-1426
1003.626	-1868
1003.702	-2126
1003.777	-1774
1003.853	-1717
1003.928	-1461
1004.004	-1600
1004.079	-1158
1004.155	-1784
1004.230	-2180
1004.305	-648
1004.381	-1711
1004.456	-915
1004.531	-1444
1004.607	-653
1004.682	-1224
1004.757	-1333
1004.832	-845
1004.907	-1439
1004.982	-1289
1005.057	-1333
1005.133	-1235
1005.208	-2272
1005.283	-960
1005.358	-1299
1005.433	-2096
1005.508	-1463
1005.583	-1571
1005.657	-1942
1005.732	-1357
1005.807	-1717
1005.882	-1522
1005.957	-1922
1006.032	-1385
1006.106	-1685
1006.181	-1378
1006.256	-914
1006.331	-1365
1006.405	-1361
1006.480	-1660
1006.554	-1773
1006.629	-642
1006.704	-1700
1006.778	-1858
1006.853	-1817
1006.927	-1755
1007.002	-1372
1007.076	-1010
1007.150	-1685
1007.225	-1692
1007.299	-1226
1007.373	-2370
1007.448	-816
1007.522	-174
1007.596	-1719
1007.671	-2292
1007.745	-1455
1007.819	-2058
1007.893	-985
1007.967	-1242
1008.041	-1841
1008.115	-530
1008.190	-2202
1008.264	-301
1008.338	-1656
1008.412	-2455
1008.486	-2039
1008.560	-1713
1008.633	-2102
1008.707	-1407
1008.781	-1302
1008.855	-1056
1008.929	-2014
1009.003	-1423
1009.076	-2034
1009.150	-694
1009.224	-1889
1009.298	-996
1009.371	-2391
1009.445	-591
1009.519	-1143
1009.592	-1437
1009.666	-669
1009.739	-995
1009.813	-2020
1009.886	242
1009.960	-2280
1010.033	-1463
1010.107	-872
1010.180	-1765
1010.253	-1717
1010.327	-1622
1010.400	-1149
1010.473	-1534
1010.547	-265
1010.620	-1339
1010.693	-1590
1010.766	-1840
1010.840	-548
1010.913	-1186
1010.986	-1437
1011.059	-1462
1011.132	-1473
1011.205	-1268
1011.278	-1418
1011.351	-2018
1011.424	-1047
1011.497	-2111
1011.570	-1305
1011.643	-1327
1011.716	-1748
1011.789	-1219
1011.862	-2160
1011.934	-662
1012.007	-2018
1012.080	-1437
1012.153	-1313
1012.225	-1092
1012.298	-1230
1012.371	-837
1012.443	-1209
1012.516	-2082
1012.588	-1009
1012.661	-1184
1012.733	-2087
1012.806	-591
1012.879	-1944
1012.951	-1169
1013.023	-1989
1013.096	-1923
1013.168	-1523
1013.241	-294
1013.313	-1553
1013.385	-2154
1013.458	-1413
1013.530	-916
1013.602	-2489
1013.674	-669
1013.746	-2449
1013.819	-2498
1013.891	-977
1013.963	-2638
1014.035	-1933
1014.107	-1132
1014.179	-1466
1014.251	-1797
1014.323	-531
1014.395	-424
1014.467	-1334
1014.539	-1576
1014.611	-2214
1014.683	-1175
1014.754	-1702
1014.826	-1665
1014.898	-1468
1014.970	-1577
1015.042	-995
1015.113	-1009
1015.185	-1907
1015.257	-2054
1015.328	-1223
1015.400	-1071
1015.471	-1294
1015.543	-1945
1015.615	-1403
1015.686	-2183
1015.757	-1798
1015.829	-1684
1015.901	-1739
1015.972	-1738
1016.043	-1713
1016.115	-847
1016.186	-830
1016.257	-2293
1016.328	-1116
1016.400	-779
1016.471	-1283
1016.542	-1251
1016.613	-1696
1016.685	-1025
1016.756	-1204
1016.827	-1511
1016.898	-1750
1016.969	8
1017.040	-1412
1017.111	-1478
1017.182	-1640
1017.253	-1605
1017.324	-1635
1017.395	-2035
1017.466	-560
1017.537	-724
1017.608	-1461
1017.678	-1184
1017.749	-1830
1017.820	-1120
1017.891	-2115
1017.961	-1785
1018.032	-1680
1018.103	-1127
1018.173	-1159
1018.244	-1988
1018.315	-2001
1018.385	-1341
1018.456	-1477
1018.526	-1808
1018.597	-1403
1018.667	-1188
1018.738	-1584
1018.808	-37
1018.878	-1291
1018.949	-1199
1019.019	-1407
1019.089	-1193
1019.160	-788
1019.230	-2440
1019.300	-1254
1019.371	-2191
1019.441	-1459
1019.511	-1961
1019.581	-956
1019.651	-1134
1019.721	-1194
1019.791	-1334
1019.861	-1196
1019.931	-816
1020.001	-1443
1020.071	-1691
1020.141	-1762
1020.211	-1637
1020.281	-1610
1020.351	-1684
1020.421	-1391
1020.491	-1253
1020.560	-2116
1020.630	-1136
1020.700	-2159
1020.770	-1835
1020.839	-1487
1020.909	-819
1020.979	-1713
1021.048	-1931
1021.118	-1453
1021.187	-913
1021.257	-2215
1021.326	62
1021.396	-2008
1021.465	-1030
1021.535	-2281
1021.604	-1485
1021.674	-1708
1021.743	-1842
1021.812	-1421
1021.882	-1582
1021.951	-1998
1022.020	-2189
1022.089	-1432
1022.159	-1593
1022.228	-1152
1022.297	-2117
1022.366	-1033
1022.435	-1518
1022.504	-966
1022.573	-1764
1022.642	-1462
1022.711	-1476
1022.781	-1100
1022.849	-967
1022.918	-1987
1022.987	-1365
1023.056	-2055
1023.125	-1707
1023.194	-1280
1023.263	-1829
1023.331	-994
1023.400	-2090
1023.469	-2398
1023.538	-1086
1023.606	-2238
1023.675	-1081
1023.744	-1577
1023.812	-2437
1023.881	-1902
1023.949	-1080
1024.018	-1533
1024.086	-1845
1024.155	-1798
1024.223	-312
1024.292	-1606
1024.360	-1185
1024.429	-1599
1024.497	-1479
1024.565	-1598
1024.634	-1866
1024.702	-1721
1024.770	-1890
1024.838	-1951
1024.907	-2056
1024.975	-2147
1025.043	-1792
1025.111	-1782
1025.179	-913
1025.247	-1653
1025.315	-1899
1025.383	-1587
1025.451	-1759
1025.519	-1348
1025.587	-2157
1025.655	-1434
1025.723	-2563
1025.791	-1875
1025.859	-1771
1025.927	-1343
1025.995	-2561
1026.062	-1017
1026.130	-1439
1026.198	-1772
1026.266	-2308
1026.333	-2119
1026.401	-1243
1026.469	-1079
1026.536	-1763
1026.604	-1496
1026.671	-980
1026.739	-1987
1026.806	-1557
1026.874	-2142
1026.941	-1942
1027.009	-1697
1027.076	-1624
1027.144	-1549
1027.211	-1591
1027.278	-1670
1027.345	-2005
1027.413	-1288
1027.480	-2334
1027.547	-2628
1027.614	-1566
1027.682	-2481
1027.749	-1959
1027.816	-1232
1027.883	-1501
1027.950	-1569
1028.017	-1722
1028.084	-1613
1028.151	-2377
1028.218	-1638
1028.285	-1695
1028.352	-2214
1028.419	-2247
1028.486	-1882
1028.553	-2002
1028.619	-1575
1028.686	-1738
1028.753	-1438
1028.820	-2326
1028.886	-1855
1028.953	-2222
1029.020	-2013
1029.086	-1102
1029.153	-1501
1029.220	-1633
1029.286	-2070
1029.353	-926
1029.419	-1460
1029.486	-1808
1029.552	-1622
1029.619	-1840
1029.685	-1862
1029.751	-1864
1029.818	-1889
1029.884	-1537
1029.951	-815
1030.017	-2580
1030.083	-1124
1030.149	-2014
1030.216	-2226
1030.282	-1863
1030.348	-2211
1030.414	-1866
1030.480	-1993
1030.546	-1693
1030.612	-1255
1030.678	-1692
1030.744	-1436
1030.810	-1955
1030.876	-1709
1030.942	-1430
1031.008	-820
1031.074	-1830
1031.140	-1994
1031.206	-1778
1031.272	-1869
1031.337	-1585
1031.403	-1455
1031.469	-2151
1031.534	-1683
1031.600	-1501
1031.666	-2384
1031.731	-1457
1031.797	-1545
1031.863	-1870
1031.928	-1342
1031.994	-1364
1032.059	-2159
1032.125	-1063
1032.190	-2369
1032.256	-2654
1032.321	-2401
1032.386	-1668
1032.452	-1589
1032.517	-1487
1032.582	-1854
1032.647	-1972
1032.713	-2373
1032.778	-2307
1032.843	-1833
1032.908	-1968
1032.974	-2074
1033.039	-1854
1033.104	-1931
1033.169	-1626
1033.234	-2070
1033.299	-1012
1033.364	-1599
1033.429	-2243
1033.494	-1511
1033.559	-2321
1033.624	-1921
1033.688	-2109
1033.753	-2160
1033.818	-1967
1033.883	-2177
1033.948	-1188
1034.013	-1940
1034.077	-1701
1034.142	-1580
1034.207	-1709
1034.271	-1023
1034.336	-1683
1034.400	-1873
1034.465	-1333
1034.530	-2161
1034.594	-1792
1034.658	-2306
1034.723	-2265
1034.787	-2101
1034.852	-2065
1034.916	-1853
1034.981	-1950
1035.045	-2064
1035.109	-1938
1035.173	-2121
1035.238	-1334
1035.302	-2192
1035.366	-2226
1035.430	-1781
1035.495	-1708
1035.559	-1772
1035.623	-1925
1035.687	-2262
1035.751	-2255
1035.815	-2036
1035.879	-2222
1035.943	-2384
1036.007	-2377
1036.071	-2069
1036.135	-1892
1036.198	-1187
1036.262	-2559
1036.326	-1788
1036.390	-2641
1036.454	-1879
1036.517	-1843
1036.581	-1999
1036.645	-2158
1036.709	-1242
1036.772	-1851
1036.836	-2293
1036.900	-1544
1036.963	-2478
1037.026	-1814
1037.090	-1916
1037.154	-1591
1037.217	-2089
1037.280	-1702
1037.344	-1811
1037.407	-1659
1037.471	-2065
1037.534	-1348
1037.597	-1512
1037.661	-2688
1037.724	-1748
1037.787	-1866
1037.850	-2698
1037.913	-2071
1037.977	-1138
1038.040	-2343
1038.103	-2907
1038.166	-2176
1038.229	-1921
1038.292	-2394
1038.355	-1425
1038.418	-1959
1038.481	-1348
1038.544	-2219
1038.607	-1565
1038.670	-2086
1038.732	-1766
1038.795	-1684
1038.858	-2297
1038.921	-1237
1038.984	-1467
1039.046	-1931
1039.109	-2960
1039.172	-2218
1039.234	-2164
1039.297	-1903
1039.360	-2064
1039.422	-1395
1039.485	-2204
1039.547	-2852
1039.610	-2160
1039.672	-1639
1039.734	-2445
1039.797	-2644
1039.859	-2270
1039.922	-2416
1039.984	-3108
1040.046	-2258
1040.109	-2425
1040.171	-2505
1040.233	-2149
1040.295	-2543
1040.358	-1853
1040.420	-1196
1040.482	-2335
1040.544	-1561
1040.606	-1943
1040.668	-1749
1040.730	-2632
1040.792	-2161
1040.854	-2605
1040.916	-2116
1040.978	-1527
1041.040	-1071
1041.102	-2153
1041.164	-1940
1041.225	-1539
1041.287	-2223
1041.349	-2524
1041.411	-1388
1041.472	-2305
1041.534	-2095
1041.596	-2041
1041.657	-1994
1041.719	-1386
1041.781	-1577
1041.842	-1934
1041.904	-2736
1041.965	-2167
1042.027	-1910
1042.088	-2693
1042.150	-2168
1042.211	-1620
1042.272	-1518
1042.334	-2770
1042.395	-1574
1042.456	-1739
1042.518	-1545
1042.579	-1708
1042.640	-1770
1042.701	-2718
1042.763	-2989
1042.824	-2542
1042.885	-1843
1042.946	-2237
1043.007	-1679
1043.068	-1611
1043.129	-2444
1043.190	-2214
1043.251	-1824
1043.312	-2170
1043.373	-2516
1043.434	-1949
1043.495	-2613
1043.556	-1690
1043.616	-1285
1043.677	-2278
1043.738	-1644
1043.799	-1895
1043.859	-1727
1043.920	-1506
1043.981	-1803
1044.041	-2151
1044.102	-1787
1044.162	-1768
1044.223	-1525
1044.284	-2994
1044.344	-1563
1044.405	-1360
1044.465	-1719
1044.525	-2233
1044.586	-2117
1044.646	-1478
1044.707	-2014
1044.767	-2567
1044.827	-1839
1044.887	-2286
1044.948	-1238
1045.008	-1881
1045.068	-1662
1045.128	-2026
1045.188	-1381
1045.249	-1706
1045.309	-1564
1045.369	-2092
1045.429	-1485
1045.489	-1861
1045.549	-2066
1045.609	-1883
1045.669	-1989
1045.729	-2113
1045.789	-1035
1045.848	-1462
1045.908	-1495
1045.968	-1835
1046.028	-813
1046.088	-1360
1046.147	-913
1046.207	-1580
1046.267	-1115
1046.326	-1710
1046.386	-1610
1046.446	-1530
1046.505	-1434
1046.565	-1310
1046.624	-852
1046.684	-1849
1046.743	-1099
1046.803	-823
1046.862	18
1046.922	0
