'Start Wavelength	183.907
'End Wavelength	1046.922
'Gate Delay	5.000
'Gate Width (ms)	1.050
'Laser Output Level	0.000
'X Position	0.000
'Y Position	0.000
'Z Position	0.000
'Grid Point Number	1.000
'Shot Number	100.000
183.907	266.000
183.977	97.000
184.047	190
184.116	1197
184.186	601
184.256	224
184.325	366
184.395	324
184.465	482
184.534	1247
184.604	597
184.674	976
184.743	-185
184.813	-384
184.883	-135
184.952	25
185.022	-747
185.092	-17
185.161	695
185.231	647
185.301	55
185.370	857
185.440	-104
185.509	367
185.579	-115
185.649	1250
185.718	353
185.788	625
185.857	6
185.927	324
185.996	415
186.066	632
186.136	-252
186.205	1297
186.275	529
186.344	814
186.414	640
186.483	229
186.553	4
186.622	1247
186.692	-21
186.761	801
186.831	433
186.900	651
186.970	32
187.039	1249
187.109	691
187.178	1475
187.248	637
187.317	1777
187.387	571
187.456	88
187.526	1071
187.595	927
187.664	337
187.734	1501
187.803	230
187.873	915
187.942	1628
188.012	389
188.081	685
188.150	854
188.220	631
188.289	982
188.358	1015
188.428	1205
188.497	380
188.567	1415
188.636	-287
188.705	914
188.775	575
188.844	867
188.913	723
188.983	510
189.052	1169
189.121	595
189.191	492
189.260	1259
189.329	802
189.399	1739
189.468	460
189.537	752
189.606	831
189.676	1275
189.745	991
189.814	1060
189.883	518
189.953	1413
190.022	1909
190.091	3483
190.161	2885
190.230	2011
190.299	909
190.368	991
190.437	72
190.507	996
190.576	487
190.645	1143
190.714	191
190.783	1705
190.853	546
190.922	1312
190.991	972
191.060	877
191.129	793
191.198	770
191.268	1400
191.337	998
191.406	684
191.475	1193
191.544	902
191.613	1370
191.682	931
191.752	689
191.821	667
191.890	963
191.959	1332
192.028	860
192.097	1293
192.166	1438
192.235	884
192.304	1777
192.373	422
192.442	620
192.511	720
192.580	1312
192.650	1098
192.719	523
192.788	1776
192.857	1920
192.926	1437
192.995	1516
193.064	1561
193.133	2079
193.202	2841
193.271	2116
193.340	2332
193.409	2037
193.478	2840
193.547	3346
193.615	2975
193.684	3303
193.753	1605
193.822	2031
193.891	1247
193.960	1589
194.029	792
194.098	1577
194.167	35
194.236	1290
194.305	403
194.374	1489
194.443	199
194.512	1635
194.580	1240
194.649	2241
194.718	1314
194.787	1584
194.856	1004
194.925	2097
194.994	1811
195.062	1721
195.131	1353
195.200	2116
195.269	1906
195.338	1451
195.407	1377
195.475	1631
195.544	1688
195.613	2253
195.682	1057
195.751	2175
195.819	1145
195.888	2077
195.957	2284
196.026	2501
196.094	1896
196.163	2379
196.232	1568
196.301	1497
196.369	2206
196.438	1370
196.507	1554
196.576	1762
196.644	1119
196.713	1644
196.782	1032
196.850	2003
196.919	1178
196.988	1984
197.056	1764
197.125	1219
197.194	1695
197.262	2450
197.331	1985
197.400	1789
197.468	828
197.537	1451
197.606	1916
197.674	3478
197.743	3136
197.812	2080
197.880	4076
197.949	3147
198.017	4010
198.086	3141
198.155	2106
198.223	3611
198.292	3783
198.360	2497
198.429	2039
198.497	1939
198.566	4252
198.635	4492
198.703	2608
198.772	3405
198.840	5501
198.909	4565
198.977	1879
199.046	2507
199.114	2266
199.183	2931
199.251	2262
199.320	2227
199.388	1359
199.457	2192
199.525	1935
199.594	1792
199.662	2108
199.731	1622
199.799	1907
199.867	2162
199.936	1101
200.004	1915
200.073	1462
200.141	1596
200.210	1142
200.278	2416
200.346	1550
200.415	2214
200.483	2067
200.552	2725
200.620	1596
200.688	2157
200.757	1316
200.825	2360
200.893	1863
200.962	2315
201.030	1899
201.098	2596
201.167	1751
201.235	2204
201.303	2120
201.372	2061
201.440	2724
201.508	2905
201.577	2381
201.645	2426
201.713	1552
201.781	2385
201.850	2687
201.918	2071
201.986	2118
202.055	3128
202.123	2065
202.191	2277
202.259	2504
202.327	2867
202.396	1773
202.464	2740
202.532	3224
202.600	5022
202.669	3525
202.737	2778
202.805	2185
202.873	2033
202.941	2685
203.009	2036
203.078	2611
203.146	2305
203.214	1910
203.282	2375
203.350	3078
203.418	2348
203.487	1432
203.555	2174
203.623	2767
203.691	2852
203.759	1791
203.827	2227
203.895	2001
203.963	2951
204.031	1318
204.099	2476
204.168	1584
204.236	3145
204.304	2440
204.372	1951
204.440	2516
204.508	2796
204.576	1751
204.644	2847
204.712	2285
204.780	2217
204.848	2306
204.916	2417
204.984	2774
205.052	2431
205.120	3006
205.188	3175
205.256	2140
205.324	2417
205.392	2834
205.460	3247
205.528	2598
205.596	2478
205.664	2366
205.732	2984
205.799	7197
205.867	7946
205.935	3508
206.003	3459
206.071	2643
206.139	3484
206.207	2372
206.275	2999
206.343	2790
206.411	3113
206.478	2592
206.546	2694
206.614	3118
206.682	3148
206.750	2302
206.818	2698
206.885	3148
206.953	2312
207.021	2656
207.089	2849
207.157	1988
207.225	3197
207.292	3034
207.360	3057
207.428	2583
207.496	1889
207.563	2574
207.631	3167
207.699	2470
207.767	2563
207.834	2733
207.902	3696
207.970	2570
208.038	3283
208.105	2768
208.173	3541
208.241	3921
208.309	3729
208.376	4357
208.444	5897
208.512	3231
208.579	3016
208.647	3269
208.715	2806
208.782	2988
208.850	2522
208.918	3915
208.985	3250
209.053	2916
209.120	3443
209.188	2794
209.256	3084
209.323	2657
209.391	4141
209.459	3794
209.526	4153
209.594	3623
209.661	3996
209.729	3305
209.796	3730
209.864	3553
209.932	3523
209.999	3933
210.067	3934
210.134	2975
210.202	4260
210.269	4177
210.337	4104
210.404	3162
210.472	3477
210.539	4189
210.607	3797
210.674	3777
210.742	3615
210.809	3625
210.877	4658
210.944	3533
211.012	3587
211.079	4323
211.146	3747
211.214	3997
211.281	4596
211.349	3758
211.416	4395
211.484	3566
211.551	3772
211.618	3627
211.686	4072
211.753	3720
211.821	4044
211.888	3469
211.955	3891
212.023	3770
212.090	3780
212.157	3853
212.225	5451
212.292	8655
212.359	14524
212.427	21813
212.494	10457
212.561	6618
212.629	5635
212.696	4985
212.763	4720
212.831	4258
212.898	4597
212.965	3745
213.032	4505
213.100	4079
213.167	4673
213.234	4517
213.301	4582
213.369	3686
213.436	4432
213.503	4441
213.570	4292
213.638	4321
213.705	3580
213.772	3886
213.839	4936
213.906	4123
213.973	4543
214.041	4687
214.108	4291
214.175	4667
214.242	4087
214.309	4220
214.376	5031
214.444	4294
214.511	5094
214.578	4631
214.645	4667
214.712	4049
214.779	4736
214.846	4400
214.913	4936
214.980	4816
215.048	5677
215.115	5062
215.182	5558
215.249	4445
215.316	4224
215.383	4530
215.450	4472
215.517	3772
215.584	4435
215.651	3789
215.718	4281
215.785	5186
215.852	5731
215.919	4836
215.986	5751
216.053	3867
216.120	4802
216.187	4894
216.254	5438
216.321	4856
216.388	4772
216.455	4919
216.522	5368
216.589	5897
216.656	8863
216.722	7633
216.789	7105
216.856	6745
216.923	5472
216.990	6111
217.057	5864
217.124	6442
217.191	6988
217.258	7606
217.324	8501
217.391	7124
217.458	6388
217.525	6543
217.592	6127
217.659	4632
217.725	5438
217.792	6731
217.859	6299
217.926	4408
217.993	4989
218.059	4174
218.126	5019
218.193	3918
218.260	3757
218.327	3795
218.393	3884
218.460	4075
218.527	4428
218.594	3979
218.660	6444
218.727	5829
218.794	4002
218.860	4461
218.927	3941
218.994	4373
219.061	3998
219.127	4307
219.194	5570
219.261	3241
219.327	3586
219.394	3135
219.461	3767
219.527	3386
219.594	5740
219.661	4288
219.727	3350
219.794	3555
219.860	3575
219.927	4247
219.994	5580
220.060	7018
220.127	5834
220.193	5406
220.260	7408
220.326	8414
220.393	10981
220.460	11240
220.526	8230
220.593	7617
220.659	8544
220.726	8774
220.792	15982
220.859	13676
220.925	17081
220.992	18017
221.058	19644
221.125	16610
221.191	13639
221.258	7128
221.324	5894
221.391	5746
221.457	5136
221.524	5466
221.590	8298
221.657	16629
221.723	10179
221.789	11733
221.856	9462
221.922	6021
221.989	4817
222.055	5517
222.121	4873
222.188	5121
222.254	4642
222.321	3967
222.387	3528
222.453	3630
222.520	3637
222.586	3660
222.652	3919
222.719	4249
222.785	3255
222.851	3394
222.918	4015
222.984	4477
223.050	4091
223.116	3168
223.183	4632
223.249	3178
223.315	3762
223.382	3591
223.448	4267
223.514	2392
223.580	3047
223.647	2813
223.713	2888
223.779	3383
223.845	3940
223.911	2989
223.978	3419
224.044	3201
224.110	3578
224.176	3937
224.242	3714
224.309	2316
224.375	3777
224.441	3465
224.507	2546
224.573	2720
224.639	3408
224.705	2764
224.772	3653
224.838	2604
224.904	4016
224.970	2953
225.036	3713
225.102	3769
225.168	4049
225.234	4245
225.300	4066
225.366	3590
225.432	3711
225.499	3270
225.565	4402
225.631	3843
225.697	4942
225.763	3907
225.829	5653
225.895	5594
225.961	7963
226.027	7656
226.093	8382
226.159	9299
226.225	13536
226.291	21313
226.357	24231
226.423	16883
226.489	12206
226.554	9734
226.620	8937
226.686	11617
226.752	17168
226.818	22046
226.884	28881
226.950	23903
227.016	14697
227.082	10407
227.148	8943
227.214	7950
227.279	7575
227.345	6215
227.411	5815
227.477	4972
227.543	6553
227.609	7265
227.674	6697
227.740	5102
227.806	5865
227.872	4364
227.938	5470
228.003	7880
228.069	4593
228.135	3846
228.201	4211
228.267	5040
228.332	5377
228.398	6060
228.464	4470
228.530	3775
228.595	3709
228.661	4060
228.727	6819
228.792	5323
228.858	4288
228.924	5034
228.990	5923
229.055	6485
229.121	5886
229.187	3652
229.252	4299
229.318	2790
229.384	4501
229.449	5124
229.515	2800
229.581	2361
229.646	4836
229.712	4170
229.777	9336
229.843	6842
229.909	8097
229.974	6489
230.040	6366
230.105	5885
230.171	7039
230.236	8559
230.302	10275
230.368	7774
230.433	6417
230.499	5324
230.564	6433
230.630	5040
230.695	4607
230.761	3875
230.826	4320
230.892	6072
230.957	4887
231.023	3865
231.088	4913
231.154	4857
231.219	5010
231.284	6247
231.350	5718
231.415	4318
231.481	3621
231.546	3801
231.612	4081
231.677	3092
231.742	4535
231.808	3854
231.873	4523
231.939	3382
232.004	7176
232.069	4766
232.135	5278
232.200	4065
232.265	3847
232.331	3662
232.396	3829
232.461	3588
232.527	4218
232.592	3299
232.657	4106
232.723	7797
232.788	5000
232.853	3539
232.918	3865
232.984	3836
233.049	4670
233.114	6680
233.179	6041
233.245	11272
233.310	9766
233.375	4344
233.440	4579
233.506	4378
233.571	4491
233.636	3474
233.701	4010
233.766	9393
233.832	8717
233.897	5352
233.962	5681
234.027	5959
234.092	5853
234.157	4556
234.222	6218
234.288	10790
234.353	21275
234.418	16577
234.483	10646
234.548	8852
234.613	7908
234.678	7287
234.743	9885
234.808	23938
234.873	13252
234.938	7095
235.004	6546
235.069	6346
235.134	6393
235.199	5273
235.264	5850
235.329	4839
235.394	6197
235.459	7293
235.524	7038
235.589	4974
235.654	5672
235.719	4864
235.784	5546
235.849	7904
235.913	13373
235.978	16906
236.043	13352
236.108	6952
236.173	8380
236.238	7537
236.303	7218
236.368	6287
236.433	12407
236.498	15467
236.563	13049
236.627	24494
236.692	43649
236.757	33337
236.822	22185
236.887	18114
236.952	14770
237.017	13044
237.081	13842
237.146	18315
237.211	32513
237.276	48197
237.341	55110
237.405	34237
237.470	20963
237.535	15264
237.600	10849
237.664	10278
237.729	8705
237.794	13174
237.859	19129
237.923	13640
237.988	9241
238.053	13440
238.118	13353
238.182	32041
238.247	19548
238.312	14004
238.376	10666
238.441	9272
238.506	8023
238.570	5642
238.635	5634
238.700	5034
238.764	7354
238.829	16851
238.893	14051
238.958	7971
239.023	7485
239.087	6510
239.152	6734
239.216	4734
239.281	5950
239.346	5442
239.410	6066
239.475	9770
239.539	32544
239.604	14853
239.668	7617
239.733	6308
239.797	6526
239.862	11707
239.926	19990
239.991	7511
240.055	6087
240.120	5754
240.184	6069
240.249	5040
240.313	5964
240.378	7198
240.442	21451
240.507	21534
240.571	9432
240.635	16716
240.700	13509
240.764	6635
240.829	6177
240.893	4173
240.957	7455
241.022	20038
241.086	24692
241.151	9593
241.215	6694
241.279	10429
241.344	13547
241.408	7628
241.472	7327
241.537	7445
241.601	7089
241.665	6360
241.730	7059
241.794	7420
241.858	7016
241.922	6859
241.987	7197
242.051	5944
242.115	6670
242.179	5930
242.244	6064
242.308	6581
242.372	7839
242.436	9234
242.501	7724
242.565	6009
242.629	5763
242.693	6036
242.757	6385
242.822	6823
242.886	7125
242.950	7097
243.014	7802
243.078	8506
243.142	8353
243.206	7508
243.271	9081
243.335	8853
243.399	15446
243.463	47219
243.527	64020
243.591	20482
243.655	12837
243.719	9094
243.783	10706
243.847	15365
243.911	18508
243.975	21161
244.040	12758
244.104	9041
244.168	8055
244.232	13071
244.296	14796
244.360	13753
244.424	10628
244.488	8146
244.552	8493
244.615	6961
244.679	6610
244.743	7863
244.807	7327
244.871	5937
244.935	6580
244.999	5917
245.063	7061
245.127	8025
245.191	13491
245.255	9623
245.319	10263
245.383	7984
245.446	7762
245.510	5802
245.574	7769
245.638	7048
245.702	9346
245.766	13335
245.829	9404
245.893	9079
245.957	8109
246.021	8708
246.085	10045
246.149	11423
246.212	21263
246.276	23036
246.340	13376
246.404	10365
246.467	12443
246.531	13440
246.595	11071
246.659	10411
246.722	10899
246.786	11064
246.850	12996
246.913	11850
246.977	8264
247.041	8757
247.104	9153
247.168	10339
247.232	20725
247.295	30468
247.359	14457
247.423	11907
247.486	15721
247.550	10193
247.614	9982
247.677	12158
247.741	9100
247.804	8537
247.868	11178
247.932	21967
247.995	28801
248.059	13263
248.122	10420
248.186	12952
248.249	24420
248.313	49782
248.376	42679
248.440	29144
248.503	15072
248.567	14152
248.630	19701
248.694	23972
248.757	32171
248.821	46445
248.884	31300
248.948	35351
249.011	44080
249.075	56976
249.138	42466
249.202	22022
249.265	18847
249.328	23622
249.392	17111
249.455	12486
249.519	11300
249.582	15096
249.645	21492
249.709	14899
249.772	16646
249.835	13325
249.899	14299
249.962	11814
250.025	12724
250.089	27481
250.152	26218
250.215	17435
250.279	15143
250.342	14351
250.405	14332
250.468	13035
250.532	18614
250.595	30747
250.658	91572
250.721	88537
250.785	38438
250.848	23638
250.911	16727
250.974	15768
251.038	25207
251.101	31504
251.164	22261
251.227	22496
251.290	22475
251.354	40363
251.417	111392
251.480	82499
251.543	90371
251.606	160488
251.669	101921
251.732	55970
251.795	55238
251.859	63137
251.922	111192
251.985	53444
252.048	30006
252.111	23674
252.174	25918
252.237	42513
252.300	60883
252.363	89685
252.426	114042
252.489	54054
252.552	36122
252.615	27652
252.678	32658
252.741	54815
252.804	86865
252.867	127607
252.930	74533
252.993	43459
253.056	31179
253.119	23788
253.182	22499
253.245	35513
253.308	25613
253.371	25811
253.434	23566
253.497	23359
253.559	34389
253.622	25610
253.685	39518
253.748	29676
253.811	19394
253.874	27194
253.937	21434
254.000	16803
254.062	30577
254.125	32108
254.188	37042
254.251	24272
254.314	18523
254.376	30933
254.439	28479
254.502	25258
254.565	32207
254.628	40203
254.690	27686
254.753	16369
254.816	15472
254.878	18207
254.941	30757
255.004	22495
255.067	16120
255.129	13974
255.192	8965
255.255	9283
255.317	11333
255.380	7368
255.443	6428
255.505	7091
255.568	8184
255.631	7734
255.693	9240
255.756	6386
255.819	7570
255.881	6150
255.944	6425
256.006	7433
256.069	7627
256.132	7419
256.194	13712
256.257	26034
256.319	19401
256.382	15098
256.444	11276
256.507	9560
256.569	9167
256.632	11180
256.694	20088
256.757	43998
256.819	71334
256.882	33821
256.944	18343
257.007	16255
257.069	17454
257.132	11557
257.194	10513
257.257	11091
257.319	11164
257.381	14644
257.444	36958
257.506	93051
257.569	80410
257.631	42478
257.693	24979
257.756	17655
257.818	15089
257.880	11192
257.943	11092
258.005	9517
258.067	9765
258.130	9032
258.192	12967
258.254	23038
258.317	11474
258.379	10616
258.441	21948
258.503	15891
258.566	38597
258.628	26306
258.690	11246
258.753	12504
258.815	20904
258.877	11878
258.939	9637
259.001	8331
259.064	9095
259.126	14042
259.188	14708
259.250	10936
259.312	13290
259.375	21085
259.437	13180
259.499	8521
259.561	9155
259.623	9572
259.685	10019
259.747	11224
259.809	38971
259.872	44480
259.934	80320
259.996	45689
260.058	16680
260.120	10760
260.182	8667
260.244	8307
260.306	7970
260.368	8262
260.430	8798
260.492	19152
260.554	23636
260.616	16500
260.678	44377
260.740	35574
260.802	12889
260.864	11420
260.926	10037
260.988	10753
261.050	12455
261.112	30618
261.174	59024
261.236	28654
261.298	15047
261.359	29789
261.421	25681
261.483	11287
261.545	10715
261.607	7292
261.669	9635
261.731	22536
261.793	30614
261.854	13037
261.916	11153
261.978	11985
262.040	11250
262.102	9561
262.164	17658
262.225	9636
262.287	9478
262.349	19207
262.411	10996
262.472	7774
262.534	24364
262.596	26518
262.658	10618
262.719	7912
262.781	15908
262.843	29525
262.904	12677
262.966	12558
263.028	18027
263.090	86182
263.151	110265
263.213	36269
263.275	22584
263.336	11820
263.398	10114
263.459	7587
263.521	9056
263.583	16957
263.644	10468
263.706	5738
263.767	5267
263.829	5467
263.891	4774
263.952	4965
264.014	5975
264.075	16117
264.137	22185
264.198	10332
264.260	6312
264.321	7197
264.383	21843
264.444	29728
264.506	10982
264.567	9073
264.629	21937
264.690	26312
264.752	11660
264.813	8568
264.875	6677
264.936	7358
264.998	6904
265.059	5819
265.120	8223
265.182	16328
265.243	54833
265.305	36203
265.366	12941
265.427	9360
265.489	8021
265.550	6230
265.611	9024
265.673	8149
265.734	7192
265.795	6179
265.857	7066
265.918	8131
265.979	22980
266.040	76619
266.102	47358
266.163	21076
266.224	16256
266.286	10433
266.347	7915
266.408	8495
266.469	9442
266.530	6889
266.592	7025
266.653	15269
266.714	16582
266.775	7178
266.836	5947
266.898	6330
266.959	13119
267.020	6999
267.081	6569
267.142	6886
267.203	5834
267.264	5600
267.326	7292
267.387	5954
267.448	5492
267.509	5775
267.570	5662
267.631	5182
267.692	5496
267.753	5854
267.814	6384
267.875	15067
267.936	18621
267.997	15900
268.058	12608
268.119	8722
268.180	8057
268.241	6105
268.302	6634
268.363	5861
268.424	7100
268.485	8194
268.546	5408
268.607	4154
268.668	5125
268.729	5203
268.790	6023
268.851	7564
268.912	18957
268.972	15211
269.033	9892
269.094	5853
269.155	6589
269.216	5738
269.277	7740
269.338	5623
269.398	7502
269.459	8192
269.520	11524
269.581	14420
269.642	14489
269.702	10215
269.763	8314
269.824	7637
269.885	10770
269.945	11521
270.006	6524
270.067	5422
270.128	6124
270.188	6250
270.249	6487
270.310	4863
270.370	6709
270.431	5795
270.492	5409
270.553	6679
270.613	15814
270.674	20035
270.734	9409
270.795	6663
270.856	12130
270.916	7419
270.977	7134
271.038	8398
271.098	8661
271.159	13943
271.219	10130
271.280	6384
271.340	6334
271.401	10215
271.462	19130
271.522	9797
271.583	7146
271.643	8634
271.704	8262
271.764	10705
271.825	23419
271.885	58703
271.946	50442
272.006	22889
272.066	40637
272.127	38770
272.187	14846
272.248	11383
272.308	16542
272.369	33519
272.429	16499
272.489	21576
272.550	17119
272.610	21262
272.671	12898
272.731	19976
272.791	21803
272.852	12386
272.912	11290
272.972	6713
273.033	9434
273.093	13704
273.153	11544
273.214	8292
273.274	11560
273.334	38575
273.394	41899
273.455	20713
273.515	27214
273.575	38565
273.635	18277
273.696	35672
273.756	41505
273.816	18023
273.876	15747
273.936	42646
273.997	40995
274.057	12536
274.117	12552
274.177	21555
274.237	65253
274.297	44641
274.358	40123
274.418	38193
274.478	25476
274.538	13143
274.598	19319
274.658	52534
274.718	45532
274.778	17300
274.838	14344
274.898	42045
274.958	70449
275.018	50427
275.078	27705
275.138	15049
275.198	10316
275.258	9096
275.318	14007
275.378	20978
275.438	18653
275.498	14707
275.558	47812
275.618	53960
275.678	26847
275.738	25149
275.798	19160
275.858	10771
275.918	8465
275.978	10161
276.038	7776
276.098	7924
276.157	20531
276.217	32088
276.277	16390
276.337	13506
276.397	9643
276.457	10789
276.517	7604
276.576	6746
276.636	7825
276.696	13815
276.756	26188
276.815	13191
276.875	9313
276.935	12184
276.995	8925
277.055	6612
277.114	7007
277.174	13301
277.234	23275
277.293	11464
277.353	8214
277.413	6904
277.472	9497
277.532	7341
277.592	9837
277.651	30668
277.711	29700
277.771	17094
277.830	50207
277.890	28378
277.950	39399
278.009	61438
278.069	22969
278.128	34111
278.188	32175
278.248	21355
278.307	44317
278.367	19706
278.426	11672
278.486	8129
278.545	7826
278.605	6944
278.664	7470
278.724	9384
278.783	29316
278.843	36660
278.902	12552
278.962	11694
279.021	13348
279.081	18606
279.140	15772
279.199	13505
279.259	12558
279.318	11516
279.378	16340
279.437	33409
279.496	99066
279.556	232885
279.615	119711
279.675	42344
279.734	31110
279.793	50453
279.853	45561
279.912	19939
279.971	15300
280.031	13327
280.090	25123
280.149	31023
280.208	52309
280.268	187815
280.327	108913
280.386	34683
280.445	32197
280.505	23528
280.564	16499
280.623	12895
280.682	20636
280.742	19460
280.801	9889
280.860	8362
280.919	7959
280.978	7131
281.037	7240
281.097	6313
281.156	6952
281.215	6836
281.274	10302
281.333	31405
281.392	14773
281.451	6742
281.510	6161
281.569	6057
281.628	5809
281.688	5771
281.747	8879
281.806	6546
281.865	5589
281.924	5401
281.983	6397
282.042	4700
282.101	5063
282.160	5041
282.219	5654
282.278	7321
282.337	18653
282.396	8527
282.454	6702
282.513	10995
282.572	27646
282.631	11100
282.690	6510
282.749	6009
282.808	8055
282.867	8445
282.926	7598
282.985	4895
283.043	4303
283.102	5560
283.161	8259
283.220	18555
283.279	22256
283.338	8878
283.396	7397
283.455	7731
283.514	8685
283.573	12743
283.631	9289
283.690	6400
283.749	6950
283.808	15921
283.866	12152
283.925	6597
283.984	7400
284.043	11030
284.101	9054
284.160	7694
284.219	10280
284.277	9263
284.336	17101
284.395	37525
284.453	22231
284.512	12431
284.570	18495
284.629	14330
284.688	13983
284.746	13754
284.805	16812
284.863	20865
284.922	26513
284.981	32626
285.039	47264
285.098	79699
285.156	139683
285.215	168222
285.273	149562
285.332	110045
285.390	74028
285.449	49397
285.507	37241
285.566	28046
285.624	22586
285.683	18200
285.741	15209
285.799	13011
285.858	13457
285.916	11256
285.975	10181
286.033	7526
286.091	8259
286.150	6751
286.208	8440
286.267	10419
286.325	10216
286.383	14289
286.442	10756
286.500	7205
286.558	6402
286.616	6363
286.675	10041
286.733	7172
286.791	8063
286.850	9787
286.908	11824
286.966	14732
287.024	7688
287.083	6756
287.141	6150
287.199	6832
287.257	10779
287.315	7184
287.374	9978
287.432	18803
287.490	11433
287.548	8931
287.606	7106
287.664	7476
287.723	12972
287.781	11732
287.839	9198
287.897	11450
287.955	15331
288.013	24701
288.071	60289
288.129	190163
288.187	277901
288.245	126420
288.303	55314
288.361	34129
288.419	27603
288.477	18579
288.535	14324
288.593	11621
288.651	10233
288.709	7375
288.767	8404
288.825	6550
288.883	7032
288.941	6228
288.999	6366
289.057	5439
289.115	6715
289.173	5375
289.231	6314
289.289	6274
289.346	6576
289.404	7455
289.462	13469
289.520	11458
289.578	5514
289.636	4721
289.694	4706
289.751	4444
289.809	4524
289.867	5243
289.925	8515
289.983	7966
290.040	5172
290.098	4744
290.156	7500
290.214	7115
290.271	4661
290.329	4838
290.387	3560
290.444	4812
290.502	4074
290.560	4660
290.617	5952
290.675	4700
290.733	5674
290.790	5387
290.848	5050
290.906	5587
290.963	5373
291.021	5383
291.078	5390
291.136	6174
291.194	22964
291.251	25777
291.309	9046
291.366	4708
291.424	5815
291.481	5390
291.539	5464
291.596	4671
291.654	3718
291.711	4206
291.769	8013
291.826	13197
291.884	7553
291.941	4585
291.999	6039
292.056	6396
292.114	6957
292.171	5084
292.228	5315
292.286	7364
292.343	15612
292.401	15044
292.458	9446
292.515	7716
292.573	9631
292.630	8171
292.687	8923
292.745	6493
292.802	13607
292.859	26661
292.917	32145
292.974	14623
293.031	7535
293.089	5884
293.146	5938
293.203	5219
293.260	5497
293.318	7544
293.375	11177
293.432	6130
293.489	5280
293.546	5328
293.604	11219
293.661	29050
293.718	46797
293.775	22765
293.832	13098
293.889	10946
293.947	10234
294.004	7715
294.061	9165
294.118	19477
294.175	35177
294.232	37987
294.289	15539
294.346	12878
294.403	13278
294.460	9527
294.517	7570
294.574	6279
294.631	6477
294.688	9446
294.745	26195
294.802	62522
294.859	53624
294.916	21747
294.973	13386
295.030	12817
295.087	10915
295.144	8176
295.201	7884
295.258	7436
295.315	11484
295.372	28820
295.429	33415
295.486	16815
295.542	14409
295.599	38190
295.656	43962
295.713	34385
295.770	31611
295.827	13452
295.883	9871
295.940	11139
295.997	18643
296.054	13812
296.111	8801
296.167	7057
296.224	6033
296.281	5418
296.338	6169
296.394	5755
296.451	9272
296.508	22798
296.564	31179
296.621	26967
296.678	54786
296.734	52708
296.791	23140
296.848	15874
296.904	19728
296.961	35477
297.018	43086
297.074	26901
297.131	13437
297.187	12459
297.244	19286
297.301	47948
297.357	53183
297.414	19939
297.470	11568
297.527	8592
297.583	8737
297.640	9351
297.696	7391
297.753	5832
297.809	6291
297.866	4666
297.922	5903
297.979	5356
298.035	7620
298.092	12651
298.148	25797
298.204	20352
298.261	14311
298.317	29690
298.374	50995
298.430	26302
298.486	18856
298.543	13866
298.599	13977
298.656	16952
298.712	30005
298.768	55760
298.824	30081
298.881	13212
298.937	9480
298.993	9166
299.050	12185
299.106	9556
299.162	8734
299.218	7878
299.275	7403
299.331	9481
299.387	19238
299.443	47507
299.500	34167
299.556	14292
299.612	10706
299.668	10266
299.724	8095
299.780	7712
299.837	8802
299.893	15889
299.949	42154
300.005	37778
300.061	43420
300.117	53478
300.173	25265
300.229	17794
300.285	22520
300.341	20413
300.397	11795
300.453	8052
300.510	8844
300.566	8074
300.622	8731
300.678	17075
300.734	31769
300.790	35521
300.845	38158
300.901	26396
300.957	36714
301.013	23373
301.069	12283
301.125	11365
301.181	12079
301.237	9009
301.293	7566
301.349	6241
301.405	7034
301.461	8119
301.516	11137
301.572	11041
301.628	16688
301.684	13911
301.740	23106
301.796	25600
301.851	21886
301.907	35018
301.963	34552
302.019	59821
302.074	109992
302.130	93862
302.186	45940
302.242	23372
302.297	17304
302.353	18428
302.409	29565
302.464	23743
302.520	26766
302.576	53373
302.631	47752
302.687	26762
302.743	14151
302.798	9850
302.854	9204
302.910	10671
302.965	14800
303.021	23209
303.076	20780
303.132	26881
303.187	25545
303.243	14006
303.299	10439
303.354	9437
303.410	8866
303.465	7651
303.521	7749
303.576	7697
303.632	11554
303.687	21126
303.743	42231
303.798	28579
303.853	15272
303.909	10049
303.964	11161
304.020	17265
304.075	21755
304.130	21211
304.186	36679
304.241	32890
304.297	25550
304.352	14100
304.358	13745
304.407	10857
304.449	10306
304.463	10132
304.518	10882
304.539	10269
304.573	9291
304.629	10924
304.630	11056
304.684	17461
304.720	30809
304.739	37645
304.794	41432
304.811	35943
304.850	21973
304.902	12456
304.905	11891
304.960	10769
304.992	11042
305.015	11243
305.071	10949
305.083	10525
305.126	8873
305.173	7213
305.181	6969
305.236	6328
305.264	7116
305.292	7980
305.347	9972
305.354	10102
305.402	10885
305.445	11618
305.457	11846
305.512	14511
305.535	14139
305.567	13392
305.622	15426
305.626	15902
305.678	26753
305.716	45285
305.733	52229
305.788	47830
305.807	43824
305.843	35571
305.897	44617
305.898	44740
305.953	37925
305.988	28641
306.008	22957
306.063	17095
306.078	15140
306.118	11078
306.168	8023
306.173	7785
306.228	6455
306.259	6387
306.283	6535
306.338	7101
306.349	7313
306.393	8538
306.440	10073
306.448	10224
306.503	10562
306.530	11864
306.558	15432
306.613	32856
306.620	34264
306.668	42713
306.711	49242
306.723	49228
306.778	34721
306.801	28672
306.833	20814
306.888	11479
306.892	11073
306.943	9413
306.982	7951
306.997	7573
307.052	7956
307.072	8088
307.107	9098
307.162	13194
307.163	13247
307.217	19856
307.253	24368
307.272	25515
307.327	24691
307.343	23541
307.381	19698
307.434	17800
307.436	18217
307.491	34157
307.524	46221
307.546	49966
307.600	44717
307.614	41240
307.655	25878
307.704	15832
307.710	15863
307.765	19782
307.795	24542
307.819	30609
307.874	46325
307.885	46632
307.929	35475
307.975	27129
307.984	27653
308.038	38355
308.065	48068
308.093	74294
308.148	143076
308.156	154918
308.202	232691
308.246	277748
308.257	265835
308.312	164878
308.336	123098
308.366	97841
308.421	59500
308.426	56251
308.475	38162
308.517	26926
308.530	25315
308.585	21482
308.607	20552
308.639	21085
308.694	23347
308.697	23694
308.748	40547
308.787	56394
308.803	56935
308.857	44337
308.877	40463
308.912	35094
308.967	30507
308.967	30486
309.021	40162
309.058	48965
309.076	60286
309.130	103790
309.148	120546
309.185	196641
309.238	313365
309.239	314818
309.293	348755
309.328	352006
309.348	308180
309.402	171690
309.418	134379
309.457	98058
309.508	58477
309.511	57564
309.566	48157
309.598	44044
309.620	46364
309.674	54978
309.688	57312
309.729	57101
309.778	52372
309.783	51309
309.837	39791
309.868	33947
309.892	37951
309.946	51318
309.959	55436
310.001	76102
310.049	93533
310.055	90381
310.109	56256
310.139	37825
310.163	30733
310.218	18704
310.229	16395
310.272	13948
310.319	12252
310.326	12123
310.381	11121
310.409	10779
310.435	10376
310.489	9620
310.499	9517
310.543	10034
310.589	10672
310.598	10677
310.652	10814
310.679	10630
310.706	9465
310.760	7182
310.769	6841
310.814	6065
310.859	5535
310.868	5578
310.923	5772
310.948	5960
310.977	6792
311.031	8351
311.038	8590
311.085	8814
311.128	8585
311.139	8436
311.193	7971
311.218	7698
311.247	7028
311.301	5950
311.308	5803
311.356	6040
311.398	6327
311.410	6153
311.464	5314
311.488	4926
311.518	5056
311.572	5341
311.578	5407
311.626	8544
311.668	11183
311.680	11166
311.734	10978
311.758	10887
311.788	11134
311.842	11632
311.847	11673
311.896	13477
311.937	15210
311.950	15393
312.004	16031
312.027	16268
312.058	13510
312.112	8613
312.117	8123
312.165	7833
312.207	7589
312.297	9244
312.386	9223
312.476	8191
312.566	17244
312.656	10305
312.745	5395
312.835	6794
312.925	7843
313.015	8552
313.104	9689
313.194	5654
313.284	6940
313.374	8190
313.463	8636
313.553	6196
313.643	5137
313.732	4319
313.822	4585
313.912	6763
314.001	7381
314.091	8478
314.180	12403
314.270	10358
314.360	12452
314.449	10710
314.539	7134
314.628	5696
314.718	6764
314.808	10246
314.897	6140
314.987	5463
315.076	8091
315.166	12161
315.255	11128
315.345	11029
315.434	10688
315.524	9128
315.613	10941
315.703	12423
315.792	13173
315.881	13616
315.971	11320
316.060	20083
316.150	36160
316.239	37971
316.328	17378
316.418	6139
316.507	6128
316.597	9126
316.686	9522
316.775	15404
316.865	38080
316.954	10425
317.043	4939
317.133	5755
317.222	5459
317.311	5796
317.400	5377
317.490	8284
317.579	11342
317.668	6503
317.757	9335
317.847	13723
317.936	24105
318.025	26978
318.114	14608
318.203	11787
318.293	16125
318.382	33371
318.471	27361
318.560	36560
318.649	68957
318.738	23522
318.828	11714
318.917	15885
319.006	17463
319.095	41643
319.184	83046
319.273	61101
319.362	32610
319.451	11561
319.540	11288
319.629	20782
319.718	42409
319.807	19573
319.896	29802
319.985	103831
320.074	57059
320.163	15716
320.252	23957
320.341	18245
320.430	16906
320.519	18081
320.608	14984
320.697	9201
320.786	9464
320.875	11884
320.964	17847
321.053	27465
321.142	37599
321.230	46542
321.319	29409
321.408	66683
321.497	36579
321.586	26854
321.675	35930
321.764	37877
321.852	23646
321.941	36092
322.030	31620
322.119	27810
322.207	72316
322.296	60834
322.385	28286
322.474	28102
322.562	76373
322.651	55413
322.740	30149
322.829	47918
322.917	52268
323.006	32189
323.095	23373
323.183	20197
323.272	28056
323.361	49816
323.449	136623
323.538	64783
323.626	91691
323.715	75852
323.804	29092
323.892	85926
323.981	65743
324.069	18674
324.158	46190
324.246	56952
324.335	17006
324.424	26616
324.512	11389
324.601	11559
324.689	17517
324.778	31749
324.866	37605
324.954	14362
325.043	9923
325.131	23237
325.220	42097
325.308	48887
325.397	33732
325.485	25231
325.574	7625
325.662	6293
325.750	8555
325.839	6781
325.927	5491
326.015	9224
326.104	17376
326.192	29111
326.280	8076
326.369	6668
326.457	9707
326.545	18889
326.634	11045
326.722	5434
326.810	5056
326.898	5445
326.987	6934
327.075	17928
327.163	23873
327.251	12496
327.340	8927
327.428	13726
327.516	5432
327.604	5765
327.692	7694
327.781	10590
327.869	18448
327.957	12923
328.045	11589
328.133	5684
328.221	9286
328.309	7648
328.397	6502
328.485	9355
328.574	12883
328.662	40387
328.750	34063
328.838	13700
328.926	7038
329.014	5610
329.102	9188
329.190	23926
329.278	19975
329.366	6005
329.454	4794
329.542	5404
329.630	4766
329.718	5526
329.806	7637
329.893	8393
329.981	9613
330.069	15404
330.157	48475
330.245	136319
330.333	89990
330.421	20215
330.509	15793
330.597	49991
330.684	44980
330.772	14887
330.860	18659
330.948	22463
331.036	11126
331.123	4868
331.211	4785
331.299	8371
331.387	16196
331.475	35415
331.562	13213
331.650	4912
331.738	7425
331.825	11257
331.913	5503
332.001	5331
332.089	8194
332.176	21442
332.264	47774
332.352	45538
332.439	13122
332.527	8243
332.614	7081
332.702	10762
332.790	8100
332.877	21425
332.965	47659
333.052	14537
333.140	10938
333.228	25045
333.315	10440
333.403	8214
333.490	26386
333.578	28162
333.665	23192
333.753	16726
333.840	7147
333.928	10512
334.015	29195
334.103	45211
334.190	117437
334.278	44500
334.365	12158
334.452	8015
334.540	6825
334.627	8842
334.715	15749
334.802	31564
334.889	152699
334.977	181665
335.064	21141
335.151	8832
335.239	8623
335.326	13586
335.413	46279
335.501	81232
335.588	13874
335.675	7952
335.762	8799
335.850	17332
335.937	12365
336.024	34438
336.111	149567
336.199	77529
336.286	10649
336.373	5894
336.460	4737
336.547	5468
336.635	7872
336.722	8617
336.809	6425
336.896	11224
336.983	34349
337.070	83283
337.157	121988
337.245	107875
337.332	93715
337.419	13479
337.506	6734
337.593	8857
337.680	24473
337.767	79790
337.854	30245
337.941	30551
338.028	39243
338.115	17482
338.202	14771
338.289	31415
338.376	107094
338.463	46441
338.550	43150
338.637	58826
338.724	23273
338.811	39230
338.898	9874
338.984	5294
339.071	8054
339.158	9010
339.245	25242
339.332	20163
339.419	22729
339.506	26528
339.593	6064
339.679	4298
339.766	4574
339.853	8180
339.940	19245
340.027	8599
340.113	5464
340.200	10342
340.287	8364
340.374	9028
340.460	17091
340.547	8828
340.634	12332
340.720	45688
340.807	38352
340.894	6143
340.980	6006
341.067	6494
341.154	7168
341.240	9165
341.327	25965
341.414	8498
341.500	8255
341.587	7067
341.674	5116
341.760	14136
341.847	21803
341.933	8185
342.020	3824
342.106	3115
342.193	5595
342.279	13982
342.366	9797
342.452	17830
342.539	11534
342.625	19565
342.712	55256
342.798	27637
342.885	11546
342.971	3838
343.058	3519
343.144	4243
343.230	4607
343.317	4278
343.403	4436
343.490	2368
343.576	3032
343.662	5057
343.749	6460
343.835	8951
343.921	15806
344.008	71224
344.094	191688
344.180	58566
344.267	17910
344.353	46989
344.439	66552
344.525	29966
344.612	14660
344.698	12679
344.784	9635
344.870	5212
344.957	4754
345.043	9551
345.129	7267
345.215	15537
345.301	9979
345.387	6253
345.474	3256
345.560	4273
345.646	7056
345.732	6175
345.818	5737
345.904	6282
345.990	7673
346.076	8038
346.162	17226
346.249	7715
346.335	4846
346.421	4992
346.507	18699
346.593	70957
346.679	25251
346.765	6424
346.851	5235
346.937	5794
347.023	4407
347.108	6215
347.194	6560
347.280	5338
347.366	6545
347.452	19120
347.538	81727
347.624	70083
347.710	59970
347.796	14224
347.882	5730
347.967	5463
348.053	8520
348.139	6888
348.225	4326
348.311	4830
348.397	4790
348.482	5571
348.568	9031
348.654	3017
348.740	2638
348.825	3539
348.911	9613
348.997	34862
349.083	85722
349.168	21071
349.254	6152
349.340	6080
349.425	4051
349.511	6218
349.597	9836
349.682	15259
349.768	48827
349.854	30711
349.939	6644
350.025	4706
350.110	4743
350.196	3218
350.282	3412
350.367	3273
350.453	10237
350.538	14497
350.624	8393
350.709	8294
350.795	3890
350.880	5784
350.966	5531
351.051	11406
351.137	9494
351.222	4710
351.308	14600
351.393	47990
351.479	16474
351.564	5514
351.649	5201
351.735	3995
351.820	3323
351.906	4743
351.991	7892
352.076	26354
352.162	50444
352.247	12308
352.332	7503
352.418	13177
352.503	17520
352.588	60441
352.673	69149
352.759	16295
352.844	8721
352.929	6490
353.014	11738
353.100	6795
353.185	8306
353.270	17400
353.355	23022
353.441	7064
353.526	8153
353.611	17389
353.696	24325
353.781	13246
353.866	7579
353.952	6027
354.037	15963
354.122	40606
354.207	39483
354.292	18597
354.377	6522
354.462	5154
354.547	7922
354.632	7515
354.717	8926
354.802	9197
354.887	4789
354.972	3074
355.057	3924
355.142	3612
355.227	5707
355.312	11836
355.397	26657
355.482	63911
355.567	41245
355.652	21601
355.737	26138
355.822	55384
355.907	62015
355.991	10795
356.076	5082
356.161	5528
356.246	4822
356.331	5703
356.416	14363
356.501	83139
356.585	119810
356.670	21071
356.755	11114
356.840	14398
356.924	57965
357.009	235045
357.094	126659
357.179	25898
357.263	17879
357.348	14442
357.433	17039
357.517	13620
357.602	12277
357.687	9795
357.771	11478
357.856	37457
357.941	31128
358.025	47671
358.110	218263
358.195	141373
358.279	23903
358.364	14235
358.448	41737
358.533	120078
358.617	100231
358.702	86592
358.787	41882
358.871	19657
358.956	18981
359.040	6887
359.125	4178
359.209	5657
359.294	15823
359.378	34181
359.462	18069
359.547	9348
359.631	7812
359.716	5156
359.800	5033
359.885	9399
359.969	7674
360.053	5589
360.138	5718
360.222	8514
360.306	19548
360.391	17263
360.475	21600
360.559	58571
360.644	51256
360.728	44482
360.812	45111
360.896	150835
360.981	78065
361.065	44362
361.149	11624
361.233	10035
361.318	7538
361.402	9855
361.486	8741
361.570	5473
361.654	8535
361.739	22887
361.823	86432
361.907	161632
361.991	37245
362.075	15588
362.159	37593
362.243	28959
362.327	15322
362.411	12743
362.495	11653
362.580	7760
362.664	3958
362.748	4595
362.832	4355
362.916	6183
363.000	14341
363.084	71330
363.168	175034
363.252	55945
363.336	16386
363.420	21231
363.503	67900
363.587	99518
363.671	20711
363.755	11431
363.839	18950
363.923	9342
364.007	16947
364.091	24574
364.175	25274
364.258	104838
364.342	68260
364.426	21032
364.510	15017
364.594	17452
364.677	25077
364.761	115389
364.845	109936
364.929	34013
365.013	31371
365.096	21694
365.180	31528
365.264	29271
365.347	115293
365.431	64958
365.515	17522
365.598	8563
365.682	6114
365.766	12807
365.849	18230
365.933	9926
366.017	12290
366.100	9781
366.184	3906
366.267	5528
366.351	4717
366.435	4158
366.518	3637
366.602	2762
366.685	4598
366.769	5946
366.852	11702
366.936	23660
367.019	16061
367.103	9766
367.186	19109
367.270	6788
367.353	3089
367.436	3584
367.520	4024
367.603	6351
367.687	10701
367.770	24398
367.853	13639
367.937	29011
368.020	63864
368.104	20202
368.187	15782
368.270	24018
368.353	20815
368.437	31873
368.520	79504
368.603	52471
368.687	41766
368.770	91886
368.853	28743
368.936	21082
369.020	23833
369.103	10157
369.186	5575
369.269	6509
369.352	13916
369.436	23794
369.519	15395
369.602	7150
369.685	6820
369.768	8774
369.851	6612
369.934	5327
370.018	7005
370.101	19030
370.184	16585
370.267	9977
370.350	15404
370.433	26268
370.516	55087
370.599	78704
370.682	26058
370.765	44208
370.848	55749
370.931	105298
371.014	50643
371.097	11058
371.180	6685
371.263	3387
371.346	3212
371.429	3598
371.511	4566
371.594	10539
371.677	19750
371.760	21737
371.843	17249
371.926	63444
372.009	188018
372.091	74046
372.174	37710
372.257	89059
372.340	45844
372.423	28548
372.505	37254
372.588	16323
372.671	26539
372.754	99614
372.836	65003
372.919	32297
373.002	75645
373.085	29182
373.167	16180
373.250	40363
373.332	89607
373.415	111179
373.498	260886
373.580	119599
373.663	89862
373.746	162398
373.828	47583
373.911	19015
373.993	18562
374.076	64035
374.159	78976
374.241	30490
374.324	82813
374.406	70329
374.489	58521
374.571	195130
374.654	105172
374.736	36960
374.819	114651
374.901	170785
374.983	210173
375.066	47222
375.148	13555
375.231	47371
375.313	113671
375.395	51480
375.478	12299
375.560	7086
375.643	8984
375.725	32399
375.807	152040
375.890	158272
375.972	82649
376.054	38308
376.136	66620
376.219	33007
376.301	35955
376.383	139103
376.465	67741
376.548	38255
376.630	40623
376.712	111943
376.794	70367
376.877	9073
376.959	5358
377.041	7394
377.123	14109
377.205	21417
377.287	4916
377.369	3289
377.452	4828
377.534	4978
377.616	4860
377.698	5218
377.780	4498
377.862	5446
377.944	4808
378.026	3172
378.108	2921
378.190	3873
378.272	3716
378.354	2792
378.436	2854
378.518	7448
378.600	33844
378.682	30490
378.764	55135
378.846	56883
378.928	15840
379.010	20213
379.091	12802
379.173	5248
379.255	4775
379.337	8028
379.419	22907
379.501	83226
379.583	44572
379.664	8840
379.746	21586
379.828	55794
379.910	80311
379.991	79403
380.073	17738
380.155	9005
380.237	6851
380.318	3854
380.400	5190
380.482	12656
380.564	26037
380.645	20085
380.727	20772
380.809	12588
380.890	8069
380.972	5520
381.053	5586
381.135	6914
381.217	16187
381.298	61679
381.380	39014
381.461	24387
381.543	99846
381.624	165850
381.706	38403
381.787	15111
381.869	16058
381.951	37518
382.032	181830
382.113	150082
382.195	36339
382.276	16793
382.358	28351
382.439	96457
382.521	108272
382.602	186971
382.684	92934
382.765	142354
382.846	166426
382.928	191171
383.009	126343
383.090	75757
383.172	234810
383.253	430954
383.334	178715
383.416	164562
383.497	104482
383.578	42079
383.659	68990
383.741	206781
383.822	588743
383.903	380094
383.984	125529
384.066	198757
384.147	154417
384.228	34670
384.309	20767
384.390	18054
384.471	10685
384.553	12324
384.634	17827
384.715	20737
384.796	10157
384.877	11221
384.958	45925
385.039	74985
385.120	29386
385.201	11706
385.282	14560
385.363	14800
385.444	12364
385.525	18007
385.606	67820
385.687	77082
385.768	20792
385.849	20084
385.930	70351
386.011	158919
386.092	55074
386.173	12229
386.254	8235
386.335	9175
386.416	9347
386.496	29240
386.577	65513
386.658	28428
386.739	16396
386.820	13510
386.901	11139
386.981	9603
387.062	5997
387.143	11124
387.224	50362
387.304	63127
387.385	21952
387.466	12948
387.547	14259
387.627	10400
387.708	15215
387.789	84139
387.869	133502
387.950	42376
388.031	7558
388.111	6203
388.192	18694
388.273	32473
388.353	20734
388.434	10637
388.514	15806
388.595	76337
388.676	127737
388.756	67911
388.837	56277
388.917	45941
388.998	9119
389.078	6148
389.159	6478
389.239	7618
389.320	9958
389.400	11166
389.480	17833
389.561	57624
389.641	35516
389.722	9821
389.802	19531
389.883	21467
389.963	64830
390.043	56375
390.124	20795
390.204	18451
390.284	67615
390.365	56171
390.445	50796
390.525	149971
390.605	164774
390.686	51908
390.766	14588
390.846	6887
390.927	5067
391.007	6329
391.087	7210
391.167	8054
391.247	5933
391.328	12698
391.408	20194
391.488	14374
391.568	4403
391.648	6873
391.728	12535
391.808	11004
391.888	13536
391.969	25801
392.049	54360
392.129	26388
392.209	19483
392.289	60988
392.369	40299
392.449	30678
392.529	20883
392.609	14213
392.689	14607
392.769	53863
392.849	59981
392.929	28681
393.009	78206
393.089	66852
393.169	21534
393.248	47177
393.328	277029
393.408	416325
393.488	95853
393.568	21871
393.648	13249
393.728	8906
393.807	8164
393.887	8126
393.967	8446
394.047	11484
394.127	17509
394.206	29315
394.286	90137
394.366	404550
394.446	564713
394.525	179616
394.605	44128
394.685	25138
394.764	44531
394.844	77331
394.924	63907
395.003	20439
395.083	13365
395.163	11647
395.242	10392
395.322	11152
395.402	7818
395.481	10691
395.561	26081
395.640	85171
395.720	67046
395.799	85584
395.879	90201
395.958	51561
396.038	139829
396.117	534531
396.197	727648
396.276	283307
396.356	89814
396.435	52565
396.515	30363
396.594	24059
396.673	30223
396.753	65760
396.832	293336
396.912	305454
396.991	94323
397.070	21145
397.150	11319
397.229	7663
397.308	5823
397.388	7333
397.467	6421
397.546	4489
397.625	3898
397.705	8657
397.784	9763
397.863	5642
397.942	3457
398.022	4344
398.101	18119
398.180	77143
398.259	51424
398.338	11983
398.417	8144
398.497	5665
398.576	5415
398.655	3767
398.734	3889
398.813	4053
398.892	16833
398.971	81106
399.050	52934
399.129	7224
399.208	2558
399.287	3246
399.366	2697
399.445	3620
399.524	3368
399.603	3588
399.682	8590
399.761	24285
399.840	83093
399.919	84146
399.998	14054
400.077	3150
400.156	2647
400.235	4929
400.313	3292
400.392	5697
400.471	24460
400.550	58942
400.629	20666
400.708	7767
400.786	6353
400.865	16943
400.944	24298
401.023	12466
401.102	2741
401.180	2422
401.259	3534
401.338	5343
401.416	6316
401.495	6667
401.574	4379
401.652	4028
401.731	6527
401.810	5457
401.888	2837
401.967	1427
402.046	2864
402.124	4646
402.203	10155
402.281	4820
402.360	6349
402.438	22465
402.517	21259
402.596	6917
402.674	5725
402.753	4081
402.831	3212
402.910	2900
402.988	8780
403.066	36870
403.145	27192
403.223	11407
403.302	28444
403.380	23620
403.459	19988
403.537	11564
403.615	4947
403.694	1380
403.772	1669
403.850	1335
403.929	1184
404.007	2762
404.085	5221
404.164	5398
404.242	4063
404.320	10022
404.398	38974
404.477	52658
404.555	131711
404.633	162587
404.711	49265
404.789	23072
404.868	6574
404.946	3573
405.024	2736
405.102	1740
405.180	2155
405.258	1930
405.336	2869
405.415	2686
405.493	7843
405.571	7640
405.649	2058
405.727	1797
405.805	4912
405.883	5360
405.961	5381
406.039	7991
406.117	4514
406.195	5519
406.273	23445
406.351	118277
406.429	100223
406.507	18277
406.585	6059
406.663	3918
406.740	6858
406.818	8064
406.896	3776
406.974	3670
407.052	7397
407.130	57563
407.208	120821
407.285	32461
407.363	4624
407.441	4410
407.519	2924
407.596	3586
407.674	9134
407.752	21797
407.830	31548
407.907	17190
407.985	5270
408.063	3925
408.141	1778
408.218	5042
408.296	5986
408.373	3575
408.451	4855
408.529	4811
408.606	3368
408.684	1460
408.762	755
408.839	881
408.917	753
408.994	1514
409.072	1045
409.149	1195
409.227	2409
409.304	3622
409.382	736
409.459	179
409.537	1654
409.614	2960
409.692	1441
409.769	1229
409.846	2318
409.924	3554
410.001	4105
410.079	3015
410.156	2475
410.233	2439
410.311	2053
410.388	1905
410.465	3140
410.543	3297
410.620	2379
410.697	2379
410.775	5380
410.852	1690
410.929	3241
411.006	6061
411.083	2371
411.161	6778
411.238	10386
411.315	6122
411.392	2722
411.469	3721
411.547	5498
411.624	2217
411.701	2772
411.778	2933
411.855	11665
411.932	8290
412.009	3108
412.086	3196
412.163	3423
412.240	4550
412.317	5230
412.394	5901
412.471	2193
412.548	1181
412.625	2356
412.702	3331
412.779	9493
412.856	6651
412.933	2071
413.010	1885
413.087	5098
413.164	22465
413.241	49868
413.318	15569
413.395	5779
413.471	10569
413.548	5738
413.625	1528
413.702	4125
413.779	4645
413.855	891
413.932	292
414.009	480
414.086	1120
414.162	1251
414.239	3083
414.316	20951
414.393	68816
414.469	35680
414.546	4173
414.623	1484
414.699	1714
414.776	2631
414.853	2658
414.929	3117
415.006	2075
415.082	3156
415.159	3461
415.236	2167
415.312	2695
415.389	6034
415.465	11321
415.542	6085
415.618	2289
415.695	5691
415.771	5215
415.848	4259
415.924	3071
416.000	3329
416.077	1805
416.153	-105
416.230	310
416.306	-126
416.383	2014
416.459	1164
416.535	500
416.612	883
416.688	780
416.764	744
416.841	1124
416.917	1318
416.993	1711
417.069	2271
417.146	5566
417.222	9772
417.298	6031
417.374	2280
417.451	2932
417.527	4244
417.603	5742
417.679	3786
417.755	1812
417.831	1440
417.908	1283
417.984	1037
418.060	177
418.136	6276
418.212	13788
418.288	4777
418.364	2236
418.440	2082
418.516	5505
418.592	6774
418.668	13359
418.744	21623
418.820	19542
418.896	5445
418.972	1142
419.048	1750
419.124	6356
419.200	8883
419.276	2352
419.352	206
419.428	756
419.504	1716
419.579	3543
419.655	3397
419.731	2431
419.807	10021
419.883	25631
419.959	23276
420.034	6462
420.110	6392
420.186	33702
420.262	41120
420.337	7665
420.413	4174
420.489	2380
420.565	1066
420.640	891
420.716	1772
420.792	351
420.867	1517
420.943	948
421.019	4344
421.094	5315
421.170	2120
421.245	953
421.321	1109
421.397	1431
421.472	2728
421.548	8842
421.623	10349
421.699	4467
421.774	2867
421.850	2336
421.925	5836
422.001	6495
422.076	2458
422.152	1488
422.227	5631
422.302	5827
422.378	4466
422.453	8045
422.529	15130
422.604	61270
422.679	206915
422.755	148832
422.830	35384
422.905	8835
422.981	4378
423.056	1841
423.131	2347
423.207	1589
423.282	2322
423.357	10477
423.432	9599
423.508	5139
423.583	16939
423.658	20178
423.733	4316
423.808	4932
423.883	5720
423.959	5339
424.034	2682
424.109	1434
424.184	103
424.259	1376
424.334	744
424.409	354
424.484	444
424.559	2194
424.634	2022
424.709	2777
424.784	5762
424.859	3133
424.934	3781
425.009	21012
425.084	51268
425.159	26575
425.234	3670
425.309	1161
425.384	5319
425.459	16897
425.534	6816
425.609	2345
425.683	2450
425.758	894
425.833	960
425.908	3080
425.983	10242
426.058	49439
426.132	34840
426.207	5800
426.282	5384
426.357	7609
426.431	2786
426.506	1907
426.581	1910
426.655	2136
426.730	1183
426.805	2144
426.879	2170
426.954	1119
427.029	4932
427.103	29027
427.178	107049
427.253	71712
427.327	9731
427.402	5266
427.476	19595
427.551	13866
427.625	3782
427.700	3663
427.774	2160
427.849	3070
427.923	1027
427.998	1235
428.072	1678
428.147	5037
428.221	12703
428.296	29164
428.370	15026
428.444	3176
428.519	6334
428.593	16638
428.667	17074
428.742	17129
428.816	14914
428.890	21352
428.965	38546
429.039	23335
429.113	22335
429.188	10073
429.262	1930
429.336	3828
429.410	19120
429.485	18632
429.559	13392
429.633	15791
429.707	3756
429.781	5370
429.855	30152
429.930	57668
430.004	47961
430.078	79747
430.152	74384
430.226	34760
430.300	38530
430.374	9115
430.448	4170
430.522	15102
430.596	75645
430.670	56667
430.744	43519
430.818	118729
430.892	44441
430.966	6781
431.040	2085
431.114	922
431.188	412
431.262	1091
431.336	1686
431.410	4606
431.484	21323
431.557	21242
431.631	2871
431.705	571
431.779	1610
431.853	13559
431.927	15289
432.000	3563
432.074	1454
432.148	2502
432.222	3128
432.295	1445
432.369	1437
432.443	2814
432.516	24352
432.590	104396
432.664	63472
432.737	8719
432.811	1381
432.885	666
432.958	268
433.032	248
433.106	-236
433.179	-342
433.253	109
433.326	318
433.400	340
433.473	-270
433.547	-404
433.620	157
433.694	3179
433.767	6083
433.841	2277
433.914	327
433.988	709
434.061	524
434.134	649
434.208	-119
434.281	-738
434.355	-277
434.428	579
434.501	326
434.575	165
434.648	803
434.721	76
434.795	-22
434.868	-653
434.941	-482
435.014	-712
435.088	59
435.161	1864
435.234	3639
435.307	5703
435.381	2519
435.454	474
435.527	676
435.600	330
435.673	427
435.746	40
435.819	-358
435.892	202
435.966	474
436.039	72
436.112	676
436.185	-674
436.258	-558
436.331	-270
436.404	-115
436.477	-618
436.550	140
436.623	-370
436.696	-26
436.769	1484
436.842	695
436.915	916
436.987	2681
437.060	813
437.133	57
437.206	-617
437.279	229
437.352	-232
437.425	-334
437.498	1037
437.570	3618
437.643	6334
437.716	890
437.789	542
437.861	1972
437.934	10506
438.007	8877
438.080	1120
438.152	1496
438.225	4795
438.298	27538
438.370	138668
438.443	90889
438.516	19838
438.588	4805
438.661	1286
438.734	811
438.806	824
438.879	2622
438.951	1989
439.024	5469
439.096	2572
439.169	1460
439.241	822
439.314	43
439.386	2602
439.459	5616
439.531	9498
439.604	4533
439.676	808
439.749	26
439.821	76
439.893	-336
439.966	286
440.038	1342
440.110	2352
440.183	2125
440.255	325
440.327	2619
440.400	10959
440.472	73860
440.544	85192
440.617	14865
440.689	4644
440.761	4951
440.833	9651
440.905	8619
440.978	1548
441.050	224
441.122	91
441.194	-83
441.266	-244
441.338	-204
441.411	1677
441.483	17182
441.555	48672
441.627	16650
441.699	4722
441.771	5635
441.843	1737
441.915	511
441.987	-52
442.059	-127
442.131	1623
442.203	2746
442.275	3656
442.347	3791
442.419	1054
442.491	2749
442.563	10981
442.635	11351
442.706	16226
442.778	21723
442.850	4438
442.922	1037
442.994	1532
443.066	3540
443.137	2194
443.209	797
443.281	1182
443.353	3425
443.425	8065
443.496	18415
443.568	23039
443.640	9864
443.711	3210
443.783	532
443.855	1021
443.926	616
443.998	754
444.070	2429
444.141	1866
444.213	3493
444.285	5337
444.356	5644
444.428	6529
444.499	2135
444.571	-187
444.642	618
444.714	117
444.785	3213
444.857	4468
444.928	13673
445.000	11114
445.071	6745
445.143	11838
445.214	4703
445.285	4463
445.357	17421
445.428	24137
445.500	43780
445.571	44228
445.642	19178
445.714	11292
445.785	25691
445.856	9596
445.928	5262
445.999	4644
446.070	3566
446.141	2447
446.213	4833
446.284	2378
446.355	2534
446.426	2252
446.497	1256
446.569	2319
446.640	6333
446.711	7757
446.782	1133
446.853	2806
446.924	4785
446.995	2540
447.066	2035
447.138	4181
447.209	3977
447.280	408
447.351	-249
447.422	-46
447.493	1160
447.564	2227
447.635	4582
447.706	2675
447.777	545
447.847	-260
447.918	13
447.989	1345
448.060	2956
448.131	7925
448.202	10655
448.273	7069
448.344	3990
448.414	937
448.485	834
448.556	791
448.627	-21
448.698	708
448.768	-493
448.839	127
448.910	3516
448.981	5741
449.051	1832
449.122	-196
449.193	76
449.263	425
449.334	348
449.405	462
449.475	5840
449.546	6174
449.616	4852
449.687	5752
449.758	2082
449.828	811
449.899	741
449.969	122
450.040	465
450.110	1547
450.181	3474
450.251	1794
450.322	612
450.392	1108
450.463	716
450.533	300
450.604	111
450.674	700
450.744	1137
450.815	185
450.885	826
450.955	378
451.026	-329
451.096	562
451.166	1214
451.237	3304
451.307	14808
451.377	9443
451.447	1627
451.518	602
451.588	844
451.658	1114
451.728	1330
451.799	11693
451.869	22465
451.939	6690
452.009	1436
452.079	696
452.149	1193
452.219	1680
452.289	14877
452.360	18922
452.430	5048
452.500	1335
452.570	2710
452.640	1828
452.710	5046
452.780	17273
452.850	11742
452.920	14295
452.990	5607
453.060	2202
453.129	2565
453.199	5381
453.269	11544
453.339	51038
453.409	90583
453.479	61176
453.549	98049
453.619	114269
453.688	64945
453.758	12060
453.828	2987
453.898	1699
453.968	1566
454.037	1144
454.087	1184
454.107	1170
454.168	1032
454.177	979
454.247	914
454.249	918
454.316	323
454.330	563
454.386	1519
454.411	3640
454.456	6299
454.492	11695
454.525	16153
454.574	9701
454.595	7004
454.655	2598
454.665	1919
454.734	2302
454.736	2453
454.804	6220
454.817	8382
454.873	14907
454.898	19099
454.943	24832
454.979	18945
455.013	14020
455.060	7497
455.082	5264
455.141	6047
455.152	6208
455.221	13218
455.222	13698
455.291	32791
455.303	33233
455.360	33877
455.384	45662
455.430	60490
455.465	55605
455.499	50820
455.546	32395
455.569	23545
455.627	17472
455.638	16606
455.707	5025
455.708	5047
455.777	2645
455.789	2690
455.846	2566
455.869	2434
455.916	2291
455.950	2068
455.985	1733
456.031	2351
456.054	2498
456.112	1940
456.124	1910
456.193	1994
456.193	1962
456.262	2376
456.274	2787
456.332	4407
456.355	5018
456.401	5251
456.436	4768
456.470	4116
456.516	2407
456.540	1726
456.597	1631
456.609	1632
456.678	1491
456.678	1468
456.747	2144
456.759	2091
456.817	1445
456.840	1561
456.886	1855
456.920	1587
456.955	1444
457.001	1673
457.024	2101
457.082	3879
457.093	4291
457.162	6676
457.163	6749
457.232	9275
457.243	9073
457.301	5570
457.324	3845
457.370	2383
457.405	2547
457.439	2680
457.485	2373
457.508	2301
457.566	2529
457.577	2582
457.646	3351
457.647	3381
457.715	3443
457.727	3574
457.784	4153
457.808	4316
457.853	4657
457.889	5095
457.922	5292
457.969	5424
457.991	5533
458.050	6144
458.060	6190
458.129	6438
458.130	6489
458.198	6555
458.211	6306
458.267	4580
458.292	3805
458.336	3118
458.372	3222
458.405	3850
458.453	4535
458.474	4897
458.533	6761
458.543	7181
458.611	10651
458.614	10834
458.680	9504
458.694	8633
458.749	5766
458.775	4793
458.818	4278
458.855	3959
458.887	3957
458.936	3834
458.955	3694
459.016	4182
459.024	4235
459.093	4624
459.097	4653
459.162	5145
459.177	5300
459.230	5845
459.257	6329
459.299	6785
459.338	7058
459.368	7276
459.418	7582
459.437	7158
459.499	5990
459.505	5978
459.574	5152
459.579	5173
459.643	5383
459.659	5403
459.711	5483
459.740	5348
459.780	5651
459.820	6435
459.849	6823
459.900	7588
459.917	7624
459.981	7598
459.986	7538
460.054	7250
460.061	7158
460.123	7299
460.141	7330
460.191	8351
460.222	9216
460.260	10339
460.302	12032
460.328	11209
460.382	9159
460.397	8992
460.462	7461
460.465	7472
460.534	8251
460.543	8427
460.602	16217
460.623	19047
460.671	32041
460.703	42297
460.739	41309
460.783	41009
460.808	34534
460.864	11624
460.876	10602
460.944	7587
460.945	7551
461.013	7245
461.024	7281
461.081	7532
461.104	7598
461.150	7203
461.184	7078
461.218	6903
461.264	6330
461.286	6497
461.345	6793
461.355	6713
461.423	7251
461.425	7241
461.491	7832
461.505	8084
461.559	12875
461.585	15089
461.628	28996
461.665	41513
461.696	49162
461.745	64703
461.764	55277
461.825	20521
461.832	20004
461.901	10442
461.905	10061
461.969	9073
461.985	9044
462.037	8246
462.065	7618
462.105	8362
462.145	9548
462.173	14213
462.225	22724
462.241	26236
462.305	40820
462.310	39782
462.378	25283
462.385	23142
462.446	12470
462.465	9205
462.514	8452
462.545	8799
462.582	8870
462.625	8821
462.650	8687
462.705	8165
462.718	8307
462.785	9136
462.786	9229
462.854	14882
462.865	15752
462.922	20757
462.945	23141
462.990	17315
463.025	11918
463.058	10489
463.104	8262
463.126	7863
463.184	7392
463.194	7593
463.262	8948
463.264	8998
463.330	9388
463.344	9451
463.398	10628
463.424	11109
463.466	11455
463.504	11836
463.533	11434
463.583	10891
463.601	11186
463.663	11730
463.669	12147
463.737	17122
463.743	17562
463.805	24919
463.823	27125
463.873	43511
463.903	53309
463.940	61602
463.982	72200
464.008	58436
464.062	27096
464.076	24599
464.142	10470
464.144	10416
464.211	9758
464.221	9756
464.279	9975
464.301	10019
464.347	11207
464.381	12086
464.414	13855
464.461	16332
464.482	17551
464.540	20775
464.550	20075
464.617	14832
464.620	14632
464.685	15249
464.699	15318
464.753	18350
464.779	19919
464.820	21154
464.859	22338
464.888	22286
464.938	22010
464.956	22258
465.018	22676
465.023	22321
465.091	17524
465.098	16994
465.158	17017
465.177	17005
465.226	17110
465.257	17102
465.293	17537
465.336	18084
465.361	19437
465.416	22270
465.428	23459
465.495	29936
465.496	30114
465.563	50117
465.575	53529
465.631	72770
465.654	81149
465.698	54074
465.734	30902
465.765	25596
465.813	16892
465.833	16714
465.893	16877
465.900	16915
465.968	17200
465.972	17186
466.035	16881
466.052	16767
466.102	17573
466.131	17935
466.170	18109
466.210	18250
466.237	18737
466.290	19622
466.304	19856
466.369	20665
466.372	20751
466.439	22127
466.449	22286
466.506	24040
466.528	24633
466.573	29389
466.607	32859
466.641	51060
466.687	76308
466.708	88806
466.766	122938
466.775	114991
466.842	53724
466.845	50691
466.909	32583
466.925	28233
466.977	26327
467.004	25326
467.044	25998
467.083	26591
467.111	28563
467.163	32113
467.178	33257
467.242	37686
467.245	37564
467.312	33390
467.321	32767
467.379	32126
467.400	31796
467.446	33873
467.480	35254
467.559	33741
467.638	26192
467.717	27808
467.796	29305
467.875	33018
467.955	32707
468.034	35894
468.113	83890
468.192	141918
468.271	56701
468.350	23583
468.429	22309
468.508	22669
468.588	21012
468.667	23135
468.746	26937
468.825	26506
468.904	21856
468.983	23661
469.062	39377
469.141	54087
469.220	27101
469.299	20887
469.378	25110
469.456	27207
469.535	26692
469.614	25387
469.693	25559
469.772	31826
469.851	44740
469.930	40658
470.009	22833
470.088	23378
470.166	24599
470.245	29545
470.324	37145
470.403	33901
470.482	26656
470.560	23129
470.639	24709
470.718	30027
470.797	25361
470.875	25586
470.954	36986
471.033	45135
471.111	22067
471.190	18133
471.269	17355
471.347	18422
471.426	19808
471.505	22345
471.583	24801
471.662	23570
471.740	20871
471.819	21021
471.898	19201
471.976	18851
472.055	19545
472.133	20179
472.212	27779
472.290	32947
472.369	22866
472.447	18246
472.526	16862
472.604	19122
472.683	19945
472.761	22125
472.839	20571
472.918	19590
472.996	18770
473.075	22760
473.153	24337
473.231	18821
473.310	21895
473.388	23847
473.466	20342
473.545	22525
473.623	30177
473.701	34177
473.780	20916
473.858	19821
473.936	20580
474.014	19265
474.093	21357
474.171	29698
474.249	47845
474.327	38623
474.405	18137
474.484	17304
474.562	18709
474.640	19364
474.718	20265
474.796	21094
474.874	18959
474.952	17916
475.030	17575
475.108	18643
475.187	20933
475.265	21589
475.343	23574
475.421	27248
475.499	20599
475.577	20313
475.655	24941
475.733	47610
475.811	94360
475.889	93921
475.966	77058
476.044	19561
476.122	19773
476.200	23498
476.278	22002
476.356	17944
476.434	18097
476.512	19402
476.590	23357
476.667	24362
476.745	17277
476.823	18147
476.901	19015
476.979	19089
477.056	18643
477.134	18490
477.212	19854
477.290	18030
477.367	15717
477.445	15942
477.523	16145
477.601	17027
477.678	15882
477.756	20310
477.834	25532
477.911	17521
477.989	16473
478.066	15436
478.144	18175
478.222	19489
478.299	20993
478.377	23746
478.454	15987
478.532	14795
478.609	16749
478.687	18863
478.764	15020
478.842	16880
478.919	19223
478.997	18820
479.074	15511
479.152	17641
479.229	26389
479.307	20261
479.384	13294
479.461	14266
479.539	15233
479.616	19378
479.694	17783
479.771	17543
479.848	18966
479.926	26945
480.003	33975
480.080	16778
480.157	14106
480.235	15279
480.312	15025
480.389	16229
480.467	28353
480.544	42826
480.621	23158
480.698	16149
480.775	18849
480.853	21839
480.930	16893
481.007	17013
481.084	19283
481.161	21172
481.238	21920
481.315	15039
481.392	14081
481.470	15239
481.547	15546
481.624	15651
481.701	14636
481.778	15397
481.855	17691
481.932	23765
482.009	47557
482.086	44234
482.163	15484
482.240	15910
482.317	21951
482.393	23071
482.470	15819
482.547	16626
482.624	14472
482.701	14919
482.778	15886
482.855	13290
482.932	12487
483.009	11945
483.085	13515
483.162	16972
483.239	17083
483.316	13785
483.393	11995
483.469	12264
483.546	15120
483.623	20874
483.699	15268
483.776	16084
483.853	18683
483.930	24878
484.006	59851
484.083	136698
484.160	75933
484.236	79554
484.313	72359
484.389	52971
484.466	44096
484.543	40651
484.619	41870
484.696	41548
484.772	44179
484.849	51552
484.925	42814
485.002	39729
485.078	39997
485.155	44588
485.231	39237
485.308	38676
485.384	40082
485.461	45341
485.537	74801
485.614	114661
485.690	50017
485.766	37358
485.843	38017
485.919	51482
485.995	65617
486.072	38107
486.148	34008
486.224	34243
486.301	35187
486.377	41987
486.453	44278
486.530	39401
486.606	48478
486.682	59003
486.758	68585
486.835	92537
486.911	64494
486.987	100358
487.063	118998
487.139	139405
487.215	111321
487.292	54946
487.368	37668
487.444	40202
487.520	44956
487.596	43770
487.672	38939
487.748	49793
487.824	74506
487.900	52029
487.976	36088
488.052	39106
488.128	49445
488.204	47407
488.280	38263
488.356	39998
488.432	76442
488.508	160770
488.584	71897
488.660	36250
488.736	35191
488.812	35870
488.888	46973
488.964	55325
489.039	105235
489.115	201532
489.191	162778
489.267	45417
489.343	37227
489.418	30094
489.494	28114
489.570	27995
489.646	29717
489.722	29631
489.797	30992
489.873	39852
489.949	99925
490.024	122928
490.100	35151
490.176	28982
490.251	33601
490.327	47543
490.403	35279
490.478	26762
490.554	23145
490.629	24379
490.705	24117
490.781	27766
490.856	27051
490.932	30879
491.007	32723
491.083	32921
491.158	29243
491.234	31225
491.309	70629
491.385	106488
491.460	36197
491.536	30128
491.611	28766
491.686	29059
491.762	38057
491.837	68784
491.913	140513
491.988	169443
492.063	282783
492.139	108990
492.214	55334
492.289	25699
492.365	21909
492.440	28412
492.515	28064
492.590	29219
492.666	23733
492.741	27925
492.816	51474
492.891	36113
492.967	22842
493.042	22610
493.117	25404
493.192	27326
493.267	40434
493.342	133643
493.418	287037
493.493	78933
493.568	22616
493.643	20339
493.718	24939
493.793	39986
493.868	51223
493.943	33779
494.018	23729
494.093	21213
494.168	21019
494.243	18985
494.318	16803
494.393	17364
494.468	17747
494.543	17351
494.618	20479
494.693	21059
494.768	18155
494.842	21609
494.917	16402
494.992	18226
495.067	18107
495.142	16608
495.217	20405
495.292	19433
495.366	23262
495.441	29285
495.516	37466
495.591	45023
495.665	114457
495.740	396203
495.815	284954
495.890	44261
495.964	26536
496.039	26024
496.114	23796
496.188	23531
496.263	26081
496.338	24185
496.412	26810
496.487	34137
496.561	32813
496.636	39686
496.710	30062
496.785	29805
496.860	37823
496.934	32261
497.009	28962
497.083	28889
497.158	30179
497.232	33700
497.307	45798
497.381	39072
497.455	40879
497.530	60981
497.604	46529
497.679	42553
497.753	61873
497.827	91400
497.902	84141
497.976	88400
498.050	127899
498.125	476301
498.199	825864
498.273	177561
498.348	99663
498.422	84549
498.496	73727
498.570	72572
498.645	54783
498.719	52247
498.793	56076
498.867	77761
498.941	103273
499.016	169794
499.090	642765
499.164	425956
499.238	47819
499.312	33357
499.386	37564
499.460	38372
499.534	32144
499.609	36474
499.683	57905
499.757	61527
499.831	76700
499.905	345717
499.979	578360
500.053	104176
500.127	79706
500.201	62398
500.275	37692
500.349	32271
500.422	35712
500.496	46677
500.570	91264
500.644	195355
500.718	511450
500.792	209286
500.866	33287
500.940	38559
501.013	38248
501.087	32202
501.161	50333
501.235	76101
501.309	116841
501.382	350070
501.456	511182
501.530	105337
501.603	143491
501.677	91669
501.751	27201
501.825	30581
501.898	43712
501.972	150646
502.046	166290
502.119	35706
502.193	55433
502.266	180290
502.340	141497
502.413	60353
502.487	167538
502.561	126934
502.634	46384
502.708	25056
502.781	23730
502.855	19862
502.928	15885
503.002	15792
503.075	15589
503.149	19127
503.222	18251
503.295	21178
503.369	27442
503.442	33769
503.516	86177
503.589	314364
503.662	305699
503.736	79233
503.809	129043
503.882	157263
503.956	132119
504.029	196693
504.102	58504
504.175	49544
504.249	26299
504.322	21927
504.395	26790
504.468	18357
504.542	18333
504.615	15815
504.688	13351
504.761	14043
504.834	19089
504.907	20708
504.980	39831
505.053	25653
505.127	22681
505.200	30971
505.273	29250
505.346	23527
505.419	15667
505.492	13747
505.565	12694
505.638	11743
505.711	12859
505.784	13400
505.857	12326
505.930	13128
506.003	13468
506.076	15385
506.149	18844
506.221	30628
506.294	24212
506.367	42585
506.440	191234
506.513	192208
506.586	35970
506.659	22621
506.731	15419
506.804	17307
506.877	29365
506.950	24933
507.022	14436
507.095	17608
507.168	27205
507.241	17649
507.313	13814
507.386	14465
507.459	22451
507.531	18446
507.604	14160
507.677	13512
507.749	11628
507.822	14705
507.894	29165
507.967	44310
508.040	27394
508.112	20825
508.185	19697
508.257	17182
508.330	25699
508.402	21738
508.475	19560
508.547	21467
508.620	18699
508.692	30692
508.765	25580
508.837	15660
508.909	15024
508.982	15693
509.054	17632
509.127	17451
509.199	14081
509.271	13886
509.344	13498
509.416	13320
509.488	14143
509.560	15365
509.633	17221
509.705	20785
509.777	20239
509.849	26035
509.922	25876
509.994	17044
510.066	16494
510.138	17255
510.210	29047
510.283	33911
510.355	27049
510.427	22602
510.499	20778
510.571	20356
510.643	20380
510.715	27620
510.787	35084
510.859	22399
510.931	25643
511.003	31052
511.076	33443
511.148	21026
511.219	19379
511.291	27559
511.363	44730
511.435	22655
511.507	17387
511.579	18578
511.651	17729
511.723	17346
511.795	17869
511.867	17564
511.939	19846
512.010	41954
512.082	51759
512.154	21558
512.226	19812
512.298	22869
512.369	40386
512.441	33370
512.513	30535
512.585	28139
512.656	22736
512.728	27572
512.800	23245
512.871	20625
512.943	21448
513.015	18479
513.086	20098
513.158	22433
513.230	23704
513.301	31748
513.373	41147
513.444	27112
513.516	19814
513.588	19324
513.659	20893
513.731	26995
513.802	26072
513.874	36493
513.945	89568
514.016	50741
514.088	20194
514.159	21578
514.231	25698
514.302	39296
514.374	29372
514.445	26710
514.516	45436
514.588	52879
514.659	25549
514.730	43908
514.802	45823
514.873	31007
514.944	33804
515.016	27365
515.087	30338
515.158	32074
515.229	54109
515.301	34042
515.372	41442
515.443	36517
515.514	26271
515.585	21852
515.656	19843
515.728	19319
515.799	18689
515.870	20847
515.941	20898
516.012	21633
516.083	25758
516.154	29834
516.225	37239
516.296	37351
516.367	33188
516.438	34023
516.509	42464
516.580	52693
516.651	101269
516.722	440813
516.793	435912
516.864	75551
516.935	62064
517.006	60891
517.077	76137
517.148	138419
517.219	359768
517.289	1025971
517.360	434465
517.431	175539
517.502	40219
517.573	31335
517.643	27799
517.714	31275
517.785	33496
517.856	33368
517.926	38570
517.997	45237
518.068	56139
518.138	73464
518.209	95304
518.280	223830
518.350	1085017
518.421	957231
518.492	123171
518.562	49378
518.633	40264
518.703	33314
518.774	30653
518.845	39079
518.915	45890
518.986	35310
519.056	35162
519.127	61377
519.197	99048
519.268	211389
519.338	237257
519.408	50308
519.479	46273
519.549	44388
519.620	25937
519.690	20155
519.760	20153
519.831	19950
519.901	23427
519.971	17190
520.042	19393
520.112	24374
520.182	25653
520.253	33050
520.323	23195
520.393	24664
520.463	44588
520.534	30136
520.604	59873
520.674	41642
520.744	28604
520.814	59610
520.885	81262
520.955	55655
521.025	232386
521.095	201270
521.165	29577
521.235	22975
521.305	20345
521.375	17374
521.445	18522
521.515	25258
521.585	28365
521.655	34186
521.725	23511
521.795	25226
521.865	17775
521.935	23452
522.005	30358
522.075	17388
522.145	17745
522.215	20583
522.285	30920
522.355	38868
522.424	73132
522.494	89966
522.564	43662
522.634	45665
522.704	160030
522.774	126222
522.843	24901
522.913	20396
522.983	26455
523.053	25090
523.122	20541
523.192	23795
523.262	70301
523.331	142284
523.401	34613
523.471	15128
523.540	16058
523.610	13724
523.680	12613
523.749	12258
523.819	15584
523.888	20616
523.958	14139
524.027	13795
524.097	15228
524.166	14284
524.236	16760
524.305	17783
524.375	14160
524.444	13443
524.514	14977
524.583	15056
524.653	19739
524.722	23003
524.791	18939
524.861	14310
524.930	13448
524.999	13722
525.069	20524
525.138	18866
525.207	21451
525.277	17765
525.346	15128
525.415	14054
525.484	14091
525.554	16016
525.623	19442
525.692	13216
525.761	13531
525.830	12956
525.900	12248
525.969	16490
526.038	21276
526.107	19021
526.176	35388
526.245	45299
526.314	33185
526.383	41452
526.452	42351
526.522	47174
526.591	92290
526.660	98127
526.729	61833
526.797	37936
526.867	59548
526.935	281962
527.004	400706
527.073	190483
527.142	34378
527.211	18832
527.280	16641
527.349	23671
527.418	14358
527.487	12222
527.555	11564
527.624	11332
527.693	10298
527.762	11048
527.831	10684
527.899	10719
527.968	11980
528.037	12654
528.106	14770
528.174	28801
528.243	32947
528.312	28195
528.380	59385
528.449	25562
528.518	12822
528.586	9822
528.655	8720
528.723	9819
528.792	9094
528.861	11344
528.929	11862
528.998	10330
529.066	8885
529.135	8773
529.203	8574
529.272	9253
529.340	10278
529.409	11166
529.477	10542
529.545	12971
529.614	19349
529.682	16688
529.751	24549
529.819	20594
529.887	19384
529.956	11004
530.024	10917
530.092	9712
530.161	10894
530.229	22580
530.297	18500
530.365	10391
530.434	9147
530.502	8407
530.570	8343
530.638	8020
530.707	9600
530.775	12795
530.843	9293
530.911	9585
530.979	9335
531.047	8236
531.115	9447
531.183	9303
531.252	8580
531.320	10100
531.388	9350
531.456	10360
531.524	8723
531.592	10051
531.660	10648
531.728	10480
531.796	9382
531.864	9528
531.932	9735
532.000	10540
532.067	10966
532.135	13258
532.203	13711
532.271	16259
532.339	23395
532.407	67250
532.475	75164
532.542	25380
532.610	23396
532.678	26971
532.746	64440
532.814	309006
532.881	157417
532.949	24363
533.017	14607
533.084	12246
533.152	10176
533.220	10526
533.287	14033
533.355	11851
533.423	10527
533.490	9261
533.558	9646
533.625	11632
533.693	13563
533.761	13108
533.828	14003
533.896	13820
533.963	23359
534.031	40398
534.098	42920
534.166	33144
534.233	13684
534.300	14007
534.368	14750
534.435	13806
534.503	13123
534.570	13010
534.637	12667
534.705	10812
534.772	11369
534.840	12686
534.907	17803
534.974	31447
535.041	15611
535.109	16474
535.176	14378
535.243	10519
535.310	10295
535.378	12344
535.445	9893
535.512	8834
535.579	9448
535.646	10118
535.714	10352
535.781	14472
535.848	13770
535.915	14441
535.982	16726
536.049	16835
536.116	16377
536.183	15444
536.250	14287
536.317	15624
536.384	17981
536.451	24347
536.518	29263
536.585	22168
536.652	22293
536.719	32445
536.786	34163
536.853	23837
536.920	27974
536.987	50164
537.053	47162
537.120	104806
537.187	201530
537.254	30399
537.321	14000
537.388	14056
537.454	11094
537.521	10974
537.588	10328
537.654	11735
537.721	14474
537.788	15742
537.855	13281
537.921	12935
537.988	13763
538.055	12950
538.121	13892
538.188	15523
538.254	21071
538.321	49653
538.388	43573
538.454	17554
538.521	13659
538.587	11621
538.654	12076
538.720	12482
538.787	11396
538.853	12601
538.920	16695
538.986	19711
539.053	16734
539.119	14902
539.185	15930
539.252	16071
539.318	25812
539.385	25586
539.451	19365
539.517	18332
539.583	20237
539.650	30399
539.716	113241
539.782	70372
539.849	17824
539.915	15920
539.981	15524
540.047	19531
540.114	18754
540.180	17876
540.246	18773
540.312	23218
540.378	44111
540.444	60318
540.510	40237
540.576	120402
540.643	87537
540.709	17974
540.775	15340
540.841	14733
540.907	17290
540.973	32681
541.039	31007
541.105	34365
541.171	21647
541.237	15722
541.303	15937
541.369	18360
541.435	23422
541.500	40404
541.566	38746
541.632	17169
541.698	13044
541.764	12513
541.830	12359
541.896	13120
541.961	13713
542.027	14048
542.093	13621
542.159	15362
542.224	18826
542.290	25557
542.356	38544
542.421	58364
542.487	31082
542.553	18580
542.618	19202
542.684	18170
542.750	16220
542.815	18650
542.881	24984
542.947	83442
543.012	130122
543.078	23230
543.143	14834
543.209	15272
543.274	16524
543.340	18331
543.405	28272
543.471	79664
543.536	32127
543.602	14910
543.667	13282
543.732	13897
543.798	12260
543.863	13765
543.928	11807
543.994	12011
544.059	12494
544.124	12251
544.190	12582
544.255	13455
544.320	14572
544.386	15447
544.451	20624
544.516	27403
544.581	24060
544.646	45359
544.712	132392
544.777	45520
544.842	18398
544.907	19981
544.972	17812
545.037	15733
545.102	16154
545.168	16929
545.233	18588
545.298	20350
545.363	23452
545.428	27452
545.493	34171
545.558	87711
545.623	69963
545.688	20260
545.753	18327
545.818	16808
545.883	16909
545.947	17296
546.012	17881
546.077	20330
546.142	18311
546.207	16965
546.272	22453
546.337	27820
546.401	21858
546.466	18478
546.531	15887
546.596	18804
546.661	19447
546.725	17915
546.790	15445
546.855	16507
546.919	15019
546.984	15410
547.049	16135
547.113	19224
547.178	18496
547.243	17594
547.307	20237
547.372	21996
547.436	28375
547.501	20424
547.565	17445
547.630	22743
547.695	28205
547.759	26854
547.823	27737
547.888	18364
547.952	17273
548.017	16843
548.081	19275
548.146	29395
548.210	32239
548.274	18483
548.339	15970
548.403	14808
548.468	15084
548.532	16002
548.596	16232
548.660	16706
548.725	17887
548.789	21075
548.853	26339
548.917	19486
548.982	23525
549.046	35263
549.110	19641
549.174	17000
549.238	15496
549.303	14522
549.367	15397
549.431	16539
549.495	15525
549.559	15601
549.623	16342
549.687	17975
549.751	27585
549.815	24710
549.879	18605
549.943	15851
550.007	17330
550.071	18427
550.135	23507
550.199	24582
550.263	18669
550.327	19734
550.391	29174
550.455	26719
550.519	17605
550.582	20266
550.646	22271
550.710	32822
550.774	20795
550.838	18818
550.901	19301
550.965	21149
551.029	20517
551.093	23355
551.156	27652
551.220	51623
551.284	88468
551.347	39071
551.411	57752
551.475	119379
551.538	38520
551.602	19013
551.666	17510
551.729	17206
551.793	17258
551.856	17329
551.920	18289
551.983	19639
552.047	17008
552.110	15912
552.174	16261
552.237	16314
552.301	16063
552.364	15651
552.428	16371
552.491	16429
552.554	18783
552.618	17885
552.681	20237
552.745	20602
552.808	28691
552.871	45456
552.934	38917
552.998	24574
553.061	22661
553.124	22189
553.187	19869
553.251	22174
553.314	24367
553.377	25366
553.440	32027
553.503	70258
553.567	221786
553.630	87531
553.693	22131
553.756	19523
553.819	16979
553.882	16625
553.945	16140
554.008	14819
554.071	15152
554.134	15696
554.197	13970
554.260	14360
554.323	17323
554.386	17880
554.449	16477
554.512	16363
554.575	15213
554.638	16476
554.701	17330
554.764	15132
554.827	14575
554.889	14740
554.952	13504
555.015	13039
555.078	13177
555.141	14090
555.203	14178
555.266	14321
555.329	15093
555.391	15293
555.454	14177
555.517	17995
555.580	14039
555.642	12909
555.705	13045
555.768	14169
555.830	14769
555.893	13883
555.955	13803
556.018	13632
556.080	14381
556.143	13110
556.206	13633
556.268	15881
556.330	16712
556.393	16817
556.455	15691
556.518	21829
556.580	32671
556.643	18309
556.705	14403
556.767	13094
556.830	14966
556.892	17017
556.955	26366
557.017	30189
557.079	16142
557.142	15271
557.204	17218
557.266	32785
557.328	48340
557.391	18940
557.453	14698
557.515	13928
557.577	16333
557.639	22321
557.701	15756
557.764	12775
557.826	13212
557.888	14276
557.950	13846
558.012	13059
558.074	13140
558.136	17488
558.198	28787
558.260	27793
558.322	17012
558.384	16364
558.446	17247
558.508	19040
558.570	23661
558.632	34696
558.694	74995
558.756	49629
558.818	42673
558.880	131627
558.942	98885
559.003	34256
559.065	29150
559.127	17197
559.189	16487
559.251	16447
559.312	18549
559.374	24378
559.436	66656
559.498	79121
559.559	20854
559.621	16360
559.683	17240
559.744	21954
559.806	39542
559.868	75245
559.929	37269
559.991	21004
560.052	19685
560.114	28623
560.176	33081
560.237	22611
560.299	39346
560.360	28554
560.422	16129
560.483	15557
560.545	15489
560.606	14484
560.667	15044
560.729	13916
560.790	13979
560.852	13917
560.913	15156
560.974	15193
561.036	14079
561.097	14235
561.158	15454
561.220	15882
561.281	16885
561.342	16629
561.403	20018
561.465	22923
561.526	43511
561.587	97097
561.648	45443
561.709	18876
561.771	17288
561.832	16536
561.893	16073
561.954	16028
562.015	15353
562.076	15450
562.137	15291
562.198	15530
562.259	15600
562.320	16133
562.381	17074
562.442	23946
562.503	26863
562.564	17836
562.625	15390
562.686	15544
562.747	16218
562.808	17353
562.869	14808
562.930	19316
562.991	19208
563.051	17742
563.112	16303
563.173	16274
563.234	15549
563.294	15509
563.355	15321
563.416	17246
563.477	16431
563.537	16720
563.598	17972
563.659	16831
563.720	17536
563.780	18145
563.841	19208
563.901	17923
563.962	16574
564.023	16008
564.083	16804
564.144	16832
564.204	16954
564.265	17869
564.325	18601
564.386	31743
564.446	49929
564.507	20669
564.567	16661
564.628	16449
564.688	16709
564.749	17472
564.809	18766
564.869	23938
564.930	21148
564.990	17813
565.050	15936
565.111	17144
565.171	16141
565.231	16586
565.292	16719
565.352	16435
565.412	16167
565.472	18365
565.532	18758
565.593	19500
565.653	17871
565.713	18104
565.773	18922
565.833	20911
565.893	29932
565.953	23673
566.013	18678
566.074	19816
566.134	23929
566.194	34642
566.254	46588
566.314	34962
566.374	23908
566.434	21717
566.494	22230
566.554	23377
566.614	23659
566.673	22695
566.733	24953
566.793	26695
566.853	28249
566.913	28492
566.973	28234
567.033	29873
567.092	29618
567.152	28805
567.212	28962
567.272	29752
567.331	31069
567.391	31729
567.451	33408
567.511	37829
567.570	45774
567.630	33916
567.690	29260
567.749	29998
567.809	30752
567.868	34064
567.928	39154
567.988	44278
568.047	51560
568.107	59421
568.166	75140
568.226	102770
568.285	149833
568.345	164197
568.404	142562
568.464	122282
568.523	111811
568.582	107333
568.642	113674
568.701	129290
568.761	162466
568.820	235495
568.879	289051
568.939	257151
568.998	204709
569.057	157019
569.116	124588
569.176	99531
569.235	83420
569.294	69385
569.353	60964
569.413	53506
569.472	48142
569.531	42377
569.590	37926
569.649	35060
569.708	32288
569.767	30960
569.827	31746
569.886	30804
569.945	25990
570.004	24704
570.063	24485
570.122	24890
570.181	25571
570.240	24170
570.299	26618
570.358	25851
570.417	22813
570.475	18737
570.534	19849
570.593	20278
570.652	20867
570.711	21795
570.770	19323
570.829	21920
570.887	20320
570.946	23051
571.005	19883
571.064	17451
571.122	17904
571.181	19879
571.240	19320
571.299	16113
571.357	16373
571.416	18019
571.475	18603
571.533	22442
571.592	16742
571.650	18353
571.709	16745
571.768	14942
571.826	15066
571.885	13650
571.943	14186
572.002	13095
572.060	16357
572.119	14328
572.177	13747
572.236	13015
572.294	12395
572.352	13228
572.411	13067
572.469	13189
572.528	12033
572.586	13752
572.644	12834
572.703	17336
572.761	16760
572.819	13230
572.877	12531
572.936	12243
572.994	11741
573.052	12173
573.110	12075
573.169	13288
573.227	12216
573.285	12696
573.343	11601
573.401	12443
573.459	12960
573.517	12273
573.576	11623
573.634	12620
573.692	12034
573.750	13343
573.808	12265
573.866	12594
573.924	16117
573.982	19070
574.040	14552
574.098	11919
574.155	12217
574.213	11846
574.271	10819
574.329	11625
574.387	11406
574.445	11084
574.503	11721
574.560	11364
574.618	9913
574.676	10970
574.734	10292
574.792	10595
574.849	10406
574.907	10315
574.965	10709
575.022	10681
575.080	9871
575.138	10719
575.195	11266
575.253	11792
575.311	13528
575.368	12123
575.426	10571
575.483	10657
575.541	10714
575.598	10165
575.656	10948
575.713	11308
575.771	10866
575.828	11539
575.886	10399
575.943	11950
576.001	11964
576.058	12223
576.115	12846
576.173	14374
576.230	17176
576.287	19298
576.345	18412
576.402	12801
576.459	12051
576.517	12776
576.574	13657
576.631	14550
576.688	14185
576.746	12990
576.803	12237
576.860	12913
576.917	12259
576.974	12885
577.031	11793
577.089	13466
577.146	12625
577.203	12153
577.260	14041
577.317	13237
577.374	14450
577.431	15553
577.488	14483
577.545	12707
577.602	12448
577.659	13148
577.716	12803
577.773	14347
577.830	14040
577.886	13682
577.943	12701
578.000	12398
578.057	13083
578.114	14753
578.171	14227
578.227	17977
578.284	20180
578.341	18166
578.398	16812
578.454	16075
578.511	16507
578.568	17939
578.625	16713
578.681	13813
578.738	12280
578.794	11968
578.851	12775
578.908	12392
578.964	13428
579.021	13630
579.077	12936
579.134	13492
579.190	11974
579.247	12287
579.303	12497
579.360	12953
579.416	13079
579.473	12203
579.529	11815
579.586	12328
579.642	12383
579.698	13148
579.755	13139
579.811	13964
579.867	14784
579.924	13423
579.980	13975
580.036	16170
580.093	16998
580.149	22877
580.205	28312
580.261	25718
580.317	21200
580.374	18511
580.430	18844
580.486	18264
580.542	17057
580.598	15772
580.619	15718
580.654	15644
580.692	14946
580.710	14627
580.765	14117
580.767	14119
580.823	13914
580.838	13825
580.879	13658
580.911	13432
580.935	13286
580.984	13275
580.991	13292
581.047	13890
581.057	13844
581.103	13721
581.130	14174
581.159	14685
581.203	15501
581.215	15733
581.270	17045
581.276	16877
581.326	15452
581.349	15335
581.382	15189
581.422	14716
581.438	14540
581.494	14390
581.494	14383
581.550	14813
581.567	14768
581.606	14720
581.640	14435
581.661	14288
581.713	14252
581.717	14264
581.773	13523
581.786	13604
581.829	13867
581.859	13714
581.885	13628
581.932	13572
581.940	13564
581.996	13418
582.004	13496
582.052	13942
582.077	13329
582.107	12712
582.150	13110
582.163	13215
582.219	13214
582.223	13237
582.274	13636
582.296	13925
582.330	14395
582.368	15060
582.386	15361
582.441	13261
582.441	13264
582.497	14371
582.514	14521
582.552	15020
582.587	15728
582.608	16096
582.659	15463
582.663	15414
582.719	14485
582.732	14404
582.774	14255
582.805	14225
582.830	14191
582.877	15013
582.885	15154
582.941	14751
582.950	14751
582.996	14722
583.023	15138
583.052	15712
583.095	16162
583.107	16261
583.162	18026
583.168	18280
583.218	20833
583.240	20443
583.273	19564
583.313	18239
583.328	17759
583.384	16684
583.385	16669
583.439	16213
583.458	16177
583.494	16241
583.531	15891
583.549	15621
583.603	15250
583.605	15245
583.660	14805
583.676	14945
583.715	15197
583.748	14813
583.770	14710
583.820	15752
583.825	15813
583.881	15323
583.893	15384
583.936	15747
583.965	15945
583.991	16099
584.038	15517
584.046	15390
584.101	15471
584.110	15425
584.156	15257
584.183	15491
584.211	15729
584.255	16451
584.266	16604
584.321	15348
584.328	15386
584.376	15834
584.400	15893
584.431	15909
584.472	16207
584.486	16319
584.541	16214
584.545	16248
584.596	16702
584.617	16564
584.651	16312
584.689	16965
584.706	17241
584.761	17096
584.762	17106
584.816	17336
584.834	17261
584.871	17166
584.906	17146
584.926	17088
584.978	17368
584.980	17380
585.035	17668
585.051	18050
585.090	18833
585.123	19057
585.145	19212
585.195	19572
585.200	19616
585.254	20473
585.267	20818
585.309	22458
585.340	24546
585.364	26033
585.412	26181
585.419	25917
585.473	21964
585.484	21725
585.528	21743
585.556	22584
585.583	23534
585.628	24657
585.637	25095
585.692	29637
585.700	31191
585.747	40921
585.772	42202
585.801	39919
585.845	29659
585.856	27367
585.910	24521
585.917	24290
585.965	24428
585.989	24776
586.019	24608
586.061	24117
586.074	24118
586.128	24876
586.133	24980
586.183	26037
586.205	26536
586.237	27381
586.277	27374
586.292	27033
586.346	27212
586.349	27220
586.401	27576
586.421	28119
586.455	28976
586.493	29718
586.509	30283
586.564	33509
586.565	33729
586.618	44695
586.637	48235
586.672	51951
586.709	44370
586.727	39049
586.781	31741
586.781	31698
586.835	31976
586.853	32253
586.889	32701
586.925	33139
586.944	33353
586.996	34775
586.998	34769
587.052	35882
587.068	36239
587.106	37460
587.140	38121
587.161	38293
587.212	39505
587.215	39538
587.269	41466
587.284	42094
587.323	43666
587.356	44848
587.377	45329
587.427	46736
587.431	46811
587.485	49042
587.499	49839
587.539	52036
587.571	53356
587.593	54318
587.643	57926
587.648	58146
587.702	61188
587.715	62103
587.755	65433
587.786	68468
587.810	70565
587.858	74550
587.864	74951
587.917	80891
587.930	82805
587.971	89119
588.001	93413
588.025	97144
588.073	106087
588.079	107183
588.133	118601
588.145	121840
588.187	132857
588.217	141238
588.241	149406
588.288	167969
588.295	170366
588.348	195137
588.360	201099
588.402	224955
588.431	243866
588.456	260582
588.503	296819
588.510	302477
588.564	356621
588.575	369813
588.617	426250
588.646	470637
588.671	517740
588.718	618385
588.725	639307
588.778	819080
588.789	857591
588.832	1085288
588.861	1232278
588.886	1380011
588.932	1603915
588.939	1603788
588.993	1528234
589.004	1534122
589.047	1577055
589.075	1620723
589.100	1543790
589.147	1309327
589.154	1272198
589.207	952242
589.218	889435
589.261	778207
589.290	714262
589.314	700578
589.361	696111
589.368	706227
589.421	819022
589.433	847209
589.475	1076620
589.504	1230546
589.528	1367102
589.576	1570176
589.582	1563232
589.635	1515556
589.647	1511178
589.689	1307545
589.718	1114056
589.742	950677
589.790	614888
589.795	594983
589.849	431403
589.861	396934
589.902	332151
589.932	290072
589.955	266325
590.004	219379
590.009	215191
590.062	180970
590.075	173615
590.115	155964
590.146	143875
590.168	136144
590.218	121334
590.222	120106
590.275	108908
590.289	106399
590.328	98873
590.360	93366
590.381	89680
590.431	82191
590.435	81618
590.488	75633
590.503	74333
590.541	71148
590.574	68653
590.594	66716
590.645	62382
590.647	62081
590.700	58397
590.716	57372
590.753	55221
590.787	53635
590.806	52238
590.859	49274
590.859	49121
590.912	47108
590.930	46528
590.965	44658
591.001	43151
591.018	42591
591.071	41450
591.072	41538
591.124	40492
591.143	40231
591.177	39549
591.214	39059
591.230	38463
591.283	36730
591.285	36751
591.336	36633
591.356	36709
591.389	36458
591.427	36169
591.442	35540
591.495	33499
591.498	33426
591.547	32256
591.569	31872
591.600	30865
591.640	29552
591.653	29455
591.706	29582
591.711	29657
591.759	29145
591.782	29047
591.811	28985
591.853	29105
591.864	29005
591.917	28532
591.924	28533
591.969	27135
591.995	26528
592.022	26198
592.066	25738
592.075	25695
592.127	25898
592.137	25998
592.180	27484
592.208	28608
592.233	28118
592.279	27078
592.285	26657
592.338	23663
592.350	23043
592.390	22933
592.421	22976
592.443	22472
592.491	21511
592.495	21477
592.548	21776
592.562	21913
592.600	21392
592.633	21051
592.653	20979
592.704	20831
592.705	20943
592.775	20701
592.846	21717
592.916	21698
592.987	22038
593.058	21997
593.128	19352
593.199	19632
593.270	18907
593.341	18072
593.411	18788
593.482	19293
593.553	17957
593.623	17206
593.694	17709
593.764	18206
593.835	17571
593.906	16388
593.976	16831
594.047	16758
594.117	18153
594.188	19387
594.258	17341
594.329	15850
594.399	15999
594.470	16550
594.540	14335
594.611	14708
594.681	14958
594.751	15390
594.822	15718
594.892	15762
594.963	15310
595.033	15762
595.103	16261
595.174	15718
595.244	19640
595.314	26115
595.384	20289
595.455	15371
595.525	14195
595.595	14185
595.665	14691
595.736	14244
595.806	14527
595.876	14239
595.946	14322
596.016	13507
596.087	13565
596.157	13617
596.227	14442
596.297	14183
596.367	14882
596.437	14208
596.507	17048
596.577	22712
596.647	19591
596.717	13282
596.787	13462
596.857	13164
596.927	13567
596.997	13909
597.067	13708
597.137	14054
597.207	15642
597.277	13829
597.347	13726
597.417	13096
597.487	13278
597.557	14052
597.626	14920
597.696	13661
597.766	15433
597.836	20048
597.906	20119
597.975	13912
598.045	12965
598.115	12474
598.185	12935
598.254	13622
598.324	13838
598.394	13631
598.464	14939
598.533	13721
598.603	12670
598.672	13025
598.742	13235
598.812	12429
598.881	12760
598.951	12378
599.020	11899
599.090	11808
599.159	12126
599.229	12547
599.299	11105
599.368	11316
599.437	11632
599.507	11285
599.576	12023
599.646	12691
599.715	14249
599.785	12249
599.854	12302
599.924	14026
599.993	13673
600.062	12185
600.132	11173
600.201	10876
600.270	12358
600.340	13019
600.409	12033
600.478	11381
600.547	12008
600.617	11642
600.686	12074
600.755	12352
600.824	12439
600.894	12416
600.963	11319
601.032	11572
601.101	11379
601.170	11299
601.239	11044
601.308	10716
601.378	11473
601.447	10475
601.516	10996
601.585	11325
601.654	10891
601.723	11499
601.792	11533
601.861	12182
601.930	13719
601.999	14661
602.068	12483
602.137	11689
602.206	11971
602.275	11576
602.343	12961
602.412	15380
602.481	11989
602.550	10403
602.619	11487
602.688	10960
602.756	11376
602.825	10409
602.894	10744
602.963	9907
603.032	10668
603.100	10630
603.169	10862
603.238	10637
603.307	10656
603.375	10077
603.444	10452
603.513	10840
603.581	10917
603.650	9776
603.719	10556
603.787	9483
603.856	10434
603.924	10745
603.993	10771
604.061	10562
604.130	9483
604.198	11161
604.267	10757
604.335	9850
604.404	9736
604.472	10365
604.541	10113
604.609	9964
604.678	9623
604.746	10753
604.815	10914
604.883	10335
604.951	10459
605.020	9838
605.088	10558
605.156	9720
605.225	10364
605.293	9990
605.361	9446
605.429	11379
605.498	10538
605.566	10914
605.634	10844
605.702	10600
605.771	10895
605.839	10691
605.907	10585
605.975	10510
606.043	10291
606.111	10000
606.180	10458
606.248	10604
606.316	14224
606.384	11942
606.452	12440
606.520	13958
606.588	14509
606.656	10069
606.724	9160
606.792	9548
606.860	9038
606.928	8019
606.996	8796
607.064	8022
607.132	8481
607.200	8476
607.267	9491
607.335	8749
607.403	9203
607.471	8563
607.539	8806
607.607	8777
607.674	8570
607.742	8895
607.810	9322
607.878	9560
607.946	9126
608.013	7950
608.081	8957
608.149	9073
608.216	8772
608.284	8117
608.352	9011
608.419	9047
608.487	11860
608.555	12734
608.622	8840
608.690	8588
608.757	8263
608.825	8634
608.893	8809
608.960	10320
609.028	12481
609.095	13916
609.163	12443
609.230	9175
609.298	9487
609.365	8346
609.432	9025
609.500	9194
609.567	9025
609.635	10011
609.702	9786
609.769	9768
609.837	10992
609.904	10675
609.971	9557
610.039	10937
610.106	12635
610.173	18590
610.241	39595
610.308	73328
610.375	86173
610.442	31807
610.509	12391
610.577	9923
610.644	9675
610.711	9292
610.778	9187
610.845	9003
610.912	9552
610.980	10001
611.047	13241
611.114	15616
611.181	10570
611.248	8533
611.315	9017
611.382	8717
611.449	9015
611.516	8235
611.583	8702
611.650	8959
611.717	8722
611.784	9553
611.851	9279
611.918	10306
611.984	11893
612.051	13304
612.118	19748
612.185	40719
612.252	70288
612.319	20902
612.386	10742
612.452	10084
612.519	9862
612.586	12180
612.653	15711
612.719	9446
612.786	9371
612.853	9191
612.919	9022
612.986	8160
613.053	8207
613.120	7766
613.186	7707
613.253	8547
613.319	9280
613.386	8534
613.453	8892
613.519	9453
613.586	12398
613.652	19068
613.719	18114
613.785	17346
613.852	11495
613.918	9580
613.985	9794
614.051	14532
614.118	28207
614.184	63182
614.250	23969
614.317	9578
614.383	8472
614.449	7995
614.516	8098
614.582	8520
614.648	8843
614.715	7990
614.781	8082
614.847	8173
614.914	9257
614.980	8683
615.046	9610
615.112	8926
615.179	9181
615.245	10148
615.311	13843
615.377	22032
615.443	38712
615.509	25941
615.575	14217
615.642	10928
615.708	10037
615.774	11531
615.840	13532
615.906	16112
615.972	23856
616.038	45420
616.104	83680
616.170	81808
616.236	117792
616.302	43452
616.368	16893
616.434	12933
616.500	12489
616.565	12331
616.631	12678
616.697	12854
616.763	10533
616.829	12355
616.895	16522
616.961	21090
617.026	17007
617.092	11164
617.158	9252
617.224	9200
617.289	9570
617.355	8817
617.421	9473
617.487	10514
617.552	9296
617.618	8626
617.684	7552
617.749	9716
617.815	8237
617.880	8115
617.946	8271
618.012	8958
618.077	8473
618.143	8285
618.208	9090
618.274	8681
618.339	8982
618.405	9057
618.470	8778
618.536	9214
618.601	10390
618.667	10283
618.732	9548
618.798	9509
618.863	8447
618.928	8734
618.994	9403
619.059	10429
619.124	14784
619.190	16200
619.255	9541
619.320	8835
619.386	9425
619.451	8595
619.516	8682
619.581	8646
619.647	9550
619.712	9304
619.777	8377
619.842	9411
619.907	9183
619.972	9490
620.038	10183
620.103	9141
620.168	8236
620.233	8977
620.298	8488
620.363	8256
620.428	8764
620.493	8568
620.558	8744
620.623	8011
620.688	8306
620.753	8785
620.818	8463
620.883	8866
620.948	8895
621.013	8433
621.078	8789
621.143	8288
621.207	10881
621.272	10003
621.337	11037
621.402	10309
621.467	12116
621.532	16038
621.596	13134
621.661	11162
621.726	9789
621.791	9342
621.855	10683
621.920	11194
621.985	11634
622.049	13393
622.114	12678
622.179	11845
622.243	10632
622.308	10686
622.373	11264
622.437	11064
622.502	11029
622.566	10737
622.631	10538
622.695	11348
622.760	10845
622.824	11202
622.889	10835
622.953	11545
623.018	14695
623.082	23244
623.147	14009
623.211	11076
623.276	11723
623.340	10961
623.404	9932
623.469	9868
623.533	10014
623.597	10385
623.662	10625
623.726	10352
623.790	10919
623.854	10086
623.919	10717
623.983	9865
624.047	9980
624.111	10395
624.176	10394
624.240	9868
624.304	11991
624.368	10814
624.432	10025
624.496	9547
624.560	10514
624.625	12151
624.689	11919
624.753	10250
624.817	10588
624.881	9195
624.945	9459
625.009	8745
625.073	9441
625.137	10756
625.201	11950
625.265	16011
625.329	11245
625.393	10464
625.456	11014
625.520	10288
625.584	11397
625.648	12710
625.712	17196
625.776	32140
625.839	57321
625.903	44390
625.967	13682
626.031	15166
626.095	27406
626.158	23796
626.222	9749
626.286	7862
626.349	7333
626.413	7523
626.477	9542
626.540	8751
626.604	8805
626.668	8138
626.731	7045
626.795	8002
626.858	8937
626.922	8375
626.986	6929
627.049	7640
627.113	8188
627.176	7385
627.240	6679
627.303	7452
627.366	7628
627.430	7747
627.493	7274
627.557	7596
627.620	7551
627.684	7918
627.747	7375
627.810	6610
627.874	8072
627.937	7390
628.000	7946
628.064	7440
628.127	6820
628.190	6673
628.253	7331
628.317	7024
628.380	7075
628.443	6507
628.506	7613
628.569	7160
628.632	5795
628.696	6624
628.759	6737
628.822	6752
628.885	6782
628.948	6452
629.011	6886
629.074	7428
629.137	7105
629.200	6217
629.263	7562
629.326	7381
629.389	6240
629.452	6486
629.515	6900
629.578	6611
629.641	7099
629.704	7568
629.767	7136
629.830	6620
629.892	6247
629.955	6337
630.018	7332
630.081	7295
630.144	9649
630.207	8849
630.269	7926
630.332	7581
630.395	8468
630.458	6270
630.520	5957
630.583	6331
630.646	5994
630.708	5360
630.771	5667
630.834	5546
630.896	5997
630.959	5371
631.021	5849
631.084	5904
631.146	6259
631.209	7283
631.272	6743
631.334	5877
631.397	5864
631.459	5786
631.522	5666
631.584	6595
631.646	5471
631.709	5984
631.771	7231
631.834	8348
631.896	5728
631.958	4147
632.021	5064
632.083	5513
632.145	4908
632.208	5656
632.270	5675
632.332	5114
632.395	5085
632.457	4933
632.519	5170
632.581	4904
632.643	5003
632.706	5608
632.768	4847
632.830	5293
632.892	4715
632.954	5079
633.016	5533
633.078	4836
633.141	4502
633.203	5279
633.265	5068
633.327	4788
633.389	4624
633.451	5229
633.513	6369
633.575	7322
633.637	6678
633.698	7924
633.760	5447
633.822	4724
633.884	4976
633.946	4737
634.008	4760
634.070	4886
634.132	5639
634.193	6906
634.255	5227
634.317	4026
634.379	4932
634.441	5141
634.502	4765
634.564	5210
634.626	3900
634.687	4510
634.749	4789
634.811	4675
634.873	4723
634.934	3966
634.996	4869
635.057	4341
635.119	3757
635.181	4602
635.242	5206
635.304	3352
635.365	5212
635.427	4312
635.488	4854
635.550	4442
635.611	3931
635.673	2903
635.734	4784
635.796	4224
635.857	5369
635.918	4516
635.980	4713
636.041	4147
636.102	4601
636.164	4325
636.225	4231
636.286	4147
636.348	4818
636.409	3910
636.470	4261
636.531	3913
636.593	3791
636.654	5395
636.715	4434
636.776	3950
636.838	3432
636.899	4696
636.960	4423
637.021	3219
637.082	3870
637.143	3677
637.204	3644
637.265	3104
637.326	4595
637.387	3634
637.448	2925
637.509	3542
637.570	4502
637.631	4050
637.692	3165
637.753	2765
637.814	3316
637.875	3491
637.936	4153
637.997	2922
638.058	3267
638.119	3981
638.179	3495
638.240	4108
638.301	3775
638.362	3407
638.423	2688
638.483	3474
638.544	2933
638.605	3906
638.666	3154
638.726	3220
638.787	2667
638.848	3465
638.908	2760
638.969	2763
639.030	3469
639.090	3415
639.151	3656
639.211	3420
639.272	4394
639.332	7328
639.393	9574
639.453	3416
639.514	3219
639.574	3459
639.635	3086
639.695	3560
639.756	3526
639.816	4641
639.877	3710
639.937	6296
639.997	12030
640.058	8153
640.118	3513
640.178	3025
640.239	3576
640.299	3384
640.359	3040
640.420	3097
640.480	3685
640.540	2921
640.600	2929
640.661	3462
640.721	2916
640.781	4550
640.841	4669
640.901	3837
640.961	3350
641.021	3295
641.082	3065
641.142	5611
641.202	6628
641.262	2692
641.322	3533
641.382	3099
641.442	2607
641.502	2535
641.562	3487
641.622	2665
641.682	3267
641.742	2905
641.802	3469
641.861	2909
641.921	3116
641.981	3819
642.041	3443
642.101	4491
642.161	5589
642.221	3119
642.280	2604
642.340	2070
642.400	2702
642.460	3203
642.519	2731
642.579	2685
642.639	3602
642.698	1265
642.758	4361
642.818	2592
642.877	2752
642.937	2834
642.997	3854
643.056	4636
643.116	5988
643.175	3096
643.235	2653
643.294	2906
643.354	2266
643.414	2961
643.473	2610
643.532	2674
643.592	3047
643.651	4535
643.711	6371
643.770	8919
643.830	16085
643.889	44513
643.948	49585
644.008	6964
644.067	3174
644.126	2850
644.186	3343
644.245	2721
644.304	2844
644.363	3164
644.423	3112
644.482	2588
644.541	2435
644.600	1554
644.659	2734
644.719	1698
644.778	3662
644.837	2810
644.896	5256
644.955	7797
645.014	10451
645.073	4806
645.132	3380
645.191	2678
645.250	2860
645.309	2545
645.368	2419
645.427	3369
645.486	2933
645.545	3669
645.604	4464
645.663	2817
645.722	2375
645.781	2230
645.840	2349
645.898	2534
645.957	3604
646.016	2993
646.075	5442
646.134	7108
646.192	13406
646.251	37681
646.310	24421
646.369	4350
646.427	3081
646.486	2363
646.545	2420
646.603	3205
646.662	2509
646.721	1921
646.779	1110
646.838	1352
646.896	2555
646.955	3264
647.014	2882
647.072	2518
647.131	4842
647.189	6389
647.248	2496
647.306	2470
647.365	1496
647.423	1248
647.481	2179
647.540	1379
647.598	2199
647.657	2118
647.715	2024
647.773	1250
647.832	2232
647.890	954
647.948	1854
648.007	2709
648.065	1853
648.123	1759
648.181	2828
648.240	1588
648.298	3522
648.356	2575
648.414	2550
648.472	1719
648.531	3272
648.589	1832
648.647	2347
648.705	1200
648.763	1467
648.821	1157
648.879	1349
648.937	1723
648.995	2061
649.053	2169
649.111	2852
649.169	2846
649.227	4388
649.285	5195
649.343	12369
649.401	22081
649.459	11507
649.516	15181
649.574	7327
649.632	10799
649.690	24712
649.748	16195
649.806	4765
649.863	8586
649.921	8036
649.979	6384
650.037	3393
650.094	1486
650.152	1653
650.210	2110
650.268	3094
650.325	2134
650.383	1377
650.440	1775
650.498	1621
650.556	1969
650.613	1743
650.671	1521
650.728	1490
650.786	1924
650.843	1932
650.901	908
650.958	1999
651.016	1752
651.073	1952
651.131	2178
651.188	995
651.246	1787
651.303	1057
651.360	1274
651.418	1195
651.475	1217
651.532	1250
651.590	2007
651.647	1341
651.704	1373
651.762	2093
651.819	1836
651.876	1146
651.933	1174
651.990	1377
652.048	523
652.105	1257
652.162	1624
652.219	1689
652.276	894
652.333	1612
652.390	1409
652.448	1845
652.505	793
652.562	1643
652.619	2183
652.676	3004
652.733	4768
652.790	3316
652.847	296
652.904	1900
652.961	965
653.017	378
653.074	1477
653.131	1263
653.188	967
653.245	951
653.302	1295
653.359	823
653.415	1907
653.472	1970
653.529	1355
653.586	590
653.642	1384
653.699	1561
653.756	757
653.813	1534
653.869	934
653.926	653
653.983	663
654.039	855
654.096	1756
654.152	1496
654.209	1071
654.266	2248
654.322	473
654.379	1812
654.435	1671
654.492	2078
654.548	2082
654.605	3804
654.661	5368
654.717	1919
654.774	1494
654.830	1603
654.887	1742
654.943	764
655.000	1797
655.056	1768
655.112	1669
655.168	1548
655.225	1083
655.281	1605
655.337	989
655.394	3477
655.450	4982
655.506	2888
655.562	2631
655.618	5311
655.675	2273
655.731	1701
655.787	782
655.843	1877
655.899	868
655.955	1501
656.011	952
656.067	1093
656.123	2369
656.179	1564
656.235	2090
656.291	2424
656.347	2363
656.403	2127
656.459	1395
656.515	2076
656.571	1969
656.627	2418
656.683	627
656.739	1451
656.795	1020
656.850	1797
656.906	2711
656.962	3266
657.018	1111
657.074	1196
657.129	821
657.185	2773
657.241	733
657.297	855
657.352	1288
657.408	532
657.464	1453
657.519	1985
657.575	1089
657.630	1505
657.686	935
657.742	815
657.797	634
657.853	1553
657.908	1281
657.964	486
658.019	1530
658.075	2036
658.130	1788
658.186	652
658.241	1338
658.297	765
658.352	697
658.407	1592
658.463	823
658.518	850
658.573	1543
658.629	1073
658.684	488
658.739	713
658.795	555
658.850	902
658.905	338
658.960	1430
659.016	947
659.071	988
659.126	912
659.181	968
659.236	2929
659.291	3797
659.346	3234
659.401	1728
659.457	1812
659.512	2997
659.567	2871
659.622	1470
659.677	1266
659.732	627
659.787	769
659.842	1374
659.897	1676
659.952	2062
660.007	1486
660.061	824
660.116	1213
660.171	785
660.226	849
660.281	1644
660.336	568
660.391	1407
660.445	1141
660.500	1029
660.555	778
660.610	497
660.664	1935
660.719	1541
660.774	1557
660.828	1558
660.883	1081
660.938	1260
660.992	1053
661.047	480
661.101	1069
661.156	1607
661.211	936
661.265	1124
661.320	883
661.374	1567
661.429	647
661.483	1379
661.538	283
661.592	640
661.647	733
661.701	951
661.755	927
661.810	1998
661.864	740
661.919	1627
661.973	1222
662.027	1275
662.081	368
662.136	1131
662.190	1047
662.244	1609
662.299	1339
662.353	1678
662.407	288
662.461	853
662.515	1300
662.569	597
662.624	1175
662.678	386
662.732	1086
662.786	465
662.840	1806
662.894	1390
662.948	261
663.002	1327
663.056	1461
663.110	578
663.164	526
663.218	1567
663.272	747
663.326	1397
663.380	1382
663.434	1911
663.488	422
663.542	1443
663.595	1937
663.649	358
663.703	2014
663.757	773
663.811	604
663.864	824
663.918	1455
663.972	876
664.026	1606
664.079	1352
664.133	1856
664.187	909
664.240	231
664.294	1351
664.348	1115
664.401	1334
664.455	1181
664.508	959
664.562	1083
664.615	1404
664.669	397
664.722	1807
664.776	812
664.829	1028
664.883	373
664.936	432
664.990	1150
665.043	980
665.097	1192
665.150	1474
665.203	1174
665.257	311
665.310	1564
665.363	923
665.417	1163
665.470	717
665.523	746
665.576	1459
665.630	1190
665.683	802
665.736	1015
665.789	1547
665.842	1370
665.895	1170
665.949	1828
666.002	681
666.055	1000
666.108	1472
666.161	1274
666.214	2225
666.267	1906
666.320	1892
666.373	1894
666.426	1201
666.479	596
666.532	1475
666.585	2106
666.638	1677
666.691	2043
666.744	2240
666.796	1533
666.849	2098
666.902	1888
666.955	1971
667.008	1276
667.060	867
667.113	761
667.166	1213
667.219	1680
667.271	1018
667.324	1211
667.377	821
667.430	1840
667.482	680
667.535	2611
667.587	2165
667.640	1650
667.693	801
667.745	2653
667.798	4693
667.850	2782
667.903	1590
667.955	1550
668.008	1439
668.060	2350
668.113	1640
668.165	1334
668.218	1651
668.270	1614
668.322	1787
668.375	277
668.427	1823
668.479	988
668.532	1969
668.584	1088
668.636	1861
668.689	1684
668.741	1565
668.793	1358
668.845	1506
668.898	2090
668.950	1577
669.002	1557
669.054	1183
669.106	847
669.158	1419
669.211	1964
669.263	1962
669.315	1853
669.367	2781
669.419	2086
669.471	2945
669.523	2522
669.575	3027
669.627	4677
669.679	2916
669.731	2061
669.783	2519
669.835	1541
669.886	3361
669.938	2491
669.990	2576
670.042	1803
670.094	2241
670.146	2371
670.197	3019
670.249	3190
670.301	4948
670.353	5785
670.404	8933
670.456	12612
670.508	19773
670.560	31466
670.611	53102
670.663	89723
670.715	160387
670.766	386818
670.818	463696
670.869	122068
670.921	25226
670.972	13983
671.024	9856
671.075	7438
671.127	5609
671.178	4016
671.230	4144
671.281	3813
671.333	3530
671.384	3283
671.436	2527
671.487	3222
671.538	2833
671.590	1840
671.641	3170
671.692	2733
671.744	2888
671.795	4524
671.846	3141
671.897	2134
671.949	2165
672.000	991
672.051	2408
672.102	2235
672.153	1524
672.204	1566
672.256	1538
672.307	1844
672.358	1898
672.409	1800
672.460	1914
672.511	1361
672.562	1324
672.613	1516
672.664	1116
672.715	1037
672.766	1258
672.817	1494
672.868	1062
672.919	1252
672.970	1466
673.021	1278
673.071	945
673.122	1244
673.173	1458
673.224	1710
673.275	1405
673.326	1278
673.376	981
673.427	436
673.478	1972
673.528	1504
673.579	1094
673.630	1847
673.680	1398
673.731	828
673.782	1517
673.832	1335
673.883	1274
673.934	1468
673.984	1875
674.035	262
674.085	1696
674.136	1682
674.186	719
674.237	1480
674.287	2792
674.338	4627
674.388	1705
674.438	1120
674.489	1311
674.539	621
674.589	1698
674.640	1135
674.690	2096
674.740	205
674.791	1418
674.841	1668
674.891	1640
674.942	1245
674.992	1286
675.042	1117
675.092	704
675.142	1714
675.193	1814
675.243	1235
675.293	2039
675.343	1212
675.393	1512
675.443	1056
675.493	2157
675.543	322
675.593	1594
675.643	1304
675.693	880
675.743	1854
675.793	1925
675.843	541
675.893	951
675.943	654
675.993	771
676.043	621
676.093	2040
676.142	781
676.192	1239
676.242	362
676.292	1335
676.341	431
676.391	887
676.441	1880
676.491	889
676.540	727
676.590	1519
676.640	772
676.689	1100
676.739	525
676.789	954
676.838	978
676.888	1311
676.937	945
676.987	1349
677.037	613
677.086	1676
677.136	408
677.185	1064
677.235	608
677.284	746
677.333	654
677.383	850
677.432	390
677.482	1181
677.531	905
677.580	324
677.630	1096
677.679	1263
677.728	819
677.778	1379
677.827	1306
677.876	350
677.925	326
677.975	112
678.024	1489
678.073	659
678.122	964
678.171	1439
678.220	1303
678.269	283
678.319	1204
678.368	1490
678.417	1042
678.466	1278
678.515	1080
678.564	1233
678.613	993
678.662	202
678.711	469
678.760	1096
678.809	1001
678.857	701
678.906	1211
678.955	255
679.004	851
679.053	1294
679.102	-53
679.151	1007
679.199	952
679.248	544
679.297	280
679.346	1025
679.394	709
679.443	2009
679.492	735
679.540	610
679.589	28
679.638	793
679.686	929
679.735	962
679.784	276
679.832	-377
679.881	441
679.929	682
679.978	237
680.026	634
680.075	986
680.123	909
680.172	814
680.220	716
680.268	-24
680.317	1889
680.365	373
680.414	519
680.462	251
680.510	951
680.559	930
680.607	929
680.655	725
680.703	564
680.752	1169
680.800	1088
680.848	433
680.896	648
680.945	335
680.993	774
681.041	536
681.089	-67
681.137	200
681.185	614
681.233	890
681.258	903
681.281	903
681.329	791
681.377	490
681.380	514
681.425	702
681.473	398
681.502	1036
681.521	1452
681.569	594
681.617	618
681.624	692
681.665	1068
681.713	-14
681.745	681
681.761	991
681.809	520
681.857	1187
681.867	1070
681.904	621
681.952	1035
681.989	779
682.000	679
682.048	1133
682.096	1268
682.111	1030
682.143	465
682.191	1398
682.233	755
682.239	646
682.286	1418
682.334	815
682.354	865
682.382	896
682.430	1391
682.476	1531
682.477	1522
682.525	1465
682.572	707
682.598	729
682.620	724
682.667	1024
682.715	1339
682.720	1336
682.763	1164
682.810	1338
682.841	1358
682.857	1371
682.905	1250
682.952	1199
682.963	1419
683.000	2031
683.047	1703
683.085	1978
683.095	2054
683.142	1191
683.190	2178
683.206	1896
683.237	1366
683.284	2154
683.328	1660
683.332	1604
683.379	1071
683.426	2017
683.449	1768
683.473	1505
683.521	1934
683.568	1767
683.571	1777
683.615	1758
683.662	1381
683.693	1591
683.709	1698
683.757	1571
683.804	1439
683.814	1501
683.851	1706
683.898	2239
683.936	1846
683.945	1718
683.992	2997
684.039	1471
684.057	1577
684.086	1780
684.133	1845
684.179	2151
684.180	2150
684.227	2388
684.274	2253
684.300	2559
684.321	2783
684.368	2501
684.415	2443
684.422	2423
684.462	2232
684.509	2737
684.543	2141
684.556	1904
684.603	2676
684.649	2169
684.665	2113
684.696	2018
684.743	2296
684.786	2457
684.790	2467
684.837	2399
684.883	2904
684.908	2762
684.930	2589
684.977	3040
685.023	2743
685.029	2754
685.070	2800
685.117	2718
685.150	2792
685.164	2791
685.210	3405
685.257	3294
685.272	3350
685.303	3486
685.350	3861
685.393	2882
685.396	2796
685.443	2908
685.490	2793
685.514	2990
685.536	3240
685.583	3672
685.629	3231
685.636	3285
685.675	3270
685.722	3550
685.757	2815
685.768	2617
685.815	3911
685.861	3045
685.878	3084
685.908	3186
685.954	3184
686.000	3756
686.000	3762
686.047	3548
686.093	4135
686.121	4300
686.139	4448
686.185	4217
686.232	4423
686.242	4360
686.278	3820
686.324	3544
686.363	3609
686.370	3641
686.416	3024
686.463	3400
686.484	3642
686.509	3956
686.555	3084
686.601	3520
686.606	3584
686.647	4042
686.693	3120
686.727	3610
686.739	3847
686.785	3501
686.831	4006
686.848	3977
686.877	3834
686.923	3447
686.969	3251
686.969	3249
687.015	3744
687.061	3994
687.090	3613
687.107	3411
687.153	3847
687.199	3847
687.211	3798
687.245	3660
687.291	3593
687.332	3508
687.336	3512
687.382	3797
687.428	3900
687.453	3918
687.474	3783
687.520	3790
687.565	3409
687.574	3329
687.611	3327
687.657	3669
687.695	3711
687.702	3705
687.748	4413
687.794	4111
687.816	4568
687.839	4969
687.885	3963
687.931	3971
687.937	3952
687.976	3879
688.022	4092
688.058	3826
688.067	3762
688.113	3711
688.158	3506
688.179	3599
688.204	3744
688.249	4075
688.295	4050
688.300	4019
688.340	4001
688.386	4609
688.421	4363
688.431	4258
688.477	4833
688.522	4840
688.542	4933
688.567	4952
688.613	4366
688.658	4358
688.663	4333
688.703	4415
688.749	4484
688.784	4721
688.794	4760
688.839	4872
688.884	4709
688.905	4731
688.930	4729
688.975	4707
689.020	4677
689.026	4636
689.065	4569
689.110	4623
689.146	4651
689.155	4625
689.201	4425
689.246	4709
689.267	4735
689.291	4825
689.336	4815
689.381	4191
689.388	4246
689.426	4635
689.471	4717
689.509	4988
689.516	5018
689.561	4489
689.606	4506
689.630	4451
689.651	4464
689.696	4575
689.741	4821
689.750	4787
689.785	4728
689.830	4944
689.871	4615
689.875	4580
689.920	4821
689.965	4721
689.992	4796
690.010	4913
690.054	4414
690.099	4741
690.112	4734
690.144	4696
690.189	5054
690.233	4851
690.233	4857
690.278	4926
690.323	4849
690.354	4827
690.367	4881
690.412	4935
690.457	5088
690.474	5149
690.501	5243
690.546	5304
690.590	5341
690.595	5350
690.635	5692
690.680	5969
690.716	5859
690.724	5831
690.769	6719
690.813	6989
690.836	6873
690.857	7251
690.902	8898
690.946	10130
690.957	10534
690.991	13264
691.035	16096
691.077	20143
691.080	20580
691.124	28042
691.168	33408
691.198	37300
691.213	35250
691.257	29233
691.301	23287
691.318	20984
691.346	18476
691.390	14654
691.434	10245
691.439	9766
691.478	8746
691.522	7940
691.559	7159
691.567	7192
691.611	6940
691.655	7000
691.680	6956
691.699	6754
691.743	6246
691.787	5987
691.800	5755
691.831	5708
691.875	6464
691.919	6428
691.921	6422
691.964	6463
692.008	6368
692.041	6266
692.052	6249
692.096	6258
692.139	6169
692.162	6325
692.183	6454
692.227	6489
692.271	5965
692.282	5959
692.315	6117
692.359	5793
692.402	6079
692.403	6095
692.447	6143
692.490	6508
692.523	6404
692.534	6342
692.578	6392
692.622	6453
692.643	6399
692.666	6442
692.709	6331
692.753	6393
692.763	6334
692.797	6141
692.840	6188
692.884	6376
692.884	6393
692.928	6116
692.971	6646
693.004	6680
693.015	6715
693.059	6652
693.102	6826
693.124	6943
693.146	7086
693.189	6938
693.233	7125
693.245	7147
693.276	7470
693.320	8018
693.363	8217
693.365	8206
693.407	8323
693.450	8813
693.485	8892
693.493	9093
693.537	10664
693.580	11452
693.605	12278
693.624	13445
693.667	15758
693.710	18317
693.725	19195
693.753	24192
693.797	31941
693.840	40884
693.845	41927
693.883	56953
693.926	71492
693.966	84410
693.970	83029
694.013	67310
694.056	52334
694.086	41965
694.099	39287
694.142	30064
694.185	21262
694.206	17048
694.229	16085
694.272	13834
694.315	11829
694.326	11266
694.358	10870
694.401	10464
694.444	9801
694.446	9754
694.487	9659
694.530	9626
694.566	9279
694.573	9172
694.616	8552
694.659	7943
694.686	7391
694.702	7290
694.745	7283
694.787	7036
694.806	7008
694.830	7087
694.873	6937
694.916	6947
694.926	6930
694.959	6949
695.002	6907
695.044	6923
695.046	6906
695.087	7166
695.130	7236
695.166	7581
695.172	7623
695.215	7375
695.258	7315
695.286	7303
695.301	7299
695.343	7165
695.386	7053
695.406	6986
695.428	7046
695.471	7080
695.514	7072
695.526	7056
695.556	7237
695.599	7561
695.641	7662
695.646	7686
695.684	7497
695.726	7001
695.766	6719
695.769	6739
695.811	6399
695.854	6657
695.886	6477
695.896	6514
695.938	6662
695.981	6912
696.005	7027
696.023	7021
696.065	6929
696.108	6841
696.125	6814
696.150	7011
696.192	7253
696.235	7366
696.245	7422
696.277	7527
696.319	7553
696.361	7537
696.365	7523
696.404	7872
696.446	8269
696.485	8406
696.488	8404
696.530	8179
696.572	7972
696.604	7838
696.614	7859
696.656	7736
696.698	7690
696.724	7541
696.740	7374
696.783	7102
696.825	6703
696.844	6527
696.867	6630
696.909	6706
696.951	6855
696.964	6874
696.992	6918
697.034	6936
697.076	7012
697.083	6980
697.118	6850
697.160	6845
697.202	6724
697.203	6701
697.244	6728
697.286	6745
697.323	6688
697.327	6731
697.369	7056
697.411	7189
697.442	7346
697.453	7314
697.494	7127
697.536	6800
697.562	6683
697.578	6863
697.620	7227
697.661	7471
697.682	7656
697.703	7647
697.744	7517
697.786	7418
697.801	7333
697.828	7548
697.869	7887
697.911	8148
697.921	8223
697.952	8090
697.994	7815
698.035	7543
698.040	7482
698.077	7513
698.118	7545
698.160	7618
698.160	7595
698.201	7531
698.243	7452
698.279	7382
698.284	7435
698.325	7657
698.367	7970
698.399	8123
698.408	8091
698.449	7873
698.491	7691
698.518	7528
698.532	7458
698.573	7142
698.614	6872
698.638	6677
698.656	6783
698.697	7012
698.738	7220
698.757	7301
698.779	7331
698.820	7346
698.862	7366
698.877	7351
698.903	7552
698.944	7836
698.985	8125
698.996	8183
699.026	7915
699.067	7510
699.116	7008
699.235	7068
699.354	7555
699.474	7711
699.593	8193
699.713	8166
699.832	7929
699.951	7015
700.070	8035
700.190	7259
700.309	7876
700.428	7539
700.547	8592
700.667	7413
700.786	7951
700.905	7722
701.024	7309
701.143	7591
701.262	7001
701.381	6504
701.500	6740
701.619	7342
701.738	7766
701.857	6586
701.976	6869
702.095	6837
702.214	7566
702.333	7373
702.452	7535
702.571	6178
702.690	6678
702.809	5820
702.928	7146
703.047	6432
703.165	6832
703.284	6393
703.403	6533
703.522	6244
703.640	7669
703.759	6838
703.878	8852
703.997	8289
704.115	7030
704.234	6145
704.353	6241
704.471	6332
704.590	6016
704.708	6363
704.827	6203
704.946	6044
705.064	7307
705.183	7324
705.301	6548
705.420	7931
705.538	10367
705.656	8654
705.775	8249
705.893	9961
706.012	20632
706.130	14542
706.249	8401
706.367	7931
706.485	7783
706.604	7956
706.722	9163
706.840	8315
706.958	9455
707.077	8262
707.195	6990
707.313	7982
707.431	6942
707.549	7786
707.668	6929
707.786	7075
707.904	6319
708.022	6652
708.140	7450
708.258	7164
708.376	6713
708.494	6516
708.612	7057
708.730	8159
708.848	10523
708.966	9283
709.084	8464
709.202	8395
709.320	8935
709.438	8832
709.556	8174
709.674	8419
709.791	9026
709.909	7999
710.027	8661
710.145	7938
710.263	8334
710.380	8575
710.498	8836
710.616	8573
710.733	8014
710.851	8029
710.969	7844
711.086	8304
711.204	8048
711.322	7710
711.439	7976
711.557	8078
711.674	7312
711.792	7340
711.909	8151
712.027	8946
712.144	9648
712.262	7072
712.379	8237
712.497	8547
712.614	11199
712.732	10412
712.849	8890
712.966	8496
713.084	9913
713.201	9853
713.318	9770
713.436	9027
713.553	8508
713.670	9278
713.787	9510
713.905	9398
714.022	9833
714.139	8410
714.256	8597
714.373	8466
714.490	9032
714.608	10330
714.725	13707
714.842	33409
714.959	18548
715.076	8965
715.193	8048
715.310	8097
715.427	8464
715.544	8323
715.661	7990
715.778	8033
715.895	8387
716.011	7964
716.128	8328
716.245	7840
716.362	9392
716.479	8172
716.596	8378
716.713	7658
716.829	7872
716.946	7953
717.063	7925
717.180	7583
717.296	7290
717.413	6675
717.530	7105
717.646	6652
717.763	7356
717.880	7139
717.996	6560
718.113	6437
718.229	6508
718.346	7363
718.462	6533
718.579	6202
718.695	8530
718.812	11985
718.928	8911
719.045	8956
719.161	6875
719.277	6096
719.394	6367
719.510	6821
719.626	7278
719.743	6015
719.859	7998
719.975	6424
720.092	7793
720.208	12234
720.324	13630
720.440	7604
720.557	6817
720.673	7541
720.789	10726
720.905	14631
721.021	20537
721.137	7322
721.253	6174
721.369	6226
721.486	5956
721.602	7706
721.718	8419
721.834	5665
721.950	5602
722.066	6196
722.181	5921
722.297	6476
722.413	5896
722.529	6174
722.645	5919
722.761	5746
722.877	5497
722.993	4867
723.108	5550
723.224	5291
723.340	5633
723.456	5458
723.571	4747
723.687	5544
723.803	5024
723.918	5417
724.034	5423
724.150	5362
724.265	5162
724.381	5941
724.497	11929
724.612	9233
724.728	4865
724.843	4624
724.959	5535
725.074	6145
725.190	10902
725.305	7910
725.421	5282
725.536	4950
725.651	5101
725.767	4960
725.882	5083
725.997	4976
726.113	4495
726.228	4133
726.343	4105
726.459	4582
726.574	5172
726.689	4626
726.804	4778
726.920	4426
727.035	4540
727.150	4343
727.265	4907
727.380	4749
727.495	4623
727.610	4038
727.725	4649
727.841	5131
727.956	6440
728.071	11178
728.186	5662
728.301	3870
728.416	4198
728.531	4325
728.645	3538
728.760	3796
728.875	4502
728.990	4281
729.105	4496
729.220	4991
729.335	5415
729.449	3688
729.564	4133
729.679	3631
729.794	4420
729.908	3801
730.023	4771
730.138	4435
730.253	3975
730.367	4216
730.482	4807
730.596	3681
730.711	4094
730.826	3594
730.940	3833
731.055	4029
731.169	3839
731.284	3374
731.398	3528
731.513	3597
731.627	4129
731.742	3763
731.856	5163
731.970	3654
732.085	3457
732.199	3230
732.313	3523
732.428	3272
732.542	5313
732.656	8191
732.771	4739
732.885	3601
732.999	3363
733.113	4194
733.227	4243
733.342	3095
733.456	3067
733.570	2699
733.684	3244
733.798	3265
733.912	3446
734.026	2698
734.140	2616
734.254	3439
734.368	3425
734.482	7041
734.596	4511
734.710	3091
734.824	3458
734.938	3087
735.052	3284
735.166	2886
735.280	3534
735.393	3100
735.507	2567
735.621	3979
735.735	4283
735.849	5374
735.962	3094
736.076	3898
736.190	3564
736.303	3728
736.417	4844
736.531	3856
736.644	3426
736.758	3333
736.872	2766
736.985	2891
737.099	3939
737.212	2448
737.326	3660
737.439	3118
737.553	3592
737.666	2640
737.780	2676
737.893	2814
738.007	2956
738.120	2331
738.233	2350
738.347	2677
738.460	2104
738.573	2589
738.687	2997
738.800	3428
738.913	3317
739.026	3476
739.140	3445
739.253	3059
739.366	3491
739.479	3103
739.592	1981
739.705	2674
739.818	2940
739.932	2781
740.045	2565
740.158	2892
740.271	4165
740.384	2996
740.497	3171
740.610	2807
740.723	2929
740.836	3385
740.949	3422
741.062	3113
741.174	4825
741.287	2238
741.400	2837
741.513	3129
741.626	4028
741.739	3194
741.851	2750
741.964	3316
742.077	3377
742.189	3117
742.302	2874
742.415	3756
742.527	3290
742.640	3292
742.753	2901
742.865	2219
742.978	2226
743.090	2128
743.203	2958
743.316	3590
743.428	2844
743.541	2338
743.653	2783
743.766	1628
743.878	2361
743.990	2810
744.103	3763
744.215	3023
744.327	3988
744.440	3838
744.552	3846
744.664	3993
744.777	3585
744.889	3117
745.001	2708
745.113	2108
745.226	2892
745.338	2801
745.450	2711
745.562	2265
745.674	2456
745.786	2542
745.898	2409
746.010	3134
746.122	3074
746.234	2964
746.347	2788
746.459	2003
746.570	2648
746.682	2540
746.794	3001
746.906	3253
747.018	2496
747.130	2047
747.242	3300
747.354	2139
747.466	3084
747.577	2929
747.689	2070
747.801	2913
747.913	2438
748.024	2525
748.136	2600
748.248	3031
748.359	2981
748.471	1888
748.583	2479
748.694	2343
748.806	3533
748.918	2185
749.029	3183
749.141	2762
749.252	3023
749.364	2437
749.475	3461
749.587	4842
749.698	3480
749.809	2033
749.921	2714
750.032	2313
750.144	1798
750.255	1991
750.366	2948
750.478	1837
750.589	2148
750.700	1931
750.811	1845
750.923	2326
751.034	3765
751.145	6964
751.256	3840
751.367	2626
751.479	2519
751.590	2049
751.701	3067
751.812	2916
751.923	2554
752.034	2605
752.145	2210
752.256	1286
752.367	2027
752.478	1483
752.589	2694
752.700	1941
752.811	1742
752.922	1931
753.032	2470
753.143	2497
753.254	2709
753.365	2422
753.476	1687
753.586	1951
753.697	2545
753.808	1741
753.919	3076
754.029	2241
754.140	1926
754.251	1791
754.361	1902
754.472	2538
754.582	2267
754.693	2468
754.804	1605
754.914	1781
755.025	2521
755.135	2336
755.246	2350
755.356	2281
755.466	2494
755.577	1693
755.687	2339
755.798	1418
755.908	2431
756.018	2738
756.129	2174
756.239	1454
756.349	2900
756.460	2318
756.570	2452
756.680	2539
756.790	2400
756.900	3452
757.011	2649
757.121	1874
757.231	2414
757.341	2986
757.451	2462
757.561	1779
757.671	2440
757.781	2090
757.891	2655
758.001	2761
758.111	3473
758.221	2068
758.331	3345
758.441	3251
758.551	3315
758.661	3877
758.771	3379
758.880	3070
758.990	3437
759.100	3111
759.210	3741
759.320	2728
759.429	3615
759.539	3230
759.649	3439
759.758	3231
759.868	3493
759.978	3299
760.087	3219
760.197	3062
760.307	3789
760.416	3301
760.526	3210
760.635	4135
760.745	3331
760.854	3974
760.964	3942
761.073	3740
761.182	3381
761.292	3977
761.401	4985
761.511	3812
761.620	4356
761.729	4177
761.839	4617
761.948	4789
762.057	4866
762.166	5094
762.276	5354
762.385	5470
762.494	5859
762.603	5117
762.712	6021
762.822	5638
762.931	6123
763.040	5974
763.149	6553
763.258	6840
763.367	7396
763.476	7969
763.585	7902
763.694	8837
763.803	9600
763.912	9799
764.021	10158
764.130	9774
764.238	10740
764.347	12309
764.456	12736
764.565	12585
764.674	14420
764.783	15820
764.891	16612
765.000	19919
765.109	21644
765.217	22967
765.326	27633
765.435	32675
765.543	40406
765.652	46687
765.761	59941
765.869	77774
765.978	107343
766.086	152309
766.195	229652
766.303	360541
766.412	540312
766.520	544070
766.629	499854
766.737	393631
766.846	256585
766.954	171905
767.062	122204
767.171	88438
767.279	68910
767.387	54321
767.496	44239
767.604	37719
767.712	31683
767.820	27983
767.928	25552
768.037	23052
768.145	22121
768.253	20812
768.361	20539
768.469	19292
768.577	19885
768.685	19654
768.793	20944
768.901	21862
769.009	25412
769.117	29271
769.225	35604
769.333	46235
769.441	64344
769.549	98651
769.657	164490
769.765	303427
769.873	498432
769.981	459461
770.088	350733
770.196	197728
770.304	118080
770.412	80047
770.519	57915
770.627	43492
770.735	34462
770.842	28931
770.950	24572
771.058	20573
771.165	18577
771.273	16309
771.380	15243
771.488	13353
771.595	12233
771.703	11275
771.810	10208
771.918	9625
772.025	8504
772.133	8607
772.240	8286
772.348	7769
772.455	7303
772.562	7222
772.670	6856
772.777	5636
772.884	6678
772.991	5598
773.099	5784
773.206	5166
773.313	5359
773.420	5433
773.528	5273
773.635	4913
773.742	4959
773.849	4266
773.956	4457
774.063	4494
774.170	4140
774.277	4198
774.384	4058
774.491	4151
774.598	4012
774.705	3869
774.812	4581
774.919	4396
775.026	3810
775.133	3439
775.239	3455
775.346	3658
775.453	3977
775.560	2630
775.667	3276
775.773	2875
775.880	3426
775.987	3450
776.093	3999
776.200	3975
776.307	2449
776.413	3079
776.520	2481
776.627	2395
776.733	2713
776.840	2257
776.946	3141
777.053	2549
777.159	3783
777.266	5418
777.372	5272
777.478	6042
777.585	4442
777.691	2770
777.798	1975
777.904	2467
778.010	3283
778.117	3952
778.223	2551
778.329	2074
778.435	2397
778.542	2069
778.648	1930
778.754	2024
778.860	2235
778.966	2204
779.072	1987
779.178	2788
779.284	1853
779.391	2024
779.497	2933
779.603	3935
779.708	3878
779.815	6899
779.920	17625
780.026	65388
780.132	75768
780.238	8333
780.344	3616
780.450	3283
780.556	2445
780.661	1557
780.767	1906
780.873	1566
780.979	2345
781.085	2041
781.190	1871
781.296	1384
781.402	2034
781.507	1759
781.613	1382
781.719	1273
781.824	1894
781.930	1890
782.035	1165
782.141	1304
782.246	1881
782.352	930
782.457	1640
782.563	1070
782.668	1909
782.773	1041
782.879	1121
782.984	1115
783.090	1350
783.195	2053
783.300	2841
783.405	1855
783.511	1870
783.616	1717
783.721	922
783.826	1158
783.932	2017
784.037	1031
784.142	1222
784.247	964
784.352	1177
784.457	1416
784.562	990
784.667	1395
784.772	1145
784.877	1075
784.982	1792
785.087	1335
785.192	1082
785.297	1204
785.402	1044
785.507	1042
785.611	1105
785.716	1007
785.821	740
785.926	870
786.031	748
786.135	1570
786.240	1385
786.345	991
786.450	597
786.554	1169
786.659	863
786.763	-34
786.868	915
786.973	290
787.077	1100
787.182	371
787.286	1106
787.391	416
787.495	568
787.600	446
787.704	294
787.809	1424
787.913	820
788.017	765
788.122	1589
788.226	181
788.330	704
788.435	860
788.539	548
788.643	779
788.747	430
788.852	1330
788.956	1029
789.060	629
789.164	359
789.268	809
789.372	1045
789.476	776
789.580	563
789.684	744
789.788	538
789.892	680
789.996	1223
790.100	530
790.204	61
790.308	433
790.412	1078
790.516	483
790.620	1590
790.724	767
790.828	482
790.931	453
791.035	1385
791.139	874
791.242	1599
791.346	1215
791.450	502
791.554	726
791.657	635
791.761	1443
791.864	1371
791.968	889
792.072	733
792.175	989
792.279	766
792.382	230
792.486	142
792.589	68
792.693	753
792.796	320
792.899	1276
793.003	327
793.106	386
793.209	891
793.313	545
793.416	370
793.519	1513
793.623	904
793.726	1913
793.829	2143
793.932	1177
794.035	-45
794.138	648
794.242	1100
794.345	1519
794.448	2442
794.551	3294
794.654	10591
794.757	33640
794.860	44604
794.963	5274
795.066	1090
795.169	1661
795.272	332
795.375	1157
795.477	553
795.580	513
795.683	228
795.786	835
795.889	-739
795.991	1088
796.094	302
796.197	784
796.300	-56
796.402	618
796.505	85
796.608	473
796.710	434
796.813	407
796.915	472
797.018	1097
797.120	-314
797.223	-6
797.326	-12
797.428	-568
797.530	270
797.633	-68
797.735	1054
797.838	454
797.940	1569
798.042	693
798.145	516
798.247	369
798.349	-277
798.452	-436
798.554	114
798.656	133
798.758	373
798.860	366
798.962	-168
799.065	179
799.167	-597
799.269	802
799.371	983
799.473	287
799.575	-21
799.677	319
799.779	906
799.881	779
799.983	1600
800.085	305
800.187	-49
800.289	-184
800.390	52
800.492	247
800.594	342
800.696	85
800.798	-225
800.899	-107
801.001	761
801.103	321
801.205	-121
801.306	-351
801.408	-395
801.509	373
801.611	-172
801.713	705
801.814	-65
801.916	13
802.017	17
802.119	-457
802.220	609
802.322	-392
802.423	726
802.525	241
802.626	23
802.727	-217
802.829	-146
802.930	-46
803.031	1020
803.133	466
803.234	-408
803.335	-655
803.436	-316
803.538	285
803.639	-1242
803.740	265
803.841	-505
803.942	-295
804.043	-102
804.144	-690
804.245	-568
804.346	-77
804.447	-448
804.548	-300
804.649	741
804.750	-5
804.851	127
804.952	16
805.053	-291
805.154	-172
805.255	607
805.355	-567
805.456	-518
805.557	-382
805.658	-576
805.758	552
805.859	273
805.960	582
806.061	-910
806.161	10
806.262	-291
806.362	106
806.463	-13
806.564	344
806.664	-214
806.765	-89
806.865	56
806.966	888
807.066	-51
807.166	110
807.267	-278
807.367	-548
807.468	349
807.568	-193
807.668	-114
807.769	352
807.869	-163
807.969	-177
808.069	393
808.170	315
808.270	18
808.370	-46
808.470	-361
808.570	59
808.670	-45
808.770	-114
808.870	-496
808.970	77
809.070	-804
809.170	-149
809.271	-188
809.370	-733
809.470	256
809.570	-258
809.670	-321
809.770	-384
809.870	-652
809.970	-88
810.070	-720
810.169	-344
810.269	-761
810.369	517
810.469	-379
810.568	-14
810.668	-184
810.768	-904
810.867	-593
810.967	-572
811.066	-475
811.166	-421
811.265	-158
811.365	-684
811.464	-949
811.564	398
811.663	-185
811.763	281
811.862	-726
811.962	-223
812.061	-92
812.160	-456
812.260	-452
812.359	-137
812.458	-239
812.557	1328
812.657	3203
812.756	3266
812.855	-355
812.954	-228
813.053	-505
813.153	-19
813.252	-869
813.351	-107
813.450	-102
813.549	-312
813.648	-744
813.747	509
813.846	-517
813.945	399
814.044	-522
814.143	115
814.242	-317
814.341	-117
814.439	429
814.538	68
814.637	-753
814.736	41
814.835	-188
814.933	188
815.032	33
815.131	788
815.229	-443
815.328	-59
815.427	-145
815.525	215
815.624	421
815.722	38
815.821	267
815.919	-630
816.018	-233
816.116	198
816.215	159
816.313	623
816.412	-358
816.510	1072
816.609	388
816.707	546
816.805	130
816.904	1027
817.002	284
817.100	1590
817.198	1108
817.296	1295
817.395	2773
817.493	2741
817.591	2395
817.689	4159
817.787	6006
817.885	8456
817.983	15736
818.081	29538
818.179	65295
818.277	153418
818.375	310411
818.473	200025
818.571	62338
818.669	28408
818.767	19805
818.865	16899
818.963	18212
819.061	21736
819.158	32960
819.256	58503
819.354	122731
819.452	270402
819.549	417539
819.647	232584
819.745	84522
819.842	40045
819.940	24197
820.038	17108
820.135	11283
820.233	9291
820.330	6799
820.428	5739
820.525	4783
820.623	4401
820.720	3360
820.818	3282
820.915	3118
821.012	2864
821.110	1772
821.207	1892
821.304	889
821.402	1760
821.499	1737
821.596	1747
821.693	2574
821.791	1864
821.888	838
821.985	1517
822.082	2381
822.179	1923
822.276	646
822.373	1577
822.470	621
822.567	283
822.664	390
822.761	45
822.858	-33
822.955	164
823.052	-303
823.149	-261
823.246	-716
823.343	569
823.440	143
823.536	715
823.633	1001
823.730	241
823.827	-152
823.923	802
824.020	537
824.117	-348
824.213	-249
824.310	328
824.407	-229
824.503	-1035
824.600	-204
824.696	-526
824.793	-341
824.889	-97
824.986	-144
825.082	-463
825.179	100
825.275	-555
825.371	-354
825.468	149
825.564	-638
825.660	-442
825.757	-330
825.853	903
825.949	-327
826.045	-480
826.142	-988
826.238	-301
826.334	-1105
826.430	-606
826.526	-627
826.622	-617
826.718	238
826.814	-480
826.910	242
827.006	452
827.102	-748
827.198	-613
827.294	-909
827.390	-134
827.486	-797
827.582	-448
827.678	-459
827.774	-615
827.869	-1481
827.965	184
828.061	-1193
828.157	-873
828.252	-579
828.348	-851
828.444	-315
828.539	-591
828.635	-616
828.731	-465
828.826	-398
828.922	-252
829.017	-423
829.113	-131
829.208	-720
829.304	-928
829.399	21
829.495	-763
829.590	-402
829.685	-392
829.781	-659
829.876	-1001
829.971	-905
830.066	-554
830.162	-570
830.257	-949
830.352	-999
830.447	95
830.543	-986
830.638	-719
830.733	-1069
830.828	-1141
830.923	-821
831.018	-3
831.113	-1810
831.208	-808
831.303	-1010
831.398	-572
831.493	-354
831.588	-290
831.683	-968
831.778	-1008
831.873	-1094
831.967	-250
832.062	-901
832.157	-1070
832.252	59
832.346	-307
832.441	-837
832.536	-194
832.631	9
832.725	1293
832.820	126
832.914	-392
833.009	-1452
833.104	-499
833.198	-7
833.293	-1064
833.387	-223
833.482	-403
833.576	-1808
833.670	-607
833.765	-890
833.859	-743
833.954	-954
834.048	-751
834.142	-461
834.237	-413
834.331	-607
834.425	-1289
834.519	-1375
834.613	-404
834.708	-1282
834.802	-549
834.896	-1602
834.990	64
835.084	-845
835.178	-1182
835.272	-823
835.366	-863
835.460	-554
835.554	-1031
835.648	-1324
835.742	-813
835.836	-867
835.930	-576
836.024	-933
836.117	-774
836.211	-558
836.305	-150
836.399	-146
836.493	-229
836.586	-500
836.680	-908
836.774	-1403
836.867	-309
836.961	-1508
837.055	-547
837.148	-598
837.242	-793
837.335	-1447
837.429	-383
837.522	-870
837.616	-633
837.709	-721
837.803	132
837.896	-478
837.989	-827
838.083	-788
838.176	-14
838.269	-146
838.363	1104
838.456	-574
838.549	-412
838.642	142
838.735	635
838.829	2212
838.922	-602
839.015	-1524
839.108	-1123
839.201	-981
839.294	-1700
839.387	-1120
839.480	-1122
839.573	-457
839.666	-237
839.759	-838
839.852	-1301
839.945	-1329
840.038	-1299
840.131	-634
840.223	-591
840.316	-1049
840.409	-1323
840.502	-1872
840.594	-431
840.687	-446
840.780	-358
840.873	-1210
840.965	-1013
841.058	-21
841.150	-244
841.243	297
841.336	-135
841.428	-1237
841.521	-660
841.613	-991
841.706	-922
841.798	-850
841.890	-753
841.983	-1248
842.075	-414
842.167	-377
842.260	-1197
842.352	-182
842.444	-1378
842.537	99
842.629	1835
842.721	543
842.813	-775
842.905	-983
842.997	-430
843.090	-399
843.182	-601
843.274	26
843.366	1617
843.458	3937
843.550	6582
843.642	1906
843.734	-40
843.826	-788
843.918	-77
844.009	-238
844.101	-509
844.193	-848
844.285	-276
844.377	-430
844.469	356
844.560	-632
844.652	616
844.744	-649
844.835	-177
844.927	-756
845.019	-1278
845.110	-550
845.202	-467
845.293	-1134
845.385	-605
845.476	-1002
845.568	-819
845.659	-981
845.751	-426
845.842	-346
845.934	-574
846.025	-772
846.116	-682
846.208	-1443
846.299	-907
846.390	-1311
846.482	-79
846.573	-936
846.664	-277
846.755	-659
846.846	-314
846.937	-1078
847.029	-716
847.120	-1355
847.211	-868
847.302	-824
847.393	-850
847.484	-821
847.575	-1086
847.666	-1072
847.757	-667
847.847	-1407
847.938	46
848.029	-1128
848.120	-679
848.211	-1097
848.302	-812
848.392	-1353
848.483	-155
848.574	-1303
848.664	-763
848.755	-1144
848.846	-477
848.936	-711
849.027	-852
849.118	-1277
849.208	-1171
849.299	-718
849.389	-766
849.480	-715
849.570	-361
849.661	124
849.751	371
849.841	-305
849.932	-743
850.022	-1535
850.112	-305
850.203	-579
850.293	-103
850.383	-678
850.474	-1051
850.564	-1237
850.654	-285
850.744	-251
850.834	-1039
850.924	-378
851.014	-955
851.104	-770
851.194	-347
851.284	-1222
851.374	-560
851.464	-594
851.554	-842
851.644	-800
851.734	-385
851.824	450
851.914	-424
852.004	674
852.094	2105
852.183	952
852.273	55
852.363	-1189
852.452	-407
852.542	-416
852.632	-510
852.721	-1072
852.811	-1321
852.901	-967
852.990	-833
853.080	-1525
853.169	-974
853.259	-1169
853.348	-917
853.438	-705
853.527	-369
853.617	-468
853.706	-404
853.795	-1144
853.885	1195
853.974	1429
854.063	3192
854.152	8524
854.242	10080
854.331	1304
854.420	-104
854.509	-815
854.598	-1102
854.687	-923
854.777	-638
854.866	-639
854.955	60
855.044	-1684
855.133	-882
855.222	-1260
855.311	-1427
855.400	-1277
855.488	-1253
855.577	-1073
855.666	-726
855.755	3
855.844	-930
855.933	-223
856.021	309
856.110	-657
856.199	-452
856.288	-918
856.376	-1321
856.465	-1985
856.554	-709
856.642	-1431
856.731	-986
856.819	-959
856.908	-1504
856.996	-826
857.085	-828
857.173	-1168
857.262	-1248
857.350	-1009
857.438	-664
857.527	-1284
857.615	-1194
857.703	-1180
857.792	-502
857.880	-811
857.968	-1287
858.056	-841
858.145	-1124
858.233	-1753
858.321	-1179
858.409	-1051
858.497	-1340
858.585	-1360
858.673	-1036
858.761	-936
858.849	-1204
858.937	-902
859.025	-1130
859.113	-548
859.201	-1147
859.289	-901
859.377	-463
859.465	-1180
859.552	-1040
859.640	-990
859.728	-1169
859.816	-1389
859.903	-336
859.991	-1443
860.079	-1686
860.166	-1542
860.254	-1449
860.342	-1437
860.429	-1398
860.517	-1815
860.604	-870
860.692	-830
860.779	-1573
860.867	-1408
860.954	-1325
861.042	-1176
861.129	-1604
861.216	-571
861.304	-904
861.391	-1345
861.478	-142
861.565	-1949
861.653	-812
861.740	-1907
861.827	-717
861.914	-522
862.001	-938
862.089	-1788
862.176	-851
862.263	-1423
862.350	-489
862.437	-1764
862.524	-1492
862.611	-1484
862.698	-1195
862.785	-734
862.871	-306
862.958	-1137
863.045	-505
863.132	-570
863.219	-1471
863.306	-1771
863.392	-498
863.479	-1365
863.566	-444
863.652	-875
863.739	-1237
863.826	-1692
863.912	-1186
863.999	-1481
864.086	-988
864.172	-1137
864.259	-1350
864.345	-489
864.432	-26
864.518	-1309
864.604	-1058
864.691	-1836
864.777	-417
864.863	-428
864.950	-304
865.036	-1890
865.122	-1245
865.209	-694
865.295	-777
865.381	-1240
865.467	-802
865.553	-735
865.639	-1311
865.726	-736
865.812	-218
865.898	-48
865.984	-105
866.070	2313
866.156	5114
866.242	3807
866.328	190
866.414	-1719
866.499	-1462
866.585	-1054
866.671	-1447
866.757	-906
866.843	-677
866.928	-1333
867.014	-342
867.100	-930
867.186	-1350
867.271	-1335
867.357	-831
867.442	-772
867.528	66
867.614	-824
867.699	-1108
867.785	-319
867.870	-1134
867.956	13
868.041	493
868.127	-1530
868.212	-1054
868.297	155
868.383	-692
868.468	-470
868.553	-103
868.639	254
868.724	660
868.809	1640
868.894	1149
868.979	-1109
869.065	-778
869.150	-1263
869.235	-834
869.320	-1062
869.405	-1302
869.490	-1501
869.575	-719
869.660	-1381
869.745	-1421
869.830	-1187
869.915	-1313
870.000	-1220
870.085	-1462
870.169	-794
870.254	-579
870.339	-1250
870.424	-1583
870.509	-570
870.593	-805
870.678	-1313
870.763	-898
870.847	-891
870.932	-1877
871.016	-682
871.101	-1112
871.186	-1404
871.270	-762
871.355	-549
871.439	-1804
871.523	-1219
871.608	-763
871.692	-1282
871.777	-709
871.861	-601
871.945	-1760
872.030	-933
872.114	-978
872.198	-2018
872.282	-1788
872.367	-1207
872.451	-1060
872.535	-1100
872.619	-1241
872.703	-1660
872.787	-1133
872.871	-1528
872.955	-948
873.039	-2053
873.123	-1267
873.207	-389
873.291	-1033
873.375	-1049
873.459	-477
873.543	-1412
873.627	-871
873.711	-1646
873.794	-881
873.878	-1192
873.962	-1486
874.045	-588
874.129	-1272
874.137	-1254
874.213	-1078
874.245	-974
874.296	-809
874.352	-980
874.380	-1059
874.460	-1076
874.464	-1079
874.547	-1491
874.568	-1312
874.631	-792
874.676	-1219
874.714	-1572
874.784	-1491
874.798	-1476
874.881	-274
874.892	-319
874.965	-625
874.999	-758
875.048	-953
875.107	-885
875.131	-856
875.215	-826
875.215	-825
875.298	-1016
875.323	-1194
875.381	-1519
875.430	-1243
875.465	-1082
875.538	-1295
875.548	-1325
875.631	-866
875.646	-857
875.714	-843
875.753	-959
875.798	-1084
875.861	-1511
875.881	-1639
875.964	-967
875.968	-990
876.047	-1323
876.076	-1033
876.130	-565
876.183	-1052
876.213	-1296
876.291	-245
876.296	-173
876.379	-931
876.398	-926
876.462	-944
876.506	-1022
876.545	-1126
876.613	-588
876.628	-457
876.711	-416
876.721	-411
876.794	-332
876.828	-497
876.877	-765
876.935	-670
876.960	-617
877.043	-660
877.043	-659
877.125	-360
877.150	-314
877.208	-162
877.258	12
877.291	109
877.365	-306
877.374	-345
877.456	217
877.472	292
877.539	456
877.579	393
877.622	350
877.687	-380
877.704	-528
877.787	187
877.794	173
877.869	-66
877.901	-13
877.952	39
878.008	-249
878.034	-383
878.115	-211
878.117	-203
878.199	-153
878.222	49
878.282	504
878.329	246
878.364	65
878.437	447
878.447	509
878.529	209
878.544	191
878.611	74
878.651	-154
878.694	-319
878.758	133
878.776	277
878.858	488
878.865	486
878.941	96
878.972	-190
879.023	-528
879.078	-155
879.105	135
879.185	-501
879.187	-512
879.269	866
879.292	806
879.351	326
879.399	-200
879.433	-398
879.506	-465
879.516	-446
879.598	59
879.613	78
879.680	4
879.720	363
879.762	612
879.827	-180
879.844	-298
879.926	430
879.933	417
880.007	111
880.040	118
880.089	191
880.147	20
880.171	-49
880.253	647
880.254	644
880.335	1123
880.360	1348
880.417	2334
880.467	3005
880.499	4050
880.574	7696
880.580	7692
880.662	5596
880.680	4850
880.744	2020
880.787	668
880.825	355
880.893	708
880.907	818
880.989	476
881.000	458
881.070	175
881.106	15
881.152	111
881.213	744
881.233	804
881.315	178
881.319	142
881.396	-53
881.426	17
881.478	360
881.532	829
881.559	888
881.639	80
881.641	68
881.722	332
881.745	184
881.803	356
881.852	681
881.885	584
881.958	578
881.966	628
882.047	895
882.064	868
882.129	652
882.171	658
882.210	1227
882.277	2425
882.291	2551
882.372	3096
882.383	3017
882.454	1279
882.489	695
882.535	696
882.596	723
882.616	670
882.697	502
882.702	516
882.778	1250
882.808	1203
882.859	860
882.914	635
882.940	687
883.020	871
883.021	874
883.102	389
883.127	155
883.183	317
883.233	873
883.264	959
883.339	868
883.345	906
883.426	986
883.445	1077
883.507	890
883.551	715
883.587	930
883.657	906
883.668	878
883.749	1454
883.763	1475
883.830	1138
883.869	840
883.910	772
883.975	747
883.991	735
884.072	575
884.081	564
884.152	781
884.187	714
884.233	581
884.292	862
884.314	907
884.394	506
884.398	501
884.475	983
884.504	1094
884.555	1003
884.610	702
884.636	873
884.716	1414
884.716	1424
884.797	1558
884.821	1496
884.877	1432
884.927	1226
884.958	1105
885.033	1127
885.038	1154
885.118	1277
885.139	1264
885.199	1420
885.244	1642
885.279	1471
885.350	885
885.359	931
885.439	1599
885.456	1635
885.520	1433
885.561	1586
885.600	1763
885.667	1528
885.680	1414
885.760	1072
885.773	982
885.840	1235
885.878	1339
885.920	1555
885.984	1977
886.000	1955
886.080	1596
886.089	1540
886.160	1596
886.195	1694
886.240	1511
886.300	1300
886.320	1398
886.400	1589
886.406	1594
886.480	1813
886.511	1847
886.560	1957
886.616	2203
886.640	2353
886.720	2633
886.722	2625
886.800	1790
886.827	1534
886.879	1835
886.932	2069
886.959	2141
887.038	2216
887.039	2224
887.119	1867
887.143	1774
887.198	1574
887.248	1269
887.278	1408
887.354	1772
887.358	1815
887.437	2504
887.459	2689
887.517	2488
887.564	2292
887.596	2265
887.669	1993
887.676	1982
887.755	1961
887.774	1905
887.835	1563
887.880	1273
887.914	1567
887.985	2264
887.994	2244
888.073	1806
888.090	1727
888.153	2103
888.195	2324
888.232	2339
888.300	2322
888.311	2321
888.391	2231
888.405	2196
888.470	2519
888.510	2684
888.549	2479
888.615	2206
888.628	2217
888.708	2092
888.720	2075
888.787	2808
888.825	3184
888.866	2672
888.930	1803
888.945	2045
889.024	3328
889.035	3485
889.103	2570
889.140	2036
889.182	2513
889.245	3238
889.261	3161
889.340	2702
889.349	2638
889.419	2767
889.454	2795
889.498	2867
889.559	2963
889.577	2970
889.656	2945
889.664	2931
889.735	2951
889.768	2949
889.814	3090
889.873	3250
889.978	2755
890.083	2305
890.187	3164
890.292	3541
890.397	3582
890.501	2879
890.606	3088
890.710	3583
890.815	2746
890.919	3049
891.024	2966
891.128	3812
891.233	2716
891.337	2656
891.442	2430
891.546	2565
891.650	3063
891.755	2086
891.859	3715
891.963	2954
892.068	2610
892.172	3499
892.276	2383
892.380	1836
892.484	2116
892.589	2974
892.693	2823
892.797	2093
892.901	2255
893.005	3325
893.109	2853
893.213	2893
893.317	2533
893.421	2454
893.525	2329
893.629	2344
893.733	2736
893.837	1867
893.941	2593
894.045	3418
894.148	3108
894.252	6475
894.356	7368
894.460	3664
894.564	2159
894.667	2154
894.771	2249
894.875	1651
894.978	1705
895.082	1765
895.186	2439
895.289	3120
895.393	2364
895.496	2288
895.600	2424
895.703	1657
895.807	2724
895.910	1777
896.014	2032
896.117	2130
896.221	2033
896.324	2362
896.427	1883
896.531	2624
896.634	1334
896.737	2872
896.840	2296
896.944	1990
897.047	1753
897.150	1798
897.253	2617
897.356	2668
897.460	1710
897.563	2683
897.666	2527
897.769	2781
897.872	1736
897.975	2609
898.078	1902
898.181	2321
898.284	1701
898.387	1794
898.490	2090
898.593	1656
898.695	2569
898.798	2073
898.901	3366
899.004	3009
899.107	2564
899.209	1638
899.312	2703
899.415	1462
899.518	1719
899.620	2671
899.723	1986
899.826	2838
899.928	4501
900.031	2747
900.133	2333
900.236	2400
900.338	1303
900.441	2525
900.543	2314
900.646	2794
900.748	1629
900.851	1483
900.953	1973
901.055	3211
901.158	2730
901.260	3106
901.362	1469
901.465	1862
901.567	1086
901.669	2610
901.771	1719
901.873	2068
901.976	2140
902.078	2395
902.180	1960
902.282	2233
902.384	1881
902.486	2381
902.588	1696
902.690	2310
902.792	2276
902.894	2703
902.996	1862
903.098	2081
903.200	1949
903.302	1950
903.404	2203
903.505	2449
903.607	1752
903.709	2706
903.811	1958
903.913	1685
904.014	1581
904.116	1544
904.218	2338
904.319	2398
904.421	2500
904.523	2891
904.624	2394
904.726	1879
904.827	1865
904.929	2235
905.030	1951
905.132	2047
905.233	2052
905.335	1799
905.436	1800
905.537	2220
905.639	1836
905.740	1518
905.841	1794
905.943	1853
906.044	2091
906.145	1953
906.247	2181
906.348	2242
906.449	1821
906.550	1821
906.651	1946
906.752	1735
906.854	1874
906.955	2073
907.056	1466
907.157	1657
907.258	2644
907.359	1312
907.460	2135
907.561	1596
907.662	1715
907.762	1854
907.863	1313
907.964	1400
908.065	1672
908.166	1745
908.267	1947
908.367	1587
908.468	1862
908.569	2587
908.670	1834
908.770	2852
908.871	2696
908.971	2648
909.072	2997
909.173	1639
909.273	1763
909.374	2523
909.474	1673
909.575	2386
909.675	1660
909.776	2072
909.876	1437
909.977	2297
910.077	2031
910.177	1961
910.278	1776
910.378	1852
910.478	1333
910.579	2615
910.679	1955
910.779	1622
910.879	2655
910.980	1310
911.080	1643
911.180	1098
911.280	2319
911.380	1757
911.480	2565
911.580	1850
911.680	1264
911.780	2353
911.880	2187
911.980	2321
912.080	1589
912.180	2045
912.280	1843
912.380	2078
912.480	1853
912.580	2319
912.679	1452
912.779	2027
912.879	1353
912.979	1959
913.078	1400
913.178	1857
913.278	2593
913.377	2087
913.477	1283
913.577	2330
913.676	1959
913.776	1831
913.875	2259
913.975	1514
914.074	1379
914.174	1833
914.273	1498
914.373	1904
914.472	1292
914.572	2069
914.671	2334
914.770	2208
914.870	1418
914.969	1252
915.068	1866
915.167	1795
915.267	1125
915.366	1716
915.465	1640
915.564	2195
915.663	870
915.763	1383
915.862	2442
915.961	1824
916.060	1141
916.159	1601
916.258	2200
916.357	1524
916.456	2038
916.555	1489
916.654	1825
916.752	1825
916.851	2018
916.950	1170
917.049	1403
917.148	2220
917.247	1950
917.345	1831
917.444	1125
917.543	2010
917.642	1843
917.740	1058
917.839	1606
917.937	1593
918.036	1815
918.135	1672
918.233	1096
918.332	619
918.430	1168
918.529	2155
918.627	1451
918.726	1181
918.824	1501
918.923	1837
919.021	1511
919.119	1013
919.218	1154
919.316	1204
919.414	1758
919.512	1130
919.611	2421
919.709	2088
919.807	1248
919.905	1399
920.003	2084
920.102	1930
920.200	1739
920.298	1638
920.396	891
920.494	2210
920.592	1770
920.690	1801
920.788	1056
920.886	2301
920.984	1412
921.082	1718
921.180	1890
921.277	2382
921.375	1545
921.473	1507
921.571	1395
921.669	1844
921.766	1469
921.864	1938
921.962	1778
922.060	1568
922.157	1724
922.255	1372
922.352	1480
922.450	2104
922.548	1455
922.645	1837
922.743	1328
922.840	1564
922.938	2664
923.035	2019
923.133	2315
923.230	2424
923.327	2051
923.425	1928
923.522	1971
923.619	1639
923.717	861
923.814	1923
923.911	2638
924.008	2549
924.106	1182
924.203	1185
924.300	1516
924.397	1034
924.494	2612
924.591	3164
924.688	1249
924.786	1995
924.883	2362
924.979	749
925.077	1605
925.173	1741
925.270	1145
925.367	1490
925.464	1262
925.561	1803
925.658	2543
925.755	2514
925.852	2133
925.948	2526
926.045	2281
926.142	2082
926.239	2597
926.335	3225
926.432	2359
926.529	2524
926.625	2581
926.722	1786
926.818	2685
926.915	2065
927.011	1480
927.108	1596
927.204	750
927.301	1263
927.397	1412
927.494	1693
927.590	1491
927.687	1902
927.783	1075
927.879	1680
927.976	1572
928.072	1997
928.168	1201
928.264	1611
928.361	1439
928.457	1414
928.553	1893
928.649	2043
928.745	1130
928.841	1457
928.937	1191
929.033	1874
929.129	1138
929.225	1701
929.321	1321
929.417	1653
929.513	1878
929.609	1373
929.705	1576
929.801	1584
929.897	668
929.993	589
930.089	1376
930.184	1740
930.280	1871
930.376	1595
930.471	1926
930.567	1511
930.663	1814
930.758	1162
930.854	1288
930.950	1376
931.045	1276
931.141	1314
931.236	1585
931.332	1466
931.427	1481
931.523	1229
931.618	2319
931.714	1138
931.809	1959
931.905	2278
932.000	1783
932.095	1413
932.191	996
932.286	922
932.381	2172
932.476	661
932.572	648
932.667	1540
932.762	1125
932.857	2056
932.952	1331
933.047	1016
933.142	1440
933.237	738
933.332	705
933.427	1752
933.522	1713
933.617	588
933.712	1729
933.807	1079
933.902	1528
933.997	1339
934.092	1697
934.187	766
934.282	1002
934.376	1137
934.471	1989
934.566	805
934.661	1514
934.755	1448
934.850	616
934.945	1694
935.039	795
935.134	997
935.228	1738
935.323	1641
935.417	1779
935.512	1684
935.606	1569
935.701	1173
935.795	1205
935.890	2146
935.984	982
936.079	2044
936.173	1628
936.267	2422
936.362	1359
936.456	756
936.550	1845
936.644	857
936.738	1063
936.833	1961
936.927	1777
937.021	2236
937.115	1525
937.209	1013
937.303	1396
937.397	1800
937.491	1614
937.585	1502
937.679	838
937.773	456
937.867	959
937.961	1507
938.055	1153
938.149	1931
938.243	1674
938.337	1534
938.430	1025
938.524	1548
938.618	2055
938.712	2084
938.805	1895
938.899	2450
938.993	1730
939.086	1857
939.180	2284
939.274	2586
939.367	2048
939.461	1655
939.554	893
939.648	1924
939.741	1850
939.835	890
939.928	1127
940.022	1763
940.115	1295
940.208	1342
940.302	1177
940.395	1343
940.488	828
940.582	1784
940.675	1157
940.768	669
940.861	1165
940.954	1941
941.048	1640
941.141	1216
941.234	1876
941.327	1934
941.420	3011
941.513	1889
941.606	1559
941.699	1712
941.792	1167
941.885	1425
941.978	683
942.071	1349
942.164	1143
942.257	1249
942.349	1048
942.442	1416
942.535	652
942.628	1105
942.721	1380
942.813	371
942.906	1051
942.999	1772
943.091	729
943.184	1217
943.277	759
943.369	1226
943.462	301
943.554	1379
943.647	561
943.739	1639
943.832	1444
943.924	876
944.017	1039
944.109	1018
944.201	1300
944.294	1714
944.386	1085
944.478	1195
944.571	1037
944.663	879
944.755	954
944.847	1165
944.940	1482
945.032	192
945.124	892
945.216	808
945.308	483
945.400	1127
945.492	960
945.584	1620
945.676	691
945.768	842
945.860	1253
945.952	1493
946.044	1776
946.136	1244
946.228	1262
946.320	947
946.412	625
946.503	1215
946.595	853
946.687	1156
946.779	241
946.870	1172
946.962	643
947.054	890
947.145	1873
947.237	1442
947.329	369
947.420	1167
947.512	560
947.603	1099
947.695	426
947.786	568
947.878	237
947.969	988
948.061	582
948.152	861
948.243	491
948.335	817
948.426	933
948.517	-75
948.609	812
948.700	967
948.791	1066
948.882	585
948.973	1497
949.065	1193
949.156	625
949.247	787
949.338	819
949.429	250
949.520	1006
949.611	1144
949.702	737
949.793	592
949.884	970
949.975	884
950.066	1182
950.157	840
950.247	1391
950.338	953
950.429	596
950.520	1296
950.611	821
950.701	1212
950.792	1437
950.883	2059
950.973	460
951.064	1251
951.155	1130
951.245	1466
951.336	1094
951.427	875
951.517	765
951.608	909
951.698	447
951.788	1850
951.879	648
951.969	651
952.060	674
952.150	468
952.240	299
952.331	869
952.421	1108
952.511	1407
952.602	660
952.692	626
952.782	341
952.872	896
952.962	840
953.052	1032
953.143	865
953.233	1138
953.323	1183
953.413	1079
953.503	1089
953.593	579
953.683	1130
953.773	1497
953.863	865
953.953	1128
954.042	460
954.132	1162
954.222	414
954.312	1273
954.402	636
954.492	1212
954.581	2345
954.671	2676
954.761	244
954.850	1524
954.940	1384
955.030	1165
955.119	183
955.209	1390
955.298	-33
955.388	548
955.477	933
955.567	1282
955.656	987
955.746	1036
955.835	608
955.925	1020
956.014	523
956.103	1367
956.193	1148
956.282	1005
956.371	534
956.461	482
956.550	464
956.639	752
956.728	862
956.817	685
956.906	752
956.995	695
957.085	897
957.174	1108
957.263	710
957.352	899
957.441	369
957.530	1283
957.619	1211
957.708	655
957.796	1932
957.885	1723
957.974	1351
958.063	1059
958.152	568
958.241	1824
958.329	1897
958.418	1376
958.507	1337
958.596	1544
958.684	1094
958.773	2081
958.861	1792
958.950	2057
959.039	2528
959.127	2786
959.216	2519
959.304	1848
959.393	2335
959.481	2219
959.570	2214
959.658	2288
959.746	2059
959.835	3350
959.923	3936
960.011	4473
960.100	2817
960.188	2183
960.276	1372
960.365	1388
960.453	1699
960.541	1067
960.629	1762
960.717	1660
960.805	1090
960.893	1559
960.981	861
961.069	1508
961.158	1138
961.245	2164
961.333	683
961.421	1354
961.509	1672
961.597	1189
961.685	1070
961.773	1008
961.861	482
961.949	576
962.036	1061
962.124	309
962.212	543
962.299	1321
962.387	492
962.475	907
962.562	440
962.650	711
962.738	879
962.825	433
962.913	575
963.000	1260
963.088	717
963.175	1131
963.263	689
963.350	1560
963.438	760
963.525	1270
963.612	2494
963.700	5354
963.787	13167
963.874	15554
963.962	4173
964.049	973
964.136	649
964.223	144
964.310	693
964.398	222
964.485	529
964.572	1653
964.659	2070
964.746	3061
964.833	1624
964.920	773
965.007	796
965.094	506
965.181	159
965.268	513
965.355	1371
965.441	905
965.528	-564
965.615	960
965.702	209
965.789	1052
965.875	395
965.962	106
966.049	59
966.136	531
966.222	162
966.309	713
966.395	415
966.482	68
966.569	-296
966.655	1408
966.742	897
966.828	717
966.915	285
967.001	562
967.087	340
967.174	1745
967.260	1021
967.347	1928
967.433	4275
967.519	9245
967.605	8812
967.692	1278
967.778	247
967.864	193
967.950	321
968.036	130
968.123	86
968.209	54
968.295	-316
968.381	634
968.467	1177
968.553	435
968.639	455
968.725	795
968.811	1365
968.897	2731
968.983	1307
969.069	420
969.154	353
969.240	868
969.326	-360
969.412	1152
969.497	-412
969.583	199
969.669	428
969.755	449
969.840	159
969.926	605
970.012	-227
970.097	41
970.183	194
970.268	616
970.354	1273
970.439	1969
970.525	5913
970.610	5204
970.696	1564
970.781	742
970.866	748
970.952	973
971.037	-176
971.122	39
971.208	500
971.293	141
971.378	-226
971.463	367
971.549	230
971.634	181
971.719	-158
971.804	1157
971.889	1546
971.974	852
972.059	7
972.144	199
972.229	44
972.314	107
972.399	-325
972.484	675
972.569	211
972.654	667
972.739	2570
972.824	3671
972.908	2266
972.993	19
973.078	-293
973.163	-609
973.247	467
973.332	287
973.417	673
973.501	755
973.586	531
973.671	117
973.755	153
973.840	550
973.924	754
974.009	665
974.093	-40
974.178	1778
974.262	1816
974.346	3045
974.431	1582
974.515	60
974.600	-297
974.684	386
974.768	771
974.852	995
974.937	72
975.021	51
975.105	912
975.189	-670
975.273	808
975.358	-874
975.442	-408
975.526	648
975.610	46
975.694	-565
975.778	-397
975.862	-458
975.946	-880
976.030	872
976.114	-603
976.198	33
976.281	-478
976.365	328
976.449	254
976.533	22
976.617	125
976.700	458
976.784	-426
976.868	136
976.951	1475
977.035	928
977.119	707
977.202	326
977.286	-430
977.369	-312
977.453	-328
977.536	-283
977.620	-717
977.703	490
977.787	-607
977.870	493
977.953	351
978.037	-309
978.120	458
978.203	957
978.287	2531
978.370	2768
978.453	487
978.536	-366
978.620	934
978.703	1023
978.786	1653
978.869	-370
978.952	-497
979.035	-7
979.118	-402
979.201	-445
979.284	-1066
979.367	-683
979.450	-55
979.533	-242
979.616	-206
979.699	-604
979.782	-455
979.865	-294
979.948	-3
980.030	-244
980.113	-250
980.196	-88
980.279	-364
980.361	171
980.444	-702
980.526	60
980.609	-221
980.692	-372
980.774	454
980.857	236
980.939	-792
981.022	310
981.104	-649
981.187	-23
981.269	484
981.352	-778
981.434	-509
981.516	-187
981.599	-385
981.681	64
981.763	-143
981.846	-75
981.928	-376
982.010	-237
982.092	-910
982.174	-81
982.256	-82
982.339	166
982.421	-400
982.503	-322
982.585	-296
982.667	-1425
982.749	-646
982.831	-982
982.913	-569
982.995	511
983.077	-214
983.158	261
983.240	-496
983.322	-201
983.404	-543
983.486	-653
983.568	-624
983.649	-1160
983.731	-112
983.813	-614
983.894	-109
983.976	-107
984.058	-301
984.139	104
984.221	-761
984.302	-482
984.384	-586
984.465	-843
984.547	-542
984.628	-1746
984.710	-622
984.791	-257
984.872	-772
984.954	-722
985.035	-807
985.116	-131
985.198	-1024
985.279	99
985.360	-1237
985.441	-537
985.522	-621
985.604	-348
985.685	-1475
985.766	181
985.847	-297
985.928	-539
986.009	-676
986.090	-657
986.171	-342
986.252	-256
986.333	-460
986.414	-958
986.495	-537
986.576	-1013
986.656	-1268
986.737	96
986.818	-484
986.899	-961
986.980	-88
987.060	168
987.141	-1066
987.222	-39
987.302	-776
987.383	-779
987.464	-682
987.544	-288
987.625	-1087
987.705	-530
987.786	-769
987.866	-324
987.947	-1395
988.027	-850
988.108	-381
988.188	-174
988.268	-231
988.349	-419
988.429	-1206
988.509	-773
988.589	-1471
988.670	-1289
988.750	448
988.830	-722
988.910	-729
988.990	-377
989.070	-166
989.151	-685
989.231	-839
989.311	220
989.391	-928
989.471	-758
989.551	-507
989.631	-615
989.711	-811
989.791	-831
989.870	27
989.950	-309
990.030	-661
990.110	-724
990.190	-1016
990.269	-824
990.349	-682
990.429	69
990.509	-433
990.588	-857
990.668	-784
990.747	-427
990.827	-1088
990.907	-466
990.986	-952
991.066	-1912
991.145	-1037
991.225	-891
991.304	-301
991.383	-189
991.463	-679
991.542	-496
991.622	-596
991.701	-780
991.780	-744
991.859	-565
991.939	-785
992.018	-709
992.097	-1300
992.176	-873
992.256	-1747
992.335	-491
992.414	-353
992.493	-1110
992.572	-977
992.651	-458
992.730	-149
992.809	-576
992.888	-647
992.967	-295
993.046	-737
993.125	-676
993.203	-956
993.282	-747
993.361	-877
993.440	-765
993.519	-698
993.597	-1337
993.676	-1115
993.755	-717
993.834	-689
993.912	-634
993.991	-1102
994.069	-307
994.148	-540
994.226	-527
994.305	-1366
994.384	-289
994.462	-193
994.540	-481
994.619	-967
994.697	-538
994.776	-1335
994.854	-51
994.932	17
995.011	-1064
995.089	-969
995.167	-1151
995.245	-591
995.324	-962
995.402	-1108
995.480	-893
995.558	-544
995.636	-1381
995.714	-1509
995.792	82
995.870	-320
995.948	-285
996.026	-617
996.104	-1161
996.182	-1082
996.260	-1067
996.338	-158
996.416	-1335
996.494	-1468
996.572	-722
996.649	-623
996.727	-1379
996.805	16
996.883	-926
996.960	61
997.038	-901
997.116	39
997.193	-1512
997.271	-1170
997.348	-323
997.426	-456
997.504	-646
997.581	-421
997.658	-1308
997.736	-2157
997.813	-829
997.891	-59
997.968	-1520
998.046	-375
998.123	-499
998.200	-803
998.277	-1414
998.355	-454
998.432	-1059
998.509	-774
998.586	-1071
998.663	-796
998.741	-899
998.818	-663
998.895	-505
998.972	-1113
999.049	-874
999.126	-1190
999.203	-960
999.280	-1160
999.357	-432
999.434	-1681
999.511	-450
999.587	-511
999.664	-1305
999.741	-704
999.818	-1252
999.895	-739
999.971	-759
1000.048	-1501
1000.125	-360
1000.202	-1790
1000.278	-103
1000.355	-1011
1000.431	-1105
1000.508	-1210
1000.584	-1661
1000.661	-1198
1000.738	-1087
1000.814	-2067
1000.890	-417
1000.967	-1064
1001.043	-412
1001.120	-801
1001.196	-148
1001.272	-1493
1001.349	-970
1001.425	-1102
1001.501	-1041
1001.577	-1340
1001.654	-1209
1001.730	-869
1001.806	-797
1001.882	-1431
1001.958	-1570
1002.034	-1087
1002.110	-711
1002.186	-1287
1002.262	-1366
1002.338	-1355
1002.414	-929
1002.490	-1390
1002.566	-1065
1002.642	-1777
1002.718	-953
1002.794	-616
1002.870	-996
1002.945	-793
1003.021	-1069
1003.097	-1808
1003.173	-478
1003.248	-1410
1003.324	-191
1003.400	-1206
1003.475	-1831
1003.551	-1106
1003.626	-407
1003.702	-1170
1003.777	-1058
1003.853	-1037
1003.928	-335
1004.004	-1202
1004.079	-1578
1004.155	-2134
1004.230	-1420
1004.305	-912
1004.381	-1157
1004.456	-629
1004.531	-1611
1004.607	-1096
1004.682	-819
1004.757	-1962
1004.832	-1153
1004.907	-957
1004.982	-1325
1005.057	-1596
1005.133	-1081
1005.208	-1413
1005.283	-1693
1005.358	-1461
1005.433	-1826
1005.508	-1284
1005.583	-861
1005.657	-1692
1005.732	-1629
1005.807	-1267
1005.882	-880
1005.957	-328
1006.032	-1529
1006.106	-1109
1006.181	-1087
1006.256	-1211
1006.331	-1418
1006.405	-2027
1006.480	-1013
1006.554	-830
1006.629	-789
1006.704	-1369
1006.778	-1650
1006.853	-794
1006.927	-1611
1007.002	-1626
1007.076	-1795
1007.150	-1523
1007.225	-358
1007.299	-1526
1007.373	-2235
1007.448	-1416
1007.522	-804
1007.596	-899
1007.671	-1182
1007.745	-1267
1007.819	-2381
1007.893	-1120
1007.967	-831
1008.041	-1946
1008.115	-1348
1008.190	-1742
1008.264	-818
1008.338	-1522
1008.412	-110
1008.486	-1223
1008.560	-1730
1008.633	-1624
1008.707	-1483
1008.781	-1636
1008.855	-1548
1008.929	-1827
1009.003	-1350
1009.076	-1266
1009.150	-1168
1009.224	-1614
1009.298	-1962
1009.371	-1771
1009.445	-1236
1009.519	-1196
1009.592	-1568
1009.666	-1359
1009.739	-1576
1009.813	-1831
1009.886	-692
1009.960	-1910
1010.033	-754
1010.107	-1737
1010.180	-1188
1010.253	-2088
1010.327	-1888
1010.400	-1182
1010.473	-1822
1010.547	-1238
1010.620	-872
1010.693	-1800
1010.766	-1345
1010.840	-536
1010.913	-1446
1010.986	-1531
1011.059	-2112
1011.132	-1406
1011.205	-1181
1011.278	-979
1011.351	-1654
1011.424	-911
1011.497	-1739
1011.570	-1834
1011.643	-1617
1011.716	-1769
1011.789	-1752
1011.862	-1416
1011.934	-1769
1012.007	-1114
1012.080	-1086
1012.153	-1236
1012.225	-1172
1012.298	-2484
1012.371	-1093
1012.443	-670
1012.516	-2024
1012.588	-618
1012.661	-806
1012.733	-1168
1012.806	-1144
1012.879	-1675
1012.951	-1630
1013.023	-1878
1013.096	-1590
1013.168	-1378
1013.241	-1110
1013.313	-2024
1013.385	-1904
1013.458	-1243
1013.530	-1104
1013.602	-1262
1013.674	-752
1013.746	-1593
1013.819	-2172
1013.891	-1156
1013.963	-1589
1014.035	-2158
1014.107	-720
1014.179	-1983
1014.251	-1358
1014.323	-1676
1014.395	-1304
1014.467	-1733
1014.539	-1020
1014.611	-1956
1014.683	-1205
1014.754	-962
1014.826	-1664
1014.898	-1320
1014.970	-2334
1015.042	-587
1015.113	-1576
1015.185	-1864
1015.257	-1783
1015.328	-1121
1015.400	-1646
1015.471	-1514
1015.543	-1908
1015.615	-1710
1015.686	-2330
1015.757	-2098
1015.829	-1136
1015.901	-1628
1015.972	-857
1016.043	-1545
1016.115	-1634
1016.186	-1942
1016.257	-2350
1016.328	-1420
1016.400	-1496
1016.471	-1761
1016.542	-1854
1016.613	-2311
1016.685	-1624
1016.756	-1274
1016.827	-1998
1016.898	-1887
1016.969	-1554
1017.040	-1675
1017.111	-1991
1017.182	-2062
1017.253	-1730
1017.324	-1728
1017.395	-2052
1017.466	-1788
1017.537	-2023
1017.608	-1875
1017.678	-1722
1017.749	-2259
1017.820	-1687
1017.891	-2004
1017.961	-1646
1018.032	-1691
1018.103	-1458
1018.173	-1739
1018.244	-1671
1018.315	-1706
1018.385	-1815
1018.456	-1987
1018.526	-1900
1018.597	-1475
1018.667	-1828
1018.738	-1402
1018.808	-1925
1018.878	-1963
1018.949	-1406
1019.019	-1406
1019.089	-2187
1019.160	-1251
1019.230	-1574
1019.300	-756
1019.371	-2274
1019.441	-1414
1019.511	-2125
1019.581	-2332
1019.651	-1266
1019.721	-2493
1019.791	-1112
1019.861	-1822
1019.931	-1712
1020.001	-1288
1020.071	-1300
1020.141	-2066
1020.211	-1355
1020.281	-2158
1020.351	-1960
1020.421	-2141
1020.491	-1142
1020.560	-1749
1020.630	-1946
1020.700	-1363
1020.770	-1616
1020.839	-1849
1020.909	-1741
1020.979	-1994
1021.048	-1571
1021.118	-1714
1021.187	-1526
1021.257	-1822
1021.326	-1516
1021.396	-1558
1021.465	-1485
1021.535	-1706
1021.604	-1390
1021.674	-2082
1021.743	-1567
1021.812	-1716
1021.882	-1580
1021.951	-1490
1022.020	-2202
1022.089	-1839
1022.159	-2425
1022.228	-2123
1022.297	-1623
1022.366	-1681
1022.435	-2216
1022.504	-2208
1022.573	-2158
1022.642	-1951
1022.711	-2054
1022.781	-2385
1022.849	-1106
1022.918	-1914
1022.987	-2337
1023.056	-1910
1023.125	-1440
1023.194	-1979
1023.263	-793
1023.331	-1654
1023.400	-1430
1023.469	-1753
1023.538	-1610
1023.606	-2095
1023.675	-1721
1023.744	-2397
1023.812	-1824
1023.881	-2150
1023.949	-1151
1024.018	-1581
1024.086	-2201
1024.155	-2327
1024.223	-1870
1024.292	-1823
1024.360	-1319
1024.429	-1746
1024.497	-1586
1024.565	-1814
1024.634	-1608
1024.702	-1592
1024.770	-2331
1024.838	-2158
1024.907	-1817
1024.975	-2580
1025.043	-1758
1025.111	-2027
1025.179	-2396
1025.247	-1875
1025.315	-1095
1025.383	-2077
1025.451	-1270
1025.519	-2167
1025.587	-2169
1025.655	-1868
1025.723	-2337
1025.791	-1642
1025.859	-2100
1025.927	-1372
1025.995	-2125
1026.062	-1735
1026.130	-2218
1026.198	-2438
1026.266	-1855
1026.333	-2108
1026.401	-847
1026.469	-2399
1026.536	-2180
1026.604	-2138
1026.671	-1744
1026.739	-1249
1026.806	-2200
1026.874	-1731
1026.941	-975
1027.009	-2380
1027.076	-1718
1027.144	-1912
1027.211	-2838
1027.278	-2125
1027.345	-1356
1027.413	-2337
1027.480	-2297
1027.547	-1609
1027.614	-1796
1027.682	-2401
1027.749	-1232
1027.816	-1910
1027.883	-2179
1027.950	-1838
1028.017	-1744
1028.084	-1749
1028.151	-2737
1028.218	-1217
1028.285	-2428
1028.352	-2379
1028.419	-2600
1028.486	-2040
1028.553	-2343
1028.619	-2465
1028.686	-2788
1028.753	-2215
1028.820	-1474
1028.886	-2429
1028.953	-1880
1029.020	-2605
1029.086	-1913
1029.153	-1892
1029.220	-2363
1029.286	-2024
1029.353	-1540
1029.419	-2958
1029.486	-1956
1029.552	-2674
1029.619	-1801
1029.685	-2011
1029.751	-1799
1029.818	-1918
1029.884	-2343
1029.951	-1774
1030.017	-2224
1030.083	-2831
1030.149	-1718
1030.216	-2304
1030.282	-1345
1030.348	-2249
1030.414	-2307
1030.480	-2103
1030.546	-1926
1030.612	-2402
1030.678	-2596
1030.744	-2283
1030.810	-1448
1030.876	-2979
1030.942	-2166
1031.008	-1308
1031.074	-2331
1031.140	-1615
1031.206	-2181
1031.272	-2265
1031.337	-2744
1031.403	-1641
1031.469	-2076
1031.534	-2664
1031.600	-1666
1031.666	-2416
1031.731	-1884
1031.797	-2787
1031.863	-2821
1031.928	-1766
1031.994	-2357
1032.059	-1503
1032.125	-1943
1032.190	-2351
1032.256	-2298
1032.321	-2213
1032.386	-2985
1032.452	-2306
1032.517	-2260
1032.582	-2343
1032.647	-2593
1032.713	-2816
1032.778	-2281
1032.843	-1928
1032.908	-2271
1032.974	-1952
1033.039	-2429
1033.104	-2130
1033.169	-2260
1033.234	-2383
1033.299	-2157
1033.364	-2052
1033.429	-2198
1033.494	-1550
1033.559	-1831
1033.624	-1734
1033.688	-2751
1033.753	-2398
1033.818	-2498
1033.883	-3148
1033.948	-2173
1034.013	-2306
1034.077	-1665
1034.142	-1930
1034.207	-2478
1034.271	-2543
1034.336	-2321
1034.400	-1965
1034.465	-2427
1034.530	-1747
1034.594	-1782
1034.658	-2066
1034.723	-2551
1034.787	-2394
1034.852	-1869
1034.916	-2633
1034.981	-1833
1035.045	-1808
1035.109	-2419
1035.173	-2137
1035.238	-2960
1035.302	-1813
1035.366	-1979
1035.430	-2646
1035.495	-2401
1035.559	-2287
1035.623	-1952
1035.687	-2500
1035.751	-2397
1035.815	-2623
1035.879	-2900
1035.943	-2058
1036.007	-2285
1036.071	-2433
1036.135	-2268
1036.198	-2254
1036.262	-2367
1036.326	-1964
1036.390	-2013
1036.454	-2639
1036.517	-2060
1036.581	-2504
1036.645	-2048
1036.709	-1364
1036.772	-1444
1036.836	-1588
1036.900	-2092
1036.963	-2706
1037.026	-2128
1037.090	-2587
1037.154	-2522
1037.217	-1891
1037.280	-2744
1037.344	-2427
1037.407	-1940
1037.471	-2917
1037.534	-3042
1037.597	-2961
1037.661	-2182
1037.724	-2848
1037.787	-2625
1037.850	-2620
1037.913	-2322
1037.977	-2605
1038.040	-2583
1038.103	-1852
1038.166	-1948
1038.229	-2636
1038.292	-3362
1038.355	-2594
1038.418	-1946
1038.481	-1867
1038.544	-1424
1038.607	-2141
1038.670	-3247
1038.732	-2619
1038.795	-2585
1038.858	-3049
1038.921	-2465
1038.984	-2431
1039.046	-3081
1039.109	-2828
1039.172	-2334
1039.234	-2286
1039.297	-2454
1039.360	-2896
1039.422	-2213
1039.485	-2426
1039.547	-2079
1039.610	-3061
1039.672	-2648
1039.734	-2978
1039.797	-2702
1039.859	-2817
1039.922	-2686
1039.984	-2171
1040.046	-2788
1040.109	-2395
1040.171	-2466
1040.233	-1718
1040.295	-2318
1040.358	-2262
1040.420	-2012
1040.482	-2747
1040.544	-2619
1040.606	-2797
1040.668	-2770
1040.730	-2418
1040.792	-2645
1040.854	-2448
1040.916	-2129
1040.978	-2772
1041.040	-2448
1041.102	-2495
1041.164	-2813
1041.225	-2677
1041.287	-2230
1041.349	-2239
1041.411	-2453
1041.472	-2501
1041.534	-2309
1041.596	-2708
1041.657	-2229
1041.719	-3198
1041.781	-2262
1041.842	-2685
1041.904	-2649
1041.965	-2681
1042.027	-2435
1042.088	-1995
1042.150	-2264
1042.211	-2798
1042.272	-2327
1042.334	-3237
1042.395	-1994
1042.456	-2460
1042.518	-2685
1042.579	-2585
1042.640	-2163
1042.701	-2582
1042.763	-1848
1042.824	-2455
1042.885	-2426
1042.946	-2373
1043.007	-1774
1043.068	-2721
1043.129	-2938
1043.190	-2764
1043.251	-2497
1043.312	-2605
1043.373	-2206
1043.434	-2376
1043.495	-2659
1043.556	-1835
1043.616	-2458
1043.677	-2405
1043.738	-2620
1043.799	-1865
1043.859	-1812
1043.920	-2531
1043.981	-2279
1044.041	-2785
1044.102	-2313
1044.162	-2554
1044.223	-2894
1044.284	-2605
1044.344	-1747
1044.405	-1865
1044.465	-3191
1044.525	-2236
1044.586	-1996
1044.646	-2581
1044.707	-1224
1044.767	-2573
1044.827	-2584
1044.887	-2473
1044.948	-1492
1045.008	-2396
1045.068	-2735
1045.128	-2377
1045.188	-2629
1045.249	-2295
1045.309	-1524
1045.369	-1899
1045.429	-1636
1045.489	-2153
1045.549	-2751
1045.609	-2044
1045.669	-3175
1045.729	-2111
1045.789	-2778
1045.848	-1991
1045.908	-2241
1045.968	-2312
1046.028	-1528
1046.088	-2061
1046.147	-2325
1046.207	-1643
1046.267	-1831
1046.326	-1026
1046.386	-1774
1046.446	-1965
1046.505	-1925
1046.565	-1600
1046.624	-1529
1046.684	-1438
1046.743	-1235
1046.803	-859
1046.862	-826
1046.922	0
