'Start Wavelength	183.907
'End Wavelength	1046.922
'Gate Delay	5.000
'Gate Width (ms)	1.050
'Laser Output Level	0.000
'X Position	0.000
'Y Position	0.000
'Z Position	0.000
'Grid Point Number	1.000
'Shot Number	100.000
183.907	348.000
183.977	144.000
184.047	122
184.116	288
184.186	263
184.256	-163
184.325	309
184.395	-456
184.465	1762
184.534	-1082
184.604	-369
184.674	746
184.743	-266
184.813	-7
184.883	99
184.952	-290
185.022	306
185.092	-374
185.161	53
185.231	-123
185.301	148
185.370	-136
185.440	-37
185.509	-312
185.579	1043
185.649	663
185.718	352
185.788	-130
185.857	92
185.927	-680
185.996	108
186.066	-92
186.136	604
186.205	-353
186.275	407
186.344	69
186.414	604
186.483	131
186.553	566
186.622	974
186.692	578
186.761	-156
186.831	459
186.900	-280
186.970	-369
187.039	169
187.109	872
187.178	-105
187.248	631
187.317	-144
187.387	752
187.456	1271
187.526	419
187.595	703
187.664	-99
187.734	804
187.803	614
187.873	528
187.942	724
188.012	-255
188.081	6
188.150	619
188.220	890
188.289	417
188.358	40
188.428	723
188.497	60
188.567	577
188.636	-593
188.705	351
188.775	763
188.844	-951
188.913	758
188.983	-1
189.052	390
189.121	404
189.191	-33
189.260	268
189.329	106
189.399	-360
189.468	53
189.537	50
189.606	369
189.676	40
189.745	184
189.814	268
189.883	332
189.953	448
190.022	416
190.091	2100
190.161	2491
190.230	1266
190.299	161
190.368	153
190.437	-450
190.507	-187
190.576	-350
190.645	-101
190.714	131
190.783	-149
190.853	-477
190.922	456
190.991	860
191.060	-333
191.129	-24
191.198	766
191.268	911
191.337	-350
191.406	529
191.475	-221
191.544	699
191.613	509
191.682	286
191.752	513
191.821	728
191.890	351
191.959	147
192.028	435
192.097	486
192.166	54
192.235	-219
192.304	290
192.373	-169
192.442	22
192.511	22
192.580	175
192.650	-187
192.719	227
192.788	565
192.857	807
192.926	212
192.995	-297
193.064	870
193.133	373
193.202	608
193.271	1025
193.340	964
193.409	466
193.478	1327
193.547	1128
193.615	2022
193.684	1850
193.753	1151
193.822	545
193.891	258
193.960	1328
194.029	237
194.098	1079
194.167	-360
194.236	572
194.305	-15
194.374	335
194.443	90
194.512	181
194.580	120
194.649	1250
194.718	1120
194.787	1004
194.856	318
194.925	571
194.994	1169
195.062	615
195.131	1491
195.200	1170
195.269	908
195.338	406
195.407	1203
195.475	-228
195.544	1171
195.613	768
195.682	1191
195.751	702
195.819	917
195.888	632
195.957	1803
196.026	1565
196.094	952
196.163	1333
196.232	912
196.301	805
196.369	909
196.438	1214
196.507	1106
196.576	1142
196.644	-105
196.713	530
196.782	198
196.850	1446
196.919	1096
196.988	865
197.056	32
197.125	850
197.194	1210
197.262	-560
197.331	230
197.400	470
197.468	72
197.537	-127
197.606	-77
197.674	823
197.743	2200
197.812	952
197.880	2229
197.949	1827
198.017	1902
198.086	1910
198.155	886
198.223	1267
198.292	3499
198.360	1070
198.429	569
198.497	612
198.566	1453
198.635	3037
198.703	992
198.772	877
198.840	2535
198.909	3605
198.977	883
199.046	1016
199.114	570
199.183	318
199.251	490
199.320	270
199.388	1059
199.457	112
199.525	43
199.594	572
199.662	810
199.731	720
199.799	404
199.867	1535
199.936	431
200.004	710
200.073	852
200.141	919
200.210	503
200.278	-105
200.346	875
200.415	220
200.483	497
200.552	1078
200.620	840
200.688	806
200.757	1707
200.825	901
200.893	594
200.962	901
201.030	568
201.098	830
201.167	1133
201.235	864
201.303	333
201.372	1378
201.440	-56
201.508	967
201.577	1184
201.645	1507
201.713	684
201.781	852
201.850	1541
201.918	794
201.986	971
202.055	1220
202.123	943
202.191	544
202.259	556
202.327	890
202.396	1127
202.464	771
202.532	1338
202.600	4661
202.669	3581
202.737	631
202.805	288
202.873	898
202.941	537
203.009	445
203.078	115
203.146	-180
203.214	624
203.282	-425
203.350	671
203.418	289
203.487	824
203.555	40
203.623	708
203.691	1086
203.759	63
203.827	-354
203.895	352
203.963	422
204.031	461
204.099	151
204.168	739
204.236	1214
204.304	562
204.372	208
204.440	1291
204.508	370
204.576	150
204.644	808
204.712	1168
204.780	661
204.848	-248
204.916	898
204.984	328
205.052	982
205.120	700
205.188	795
205.256	456
205.324	555
205.392	853
205.460	-18
205.528	-94
205.596	1202
205.664	1210
205.732	194
205.799	3274
205.867	5040
205.935	656
206.003	1133
206.071	1161
206.139	534
206.207	685
206.275	1124
206.343	915
206.411	775
206.478	764
206.546	1067
206.614	-201
206.682	-144
206.750	427
206.818	1192
206.885	1401
206.953	-77
207.021	1606
207.089	1076
207.157	747
207.225	1193
207.292	1345
207.360	473
207.428	-91
207.496	348
207.563	1146
207.631	1283
207.699	265
207.767	472
207.834	190
207.902	1083
207.970	205
208.038	289
208.105	47
208.173	1131
208.241	1151
208.309	1458
208.376	816
208.444	1933
208.512	1611
208.579	-50
208.647	1335
208.715	1678
208.782	1102
208.850	629
208.918	453
208.985	980
209.053	1614
209.120	1159
209.188	850
209.256	639
209.323	1018
209.391	1785
209.459	1546
209.526	1514
209.594	965
209.661	869
209.729	1059
209.796	1250
209.864	824
209.932	213
209.999	1946
210.067	631
210.134	2257
210.202	1920
210.269	1765
210.337	1879
210.404	1472
210.472	1033
210.539	2022
210.607	541
210.674	1971
210.742	1996
210.809	1196
210.877	1900
210.944	1588
211.012	1013
211.079	3245
211.146	550
211.214	1216
211.281	1658
211.349	2428
211.416	1739
211.484	1929
211.551	760
211.618	1457
211.686	1017
211.753	1603
211.821	517
211.888	633
211.955	1827
212.023	1162
212.090	1532
212.157	927
212.225	1421
212.292	3564
212.359	6090
212.427	16233
212.494	7450
212.561	2646
212.629	1545
212.696	1792
212.763	1234
212.831	653
212.898	1690
212.965	1516
213.032	1711
213.100	1933
213.167	1957
213.234	2690
213.301	1265
213.369	1225
213.436	1327
213.503	1186
213.570	1744
213.638	1415
213.705	594
213.772	617
213.839	2260
213.906	2995
213.973	1741
214.041	1315
214.108	1273
214.175	973
214.242	1609
214.309	1061
214.376	1047
214.444	1783
214.511	1875
214.578	1434
214.645	1980
214.712	1644
214.779	1927
214.846	1431
214.913	2058
214.980	2028
215.048	2104
215.115	2365
215.182	2761
215.249	2540
215.316	1246
215.383	2178
215.450	841
215.517	1472
215.584	1591
215.651	1607
215.718	1065
215.785	1479
215.852	2007
215.919	2841
215.986	2943
216.053	2168
216.120	2008
216.187	1924
216.254	1792
216.321	1278
216.388	1923
216.455	2240
216.522	1878
216.589	2330
216.656	3494
216.722	4771
216.789	3030
216.856	2466
216.923	2808
216.990	2223
217.057	1584
217.124	2683
217.191	2550
217.258	3791
217.324	4977
217.391	5009
217.458	3553
217.525	2488
217.592	1800
217.659	1360
217.725	2855
217.792	2613
217.859	3858
217.926	1681
217.993	1095
218.059	1924
218.126	861
218.193	1524
218.260	1513
218.327	1099
218.393	1900
218.460	1708
218.527	1025
218.594	1384
218.660	3924
218.727	4944
218.794	1089
218.860	1882
218.927	995
218.994	1308
219.061	1238
219.127	1764
219.194	3204
219.261	2184
219.327	961
219.394	1339
219.461	735
219.527	1421
219.594	1735
219.661	1878
219.727	746
219.794	1879
219.860	775
219.927	1698
219.994	3281
220.060	5231
220.127	3729
220.193	2526
220.260	1294
220.326	3541
220.393	4784
220.460	6528
220.526	4229
220.593	2378
220.659	3359
220.726	2949
220.792	8270
220.859	6690
220.925	8144
220.992	11493
221.058	11511
221.125	11980
221.191	8786
221.258	3207
221.324	2912
221.391	1993
221.457	1165
221.524	1329
221.590	2140
221.657	9034
221.723	7046
221.789	5449
221.856	6061
221.922	2117
221.989	1799
222.055	2007
222.121	700
222.188	3211
222.254	1913
222.321	1346
222.387	960
222.453	1022
222.520	234
222.586	631
222.652	1578
222.719	1349
222.785	1681
222.851	1444
222.918	407
222.984	2138
223.050	1042
223.116	352
223.183	1756
223.249	1174
223.315	178
223.382	626
223.448	1047
223.514	453
223.580	430
223.647	413
223.713	501
223.779	1025
223.845	682
223.911	640
223.978	671
224.044	2014
224.110	477
224.176	914
224.242	701
224.309	-339
224.375	641
224.441	580
224.507	-283
224.573	0
224.639	1627
224.705	763
224.772	1235
224.838	93
224.904	1480
224.970	820
225.036	1153
225.102	951
225.168	1925
225.234	1142
225.300	840
225.366	662
225.432	819
225.499	1621
225.565	2098
225.631	574
225.697	1586
225.763	2369
225.829	2134
225.895	1580
225.961	3365
226.027	2822
226.093	1900
226.159	3685
226.225	4662
226.291	8989
226.357	18668
226.423	9152
226.489	4829
226.554	3870
226.620	3166
226.686	4154
226.752	6854
226.818	8824
226.884	22746
226.950	21902
227.016	8245
227.082	4302
227.148	3488
227.214	4318
227.279	2833
227.345	1633
227.411	1869
227.477	2525
227.543	5177
227.609	4655
227.674	2647
227.740	2118
227.806	2668
227.872	1051
227.938	1525
228.003	3247
228.069	1501
228.135	1630
228.201	1791
228.267	1409
228.332	2453
228.398	2859
228.464	2850
228.530	869
228.595	1417
228.661	630
228.727	2784
228.792	2808
228.858	1084
228.924	475
228.990	3135
229.055	1357
229.121	2779
229.187	1168
229.252	1794
229.318	1143
229.384	1468
229.449	2884
229.515	-283
229.581	44
229.646	2337
229.712	1513
229.777	4608
229.843	5971
229.909	4122
229.974	3579
230.040	3677
230.105	2069
230.171	2110
230.236	3222
230.302	4593
230.368	4414
230.433	2082
230.499	2118
230.564	2477
230.630	1064
230.695	1144
230.761	2067
230.826	637
230.892	3925
230.957	1481
231.023	1781
231.088	1474
231.154	1645
231.219	1495
231.284	2171
231.350	4352
231.415	830
231.481	2021
231.546	882
231.612	1994
231.677	1160
231.742	879
231.808	2923
231.873	1105
231.939	404
232.004	4444
232.069	3925
232.135	1259
232.200	1619
232.265	1572
232.331	1586
232.396	1409
232.461	475
232.527	594
232.592	575
232.657	1441
232.723	3298
232.788	2586
232.853	1672
232.918	1473
232.984	925
233.049	1363
233.114	3124
233.179	4090
233.245	5744
233.310	6582
233.375	1116
233.440	2356
233.506	121
233.571	1516
233.636	2278
233.701	1606
233.766	3164
233.832	6311
233.897	1868
233.962	1867
234.027	4157
234.092	2467
234.157	2495
234.222	2332
234.288	4032
234.353	12264
234.418	12532
234.483	6708
234.548	4084
234.613	3210
234.678	3030
234.743	3091
234.808	13815
234.873	8831
234.938	4860
235.004	2699
235.069	2675
235.134	1802
235.199	2333
235.264	1978
235.329	683
235.394	2236
235.459	4005
235.524	2536
235.589	2511
235.654	1754
235.719	844
235.784	2778
235.849	2997
235.913	7189
235.978	7819
236.043	9121
236.108	3081
236.173	2042
236.238	3344
236.303	1168
236.368	2272
236.433	3681
236.498	8015
236.563	5053
236.627	8239
236.692	30234
236.757	25630
236.822	9878
236.887	8096
236.952	6100
237.017	3894
237.081	5840
237.146	5759
237.211	11894
237.276	27028
237.341	53046
237.405	26330
237.470	9573
237.535	8875
237.600	5190
237.664	4202
237.729	2722
237.794	3653
237.859	8430
237.923	7014
237.988	4672
238.053	6153
238.118	6848
238.182	15770
238.247	16798
238.312	7983
238.376	6511
238.441	3385
238.506	4567
238.570	708
238.635	2865
238.700	2303
238.764	1854
238.829	6807
238.893	10008
238.958	4178
239.023	4307
239.087	2088
239.152	2822
239.216	1764
239.281	1943
239.346	1979
239.410	2186
239.475	2316
239.539	15957
239.604	13463
239.668	4698
239.733	2956
239.797	2046
239.862	8172
239.926	13397
239.991	5792
240.055	3111
240.120	1811
240.184	2801
240.249	1525
240.313	1322
240.378	2379
240.442	9131
240.507	16423
240.571	4847
240.635	7564
240.700	9924
240.764	3766
240.829	3095
240.893	1712
240.957	3133
241.022	8360
241.086	17745
241.151	8346
241.215	2322
241.279	4183
241.344	8630
241.408	5599
241.472	2674
241.537	4537
241.601	2594
241.665	1021
241.730	2070
241.794	2839
241.858	2155
241.922	2312
241.987	1845
242.051	2106
242.115	848
242.179	1684
242.244	1454
242.308	2427
242.372	2828
242.436	2766
242.501	2988
242.565	1488
242.629	2011
242.693	3181
242.757	1007
242.822	1972
242.886	2870
242.950	3354
243.014	2102
243.078	3258
243.142	2778
243.206	2228
243.271	3649
243.335	3223
243.399	5043
243.463	16558
243.527	50693
243.591	16408
243.655	6509
243.719	3856
243.783	5255
243.847	7021
243.911	9360
243.975	12091
244.040	8286
244.104	4744
244.168	2960
244.232	4954
244.296	7632
244.360	8050
244.424	3863
244.488	4419
244.552	4071
244.615	1573
244.679	3400
244.743	3250
244.807	3928
244.871	2582
244.935	2823
244.999	1200
245.063	2346
245.127	4142
245.191	5372
245.255	6083
245.319	4571
245.383	3907
245.446	4088
245.510	1585
245.574	3858
245.638	3449
245.702	2657
245.766	10373
245.829	6066
245.893	3144
245.957	2618
246.021	4665
246.085	3354
246.149	4316
246.212	12368
246.276	19371
246.340	8298
246.404	6029
246.467	5971
246.531	8362
246.595	6247
246.659	5250
246.722	4016
246.786	6298
246.850	6340
246.913	9189
246.977	3960
247.041	4068
247.104	4059
247.168	4762
247.232	11604
247.295	25410
247.359	13590
247.423	6156
247.486	11073
247.550	7531
247.614	4652
247.677	6472
247.741	5085
247.804	3650
247.868	4629
247.932	9119
247.995	24829
248.059	9692
248.122	3969
248.186	6268
248.249	10073
248.313	38700
248.376	42137
248.440	27593
248.503	10523
248.567	9705
248.630	11497
248.694	16078
248.757	19087
248.821	42781
248.884	26688
248.948	21914
249.011	32525
249.075	48638
249.138	44821
249.202	17211
249.265	9866
249.328	13257
249.392	8990
249.455	7444
249.519	5403
249.582	6930
249.645	12272
249.709	9226
249.772	6070
249.835	5711
249.899	7348
249.962	6235
250.025	5285
250.089	14578
250.152	22369
250.215	10339
250.279	7935
250.342	7472
250.405	7119
250.468	5545
250.532	8098
250.595	13107
250.658	40839
250.721	80097
250.785	28320
250.848	15389
250.911	8893
250.974	8259
251.038	10657
251.101	24642
251.164	12969
251.227	12978
251.290	11841
251.354	15878
251.417	60403
251.480	66267
251.543	39989
251.606	113247
251.669	91978
251.732	33460
251.795	34307
251.859	35217
251.922	74459
251.985	46895
252.048	15893
252.111	12356
252.174	11488
252.237	21529
252.300	50927
252.363	48592
252.426	99389
252.489	44948
252.552	21837
252.615	14944
252.678	15814
252.741	36148
252.804	42924
252.867	97585
252.930	63002
252.993	34421
253.056	20554
253.119	14476
253.182	10743
253.245	17954
253.308	14602
253.371	14229
253.434	12827
253.497	11776
253.559	24120
253.622	16917
253.685	20172
253.748	22947
253.811	10825
253.874	13522
253.937	13742
254.000	9446
254.062	15495
254.125	26322
254.188	20333
254.251	20094
254.314	9213
254.376	17336
254.439	20222
254.502	17985
254.565	16317
254.628	30461
254.690	18837
254.753	9451
254.816	8610
254.878	9149
254.941	17776
255.004	20097
255.067	8785
255.129	8676
255.192	5129
255.255	3905
255.317	5356
255.380	4042
255.443	2634
255.505	3385
255.568	2836
255.631	3128
255.693	3506
255.756	2374
255.819	3313
255.881	3053
255.944	3180
256.006	3100
256.069	3473
256.132	2235
256.194	4816
256.257	14507
256.319	11642
256.382	9922
256.444	6031
256.507	3151
256.569	3391
256.632	4215
256.694	6947
256.757	15278
256.819	46484
256.882	18598
256.944	8695
257.007	6507
257.069	7914
257.132	5049
257.194	4616
257.257	3418
257.319	3035
257.381	3598
257.444	11001
257.506	50696
257.569	62019
257.631	36251
257.693	20088
257.756	10069
257.818	8653
257.880	4752
257.943	4804
258.005	3447
258.067	3417
258.130	3544
258.192	4730
258.254	12168
258.317	7592
258.379	5650
258.441	12139
258.503	15293
258.566	16692
258.628	24801
258.690	7041
258.753	5273
258.815	11108
258.877	5988
258.939	4280
259.001	3665
259.064	2923
259.126	4757
259.188	8263
259.250	4677
259.312	6488
259.375	17755
259.437	11938
259.499	5369
259.561	4248
259.623	3620
259.685	3587
259.747	5191
259.809	14168
259.872	32996
259.934	43151
259.996	40869
260.058	10873
260.120	5228
260.182	4266
260.244	3240
260.306	2102
260.368	3238
260.430	2932
260.492	6106
260.554	13511
260.616	13877
260.678	22768
260.740	36491
260.802	9256
260.864	7810
260.926	4326
260.988	5287
261.050	3623
261.112	7278
261.174	25713
261.236	27594
261.298	7855
261.359	13930
261.421	24252
261.483	5668
261.545	5930
261.607	3484
261.669	3675
261.731	9381
261.793	24435
261.854	10193
261.916	5834
261.978	3966
262.040	4717
262.102	5727
262.164	8552
262.225	8127
262.287	4236
262.349	10758
262.411	10676
262.472	4879
262.534	8809
262.596	24090
262.658	7018
262.719	4038
262.781	6725
262.843	20332
262.904	10797
262.966	5691
263.028	6660
263.090	31214
263.151	89648
263.213	28439
263.275	13626
263.336	6608
263.398	5751
263.459	3380
263.521	4385
263.583	10575
263.644	8214
263.706	2797
263.767	2010
263.829	2512
263.891	1890
263.952	1485
264.014	1648
264.075	2754
264.137	5530
264.198	5049
264.260	1992
264.321	2101
264.383	5443
264.444	12216
264.506	3644
264.567	2814
264.629	3491
264.690	4783
264.752	3737
264.813	3533
264.875	1522
264.936	2905
264.998	1589
265.059	1609
265.120	2106
265.182	4161
265.243	20994
265.305	23290
265.366	6043
265.427	3257
265.489	3570
265.550	838
265.611	3319
265.673	2690
265.734	1939
265.795	2009
265.857	1660
265.918	2010
265.979	5834
266.040	36152
266.102	33044
266.163	8901
266.224	6752
266.286	4713
266.347	2691
266.408	3224
266.469	3888
266.530	2747
266.592	2568
266.653	5825
266.714	13565
266.775	4514
266.836	2893
266.898	2050
266.959	4051
267.020	2689
267.081	3070
267.142	2537
267.203	1913
267.264	1602
267.326	4180
267.387	2463
267.448	1929
267.509	3082
267.570	2617
267.631	1700
267.692	2217
267.753	3415
267.814	1518
267.875	6291
267.936	16407
267.997	5284
268.058	5099
268.119	3215
268.180	3495
268.241	2326
268.302	2652
268.363	1629
268.424	3215
268.485	3485
268.546	1779
268.607	885
268.668	1268
268.729	1547
268.790	1800
268.851	2705
268.912	7657
268.972	12348
269.033	5778
269.094	2565
269.155	1865
269.216	2141
269.277	2629
269.338	2197
269.398	2777
269.459	3009
269.520	4752
269.581	7066
269.642	8402
269.702	4915
269.763	3974
269.824	2542
269.885	3723
269.945	7159
270.006	3000
270.067	1321
270.128	2276
270.188	2176
270.249	1879
270.310	2043
270.370	2470
270.431	2129
270.492	976
270.553	2700
270.613	6535
270.674	15791
270.734	7325
270.795	3577
270.856	5766
270.916	3286
270.977	3054
271.038	4088
271.098	4181
271.159	6245
271.219	7527
271.280	3044
271.340	2337
271.401	3475
271.462	12176
271.522	5991
271.583	3957
271.643	3378
271.704	3535
271.764	4653
271.825	10204
271.885	35637
271.946	52325
272.006	17164
272.066	19742
272.127	40821
272.187	12142
272.248	7114
272.308	7108
272.369	27649
272.429	17052
272.489	10780
272.550	11366
272.610	11600
272.671	10685
272.731	8465
272.791	15185
272.852	8473
272.912	6793
272.972	3995
273.033	4493
273.093	7511
273.153	6823
273.214	4417
273.274	5667
273.334	16111
273.394	41946
273.455	17563
273.515	14713
273.575	35009
273.635	17312
273.696	19994
273.756	41257
273.816	18079
273.876	10668
273.936	19297
273.997	38044
274.057	9832
274.117	7670
274.177	10507
274.237	43881
274.297	43959
274.358	30737
274.418	32133
274.478	25451
274.538	9419
274.598	7899
274.658	29351
274.718	42274
274.778	16737
274.838	8145
274.898	16482
274.958	55922
275.018	43406
275.078	28613
275.138	11788
275.198	6571
275.258	5609
275.318	5590
275.378	11701
275.438	13032
275.498	9396
275.558	21908
275.618	50058
275.678	31701
275.738	16475
275.798	12917
275.858	5511
275.918	3927
275.978	5067
276.038	5182
276.098	4253
276.157	8153
276.217	27989
276.277	14220
276.337	9534
276.397	4832
276.457	6745
276.517	5208
276.576	3129
276.636	3397
276.696	8343
276.756	16388
276.815	13351
276.875	5480
276.935	7511
276.995	6846
277.055	4138
277.114	3496
277.174	5855
277.234	23033
277.293	11879
277.353	5970
277.413	3977
277.472	5365
277.532	5626
277.592	7114
277.651	21140
277.711	48846
277.771	15846
277.830	49855
277.890	46596
277.950	27447
278.009	85232
278.069	35644
278.128	31115
278.188	50318
278.248	20938
278.307	49196
278.367	34921
278.426	10420
278.486	7618
278.545	5330
278.605	4810
278.664	4658
278.724	6177
278.783	13715
278.843	41481
278.902	13926
278.962	7520
279.021	9493
279.081	13905
279.140	13762
279.199	10523
279.259	9880
279.318	10546
279.378	15445
279.437	24249
279.496	79627
279.556	219877
279.615	204816
279.675	61128
279.734	32751
279.793	41729
279.853	65230
279.912	26327
279.971	14471
280.031	13314
280.090	21624
280.149	42194
280.208	36976
280.268	139658
280.327	173499
280.386	46854
280.445	29533
280.505	26459
280.564	13030
280.623	11081
280.682	13955
280.742	22092
280.801	8066
280.860	5275
280.919	4642
280.978	5174
281.037	4725
281.097	3832
281.156	5171
281.215	3799
281.274	6497
281.333	25111
281.392	23652
281.451	4450
281.510	3445
281.569	3885
281.628	3262
281.688	3415
281.747	4174
281.806	4687
281.865	3305
281.924	3155
281.983	3411
282.042	2411
282.101	2190
282.160	2851
282.219	2401
282.278	4071
282.337	13557
282.396	11001
282.454	4684
282.513	5495
282.572	21762
282.631	15087
282.690	5000
282.749	3160
282.808	5009
282.867	3998
282.926	5275
282.985	3179
283.043	2704
283.102	3218
283.161	5259
283.220	9544
283.279	26329
283.338	8939
283.396	5202
283.455	5469
283.514	5273
283.573	8748
283.631	8201
283.690	5169
283.749	3974
283.808	9381
283.866	12760
283.925	5256
283.984	3960
284.043	6505
284.101	7833
284.160	4875
284.219	6804
284.277	6269
284.336	10361
284.395	32192
284.453	30443
284.512	11263
284.570	13860
284.629	13517
284.688	12365
284.746	14095
284.805	15485
284.863	21259
284.922	26221
284.981	31183
285.039	43073
285.098	74461
285.156	157230
285.215	264613
285.273	260080
285.332	185232
285.390	100702
285.449	62046
285.507	42740
285.566	31303
285.624	24301
285.683	18121
285.741	14015
285.799	12323
285.858	10753
285.916	10193
285.975	7879
286.033	6894
286.091	6433
286.150	5873
286.208	4961
286.267	7143
286.325	6685
286.383	9645
286.442	8608
286.500	4671
286.558	5004
286.616	3993
286.675	5312
286.733	5697
286.791	5259
286.850	5612
286.908	7282
286.966	12522
287.024	6711
287.083	4001
287.141	3653
287.199	4685
287.257	5885
287.315	5132
287.374	5441
287.432	13519
287.490	9440
287.548	5409
287.606	4247
287.664	3909
287.723	5090
287.781	7187
287.839	3924
287.897	5214
287.955	7824
288.013	11094
288.071	25453
288.129	86931
288.187	267176
288.245	131768
288.303	38854
288.361	21710
288.419	15178
288.477	10701
288.535	8823
288.593	6456
288.651	4259
288.709	3117
288.767	4301
288.825	4103
288.883	2791
288.941	3836
288.999	3228
289.057	2525
289.115	1828
289.173	3053
289.231	3518
289.289	3363
289.346	3964
289.404	4052
289.462	6575
289.520	8068
289.578	4118
289.636	1409
289.694	2361
289.751	2502
289.809	2122
289.867	1565
289.925	3683
289.983	5575
290.040	2208
290.098	1531
290.156	2735
290.214	4090
290.271	2202
290.329	2707
290.387	1739
290.444	1718
290.502	278
290.560	1114
290.617	1628
290.675	1859
290.733	1697
290.790	3547
290.848	1389
290.906	2441
290.963	2468
291.021	1625
291.078	2276
291.136	2517
291.194	7346
291.251	21602
291.309	6514
291.366	2435
291.424	2203
291.481	2899
291.539	2864
291.596	3443
291.654	824
291.711	689
291.769	3106
291.826	7692
291.884	4923
291.941	2650
291.999	2434
292.056	2140
292.114	3423
292.171	1903
292.228	1680
292.286	3897
292.343	7772
292.401	9882
292.458	6294
292.515	3381
292.573	5186
292.630	4408
292.687	4916
292.745	2978
292.802	3948
292.859	9839
292.917	25246
292.974	18330
293.031	5372
293.089	3341
293.146	2291
293.203	3149
293.260	2057
293.318	4064
293.375	3524
293.432	2140
293.489	1665
293.546	2459
293.604	5338
293.661	16567
293.718	44746
293.775	22846
293.832	10905
293.889	8577
293.947	9730
294.004	6655
294.061	6285
294.118	11272
294.175	21849
294.232	18013
294.289	9092
294.346	4866
294.403	4868
294.460	4306
294.517	2809
294.574	3124
294.631	2634
294.688	4078
294.745	11188
294.802	40966
294.859	39783
294.916	16501
294.973	12038
295.030	8671
295.087	8105
295.144	4708
295.201	4523
295.258	3901
295.315	5613
295.372	17513
295.429	37277
295.486	15965
295.542	7187
295.599	9380
295.656	17886
295.713	17453
295.770	33118
295.827	13285
295.883	5971
295.940	4836
295.997	9355
296.054	9661
296.111	5194
296.167	3334
296.224	1985
296.281	1909
296.338	1617
296.394	2503
296.451	4985
296.508	13171
296.564	29524
296.621	18337
296.678	32573
296.734	56015
296.791	21705
296.848	10246
296.904	10680
296.961	23359
297.018	39029
297.074	30840
297.131	12503
297.187	9367
297.244	13123
297.301	34097
297.357	73609
297.414	27596
297.470	9973
297.527	5832
297.583	6820
297.640	6213
297.696	4729
297.753	3561
297.809	2486
297.866	2683
297.922	3585
297.979	2736
298.035	3677
298.092	7202
298.148	21540
298.204	24039
298.261	11868
298.317	15251
298.374	44683
298.430	31085
298.486	12662
298.543	10529
298.599	11195
298.656	14428
298.712	19435
298.768	37914
298.824	30035
298.881	10989
298.937	6474
298.993	5134
299.050	6194
299.106	6181
299.162	4395
299.218	6071
299.275	4277
299.331	5356
299.387	10613
299.443	38037
299.500	47709
299.556	19476
299.612	9055
299.668	8782
299.724	10018
299.780	9245
299.837	7799
299.893	10139
299.949	34479
300.005	47520
300.061	33766
300.117	58593
300.173	33353
300.229	14488
300.285	16252
300.341	20048
300.397	10898
300.453	6850
300.510	6341
300.566	6310
300.622	7449
300.678	16497
300.734	36478
300.790	35822
300.845	45257
300.901	28422
300.957	35343
301.013	32177
301.069	12986
301.125	8552
301.181	9653
301.237	8354
301.293	4916
301.349	5205
301.405	5410
301.461	7265
301.516	12004
301.572	10138
301.628	12283
301.684	12411
301.740	16978
301.796	32203
301.851	22100
301.907	29797
301.963	32795
302.019	42702
302.074	117445
302.130	126517
302.186	65036
302.242	27369
302.297	16273
302.353	14386
302.409	26459
302.464	27807
302.520	21221
302.576	43043
302.631	54135
302.687	31980
302.743	13158
302.798	7099
302.854	6007
302.910	6494
302.965	6821
303.021	14509
303.076	16490
303.132	16510
303.187	21677
303.243	11435
303.299	6127
303.354	4503
303.410	4517
303.465	4349
303.521	3901
303.576	3943
303.632	6507
303.687	11235
303.743	36280
303.798	35847
303.853	14171
303.909	6482
303.964	6394
304.020	9491
304.075	16760
304.130	14959
304.186	25103
304.241	27091
304.297	21447
304.352	10928
304.358	10426
304.407	6363
304.449	6180
304.463	6121
304.518	5550
304.539	5514
304.573	5473
304.629	5730
304.630	5810
304.684	9781
304.720	19984
304.739	25056
304.794	45277
304.811	38917
304.850	23638
304.902	11068
304.905	10272
304.960	5431
304.992	6057
305.015	6534
305.071	5751
305.083	5891
305.126	6302
305.173	3985
305.181	3619
305.236	2404
305.264	2920
305.292	3481
305.347	5457
305.354	5732
305.402	7356
305.445	6901
305.457	6792
305.512	8221
305.535	8440
305.567	8671
305.622	8236
305.626	8505
305.678	15288
305.716	30849
305.733	36313
305.788	50108
305.807	42735
305.843	30219
305.897	36031
305.898	36060
305.953	39947
305.988	26306
306.008	18975
306.063	11052
306.078	9963
306.118	7438
306.168	4893
306.173	4681
306.228	4498
306.259	4196
306.283	3991
306.338	2619
306.349	2897
306.393	4007
306.440	4661
306.448	4776
306.503	5048
306.530	4759
306.558	5279
306.613	11803
306.620	12854
306.668	21099
306.711	34153
306.723	36183
306.778	32782
306.801	25238
306.833	16230
306.888	7453
306.892	7163
306.943	5006
306.982	4014
306.997	3683
307.052	3411
307.072	3391
307.107	3669
307.162	4218
307.163	4237
307.217	5823
307.253	6425
307.272	6597
307.327	8042
307.343	7723
307.381	7000
307.434	7342
307.436	7571
307.491	13944
307.524	21398
307.546	23862
307.600	30916
307.614	28124
307.655	18057
307.704	8595
307.710	8000
307.765	7670
307.795	8584
307.819	9612
307.874	14368
307.885	14532
307.929	12804
307.975	11137
307.984	11451
308.038	16089
308.065	20516
308.093	36003
308.148	75417
308.156	85261
308.202	134668
308.246	173962
308.257	172972
308.312	95651
308.336	67161
308.366	49340
308.421	32686
308.426	31168
308.475	19622
308.517	13872
308.530	12770
308.585	10553
308.607	10127
308.639	9670
308.694	9414
308.697	9468
308.748	14384
308.787	19862
308.803	19757
308.857	16323
308.877	14324
308.912	13224
308.967	13913
308.967	13952
309.021	20002
309.058	26650
309.076	33366
309.130	58614
309.148	68861
309.185	123193
309.238	214120
309.239	214615
309.293	243807
309.328	225170
309.348	197048
309.402	95869
309.418	71464
309.457	48576
309.508	30672
309.511	30145
309.566	29652
309.598	31770
309.620	38622
309.674	60829
309.688	67239
309.729	64517
309.778	49499
309.783	48241
309.837	32712
309.868	25526
309.892	27394
309.946	36594
309.959	40277
310.001	50836
310.049	60683
310.055	58973
310.109	35816
310.139	22297
310.163	17090
310.218	9918
310.229	8830
310.272	6861
310.319	5369
310.326	5193
310.381	4395
310.409	4241
310.435	4036
310.489	3245
310.499	3234
310.543	3300
310.589	3132
310.598	3090
310.652	3192
310.679	3166
310.706	2902
310.760	2158
310.769	2108
310.814	1873
310.859	1588
310.868	1672
310.923	2135
310.948	2422
310.977	2815
311.031	3598
311.038	3700
311.085	3445
311.128	3149
311.139	3093
311.193	2887
311.218	2723
311.247	2549
311.301	2397
311.308	2381
311.356	2438
311.398	2511
311.410	2481
311.464	2205
311.488	2141
311.518	2114
311.572	2055
311.578	2060
311.626	3797
311.668	5369
311.680	5120
311.734	3865
311.758	3306
311.788	3146
311.842	2891
311.847	2875
311.896	3718
311.937	4484
311.950	4451
312.004	4317
312.027	4255
312.058	3827
312.112	3089
312.117	3025
312.165	2532
312.207	2140
312.297	2543
312.386	2921
312.476	3274
312.566	8503
312.656	3223
312.745	2987
312.835	2153
312.925	3304
313.015	2693
313.104	2984
313.194	1922
313.284	2501
313.374	3389
313.463	3978
313.553	2269
313.643	2226
313.732	1583
313.822	1108
313.912	2732
314.001	3500
314.091	2732
314.180	2896
314.270	3718
314.360	5094
314.449	4320
314.539	2084
314.628	2136
314.718	3329
314.808	3270
314.897	2231
314.987	2916
315.076	4183
315.166	4550
315.255	4012
315.345	3511
315.434	3442
315.524	3530
315.613	4371
315.703	6671
315.792	10359
315.881	31660
315.971	10543
316.060	8246
316.150	10372
316.239	8586
316.328	3728
316.418	2346
316.507	2674
316.597	3886
316.686	3749
316.775	4660
316.865	9415
316.954	2799
317.043	1897
317.133	1881
317.222	2010
317.311	2256
317.400	2076
317.490	4878
317.579	5278
317.668	3777
317.757	7457
317.847	16695
317.936	59262
318.025	21627
318.114	12292
318.203	6997
318.293	8402
318.382	14498
318.471	11080
318.560	13118
318.649	18651
318.738	5026
318.828	4821
318.917	5376
319.006	5023
319.095	11062
319.184	28377
319.273	20541
319.362	13291
319.451	4728
319.540	4482
319.629	11945
319.718	18005
319.807	6117
319.896	11187
319.985	37634
320.074	14885
320.163	4421
320.252	6451
320.341	4414
320.430	4237
320.519	8084
320.608	4755
320.697	3236
320.786	3473
320.875	5569
320.964	8731
321.053	12755
321.142	19015
321.230	18658
321.319	13197
321.408	30517
321.497	11599
321.586	12350
321.675	11015
321.764	10673
321.852	7460
321.941	17337
322.030	11414
322.119	11812
322.207	32761
322.296	14805
322.385	8244
322.474	12679
322.562	41977
322.651	17041
322.740	15597
322.829	18832
322.917	14811
323.006	10562
323.095	10188
323.183	5617
323.272	10174
323.361	16426
323.449	45515
323.538	14613
323.626	30648
323.715	17214
323.804	7484
323.892	26480
323.981	16471
324.069	5298
324.158	13444
324.246	12047
324.335	6608
324.424	12024
324.512	4376
324.601	8295
324.689	23916
324.778	42277
324.866	12840
324.954	3333
325.043	3300
325.131	6480
325.220	9800
325.308	10854
325.397	9564
325.485	4981
325.574	3172
325.662	2171
325.750	2853
325.839	2972
325.927	2003
326.015	2770
326.104	4528
326.192	5526
326.280	2652
326.369	3268
326.457	4837
326.545	9399
326.634	3296
326.722	2121
326.810	2207
326.898	2501
326.987	3269
327.075	8562
327.163	7441
327.251	4812
327.340	16070
327.428	22487
327.516	3802
327.604	2791
327.692	3022
327.781	2598
327.869	4520
327.957	2575
328.045	4528
328.133	2049
328.221	2614
328.309	2328
328.397	2511
328.485	3861
328.574	5878
328.662	22130
328.750	9544
328.838	3057
328.926	2606
329.014	1291
329.102	3980
329.190	8165
329.278	5374
329.366	1446
329.454	1576
329.542	827
329.630	683
329.718	2124
329.806	3129
329.893	1721
329.981	2902
330.069	4869
330.157	17573
330.245	50896
330.333	24556
330.421	4673
330.509	7074
330.597	26795
330.684	15363
330.772	4373
330.860	3868
330.948	4445
331.036	2787
331.123	1215
331.211	1469
331.299	2386
331.387	4039
331.475	7603
331.562	3119
331.650	1158
331.738	2116
331.825	2638
331.913	1626
332.001	782
332.089	2726
332.176	4154
332.264	11673
332.352	9144
332.439	3904
332.527	1859
332.614	1956
332.702	2661
332.790	2203
332.877	5980
332.965	14452
333.052	4787
333.140	6550
333.228	16291
333.315	3522
333.403	2810
333.490	7489
333.578	8399
333.665	23535
333.753	8139
333.840	2294
333.928	2926
334.015	8768
334.103	12196
334.190	35383
334.278	8338
334.365	4560
334.452	3722
334.540	2206
334.627	2859
334.715	4904
334.802	9948
334.889	50649
334.977	49874
335.064	8448
335.151	3131
335.239	3591
335.326	3926
335.413	17284
335.501	21911
335.588	3787
335.675	2944
335.762	3379
335.850	4545
335.937	5545
336.024	13918
336.111	51661
336.199	21912
336.286	5608
336.373	2347
336.460	1656
336.547	1955
336.635	2872
336.722	3498
336.809	2434
336.896	4618
336.983	12360
337.070	26726
337.157	37729
337.245	30822
337.332	20963
337.419	2388
337.506	1555
337.593	2078
337.680	6936
337.767	18810
337.854	6541
337.941	7683
338.028	10748
338.115	3471
338.202	4150
338.289	8074
338.376	31060
338.463	8727
338.550	11975
338.637	11488
338.724	5357
338.811	8376
338.898	2416
338.984	1140
339.071	2671
339.158	3410
339.245	12249
339.332	6647
339.419	6429
339.506	5659
339.593	684
339.679	1657
339.766	2747
339.853	3545
339.940	8760
340.027	2560
340.113	2933
340.200	4244
340.287	2801
340.374	3721
340.460	7901
340.547	2362
340.634	7302
340.720	27441
340.807	13486
340.894	3243
340.980	2537
341.067	2434
341.154	3459
341.240	5006
341.327	12675
341.414	5664
341.500	5677
341.587	3238
341.674	2580
341.760	8915
341.847	9621
341.933	2633
342.020	1148
342.106	1734
342.193	3229
342.279	5788
342.366	4407
342.452	8715
342.539	5033
342.625	11712
342.712	29110
342.798	11323
342.885	4416
342.971	726
343.058	1174
343.144	1835
343.230	1973
343.317	3039
343.403	2649
343.490	1577
343.576	1480
343.662	1590
343.749	3179
343.835	4565
343.921	10411
344.008	64287
344.094	133876
344.180	26998
344.267	10989
344.353	35332
344.439	32135
344.525	11995
344.612	6027
344.698	4344
344.784	2728
344.870	1660
344.957	1785
345.043	3849
345.129	2983
345.215	7377
345.301	5120
345.387	2546
345.474	819
345.560	2069
345.646	1622
345.732	2161
345.818	3355
345.904	3028
345.990	3181
346.076	2705
346.162	6112
346.249	2816
346.335	1337
346.421	3442
346.507	15225
346.593	52561
346.679	10365
346.765	2545
346.851	2055
346.937	1441
347.023	3359
347.108	2806
347.194	2645
347.280	2499
347.366	4194
347.452	16527
347.538	65302
347.624	44206
347.710	31004
347.796	3654
347.882	2416
347.967	960
348.053	2058
348.139	1303
348.225	1636
348.311	1346
348.397	1829
348.482	2508
348.568	3389
348.654	1524
348.740	2264
348.825	2598
348.911	7010
348.997	31093
349.083	55344
349.168	7010
349.254	3642
349.340	3362
349.425	1565
349.511	3246
349.597	3713
349.682	9756
349.768	34774
349.854	13370
349.939	2076
350.025	1501
350.110	1962
350.196	1866
350.282	1498
350.367	1336
350.453	2993
350.538	2239
350.624	3330
350.709	2845
350.795	1456
350.880	817
350.966	2766
351.051	3740
351.137	2243
351.222	2690
351.308	10259
351.393	27656
351.479	7141
351.564	2503
351.649	2272
351.735	1437
351.820	1736
351.906	1147
351.991	3814
352.076	18628
352.162	25619
352.247	4478
352.332	2969
352.418	9103
352.503	12014
352.588	42544
352.673	30681
352.759	6873
352.844	2773
352.929	3648
353.014	4970
353.100	3714
353.185	6505
353.270	8849
353.355	9253
353.441	1830
353.526	2488
353.611	8416
353.696	10099
353.781	5633
353.866	2887
353.952	3226
354.037	9094
354.122	20762
354.207	17587
354.292	5412
354.377	2250
354.462	2061
354.547	3436
354.632	2837
354.717	4337
354.802	6001
354.887	2707
354.972	1791
355.057	1667
355.142	353
355.227	3201
355.312	5557
355.397	14319
355.482	32669
355.567	14635
355.652	11129
355.737	12817
355.822	41873
355.907	30203
355.991	5211
356.076	2081
356.161	2174
356.246	2264
356.331	3320
356.416	9740
356.501	73219
356.585	67586
356.670	8863
356.755	6498
356.840	10076
356.924	49702
357.009	168934
357.094	55520
357.179	11084
357.263	6994
357.348	7320
357.433	7334
357.517	6070
357.602	4686
357.687	4706
357.771	11946
357.856	39916
357.941	21128
358.025	38617
358.110	159375
358.195	64935
358.279	8934
358.364	7489
358.448	28706
358.533	74137
358.617	51403
358.702	51758
358.787	17571
358.871	10036
358.956	7320
359.040	2512
359.125	2172
359.209	3792
359.294	19686
359.378	31460
359.462	9022
359.547	3890
359.631	2386
359.716	1292
359.800	1854
359.885	3315
359.969	2443
360.053	2693
360.138	2207
360.222	4438
360.306	9851
360.391	8043
360.475	22308
360.559	41708
360.644	29732
360.728	19553
360.812	40996
360.896	104913
360.981	36492
361.065	14766
361.149	5308
361.233	4238
361.318	3090
361.402	4482
361.486	4094
361.570	2912
361.654	5348
361.739	15357
361.823	70829
361.907	103115
361.991	16536
362.075	8683
362.159	19124
362.243	12756
362.327	10178
362.411	14263
362.495	7295
362.580	3593
362.664	3036
362.748	1669
362.832	3259
362.916	4364
363.000	22885
363.084	82534
363.168	117156
363.252	23378
363.336	8732
363.420	9812
363.503	25978
363.587	26923
363.671	6399
363.755	5213
363.839	8961
363.923	3410
364.007	9571
364.091	9494
364.175	10545
364.258	41755
364.342	29785
364.426	43095
364.510	22667
364.594	10658
364.677	19164
364.761	92784
364.845	59992
364.929	17739
365.013	14066
365.096	11593
365.180	12026
365.264	11172
365.347	40886
365.431	14595
365.515	4083
365.598	2277
365.682	3112
365.766	2789
365.849	3834
365.933	2329
366.017	4415
366.100	1790
366.184	815
366.267	2774
366.351	1918
366.435	1323
366.518	1099
366.602	1205
366.685	2634
366.769	2899
366.852	3750
366.936	7971
367.019	5623
367.103	1802
367.186	4539
367.270	1221
367.353	727
367.436	1897
367.520	1377
367.603	3312
367.687	5413
367.770	10331
367.853	6330
367.937	26610
368.020	40576
368.104	7591
368.187	8880
368.270	11964
368.353	9877
368.437	10931
368.520	20197
368.603	15246
368.687	30069
368.770	53485
368.853	11700
368.936	10162
369.020	6926
369.103	2682
369.186	1317
369.269	1994
369.352	7916
369.436	9813
369.519	5832
369.602	1356
369.685	4510
369.768	2761
369.851	3089
369.934	545
370.018	3772
370.101	8740
370.184	7384
370.267	4073
370.350	7645
370.433	13445
370.516	47002
370.599	56532
370.682	14882
370.765	27347
370.848	35845
370.931	66950
371.014	21515
371.097	3336
371.180	3464
371.263	2410
371.346	616
371.429	2662
371.511	2399
371.594	5253
371.677	8139
371.760	7247
371.843	10169
371.926	58409
372.009	125161
372.091	36203
372.174	26371
372.257	65665
372.340	22767
372.423	11795
372.505	10507
372.588	5741
372.671	22257
372.754	68802
372.836	30954
372.919	12827
373.002	19930
373.085	8009
373.167	10790
373.250	29264
373.332	63809
373.415	89597
373.498	175987
373.580	57700
373.663	89012
373.746	110544
373.828	21460
373.911	9128
373.993	7808
374.076	20318
374.159	17728
374.241	15132
374.324	56434
374.406	34356
374.489	55832
374.571	148869
374.654	54305
374.736	29150
374.819	91712
374.901	131297
374.983	125321
375.066	19472
375.148	6434
375.231	17799
375.313	33161
375.395	11425
375.478	4009
375.560	3729
375.643	5652
375.725	26874
375.807	115526
375.890	73166
375.972	20632
376.054	12322
376.136	16234
376.219	8980
376.301	34746
376.383	98013
376.465	33387
376.548	19572
376.630	27955
376.712	83176
376.794	34815
376.877	4180
376.959	1577
377.041	2116
377.123	3581
377.205	3547
377.287	826
377.369	2078
377.452	2099
377.534	1717
377.616	1951
377.698	1898
377.780	1638
377.862	2218
377.944	3038
378.026	520
378.108	2300
378.190	1569
378.272	1771
378.354	1088
378.436	960
378.518	3255
378.600	10505
378.682	13679
378.764	38737
378.846	27123
378.928	6673
379.010	10410
379.091	5772
379.173	2551
379.255	1850
379.337	4145
379.419	19027
379.501	55615
379.583	18855
379.664	4035
379.746	13250
379.828	36964
379.910	50736
379.991	42909
380.073	6213
380.155	3810
380.237	3091
380.318	2024
380.400	2521
380.482	8363
380.564	11800
380.645	10604
380.727	10242
380.809	5895
380.890	4241
380.972	2712
381.053	2658
381.135	4341
381.217	13786
381.298	38743
381.380	16790
381.461	17592
381.543	84809
381.624	95861
381.706	16037
381.787	6365
381.869	9053
381.951	37992
382.032	141248
382.113	79109
382.195	13423
382.276	11070
382.358	27056
382.439	75689
382.521	86399
382.602	130367
382.684	55413
382.765	105514
382.846	119173
382.928	190616
383.009	95966
383.090	66625
383.172	267543
383.253	384618
383.334	121372
383.416	119863
383.497	56247
383.578	27334
383.659	55538
383.741	223951
383.822	563387
383.903	262080
383.984	88419
384.066	138938
384.147	79177
384.228	16320
384.309	11551
384.390	8399
384.471	6420
384.553	7215
384.634	9628
384.715	10077
384.796	5144
384.877	8166
384.958	36337
385.039	41114
385.120	12487
385.201	6822
385.282	5865
385.363	5580
385.444	6361
385.525	15684
385.606	57385
385.687	46892
385.768	9508
385.849	11959
385.930	64383
386.011	104831
386.092	24301
386.173	4506
386.254	3208
386.335	4164
386.416	4903
386.496	21745
386.577	36007
386.658	8826
386.739	4784
386.820	3664
386.901	2557
386.981	3553
387.062	3219
387.143	7757
387.224	37299
387.304	31843
387.385	9869
387.466	3835
387.547	6450
387.627	4354
387.708	14825
387.789	69061
387.869	81412
387.950	19451
388.031	1955
388.111	-343
388.192	5027
388.273	7085
388.353	5615
388.434	4109
388.514	13401
388.595	70123
388.676	84441
388.756	35565
388.837	34053
388.917	18132
388.998	2418
389.078	3388
389.159	3048
389.239	1386
389.320	6833
389.400	3611
389.480	14092
389.561	38553
389.641	17904
389.722	5624
389.802	9116
389.883	16519
389.963	49810
390.043	23848
390.124	4566
390.204	12862
390.284	41780
390.365	22592
390.445	21902
390.525	73166
390.605	65684
390.686	18193
390.766	6989
390.846	3737
390.927	2292
391.007	1452
391.087	2729
391.167	2559
391.247	986
391.328	4280
391.408	5521
391.488	3852
391.568	715
391.648	3239
391.728	6684
391.808	6346
391.888	7845
391.969	22026
392.049	33260
392.129	11094
392.209	17252
392.289	45000
392.369	19410
392.449	9289
392.529	7459
392.609	9087
392.689	13229
392.769	45741
392.849	35670
392.929	22281
393.009	57550
393.089	42675
393.169	36308
393.248	127578
393.328	520053
393.408	521782
393.488	120532
393.568	31389
393.648	15346
393.728	9564
393.807	7098
393.887	6623
393.967	6724
394.047	7100
394.127	7998
394.206	15119
394.286	60189
394.366	276207
394.446	267788
394.525	50278
394.605	12061
394.685	8356
394.764	14641
394.844	22539
394.924	16053
395.003	7182
395.083	6298
395.163	4364
395.242	5148
395.322	4708
395.402	2482
395.481	5576
395.561	11323
395.640	28227
395.720	26310
395.799	28684
395.879	22543
395.958	18903
396.038	86909
396.117	361391
396.197	357041
396.276	81763
396.356	23310
396.435	14012
396.515	11579
396.594	16532
396.673	34651
396.753	147351
396.832	475619
396.912	322807
396.991	69616
397.070	17710
397.150	8930
397.229	7320
397.308	8429
397.388	12733
397.467	6912
397.546	3783
397.625	1798
397.705	5049
397.784	5187
397.863	1976
397.942	1096
398.022	1102
398.101	6435
398.180	19931
398.259	9074
398.338	4230
398.417	3205
398.497	1676
398.576	2267
398.655	248
398.734	1825
398.813	1407
398.892	7567
398.971	23612
399.050	9841
399.129	-191
399.208	700
399.287	966
399.366	401
399.445	239
399.524	1532
399.603	496
399.682	4705
399.761	11335
399.840	28817
399.919	18981
399.998	2092
400.077	185
400.156	-242
400.235	2340
400.313	27
400.392	1691
400.471	19571
400.550	29956
400.629	5743
400.708	2015
400.786	790
400.865	2708
400.944	4226
401.023	3243
401.102	110
401.180	-59
401.259	980
401.338	-355
401.416	2876
401.495	1149
401.574	1337
401.652	-232
401.731	2729
401.810	862
401.888	595
401.967	-910
402.046	536
402.124	1959
402.203	2233
402.281	1473
402.360	1256
402.438	5012
402.517	2682
402.596	377
402.674	419
402.753	-271
402.831	964
402.910	2677
402.988	12635
403.066	45423
403.145	23835
403.223	14363
403.302	35660
403.380	24820
403.459	24584
403.537	7361
403.615	1649
403.694	-919
403.772	506
403.850	88
403.929	27
404.007	-479
404.085	4419
404.164	4441
404.242	407
404.320	2559
404.398	7099
404.477	22671
404.555	109183
404.633	83952
404.711	11632
404.789	2385
404.868	996
404.946	-466
405.024	889
405.102	-167
405.180	393
405.258	-1079
405.336	1045
405.415	-727
405.493	2987
405.571	2983
405.649	-660
405.727	-211
405.805	2357
405.883	1194
405.961	992
406.039	626
406.117	-664
406.195	3630
406.273	24452
406.351	89333
406.429	45149
406.507	4498
406.585	1180
406.663	2178
406.740	3828
406.818	1613
406.896	811
406.974	1918
407.052	6440
407.130	51738
407.208	66516
407.285	10954
407.363	1067
407.441	840
407.519	1214
407.596	1004
407.674	7017
407.752	22425
407.830	17918
407.907	4614
407.985	1264
408.063	407
408.141	-493
408.218	1716
408.296	649
408.373	983
408.451	1670
408.529	1139
408.606	-187
408.684	-220
408.762	-185
408.839	-435
408.917	190
408.994	66
409.072	-1029
409.149	-746
409.227	976
409.304	1631
409.382	401
409.459	779
409.537	3746
409.614	3285
409.692	753
409.769	1229
409.846	3881
409.924	4872
410.001	1202
410.079	1914
410.156	1918
410.233	908
410.311	588
410.388	-690
410.465	1136
410.543	-258
410.620	816
410.697	1295
410.775	2084
410.852	-816
410.929	1636
411.006	2312
411.083	445
411.161	3127
411.238	3703
411.315	96
411.392	586
411.469	2505
411.547	1636
411.624	-1059
411.701	285
411.778	1221
411.855	5100
411.932	1428
412.009	330
412.086	-184
412.163	502
412.240	454
412.317	836
412.394	41
412.471	2
412.548	-428
412.625	457
412.702	1706
412.779	2465
412.856	329
412.933	-539
413.010	-263
413.087	3099
413.164	17748
413.241	24322
413.318	4021
413.395	3616
413.471	3673
413.548	885
413.625	-601
413.702	737
413.779	90
413.855	-196
413.932	-1422
414.009	-1408
414.086	-39
414.162	210
414.239	2010
414.316	17708
414.393	40174
414.469	11113
414.546	164
414.623	455
414.699	-336
414.776	752
414.853	-1509
414.929	655
415.006	-48
415.082	474
415.159	-45
415.236	-62
415.312	805
415.389	2754
415.465	4137
415.542	1055
415.618	797
415.695	3132
415.771	1299
415.848	1180
415.924	666
416.000	-427
416.077	914
416.153	-853
416.230	-1218
416.306	-657
416.383	-987
416.459	-310
416.535	-672
416.612	-685
416.688	-358
416.764	-507
416.841	-924
416.917	-614
416.993	241
417.069	691
417.146	585
417.222	1728
417.298	1449
417.374	375
417.451	426
417.527	1109
417.603	1300
417.679	260
417.755	48
417.831	-471
417.908	-819
417.984	-19
418.060	-1014
418.136	3840
418.212	4461
418.288	414
418.364	-186
418.440	-411
418.516	1095
418.592	994
418.668	5846
418.744	11315
418.820	7321
418.896	877
418.972	-968
419.048	114
419.124	4700
419.200	2262
419.276	317
419.352	-582
419.428	-435
419.504	3
419.579	1307
419.655	945
419.731	801
419.807	7613
419.883	13844
419.959	8226
420.034	962
420.110	5654
420.186	25687
420.262	17492
420.337	1915
420.413	1070
420.489	-615
420.565	961
420.640	-479
420.716	841
420.792	-1305
420.867	1178
420.943	387
421.019	3166
421.094	1225
421.170	768
421.245	-759
421.321	976
421.397	-256
421.472	4068
421.548	11903
421.623	7555
421.699	1927
421.774	1978
421.850	867
421.925	4736
422.001	3547
422.076	2661
422.152	3599
422.227	6724
422.302	7261
422.378	11974
422.453	20538
422.529	55471
422.604	175424
422.679	300413
422.755	175347
422.830	56671
422.905	21119
422.981	11575
423.056	6200
423.131	4775
423.207	3379
423.282	4287
423.357	8129
423.432	5357
423.508	5356
423.583	12831
423.658	8621
423.733	2026
423.808	1959
423.883	3465
423.959	2298
424.034	1985
424.109	1014
424.184	-26
424.259	266
424.334	665
424.409	144
424.484	583
424.559	324
424.634	698
424.709	1693
424.784	2610
424.859	1530
424.934	2817
425.009	17382
425.084	30178
425.159	9067
425.234	1434
425.309	1268
425.384	14132
425.459	21262
425.534	5888
425.609	-18
425.683	-76
425.758	-21
425.833	894
425.908	1711
425.983	10489
426.058	30704
426.132	11591
426.207	761
426.282	2776
426.357	630
426.431	-420
426.506	312
426.581	-658
426.655	320
426.730	1164
426.805	-28
426.879	508
426.954	318
427.029	4659
427.103	32280
427.178	77190
427.253	30136
427.327	3256
427.402	6509
427.476	20858
427.551	10567
427.625	1090
427.700	-160
427.774	-648
427.849	-172
427.923	330
427.998	-113
428.072	227
428.147	2952
428.221	19612
428.296	55646
428.370	27008
428.444	2440
428.519	1122
428.593	3574
428.667	3305
428.742	3948
428.816	6600
428.890	33427
428.965	60842
429.039	20527
429.113	5832
429.188	1509
429.262	111
429.336	3678
429.410	14799
429.485	7268
429.559	3646
429.633	1991
429.707	655
429.781	4742
429.855	32071
429.930	52005
430.004	21812
430.078	22116
430.152	27530
430.226	78392
430.300	75213
430.374	11492
430.448	3116
430.522	7764
430.596	23312
430.670	20005
430.744	75569
430.818	106103
430.892	20694
430.966	2434
431.040	1310
431.114	-85
431.188	-1042
431.262	-182
431.336	189
431.410	2574
431.484	6964
431.557	5596
431.631	750
431.705	1399
431.779	9845
431.853	48442
431.927	33073
432.000	3960
432.074	480
432.148	669
432.222	388
432.295	-191
432.369	247
432.443	2991
432.516	31317
432.590	77433
432.664	26287
432.737	2245
432.811	-424
432.885	-1260
432.958	546
433.032	-1628
433.106	-764
433.179	-475
433.253	-476
433.326	-645
433.400	-145
433.473	-1254
433.547	-1316
433.620	-17
433.694	2360
433.767	3020
433.841	36
433.914	-119
433.988	900
434.061	113
434.134	-234
434.208	-316
434.281	-1152
434.355	-1072
434.428	619
434.501	-269
434.575	-1211
434.648	-778
434.721	-290
434.795	-691
434.868	-642
434.941	-945
435.014	-1454
435.088	48
435.161	3203
435.234	5560
435.307	4500
435.381	1424
435.454	721
435.527	1595
435.600	804
435.673	519
435.746	481
435.819	-94
435.892	-351
435.966	-214
436.039	-837
436.112	-95
436.185	-457
436.258	-1425
436.331	-1609
436.404	-1482
436.477	-1586
436.550	-1191
436.623	-77
436.696	-788
436.769	10
436.842	-478
436.915	426
436.987	285
437.060	-511
437.133	-687
437.206	20
437.279	-434
437.352	-380
437.425	-768
437.498	286
437.570	2905
437.643	3383
437.716	-204
437.789	257
437.861	2530
437.934	8486
438.007	4831
438.080	-361
438.152	788
438.225	5363
438.298	45892
438.370	120265
438.443	46613
438.516	10466
438.588	2115
438.661	-79
438.734	525
438.806	753
438.879	1007
438.951	1819
439.024	3448
439.096	920
439.169	151
439.241	-81
439.314	-676
439.386	232
439.459	631
439.531	3580
439.604	1526
439.676	589
439.749	-1556
439.821	-746
439.893	-227
439.966	235
440.038	224
440.110	976
440.183	136
440.255	152
440.327	2701
440.400	16776
440.472	74224
440.544	47154
440.617	6049
440.689	3421
440.761	4792
440.833	8415
440.905	4926
440.978	85
441.050	-606
441.122	222
441.194	-400
441.266	-196
441.338	422
441.411	3486
441.483	23058
441.555	34237
441.627	7330
441.699	1581
441.771	909
441.843	-174
441.915	-541
441.987	128
442.059	-108
442.131	683
442.203	2547
442.275	2905
442.347	2312
442.419	5368
442.491	25503
442.563	67499
442.635	33599
442.706	12242
442.778	10857
442.850	2366
442.922	196
442.994	1304
443.066	2048
443.137	2501
443.209	1368
443.281	3497
443.353	7868
443.425	34736
443.496	125512
443.568	128377
443.640	50042
443.711	10678
443.783	2787
443.855	2275
443.926	1123
443.998	745
444.070	438
444.141	1755
444.213	3653
444.285	5129
444.356	2628
444.428	1995
444.499	-590
444.571	37
444.642	962
444.714	1163
444.785	3456
444.857	2623
444.928	5163
445.000	3378
445.071	3723
445.143	5867
445.214	5534
445.285	7582
445.357	21482
445.428	86873
445.500	200623
445.571	131930
445.642	70091
445.714	25366
445.785	14538
445.856	6639
445.928	5733
445.999	5868
446.070	4549
446.141	3891
446.213	5421
446.284	1867
446.355	1897
446.426	755
446.497	1072
446.569	1704
446.640	4416
446.711	4126
446.782	930
446.853	1437
446.924	1515
446.995	1843
447.066	501
447.138	1672
447.209	738
447.280	61
447.351	88
447.422	-300
447.493	375
447.564	3080
447.635	3972
447.706	1766
447.777	-251
447.847	-656
447.918	-320
447.989	992
448.060	2453
448.131	2641
448.202	4853
448.273	5176
448.344	1404
448.414	821
448.485	525
448.556	371
448.627	82
448.698	1097
448.768	-225
448.839	276
448.910	1214
448.981	2936
449.051	1590
449.122	582
449.193	-198
449.263	-67
449.334	689
449.405	1892
449.475	5640
449.546	4621
449.616	3083
449.687	3643
449.758	3115
449.828	227
449.899	413
449.969	300
450.040	391
450.110	961
450.181	411
450.251	550
450.322	346
450.392	1228
450.463	885
450.533	757
450.604	48
450.674	86
450.744	664
450.815	797
450.885	1111
450.955	884
451.026	109
451.096	-152
451.166	599
451.237	2739
451.307	6644
451.377	3176
451.447	826
451.518	901
451.588	-208
451.658	1508
451.728	1623
451.799	6883
451.869	8203
451.939	3113
452.009	797
452.079	27
452.149	28
452.219	1839
452.289	8193
452.360	7893
452.430	1659
452.500	1582
452.570	2456
452.640	4365
452.710	9969
452.780	14016
452.850	15072
452.920	15595
452.990	4911
453.060	2443
453.129	3694
453.199	4300
453.269	11454
453.339	25783
453.409	40159
453.479	34564
453.549	51078
453.619	52388
453.688	25279
453.758	4478
453.828	580
453.898	463
453.968	1158
454.037	1083
454.087	1133
454.107	1143
454.168	1142
454.177	1133
454.247	612
454.249	605
454.316	181
454.330	368
454.386	1063
454.411	2363
454.456	4427
454.492	5563
454.525	6573
454.574	4810
454.595	4052
454.655	2038
454.665	1713
454.734	1522
454.736	1580
454.804	3063
454.817	4143
454.873	8299
454.898	8983
454.943	10054
454.979	6728
455.013	3843
455.060	2607
455.082	2119
455.141	2141
455.152	2117
455.221	6085
455.222	6200
455.291	13108
455.303	12864
455.360	11376
455.384	13946
455.430	17928
455.465	14458
455.499	11263
455.546	9004
455.569	7848
455.627	6674
455.638	6520
455.707	2576
455.708	2578
455.777	575
455.789	662
455.846	1006
455.869	1128
455.916	1553
455.950	1720
455.985	1713
456.031	1590
456.054	1506
456.112	1389
456.124	1385
456.193	821
456.193	810
456.262	1118
456.274	1352
456.332	2229
456.355	2376
456.401	2602
456.436	2126
456.470	1551
456.516	1358
456.540	1301
456.597	1315
456.609	1303
456.678	1356
456.678	1350
456.747	1105
456.759	1147
456.817	1362
456.840	1284
456.886	874
456.920	1086
456.955	1419
457.001	1402
457.024	1395
457.082	1593
457.093	1664
457.162	2933
457.163	2948
457.232	2802
457.243	2616
457.301	1697
457.324	1390
457.370	1020
457.405	1266
457.439	1578
457.485	1705
457.508	1753
457.566	1979
457.577	2042
457.646	3023
457.647	3043
457.715	5779
457.727	6345
457.784	9810
457.808	12530
457.853	15728
457.889	18385
457.922	18683
457.969	13771
457.991	14073
458.050	16788
458.060	17279
458.129	26706
458.130	26991
458.198	25685
458.211	23629
458.267	16065
458.292	11530
458.336	7344
458.372	6466
458.405	7974
458.453	12040
458.474	14983
458.533	25912
458.543	26744
458.611	43627
458.614	43943
458.680	31022
458.694	25220
458.749	13456
458.775	9647
458.818	4986
458.855	4338
458.887	3714
458.936	2651
458.955	2426
459.016	2443
459.024	2465
459.093	3247
459.097	3252
459.162	3058
459.177	3097
459.230	3249
459.257	3757
459.299	4385
459.338	4300
459.368	4217
459.418	4644
459.437	4544
459.499	3789
459.505	3810
459.574	3490
459.579	3460
459.643	2424
459.659	2333
459.711	2301
459.740	2327
459.780	2697
459.820	3218
459.849	3288
459.900	3137
459.917	3215
459.981	3815
459.986	3856
460.054	4043
460.061	4170
460.123	4663
460.141	4428
460.191	5114
460.222	5893
460.260	6093
460.302	6678
460.328	6403
460.382	5482
460.397	5420
460.462	3503
460.465	3523
460.534	5553
460.543	5837
460.602	14175
460.623	17588
460.671	26977
460.703	36879
460.739	35891
460.783	30536
460.808	27271
460.864	8900
460.876	6886
460.944	3133
460.945	3098
461.013	2945
461.024	2946
461.081	3758
461.104	4282
461.150	3847
461.184	3344
461.218	3564
461.264	3581
461.286	3474
461.345	3505
461.355	3405
461.423	3256
461.425	3225
461.491	3052
461.505	3164
461.559	5542
461.585	6846
461.628	8605
461.665	10502
461.696	11379
461.745	13512
461.764	12599
461.825	6047
461.832	5905
461.901	4424
461.905	4452
461.969	3288
461.985	3026
462.037	3564
462.065	3713
462.105	3821
462.145	4087
462.173	4637
462.225	5638
462.241	5980
462.305	8699
462.310	8596
462.378	5869
462.385	5379
462.446	4641
462.465	4654
462.514	4577
462.545	4976
462.582	5174
462.625	5180
462.650	4797
462.705	3783
462.718	3700
462.785	3060
462.786	3075
462.854	4116
462.865	4273
462.922	4965
462.945	5627
462.990	5001
463.025	3595
463.058	3294
463.104	3299
463.126	3265
463.184	3213
463.194	3202
463.262	3254
463.264	3255
463.330	3690
463.344	3819
463.398	3873
463.424	3736
463.466	3492
463.504	3510
463.533	3918
463.583	4217
463.601	4142
463.663	3855
463.669	3952
463.737	5584
463.743	5730
463.805	7538
463.823	7992
463.873	10040
463.903	11651
463.940	12023
463.982	12358
464.008	10595
464.062	5870
464.076	5612
464.142	3549
464.144	3522
464.211	3810
464.221	3800
464.279	4091
464.301	4354
464.347	4589
464.381	4713
464.414	5034
464.461	5457
464.482	6691
464.540	10104
464.550	10272
464.617	11495
464.620	11533
464.685	9408
464.699	8725
464.753	8874
464.779	8995
464.820	8585
464.859	8390
464.888	7777
464.938	6572
464.956	6862
465.018	7995
465.023	8065
465.091	8840
465.098	8911
465.158	9568
465.177	9822
465.226	9430
465.257	9091
465.293	7954
465.336	6439
465.361	7308
465.416	9352
465.428	9537
465.495	10836
465.496	10860
465.563	12753
465.575	13084
465.631	15187
465.654	16335
465.698	12225
465.734	8130
465.765	7380
465.813	6187
465.833	6093
465.893	6250
465.900	6229
465.968	6127
465.972	6100
466.035	5721
466.052	5668
466.102	6130
466.131	6326
466.170	6388
466.210	6459
466.237	6811
466.290	7565
466.304	7716
466.369	8216
466.372	8247
466.439	8967
466.449	9056
466.506	9601
466.528	9808
466.573	11561
466.607	12826
466.641	16147
466.687	20847
466.708	22738
466.766	28036
466.775	26433
466.842	14029
466.845	13422
466.909	10940
466.925	10403
466.977	9307
467.004	8772
467.044	9161
467.083	9538
467.111	10295
467.163	11716
467.178	12068
467.242	13480
467.245	13397
467.312	11394
467.321	11121
467.379	10581
467.400	10361
467.446	10827
467.480	11146
467.559	9833
467.638	9139
467.717	9362
467.796	10817
467.875	11817
467.955	9551
468.034	11841
468.113	20658
468.192	28306
468.271	11362
468.350	10119
468.429	12192
468.508	12003
468.588	10656
468.667	8299
468.746	8741
468.825	8099
468.904	7839
468.983	8351
469.062	10433
469.141	12720
469.220	6641
469.299	7355
469.378	8724
469.456	10519
469.535	9897
469.614	9659
469.693	8248
469.772	11345
469.851	12844
469.930	11168
470.009	9110
470.088	10496
470.166	15351
470.245	27728
470.324	35332
470.403	20084
470.482	12653
470.560	9716
470.639	9401
470.718	12643
470.797	8983
470.875	8724
470.954	12273
471.033	12529
471.111	6911
471.190	6531
471.269	6877
471.347	7326
471.426	5968
471.505	6925
471.583	7682
471.662	8405
471.740	7496
471.819	9121
471.898	7220
471.976	7681
472.055	6473
472.133	7378
472.212	9262
472.290	8079
472.369	6430
472.447	6695
472.526	6052
472.604	7008
472.683	8291
472.761	8649
472.839	6502
472.918	7211
472.996	6527
473.075	8410
473.153	6920
473.231	6889
473.310	7701
473.388	8048
473.466	6810
473.545	9964
473.623	14144
473.701	13858
473.780	7591
473.858	5997
473.936	8242
474.014	7161
474.093	8251
474.171	8982
474.249	10528
474.327	8189
474.405	6593
474.484	7100
474.562	6999
474.640	5723
474.718	6705
474.796	7391
474.874	6804
474.952	5923
475.030	6504
475.108	7213
475.187	8234
475.265	8504
475.343	14147
475.421	15953
475.499	7526
475.577	7542
475.655	8563
475.733	13005
475.811	17675
475.889	16075
475.966	11402
476.044	5837
476.122	8896
476.200	13099
476.278	9445
476.356	5001
476.434	6616
476.512	8345
476.590	12582
476.667	10475
476.745	6214
476.823	6604
476.901	5114
476.979	5939
477.056	5657
477.134	5666
477.212	6343
477.290	6398
477.367	5667
477.445	5244
477.523	4198
477.601	4743
477.678	5050
477.756	6189
477.834	6204
477.911	5210
477.989	5179
478.066	5498
478.144	5404
478.222	8601
478.299	16204
478.377	14596
478.454	4830
478.532	4311
478.609	5602
478.687	6830
478.764	4144
478.842	7043
478.919	8049
478.997	6366
479.074	3924
479.152	5250
479.229	6797
479.307	4709
479.384	3835
479.461	4158
479.539	3802
479.616	5467
479.694	4673
479.771	4853
479.848	4925
479.926	4995
480.003	8341
480.080	5225
480.157	4392
480.235	4934
480.312	4479
480.389	4517
480.467	6180
480.544	7978
480.621	4824
480.698	5641
480.775	5408
480.853	5374
480.930	4882
481.007	4304
481.084	5454
481.161	5564
481.238	5224
481.315	3791
481.392	4080
481.470	3926
481.547	4455
481.624	4243
481.701	4133
481.778	4553
481.855	5118
481.932	7008
482.009	10131
482.086	6780
482.163	6027
482.240	11584
482.317	21480
482.393	14382
482.470	4873
482.547	4335
482.624	4404
482.701	5259
482.778	4683
482.855	4691
482.932	4877
483.009	3810
483.085	5827
483.162	7049
483.239	6727
483.316	5224
483.393	5042
483.469	4875
483.546	5850
483.623	5258
483.699	4437
483.776	4519
483.853	5518
483.930	7004
484.006	14317
484.083	25174
484.160	18842
484.236	31368
484.313	23457
484.389	16643
484.466	14949
484.543	15318
484.619	15035
484.696	17174
484.772	15337
484.849	15117
484.925	13092
485.002	13440
485.078	15274
485.155	15377
485.231	12469
485.308	11837
485.384	13385
485.461	15002
485.537	19725
485.614	22788
485.690	13889
485.766	12303
485.843	14087
485.919	23296
485.995	25086
486.072	11984
486.148	11208
486.224	11910
486.301	11979
486.377	14656
486.453	14058
486.530	13907
486.606	18099
486.682	19416
486.758	19618
486.835	22278
486.911	19274
486.987	30026
487.063	46555
487.139	67854
487.215	44387
487.292	18872
487.368	14840
487.444	17127
487.520	21200
487.596	21256
487.672	35358
487.748	94364
487.824	138329
487.900	41163
487.976	16904
488.052	15417
488.128	19335
488.204	14713
488.280	12856
488.356	13599
488.432	21400
488.508	29628
488.584	15383
488.660	14171
488.736	14372
488.812	15289
488.888	19372
488.964	26958
489.039	65353
489.115	100807
489.191	55363
489.267	12411
489.343	11326
489.418	10295
489.494	10222
489.570	8224
489.646	11029
489.722	9571
489.797	9823
489.873	12636
489.949	22198
490.024	18981
490.100	8966
490.176	9433
490.251	13885
490.327	19742
490.403	10719
490.478	9523
490.554	8478
490.629	8081
490.705	7847
490.781	9368
490.856	8632
490.932	11305
491.007	11428
491.083	9815
491.158	8708
491.234	10663
491.309	16707
491.385	16886
491.460	9112
491.536	11022
491.611	10144
491.686	12369
491.762	18347
491.837	41906
491.913	66123
491.988	93927
492.063	122285
492.139	23479
492.214	12981
492.289	9085
492.365	7713
492.440	9455
492.515	8224
492.590	7605
492.666	6671
492.741	8628
492.816	10416
492.891	6942
492.967	7483
493.042	6867
493.117	6918
493.192	7964
493.267	11535
493.342	31150
493.418	38016
493.493	9437
493.568	5829
493.643	6573
493.718	7882
493.793	12519
493.868	17803
493.943	11451
494.018	7779
494.093	6669
494.168	6560
494.243	5927
494.318	5863
494.393	5299
494.468	5872
494.543	7400
494.618	7824
494.693	6262
494.768	5967
494.842	6516
494.917	5851
494.992	6517
495.067	6517
495.142	5973
495.217	7070
495.292	7428
495.366	8424
495.441	11639
495.516	15279
495.591	21160
495.665	90027
495.740	219677
495.815	80676
495.890	10805
495.964	5597
496.039	9102
496.114	6568
496.188	7710
496.263	8016
496.338	6693
496.412	7260
496.487	10551
496.561	11418
496.636	12459
496.710	9148
496.785	8819
496.860	8350
496.934	8638
497.009	9530
497.083	8148
497.158	8930
497.232	10015
497.307	11951
497.381	10621
497.455	11557
497.530	14247
497.604	11447
497.679	12333
497.753	17948
497.827	23780
497.902	24627
497.976	25466
498.050	46789
498.125	158592
498.199	158978
498.273	44444
498.348	37064
498.422	29520
498.496	25020
498.570	22707
498.645	14444
498.719	12635
498.793	14279
498.867	19082
498.941	21982
499.016	59268
499.090	155681
499.164	52899
499.238	10441
499.312	9713
499.386	13962
499.460	11002
499.534	8595
499.609	11489
499.683	12898
499.757	11954
499.831	24529
499.905	98204
499.979	87735
500.053	14903
500.127	20497
500.201	20164
500.275	10345
500.349	9800
500.422	11089
500.496	17769
500.570	42636
500.644	67958
500.718	99290
500.792	21500
500.866	8484
500.940	8587
501.013	8358
501.087	8782
501.161	19645
501.235	21006
501.309	29063
501.382	78850
501.456	71171
501.530	19757
501.603	24408
501.677	10787
501.751	4538
501.825	8872
501.898	12061
501.972	31060
502.046	18874
502.119	7645
502.193	17707
502.266	35558
502.340	15832
502.413	15531
502.487	27469
502.561	15548
502.634	7421
502.708	8465
502.781	6681
502.855	5267
502.928	2772
503.002	3782
503.075	3462
503.149	4465
503.222	4747
503.295	5049
503.369	6396
503.442	8285
503.516	22305
503.589	55689
503.662	34011
503.736	12287
503.809	27460
503.882	21937
503.956	34464
504.029	37205
504.102	53366
504.175	71805
504.249	20673
504.322	10013
504.395	6850
504.468	5561
504.542	4016
504.615	2968
504.688	4574
504.761	2584
504.834	7388
504.907	9824
504.980	17140
505.053	6647
505.127	9209
505.200	11692
505.273	5465
505.346	3403
505.419	2014
505.492	4145
505.565	2080
505.638	2416
505.711	3238
505.784	2432
505.857	1575
505.930	4664
506.003	2026
506.076	4523
506.149	3582
506.221	4033
506.294	6384
506.367	11497
506.440	42951
506.513	24105
506.586	6681
506.659	3500
506.731	4864
506.804	4935
506.877	9895
506.950	5459
507.022	4095
507.095	2989
507.168	6508
507.241	6315
507.313	4048
507.386	4493
507.459	10266
507.531	4891
507.604	3397
507.677	5467
507.749	2765
507.822	7116
507.894	14352
507.967	16332
508.040	7583
508.112	6724
508.185	6457
508.257	5280
508.330	11866
508.402	5555
508.475	4478
508.547	5554
508.620	5243
508.692	6839
508.765	5664
508.837	3611
508.909	4704
508.982	4028
509.054	6394
509.127	4884
509.199	3937
509.271	3380
509.344	3465
509.416	4372
509.488	4502
509.560	4876
509.633	5702
509.705	7091
509.777	6396
509.849	9474
509.922	6059
509.994	3735
510.066	4049
510.138	4115
510.210	11457
510.283	8960
510.355	7879
510.427	7311
510.499	7936
510.571	7691
510.643	5860
510.715	13429
510.787	10122
510.859	7253
510.931	7690
511.003	13192
511.076	11405
511.148	5438
511.219	4211
511.291	8740
511.363	8053
511.435	6011
511.507	4385
511.579	4672
511.651	5378
511.723	4987
511.795	4129
511.867	4732
511.939	6891
512.010	8563
512.082	8445
512.154	5035
512.226	5206
512.298	9870
512.369	14820
512.441	12360
512.513	12700
512.585	7759
512.656	8783
512.728	8887
512.800	6872
512.871	7114
512.943	6442
513.015	6105
513.086	8064
513.158	8388
513.230	8436
513.301	13625
513.373	18222
513.444	8447
513.516	6603
513.588	6871
513.659	8892
513.731	11949
513.802	8642
513.874	23096
513.945	43886
514.016	11663
514.088	7491
514.159	7086
514.231	12220
514.302	14632
514.374	10112
514.445	6370
514.516	13574
514.588	8806
514.659	7793
514.730	12125
514.802	12298
514.873	9962
514.944	11953
515.016	9536
515.087	9955
515.158	10502
515.229	13562
515.301	10453
515.372	15104
515.443	9055
515.514	7570
515.585	6236
515.656	6932
515.728	7689
515.799	5802
515.870	7652
515.941	8687
516.012	7815
516.083	12057
516.154	13853
516.225	20670
516.296	21376
516.367	19063
516.438	23866
516.509	30281
516.580	44797
516.651	151634
516.722	567500
516.793	210605
516.864	43315
516.935	40651
517.006	47422
517.077	63660
517.148	147489
517.219	652736
517.289	946140
517.360	143381
517.431	36033
517.502	17529
517.573	15916
517.643	15040
517.714	15659
517.785	18992
517.856	21030
517.926	29331
517.997	37723
518.068	50084
518.138	68953
518.209	101067
518.280	408370
518.350	1501573
518.421	514910
518.492	58940
518.562	27956
518.633	23136
518.703	19927
518.774	34321
518.845	83029
518.915	76595
518.986	23192
519.056	18818
519.127	34666
519.197	44712
519.268	63391
519.338	31813
519.408	12797
519.479	20743
519.549	14720
519.620	10959
519.690	7449
519.760	7549
519.831	8067
519.901	7853
519.971	7750
520.042	6967
520.112	7554
520.182	12751
520.253	15794
520.323	13254
520.393	36394
520.463	65605
520.534	40940
520.604	103298
520.674	25684
520.744	26539
520.814	113816
520.885	70390
520.955	19538
521.025	54357
521.095	20862
521.165	6769
521.235	5471
521.305	4710
521.375	4975
521.445	7449
521.515	10184
521.585	13587
521.655	10860
521.725	9316
521.795	8098
521.865	3065
521.935	8842
522.005	5518
522.075	4119
522.145	5551
522.215	4996
522.285	8166
522.355	9133
522.424	17097
522.494	14218
522.564	11530
522.634	29761
522.704	97554
522.774	33003
522.843	8577
522.913	7581
522.983	9813
523.053	7343
523.122	7731
523.192	11970
523.262	53943
523.331	47100
523.401	7950
523.471	4901
523.540	5609
523.610	3387
523.680	3466
523.749	3821
523.819	4524
523.888	4311
523.958	3668
524.027	3845
524.097	3870
524.166	4787
524.236	4797
524.305	6950
524.375	3399
524.444	3096
524.514	5643
524.583	3769
524.653	4057
524.722	6780
524.791	3703
524.861	5414
524.930	2571
524.999	3485
525.069	8280
525.138	4720
525.207	5390
525.277	4269
525.346	4794
525.415	4632
525.484	4630
525.554	4560
525.623	6368
525.692	6180
525.761	6339
525.830	8415
525.900	9607
525.969	15660
526.038	25374
526.107	54239
526.176	162628
526.245	122350
526.314	42973
526.383	88338
526.452	108386
526.522	196305
526.591	179061
526.660	61690
526.729	31594
526.797	32398
526.867	66509
526.935	299511
527.004	486236
527.073	224515
527.142	22757
527.211	10779
527.280	11798
527.349	10844
527.418	4572
527.487	7494
527.555	4602
527.624	4101
527.693	2929
527.762	5363
527.831	2109
527.899	4199
527.968	2821
528.037	4113
528.106	6194
528.174	13981
528.243	8738
528.312	12488
528.380	19914
528.449	4110
528.518	4549
528.586	1909
528.655	3427
528.723	1984
528.792	2296
528.861	2550
528.929	718
528.998	3297
529.066	1675
529.135	1784
529.203	2138
529.272	1966
529.340	2287
529.409	4171
529.477	2201
529.545	2851
529.614	7774
529.682	6747
529.751	6622
529.819	13435
529.887	4212
529.956	2439
530.024	4162
530.092	2352
530.161	5200
530.229	10438
530.297	3292
530.365	3584
530.434	2909
530.502	814
530.570	2264
530.638	711
530.707	3204
530.775	3480
530.843	1388
530.911	2460
530.979	1442
531.047	1303
531.115	2396
531.183	2275
531.252	2664
531.320	1996
531.388	1168
531.456	2838
531.524	1170
531.592	3533
531.660	4840
531.728	1693
531.796	2293
531.864	2899
531.932	2222
532.000	1851
532.067	3263
532.135	3685
532.203	5617
532.271	5261
532.339	13034
532.407	42567
532.475	21975
532.542	9466
532.610	10221
532.678	14374
532.746	71334
532.814	184237
532.881	40958
532.949	7689
533.017	4609
533.084	3154
533.152	3207
533.220	4078
533.287	4291
533.355	2970
533.423	3558
533.490	2179
533.558	2725
533.625	3074
533.693	2847
533.761	3835
533.828	4578
533.896	2555
533.963	12745
534.031	14601
534.098	21693
534.166	7178
534.233	2555
534.300	4545
534.368	4011
534.435	4260
534.503	6259
534.570	13055
534.637	7955
534.705	6900
534.772	9536
534.840	18260
534.907	73749
534.974	85823
535.041	9798
535.109	4987
535.176	3233
535.243	3923
535.310	4519
535.378	3077
535.445	3447
535.512	3140
535.579	4027
535.646	2096
535.714	2933
535.781	5129
535.848	3612
535.915	4258
535.982	3209
536.049	4009
536.116	4256
536.183	3960
536.250	3786
536.317	4672
536.384	5682
536.451	11600
536.518	12073
536.585	5257
536.652	9783
536.719	17124
536.786	11427
536.853	8217
536.920	13091
536.987	24024
537.053	21883
537.120	91654
537.187	73912
537.254	7255
537.321	4039
537.388	5978
537.454	2851
537.521	2968
537.588	3455
537.654	5528
537.721	5554
537.788	5873
537.855	4235
537.921	5805
537.988	4380
538.055	5600
538.121	4580
538.188	6010
538.254	10693
538.321	26973
538.388	14490
538.454	6370
538.521	3775
538.587	4520
538.654	3867
538.720	4309
538.787	3628
538.853	4129
538.920	6221
538.986	5014
539.053	5202
539.119	5602
539.185	5943
539.252	8065
539.318	12864
539.385	10056
539.451	6974
539.517	8026
539.583	8608
539.650	22881
539.716	64288
539.782	15540
539.849	5857
539.915	6140
539.981	6321
540.047	8807
540.114	6522
540.180	7949
540.246	6555
540.312	11155
540.378	24245
540.444	25343
540.510	25848
540.576	75418
540.643	20568
540.709	5296
540.775	5505
540.841	6024
540.907	10316
540.973	24021
541.039	15565
541.105	14858
541.171	7125
541.237	5677
541.303	6979
541.369	8623
541.435	10354
541.500	23073
541.566	12361
541.632	4775
541.698	4613
541.764	5788
541.830	4647
541.896	3709
541.961	5258
542.027	5114
542.093	4976
542.159	6327
542.224	6144
542.290	10933
542.356	20303
542.421	27479
542.487	9536
542.553	5819
542.618	7021
542.684	5281
542.750	6384
542.815	8649
542.881	14704
542.947	63865
543.012	43745
543.078	7256
543.143	5429
543.209	6310
543.274	5911
543.340	7307
543.405	23209
543.471	36714
543.536	6536
543.602	5302
543.667	3533
543.732	6564
543.798	3491
543.863	4986
543.928	3594
543.994	3603
544.059	4539
544.124	4864
544.190	4816
544.255	5567
544.320	5988
544.386	5734
544.451	10705
544.516	12397
544.581	12351
544.646	38550
544.712	60056
544.777	10007
544.842	5670
544.907	5072
544.972	5552
545.037	5260
545.102	5980
545.168	5685
545.233	6632
545.298	8086
545.363	8547
545.428	10493
545.493	22240
545.558	51975
545.623	18002
545.688	6481
545.753	6287
545.818	5317
545.883	6623
545.947	5870
546.012	6620
546.077	7054
546.142	7300
546.207	7097
546.272	11533
546.337	11585
546.401	9226
546.466	7793
546.531	6735
546.596	9298
546.661	8867
546.725	8963
546.790	7259
546.855	9008
546.919	8487
546.984	10305
547.049	10934
547.113	13094
547.178	12445
547.243	14900
547.307	17733
547.372	19774
547.436	19424
547.501	17996
547.565	19463
547.630	23056
547.695	21016
547.759	18960
547.823	18014
547.888	17481
547.952	18981
548.017	19463
548.081	20919
548.146	23205
548.210	21526
548.274	21408
548.339	20119
548.403	19771
548.468	17591
548.532	17360
548.596	19095
548.660	17551
548.725	21268
548.789	23006
548.853	22681
548.917	20400
548.982	19946
549.046	20141
549.110	15333
549.174	16076
549.238	18127
549.303	19402
549.367	22802
549.431	20422
549.495	18983
549.559	19383
549.623	22102
549.687	26626
549.751	30723
549.815	29698
549.879	28966
549.943	25924
550.007	27523
550.071	28761
550.135	30409
550.199	24576
550.263	25083
550.327	23381
550.391	25279
550.455	25077
550.519	27390
550.582	30169
550.646	37971
550.710	37642
550.774	32327
550.838	32610
550.901	34150
550.965	35528
551.029	36437
551.093	40496
551.156	45197
551.220	58195
551.284	68403
551.347	45728
551.411	44202
551.475	44010
551.538	34812
551.602	31938
551.666	29795
551.729	27191
551.793	27408
551.856	27213
551.920	26588
551.983	26613
552.047	25885
552.110	27125
552.174	26467
552.237	26908
552.301	26339
552.364	25162
552.428	24610
552.491	25975
552.554	27100
552.618	26715
552.681	29456
552.745	30388
552.808	52422
552.871	66050
552.934	37777
552.998	28219
553.061	26152
553.124	25346
553.187	24909
553.251	25815
553.314	24470
553.377	25462
553.440	29337
553.503	39362
553.567	46459
553.630	28068
553.693	26147
553.756	26272
553.819	25711
553.882	24903
553.945	24449
554.008	24980
554.071	24456
554.134	25497
554.197	23568
554.260	22483
554.323	25250
554.386	24824
554.449	24099
554.512	23912
554.575	23427
554.638	22828
554.701	22731
554.764	23010
554.827	22585
554.889	21203
554.952	20036
555.015	19626
555.078	19442
555.141	20542
555.203	20634
555.266	20401
555.329	20532
555.391	19348
555.454	20114
555.517	19597
555.580	18329
555.642	17642
555.705	17536
555.768	17537
555.830	16587
555.893	15349
555.955	16144
556.018	16342
556.080	15998
556.143	16684
556.206	15312
556.268	15993
556.330	16621
556.393	15448
556.455	14876
556.518	16721
556.580	17461
556.643	14494
556.705	14315
556.767	12727
556.830	13558
556.892	16244
556.955	23312
557.017	17247
557.079	12688
557.142	13245
557.204	14542
557.266	29074
557.328	22376
557.391	12048
557.453	10648
557.515	10591
557.577	14665
557.639	15326
557.701	11406
557.764	11315
557.826	11950
557.888	13125
557.950	13892
558.012	15611
558.074	20107
558.136	48985
558.198	111307
558.260	36160
558.322	16574
558.384	18048
558.446	21849
558.508	26226
558.570	33292
558.632	50323
558.694	72014
558.756	78757
558.818	243659
558.880	550982
558.942	149454
559.003	124965
559.065	56154
559.127	26633
559.189	26725
559.251	30068
559.312	41034
559.374	107924
559.436	358509
559.498	148244
559.559	29107
559.621	25420
559.683	28866
559.744	48750
559.806	168870
559.868	226853
559.929	39027
559.991	25847
560.052	39423
560.114	112570
560.176	63017
560.237	66429
560.299	101006
560.360	19817
560.422	10195
560.483	9336
560.545	7803
560.606	7885
560.667	7064
560.729	6684
560.790	6458
560.852	6593
560.913	5860
560.974	6592
561.036	6379
561.097	6982
561.158	7539
561.220	8276
561.281	7386
561.342	8160
561.403	10241
561.465	12950
561.526	37393
561.587	47587
561.648	9797
561.709	7057
561.771	6971
561.832	6153
561.893	5765
561.954	6087
562.015	5905
562.076	6864
562.137	5832
562.198	5928
562.259	7081
562.320	6829
562.381	7737
562.442	13349
562.503	9186
562.564	6878
562.625	6301
562.686	5504
562.747	8074
562.808	7145
562.869	5792
562.930	7295
562.991	5884
563.051	6093
563.112	5577
563.173	5505
563.234	5863
563.294	5655
563.355	6253
563.416	6460
563.477	6482
563.537	6574
563.598	6478
563.659	6848
563.720	5050
563.780	7467
563.841	7518
563.901	6572
563.962	5497
564.023	6865
564.083	6157
564.144	7263
564.204	5875
564.265	6150
564.325	6180
564.386	10130
564.446	9359
564.507	5690
564.567	5967
564.628	6171
564.688	5143
564.749	5696
564.809	5808
564.869	7180
564.930	6097
564.990	7083
565.050	5885
565.111	5446
565.171	6813
565.231	6121
565.292	7383
565.352	5304
565.412	6988
565.472	6669
565.532	7345
565.593	7698
565.653	6768
565.713	6636
565.773	8042
565.833	9891
565.893	13312
565.953	7903
566.013	7168
566.074	7022
566.134	8942
566.194	11738
566.254	13812
566.314	9620
566.374	7466
566.434	8078
566.494	8519
566.554	8385
566.614	8868
566.673	8522
566.733	8874
566.793	9961
566.853	10802
566.913	10373
566.973	10862
567.033	11094
567.092	11601
567.152	10294
567.212	11821
567.272	10342
567.331	10700
567.391	11313
567.451	12168
567.511	13789
567.570	14465
567.630	11407
567.690	11113
567.749	11365
567.809	13220
567.868	16210
567.928	16507
567.988	18666
568.047	21376
568.107	27414
568.166	37723
568.226	62568
568.285	87096
568.345	69413
568.404	53717
568.464	45779
568.523	42526
568.582	42764
568.642	50105
568.701	61039
568.761	93639
568.820	149926
568.879	135539
568.939	93278
568.998	66323
569.057	50011
569.116	39384
569.176	31840
569.235	25827
569.294	22765
569.353	20135
569.413	17434
569.472	15492
569.531	14133
569.590	13209
569.649	12531
569.708	11460
569.767	12906
569.827	14150
569.886	11748
569.945	10013
570.004	10762
570.063	10330
570.122	10322
570.181	10317
570.240	9692
570.299	10792
570.358	11277
570.417	9069
570.475	8828
570.534	9385
570.593	10194
570.652	9266
570.711	9542
570.770	8200
570.829	9213
570.887	9472
570.946	10962
571.005	8038
571.064	9024
571.122	10184
571.181	9251
571.240	6968
571.299	7735
571.357	7661
571.416	8082
571.475	7994
571.533	8703
571.592	7615
571.650	7545
571.709	7220
571.768	7411
571.826	7485
571.885	6750
571.943	5933
572.002	6502
572.060	7067
572.119	6370
572.177	7341
572.236	6263
572.294	6718
572.352	6801
572.411	6749
572.469	5718
572.528	6127
572.586	6722
572.644	7767
572.703	10761
572.761	7818
572.819	5499
572.877	5722
572.936	6922
572.994	5452
573.052	7097
573.110	6539
573.169	6817
573.227	6427
573.285	5318
573.343	7224
573.401	6480
573.459	6062
573.517	5429
573.576	6133
573.634	6501
573.692	6153
573.750	5761
573.808	5815
573.866	7242
573.924	6804
573.982	6937
574.040	5371
574.098	6637
574.155	5252
574.213	5987
574.271	6746
574.329	6468
574.387	6080
574.445	5806
574.503	5887
574.560	5110
574.618	5108
574.676	5782
574.734	5001
574.792	6162
574.849	5748
574.907	5164
574.965	4811
575.022	4927
575.080	5437
575.138	5096
575.195	5802
575.253	6379
575.311	7114
575.368	6052
575.426	4898
575.483	6275
575.541	5416
575.598	4679
575.656	5296
575.713	6425
575.771	5518
575.828	5129
575.886	5543
575.943	6136
576.001	5172
576.058	5199
576.115	6635
576.173	6762
576.230	7860
576.287	10988
576.345	7848
576.402	5722
576.459	6366
576.517	5983
576.574	6943
576.631	6231
576.688	6402
576.746	5604
576.803	6489
576.860	6404
576.917	5618
576.974	5640
577.031	5132
577.089	5718
577.146	5987
577.203	6217
577.260	6564
577.317	5961
577.374	7216
577.431	6351
577.488	6634
577.545	5712
577.602	6239
577.659	5749
577.716	5533
577.773	6320
577.830	6092
577.886	6130
577.943	5982
578.000	6158
578.057	6931
578.114	6959
578.171	7559
578.227	6964
578.284	5793
578.341	6311
578.398	6422
578.454	8126
578.511	7543
578.568	8083
578.625	6848
578.681	5998
578.738	6528
578.794	7541
578.851	7609
578.908	6388
578.964	6506
579.021	8864
579.077	7960
579.134	7344
579.190	5947
579.247	6639
579.303	5806
579.360	6198
579.416	6862
579.473	6342
579.529	5269
579.586	7083
579.642	6689
579.698	6502
579.755	6867
579.811	7246
579.867	6473
579.924	6420
579.980	6568
580.036	7308
580.093	6894
580.149	7257
580.205	7386
580.261	6886
580.317	7403
580.374	7947
580.430	8470
580.486	7696
580.542	6721
580.598	8218
580.619	8167
580.654	8083
580.692	7829
580.710	7712
580.765	7803
580.767	7813
580.823	7498
580.838	7379
580.879	7057
580.911	7689
580.935	8173
580.984	7102
580.991	6965
581.047	7231
581.057	7180
581.103	6929
581.130	7325
581.159	7755
581.203	7795
581.215	7815
581.270	7227
581.276	7241
581.326	7398
581.349	7494
581.382	7601
581.422	7834
581.438	7971
581.494	7996
581.494	7994
581.550	8061
581.567	8322
581.606	8953
581.640	8715
581.661	8507
581.713	8723
581.717	8759
581.773	7861
581.786	7909
581.829	8014
581.859	8372
581.885	8675
581.932	8578
581.940	8564
581.996	8552
582.004	8427
582.052	7687
582.077	7822
582.107	8018
582.150	8119
582.163	8138
582.219	8098
582.223	8140
582.274	8681
582.296	8619
582.330	8619
582.368	8367
582.386	8228
582.441	7889
582.441	7888
582.497	8218
582.514	8163
582.552	8216
582.587	8743
582.608	8968
582.659	8348
582.663	8299
582.719	8794
582.732	8662
582.774	8430
582.805	8486
582.830	8420
582.877	8721
582.885	8797
582.941	8470
582.950	8507
582.996	8588
583.023	9004
583.052	9605
583.095	9865
583.107	9865
583.162	9178
583.168	9184
583.218	9368
583.240	9619
583.273	9957
583.313	9642
583.328	9529
583.384	9891
583.385	9860
583.439	8776
583.458	8970
583.494	9381
583.531	9714
583.549	9965
583.603	8858
583.605	8815
583.660	9319
583.676	9542
583.715	10198
583.748	10314
583.770	10538
583.820	10919
583.825	10910
583.881	10163
583.893	10212
583.936	10383
583.965	10215
583.991	10143
584.038	10443
584.046	10483
584.101	10126
584.110	10195
584.156	10670
584.183	10257
584.211	9765
584.255	10516
584.266	10701
584.321	10643
584.328	10659
584.376	11123
584.400	11372
584.431	11458
584.472	11055
584.486	10976
584.541	11796
584.545	11790
584.596	11453
584.617	11569
584.651	12306
584.689	13078
584.706	13112
584.761	11935
584.762	11939
584.816	13325
584.834	13387
584.871	13118
584.906	13554
584.926	13941
584.978	14413
584.980	14431
585.035	14496
585.051	14736
585.090	15613
585.123	16623
585.145	17142
585.195	17491
585.200	17598
585.254	19606
585.267	20158
585.309	21797
585.340	23213
585.364	24214
585.412	25587
585.419	25819
585.473	29153
585.484	29655
585.528	32930
585.556	37899
585.583	48223
585.628	73633
585.637	82558
585.692	165244
585.700	179061
585.747	227981
585.772	192400
585.801	120309
585.845	46758
585.856	38048
585.910	27436
585.917	26221
585.965	23069
585.989	22514
586.019	22052
586.061	21505
586.074	21525
586.128	22219
586.133	22283
586.183	22464
586.205	22387
586.237	22662
586.277	22817
586.292	22731
586.346	22709
586.349	22693
586.401	23117
586.421	23343
586.455	23349
586.493	23791
586.509	24744
586.564	27358
586.565	27487
586.618	34688
586.637	35292
586.672	32834
586.709	29874
586.727	29017
586.781	29178
586.781	29192
586.835	28411
586.853	28421
586.889	28294
586.925	28163
586.944	28398
586.996	28986
586.998	29028
587.052	31129
587.068	31460
587.106	32058
587.140	32403
587.161	32831
587.212	34178
587.215	34248
587.269	35690
587.284	35994
587.323	36985
587.356	37436
587.377	38120
587.427	41021
587.431	41197
587.485	42685
587.499	43190
587.539	44929
587.571	46038
587.593	47164
587.643	49906
587.648	50240
587.702	54020
587.715	54909
587.755	57495
587.786	59401
587.810	61332
587.858	65553
587.864	66119
587.917	72918
587.930	74295
587.971	79900
588.001	84387
588.025	88261
588.073	96138
588.079	97372
588.133	108908
588.145	111731
588.187	123422
588.217	131945
588.241	140114
588.288	157788
588.295	160678
588.348	186309
588.360	192121
588.402	217163
588.431	236288
588.456	255469
588.503	294297
588.510	301248
588.564	361143
588.575	374932
588.617	446252
588.646	499747
588.671	568149
588.718	711245
588.725	745230
588.778	1026562
588.789	1087097
588.832	1415765
588.861	1637368
588.886	1745865
588.932	1878892
588.939	1867324
588.993	1691784
589.004	1678800
589.047	1762833
589.075	1751793
589.100	1555724
589.147	1147560
589.154	1109642
589.207	841487
589.218	791367
589.261	721820
589.290	685229
589.314	705963
589.361	763651
589.368	791142
589.421	1038995
589.433	1095559
589.475	1420661
589.504	1644123
589.528	1698577
589.576	1712077
589.582	1698609
589.635	1591093
589.647	1548119
589.689	1163415
589.718	883793
589.742	741775
589.790	483896
589.795	469521
589.849	349703
589.861	323578
589.902	273097
589.932	238161
589.955	219727
590.004	182611
590.009	180230
590.062	155318
590.075	149398
590.115	135757
590.146	125449
590.168	120609
590.218	109915
590.222	109184
590.275	99146
590.289	96500
590.328	91582
590.360	87823
590.381	85669
590.431	79956
590.435	79714
590.488	74468
590.503	73073
590.541	70682
590.574	68452
590.594	66859
590.645	62620
590.647	62610
590.700	60707
590.716	60047
590.753	57832
590.787	55844
590.806	55470
590.859	53932
590.859	53961
590.912	51615
590.930	50854
590.965	50441
591.001	49863
591.018	49556
591.071	48425
591.072	48345
591.124	47783
591.143	47514
591.177	46716
591.214	45766
591.230	45993
591.283	46455
591.285	46397
591.336	45501
591.356	45150
591.389	44791
591.427	43973
591.442	43368
591.495	40832
591.498	40594
591.547	39833
591.569	39370
591.600	38900
591.640	38205
591.653	38392
591.706	38934
591.711	38927
591.759	38836
591.782	38675
591.811	38969
591.853	39331
591.864	39152
591.917	37803
591.924	37537
591.969	37574
591.995	37536
592.022	37486
592.066	37210
592.075	37386
592.127	38101
592.137	38158
592.180	38837
592.208	39159
592.233	38261
592.279	36241
592.285	36274
592.338	36135
592.350	36008
592.390	35511
592.421	35082
592.443	35051
592.491	34737
592.495	34844
592.548	35448
592.562	35547
592.600	34730
592.633	33911
592.653	34022
592.704	33973
592.705	34177
592.775	34621
592.846	35083
592.916	35422
592.987	35527
593.058	34803
593.128	33400
593.199	32908
593.270	32586
593.341	31652
593.411	33843
593.482	33690
593.553	32637
593.623	32550
593.694	32876
593.764	33672
593.835	33556
593.906	32863
593.976	32361
594.047	33200
594.117	35508
594.188	35354
594.258	33800
594.329	32604
594.399	33640
594.470	33937
594.540	33810
594.611	34235
594.681	34986
594.751	33394
594.822	35885
594.892	36691
594.963	37201
595.033	36893
595.103	37807
595.174	38528
595.244	43490
595.314	45316
595.384	39096
595.455	38058
595.525	39577
595.595	40805
595.665	40813
595.736	38968
595.806	40668
595.876	39895
595.946	39984
596.016	40248
596.087	43076
596.157	41096
596.227	42187
596.297	44067
596.367	46172
596.437	48190
596.507	51897
596.577	52483
596.647	50034
596.717	49976
596.787	50297
596.857	50678
596.927	51524
596.997	50293
597.067	51383
597.137	52274
597.207	52897
597.277	53240
597.347	51761
597.417	49859
597.487	52078
597.557	51277
597.626	51129
597.696	52977
597.766	54299
597.836	55000
597.906	48008
597.975	46048
598.045	47006
598.115	48146
598.185	52166
598.254	56344
598.324	60268
598.394	61641
598.464	60220
598.533	58793
598.603	54669
598.672	53881
598.742	55264
598.812	54266
598.881	54993
598.951	54361
599.020	55462
599.090	57635
599.159	58768
599.229	55592
599.299	55114
599.368	55316
599.437	55245
599.507	51280
599.576	50570
599.646	49343
599.715	49728
599.785	48227
599.854	47222
599.924	48032
599.993	46644
600.062	47764
600.132	48552
600.201	51268
600.270	60191
600.340	61434
600.409	59038
600.478	58328
600.547	59436
600.617	55421
600.686	46067
600.755	42683
600.824	42517
600.894	40657
600.963	40179
601.032	38827
601.101	38874
601.170	37543
601.239	36088
601.308	38246
601.378	38321
601.447	36331
601.516	36727
601.585	38451
601.654	39878
601.723	37813
601.792	37771
601.861	38949
601.930	43142
601.999	42614
602.068	41108
602.137	44176
602.206	44287
602.275	42568
602.343	47144
602.412	45225
602.481	42982
602.550	42597
602.619	43455
602.688	44211
602.756	43185
602.825	42713
602.894	45112
602.963	44750
603.032	46807
603.100	44705
603.169	46139
603.238	45715
603.307	46330
603.375	46430
603.444	48001
603.513	48318
603.581	49319
603.650	48415
603.719	46747
603.787	49615
603.856	50572
603.924	51983
603.993	54416
604.061	54196
604.130	56722
604.198	57408
604.267	58576
604.335	58983
604.404	59969
604.472	60232
604.541	62140
604.609	60670
604.678	62297
604.746	61849
604.815	63893
604.883	63674
604.951	65576
605.020	66195
605.088	67319
605.156	67499
605.225	69583
605.293	69225
605.361	70335
605.429	69863
605.498	72543
605.566	75101
605.634	76807
605.702	79321
605.771	82814
605.839	80948
605.907	79759
605.975	76293
606.043	75601
606.111	74992
606.180	76223
606.248	75308
606.316	76789
606.384	73896
606.452	79539
606.520	84295
606.588	81299
606.656	78492
606.724	76812
606.792	72927
606.860	65216
606.928	59909
606.996	58780
607.064	56605
607.132	58172
607.200	61179
607.267	65171
607.335	65314
607.403	67358
607.471	62748
607.539	63411
607.607	62262
607.674	55738
607.742	56200
607.810	57499
607.878	56400
607.946	57351
608.013	60177
608.081	61579
608.149	62102
608.216	62389
608.284	64375
608.352	65078
608.419	63400
608.487	66629
608.555	62166
608.622	63845
608.690	68356
608.757	74926
608.825	76621
608.893	74039
608.960	73224
609.028	72051
609.095	71219
609.163	66916
609.230	60486
609.298	57309
609.365	56867
609.432	62677
609.500	67303
609.567	77807
609.635	89150
609.702	93534
609.769	88619
609.837	71072
609.904	61116
609.971	63446
610.039	72603
610.106	96643
610.173	183606
610.241	422314
610.308	275825
610.375	128393
610.442	72055
610.509	63764
610.577	64289
610.644	63970
610.711	64654
610.778	68254
610.845	70340
610.912	73385
610.980	77499
611.047	78916
611.114	76752
611.181	72541
611.248	72255
611.315	77616
611.382	76201
611.449	80105
611.516	83074
611.583	82197
611.650	81213
611.717	82317
611.784	84185
611.851	90499
611.918	97092
611.984	112029
612.051	166363
612.118	346139
612.185	854035
612.252	480799
612.319	127255
612.386	106923
612.452	96194
612.519	94034
612.586	94274
612.653	93798
612.719	97132
612.786	91564
612.853	85063
612.919	83060
612.986	85605
613.053	80066
613.120	75617
613.186	71939
613.253	74373
613.319	73502
613.386	73686
613.453	77410
613.519	78823
613.586	82873
613.652	94319
613.719	85476
613.785	82365
613.852	75236
613.918	74822
613.985	77983
614.051	84386
614.118	97774
614.184	91453
614.250	75258
614.317	77104
614.383	75698
614.449	76784
614.516	77453
614.582	78064
614.648	76670
614.715	75532
614.781	75413
614.847	75104
614.914	74353
614.980	72270
615.046	72339
615.112	75120
615.179	76111
615.245	79187
615.311	84657
615.377	103621
615.443	104024
615.509	84343
615.575	82634
615.642	79871
615.708	83322
615.774	88227
615.840	96005
615.906	107713
615.972	144927
616.038	251957
616.104	474506
616.170	1065922
616.236	810393
616.302	182523
616.368	134907
616.434	99204
616.500	95155
616.565	103284
616.631	124205
616.697	101805
616.763	107633
616.829	156431
616.895	271493
616.961	241577
617.026	108963
617.092	80578
617.158	79841
617.224	76728
617.289	72156
617.355	68580
617.421	69238
617.487	68575
617.552	64957
617.618	64188
617.684	63728
617.749	66636
617.815	61593
617.880	60828
617.946	61336
618.012	63136
618.077	63247
618.143	61271
618.208	62547
618.274	67371
618.339	67034
618.405	55485
618.470	57356
618.536	55766
618.601	58388
618.667	52908
618.732	51532
618.798	49580
618.863	49762
618.928	48230
618.994	52427
619.059	53747
619.124	62679
619.190	53254
619.255	48875
619.320	49297
619.386	49016
619.451	47592
619.516	47649
619.581	47714
619.647	49489
619.712	48655
619.777	48381
619.842	49151
619.907	49579
619.972	50427
620.038	50489
620.103	48285
620.168	47684
620.233	48933
620.298	48320
620.363	48095
620.428	51051
620.493	50442
620.558	51203
620.623	50802
620.688	52096
620.753	50337
620.818	51752
620.883	52282
620.948	52362
621.013	53063
621.078	50707
621.143	50905
621.207	55835
621.272	52311
621.337	53658
621.402	51941
621.467	54794
621.532	53383
621.596	52321
621.661	49651
621.726	49491
621.791	50186
621.855	52330
621.920	52183
621.985	50562
622.049	53968
622.114	53016
622.179	52707
622.243	53752
622.308	55259
622.373	57615
622.437	55666
622.502	52895
622.566	52034
622.631	52346
622.695	54479
622.760	54271
622.824	52991
622.889	54611
622.953	56002
623.018	71534
623.082	67580
623.147	57760
623.211	55098
623.276	56297
623.340	52219
623.404	51226
623.469	51101
623.533	51149
623.597	50138
623.662	50846
623.726	46440
623.790	45104
623.854	43575
623.919	46010
623.983	45258
624.047	46748
624.111	45271
624.176	47647
624.240	48662
624.304	52352
624.368	46000
624.432	45503
624.496	49242
624.560	52340
624.625	53787
624.689	50693
624.753	50420
624.817	49196
624.881	46867
624.945	43858
625.009	42893
625.073	45821
625.137	46702
625.201	53950
625.265	52370
625.329	46124
625.393	46521
625.456	46749
625.520	46406
625.584	49019
625.648	51561
625.712	58459
625.776	77490
625.839	80567
625.903	47621
625.967	40118
626.031	49653
626.095	62151
626.158	45895
626.222	34649
626.286	34277
626.349	32370
626.413	29960
626.477	34130
626.540	31647
626.604	30833
626.668	30998
626.731	30180
626.795	29874
626.858	30385
626.922	28457
626.986	30490
627.049	28101
627.113	31687
627.176	29676
627.240	29542
627.303	28487
627.366	28786
627.430	30553
627.493	28996
627.557	27054
627.620	30106
627.684	29193
627.747	30029
627.810	26596
627.874	25435
627.937	23274
628.000	27603
628.064	25913
628.127	21761
628.190	23646
628.253	22721
628.317	20644
628.380	21806
628.443	20333
628.506	21054
628.569	20719
628.632	18605
628.696	19561
628.759	19068
628.822	18248
628.885	18585
628.948	17613
629.011	18541
629.074	17408
629.137	17481
629.200	17071
629.263	19308
629.326	16350
629.389	18031
629.452	16905
629.515	17093
629.578	16618
629.641	18628
629.704	16514
629.767	18852
629.830	16171
629.892	16298
629.955	14888
630.018	17920
630.081	17616
630.144	22199
630.207	16842
630.269	18808
630.332	15688
630.395	16379
630.458	14402
630.520	14340
630.583	15261
630.646	15332
630.708	13876
630.771	14346
630.834	16950
630.896	15645
630.959	15626
631.021	15481
631.084	14572
631.146	16344
631.209	16370
631.272	14768
631.334	14891
631.397	15281
631.459	14989
631.522	16607
631.584	16271
631.646	17538
631.709	18222
631.771	21099
631.834	17193
631.896	16848
631.958	14245
632.021	15842
632.083	12889
632.145	14771
632.208	14121
632.270	15483
632.332	13105
632.395	13631
632.457	14878
632.519	13536
632.581	15462
632.643	13250
632.706	14160
632.768	12569
632.830	14172
632.892	13836
632.954	12505
633.016	14859
633.078	13492
633.141	13528
633.203	13042
633.265	14666
633.327	13971
633.389	13445
633.451	15706
633.513	16882
633.575	16252
633.637	16900
633.698	15825
633.760	14694
633.822	14904
633.884	15337
633.946	13974
634.008	15890
634.070	15211
634.132	17357
634.193	16545
634.255	18956
634.317	17111
634.379	19721
634.441	16433
634.502	15697
634.564	15526
634.626	13860
634.687	13758
634.749	13377
634.811	12737
634.873	12157
634.934	12836
634.996	13892
635.057	12246
635.119	11866
635.181	12587
635.242	13684
635.304	11239
635.365	15382
635.427	12347
635.488	13667
635.550	11648
635.611	13899
635.673	11017
635.734	15116
635.796	13730
635.857	16830
635.918	14614
635.980	18281
636.041	17242
636.102	19567
636.164	18820
636.225	18721
636.286	14160
636.348	15635
636.409	13542
636.470	12912
636.531	12694
636.593	12588
636.654	13440
636.715	12373
636.776	11590
636.838	11354
636.899	10735
636.960	11612
637.021	11115
637.082	10726
637.143	11264
637.204	10089
637.265	10221
637.326	10993
637.387	10475
637.448	10043
637.509	10952
637.570	11263
637.631	10896
637.692	10035
637.753	9928
637.814	10782
637.875	9780
637.936	10836
637.997	9535
638.058	10205
638.119	10941
638.179	10074
638.240	10277
638.301	9774
638.362	8610
638.423	10275
638.483	10523
638.544	8302
638.605	9384
638.666	8553
638.726	9681
638.787	10368
638.848	9330
638.908	8990
638.969	8764
639.030	9311
639.090	8004
639.151	9744
639.211	10080
639.272	12896
639.332	19784
639.393	12441
639.453	9214
639.514	10011
639.574	9935
639.635	9037
639.695	9259
639.756	8978
639.816	9708
639.877	12328
639.937	18228
639.997	22024
640.058	9330
640.118	8606
640.178	9606
640.239	8543
640.299	8479
640.359	8171
640.420	8437
640.480	9876
640.540	9926
640.600	10748
640.661	9349
640.721	10265
640.781	13115
640.841	9407
640.901	8887
640.961	10167
641.021	10125
641.082	11881
641.142	15316
641.202	11485
641.262	6147
641.322	9080
641.382	6299
641.442	9088
641.502	8059
641.562	9739
641.622	7694
641.682	9049
641.742	9103
641.802	9713
641.861	8742
641.921	9821
641.981	10862
642.041	9701
642.101	11906
642.161	7676
642.221	6735
642.280	7642
642.340	6785
642.400	6266
642.460	8662
642.519	7530
642.579	7455
642.639	8656
642.698	5003
642.758	10785
642.818	8598
642.877	7692
642.937	8459
642.997	11040
643.056	13645
643.116	8099
643.175	9598
643.235	8076
643.294	7598
643.354	8891
643.414	9658
643.473	11812
643.532	13621
643.592	19706
643.651	33500
643.711	61155
643.770	125469
643.830	313923
643.889	642482
643.948	126754
644.008	22500
644.067	15498
644.126	11865
644.186	10703
644.245	9961
644.304	7328
644.363	10092
644.423	7158
644.482	7767
644.541	8671
644.600	7622
644.659	10889
644.719	11615
644.778	19254
644.837	31795
644.896	67058
644.955	149745
645.014	44026
645.073	12378
645.132	8889
645.191	7954
645.250	7795
645.309	9744
645.368	8618
645.427	10744
645.486	16869
645.545	29260
645.604	9863
645.663	8284
645.722	8009
645.781	9006
645.840	11213
645.898	11893
645.957	18958
646.016	29103
646.075	56310
646.134	114537
646.192	317947
646.251	435588
646.310	53783
646.369	15951
646.427	13496
646.486	9149
646.545	9975
646.603	8336
646.662	7656
646.721	7476
646.779	7467
646.838	6517
646.896	10421
646.955	12058
647.014	19683
647.072	35824
647.131	96217
647.189	39275
647.248	8010
647.306	6483
647.365	7479
647.423	4192
647.481	7564
647.540	4933
647.598	5860
647.657	6047
647.715	6520
647.773	4745
647.832	6616
647.890	3883
647.948	4731
648.007	5536
648.065	4569
648.123	4034
648.181	7057
648.240	5624
648.298	4538
648.356	4502
648.414	4865
648.472	4729
648.531	6260
648.589	4595
648.647	4814
648.705	4273
648.763	5745
648.821	4441
648.879	5852
648.937	6400
648.995	7281
649.053	8274
649.111	14405
649.169	23986
649.227	43678
649.285	94099
649.343	270304
649.401	113150
649.459	29749
649.516	17746
649.574	9806
649.632	16246
649.690	17257
649.748	11428
649.806	14284
649.863	26237
649.921	66741
649.979	39288
650.037	7354
650.094	3610
650.152	5217
650.210	4076
650.268	4288
650.325	4385
650.383	4743
650.440	3554
650.498	5068
650.556	3639
650.613	4060
650.671	3493
650.728	4006
650.786	4565
650.843	6214
650.901	2352
650.958	3969
651.016	3459
651.073	3646
651.131	2069
651.188	2895
651.246	3339
651.303	3483
651.360	2964
651.418	3415
651.475	3519
651.532	3270
651.590	3723
651.647	3357
651.704	3479
651.762	3061
651.819	3571
651.876	3566
651.933	2280
651.990	4473
652.048	1734
652.105	3065
652.162	2889
652.219	2686
652.276	3476
652.333	3118
652.390	2419
652.448	3580
652.505	2944
652.562	2826
652.619	3276
652.676	4634
652.733	4051
652.790	3664
652.847	2117
652.904	4100
652.961	1926
653.017	2284
653.074	3327
653.131	2809
653.188	2526
653.245	3016
653.302	2469
653.359	2909
653.415	3425
653.472	2926
653.529	2572
653.586	2307
653.642	2192
653.699	3462
653.756	2207
653.813	2851
653.869	2487
653.926	2172
653.983	1852
654.039	2898
654.096	2166
654.152	3645
654.209	1895
654.266	3015
654.322	2178
654.379	3307
654.435	2971
654.492	3685
654.548	4627
654.605	7719
654.661	4070
654.717	2237
654.774	2614
654.830	2440
654.887	2293
654.943	2912
655.000	2551
655.056	2845
655.112	3232
655.168	2635
655.225	2500
655.281	3939
655.337	3271
655.394	5229
655.450	2604
655.506	3011
655.562	4686
655.618	4954
655.675	2009
655.731	3217
655.787	2087
655.843	2944
655.899	956
655.955	3704
656.011	2736
656.067	2346
656.123	2731
656.179	3378
656.235	4254
656.291	1798
656.347	3283
656.403	2336
656.459	2626
656.515	2881
656.571	2361
656.627	3515
656.683	2010
656.739	2758
656.795	2756
656.850	3412
656.906	3619
656.962	3557
657.018	1738
657.074	2699
657.129	3658
657.185	5227
657.241	9971
657.297	5330
657.352	3794
657.408	2346
657.464	3427
657.519	2231
657.575	1288
657.630	2774
657.686	2029
657.742	1718
657.797	1396
657.853	1665
657.908	2402
657.964	1977
658.019	1940
658.075	2812
658.130	2320
658.186	1333
658.241	2407
658.297	1510
658.352	2138
658.407	2823
658.463	1327
658.518	2916
658.573	2294
658.629	1735
658.684	832
658.739	2581
658.795	1845
658.850	2859
658.905	1073
658.960	2220
659.016	1397
659.071	3182
659.126	2427
659.181	1755
659.236	5392
659.291	7328
659.346	2798
659.401	3443
659.457	2948
659.512	2954
659.567	2788
659.622	2462
659.677	1638
659.732	1388
659.787	1350
659.842	2372
659.897	3015
659.952	2461
660.007	2291
660.061	2431
660.116	881
660.171	2041
660.226	1935
660.281	2813
660.336	1392
660.391	2664
660.445	609
660.500	2851
660.555	2150
660.610	1399
660.664	1657
660.719	2038
660.774	1738
660.828	2312
660.883	1621
660.938	2506
660.992	923
661.047	1778
661.101	1798
661.156	1915
661.211	1842
661.265	2656
661.320	1431
661.374	2190
661.429	937
661.483	2072
661.538	1110
661.592	2567
661.647	1707
661.701	2893
661.755	1855
661.810	2554
661.864	1353
661.919	1304
661.973	1992
662.027	2089
662.081	1672
662.136	2310
662.190	1578
662.244	2797
662.299	711
662.353	2436
662.407	951
662.461	1376
662.515	1059
662.569	1732
662.624	2508
662.678	1539
662.732	1293
662.786	1948
662.840	1790
662.894	2279
662.948	1663
663.002	2145
663.056	1535
663.110	991
663.164	465
663.218	1822
663.272	2565
663.326	2892
663.380	2148
663.434	2731
663.488	328
663.542	2454
663.595	1113
663.649	2099
663.703	1412
663.757	2475
663.811	777
663.864	1492
663.918	1524
663.972	1276
664.026	648
664.079	1204
664.133	2002
664.187	1641
664.240	2253
664.294	2080
664.348	2171
664.401	1425
664.455	1385
664.508	797
664.562	1013
664.615	1812
664.669	1351
664.722	1014
664.776	1423
664.829	2565
664.883	1371
664.936	1456
664.990	1693
665.043	2532
665.097	1650
665.150	3305
665.203	665
665.257	2080
665.310	2191
665.363	2279
665.417	2394
665.470	1646
665.523	1705
665.576	1998
665.630	1182
665.683	1618
665.736	1589
665.789	1943
665.842	1091
665.895	2053
665.949	1978
666.002	1692
666.055	810
666.108	2637
666.161	1819
666.214	2201
666.267	2363
666.320	2984
666.373	2042
666.426	2218
666.479	1263
666.532	2082
666.585	1343
666.638	2719
666.691	2207
666.744	2716
666.796	1953
666.849	1829
666.902	1882
666.955	2213
667.008	1444
667.060	1632
667.113	974
667.166	2389
667.219	1304
667.271	1879
667.324	718
667.377	2597
667.430	1341
667.482	2685
667.535	1530
667.587	2507
667.640	2774
667.693	3470
667.745	5370
667.798	5912
667.850	1902
667.903	1867
667.955	945
668.008	2136
668.060	2147
668.113	1934
668.165	1878
668.218	2136
668.270	1322
668.322	1957
668.375	1365
668.427	2335
668.479	1268
668.532	3283
668.584	739
668.636	1711
668.689	2638
668.741	1172
668.793	1364
668.845	1496
668.898	1988
668.950	1764
669.002	2117
669.054	2315
669.106	1850
669.158	2562
669.211	1067
669.263	2389
669.315	2551
669.367	1795
669.419	1857
669.471	3271
669.523	2868
669.575	4885
669.627	3384
669.679	2670
669.731	2359
669.783	2783
669.835	3732
669.886	3065
669.938	2570
669.990	2856
670.042	1999
670.094	3644
670.146	2538
670.197	4293
670.249	4769
670.301	6095
670.353	8957
670.404	12519
670.456	19162
670.508	32770
670.560	55911
670.611	100500
670.663	183496
670.715	450240
670.766	633266
670.818	169926
670.869	32371
670.921	17575
670.972	11429
671.024	8298
671.075	6554
671.127	5714
671.178	3831
671.230	4782
671.281	3061
671.333	3282
671.384	3196
671.436	3219
671.487	4639
671.538	5374
671.590	7982
671.641	12335
671.692	22923
671.744	42898
671.795	22235
671.846	8391
671.897	3403
671.949	3534
672.000	2624
672.051	2723
672.102	2536
672.153	2423
672.204	2598
672.256	2959
672.307	1724
672.358	1898
672.409	1760
672.460	2155
672.511	1337
672.562	1524
672.613	1306
672.664	1694
672.715	1796
672.766	2022
672.817	1388
672.868	1766
672.919	1745
672.970	1266
673.021	1368
673.071	1367
673.122	1620
673.173	1944
673.224	1047
673.275	1431
673.326	226
673.376	1233
673.427	1672
673.478	2028
673.528	1870
673.579	1073
673.630	1248
673.680	2524
673.731	912
673.782	767
673.832	1817
673.883	1848
673.934	947
673.984	1266
674.035	936
674.085	1248
674.136	991
674.186	1816
674.237	1575
674.287	1734
674.338	519
674.388	1219
674.438	-275
674.489	1914
674.539	798
674.589	1072
674.640	2048
674.690	1587
674.740	1033
674.791	1888
674.841	1602
674.891	1663
674.942	1296
674.992	1144
675.042	-133
675.092	19
675.142	153
675.193	1949
675.243	924
675.293	1534
675.343	812
675.393	1425
675.443	794
675.493	1072
675.543	668
675.593	919
675.643	822
675.693	1079
675.743	457
675.793	311
675.843	702
675.893	1134
675.943	1212
675.993	1994
676.043	1061
676.093	312
676.142	753
676.192	2287
676.242	942
676.292	970
676.341	1250
676.391	973
676.441	674
676.491	367
676.540	-55
676.590	1002
676.640	642
676.689	1275
676.739	337
676.789	1233
676.838	309
676.888	1597
676.937	204
676.987	849
677.037	-156
677.086	144
677.136	-356
677.185	216
677.235	358
677.284	1322
677.333	15
677.383	775
677.432	504
677.482	1365
677.531	1159
677.580	215
677.630	401
677.679	726
677.728	780
677.778	1206
677.827	502
677.876	599
677.925	285
677.975	-92
678.024	172
678.073	946
678.122	470
678.171	1072
678.220	584
678.269	1350
678.319	1089
678.368	616
678.417	760
678.466	1269
678.515	689
678.564	1376
678.613	291
678.662	899
678.711	1161
678.760	1087
678.809	252
678.857	863
678.906	415
678.955	801
679.004	804
679.053	626
679.102	496
679.151	1335
679.199	269
679.248	1000
679.297	665
679.346	1056
679.394	112
679.443	1242
679.492	757
679.540	784
679.589	208
679.638	880
679.686	509
679.735	398
679.784	904
679.832	630
679.881	86
679.929	252
679.978	-25
680.026	-157
680.075	874
680.123	193
680.172	-510
680.220	229
680.268	358
680.317	632
680.365	69
680.414	-573
680.462	-129
680.510	1217
680.559	402
680.607	892
680.655	-161
680.703	313
680.752	44
680.800	846
680.848	-527
680.896	143
680.945	-25
680.993	996
681.041	-100
681.089	233
681.137	301
681.185	-108
681.233	476
681.258	557
681.281	597
681.329	-336
681.377	388
681.380	409
681.425	96
681.473	982
681.502	747
681.521	523
681.569	1623
681.617	438
681.624	617
681.665	1496
681.713	37
681.745	872
681.761	1215
681.809	652
681.857	1346
681.867	1337
681.904	1163
681.952	2535
681.989	1697
682.000	1403
682.048	1682
682.096	1099
682.111	1410
682.143	1956
682.191	1220
682.233	2890
682.239	3108
682.286	1750
682.334	1934
682.354	1511
682.382	878
682.430	2036
682.476	2252
682.477	2223
682.525	3090
682.572	1392
682.598	1789
682.620	2100
682.667	2267
682.715	2877
682.720	2866
682.763	2460
682.810	3184
682.841	2981
682.857	2807
682.905	2425
682.952	3410
682.963	3533
683.000	3829
683.047	2815
683.085	3789
683.095	4028
683.142	2376
683.190	2996
683.206	2902
683.237	2670
683.284	3656
683.328	3299
683.332	3238
683.379	3810
683.426	3665
683.449	3748
683.473	3795
683.521	3716
683.568	3788
683.571	3824
683.615	3910
683.662	4744
683.693	4118
683.709	3762
683.757	3686
683.804	4092
683.814	4156
683.851	4267
683.898	4010
683.936	4316
683.945	4372
683.992	4655
684.039	5095
684.057	5124
684.086	5112
684.133	5678
684.179	5085
684.180	5036
684.227	5365
684.274	5182
684.300	5709
684.321	6133
684.368	5087
684.415	6035
684.422	5881
684.462	4651
684.509	5282
684.543	5466
684.556	5549
684.603	5805
684.649	5022
684.665	5329
684.696	6047
684.743	5480
684.786	6543
684.790	6601
684.837	6258
684.883	6604
684.908	6162
684.930	5730
684.977	6744
685.023	6782
685.029	6783
685.070	6549
685.117	5949
685.150	6718
685.164	7060
685.210	6584
685.257	7682
685.272	7657
685.303	7459
685.350	7226
685.393	7086
685.396	7091
685.443	8379
685.490	8640
685.514	8774
685.536	8548
685.583	8292
685.629	8214
685.636	8061
685.675	7252
685.722	7778
685.757	7739
685.768	7723
685.815	7844
685.861	8133
685.878	8159
685.908	8160
685.954	7626
686.000	8344
686.000	8352
686.047	7715
686.093	9336
686.121	9156
686.139	8815
686.185	9072
686.232	8185
686.242	8173
686.278	8118
686.324	8176
686.363	7978
686.370	7963
686.416	7799
686.463	8362
686.484	8339
686.509	8293
686.555	8257
686.601	7556
686.606	7632
686.647	8193
686.693	7974
686.727	7960
686.739	8005
686.785	8233
686.831	8585
686.848	8636
686.877	8651
686.923	8498
686.969	8888
686.969	8890
687.015	8942
687.061	8822
687.090	9270
687.107	9392
687.153	8754
687.199	9063
687.211	8832
687.245	8387
687.291	9373
687.332	8788
687.336	8745
687.382	9496
687.428	9672
687.453	9645
687.474	9409
687.520	9505
687.565	9470
687.574	9315
687.611	9043
687.657	9356
687.695	9444
687.702	9517
687.748	10542
687.794	11234
687.816	11419
687.839	11056
687.885	10464
687.931	9474
687.937	9443
687.976	9946
688.022	10135
688.058	10154
688.067	10148
688.113	10392
688.158	10239
688.179	10529
688.204	10908
688.249	10328
688.295	10822
688.300	10874
688.340	11083
688.386	11285
688.421	10729
688.431	10596
688.477	11119
688.522	10507
688.542	10710
688.567	11084
688.613	10327
688.658	11012
688.663	11033
688.703	11112
688.749	10369
688.784	10633
688.794	10745
688.839	11198
688.884	10738
688.905	10933
688.930	11142
688.975	10889
689.020	11113
689.026	11057
689.065	10741
689.110	10911
689.146	10566
689.155	10540
689.201	11012
689.246	11306
689.267	11517
689.291	11658
689.336	11136
689.381	11523
689.388	11438
689.426	11122
689.471	11372
689.509	11518
689.516	11535
689.561	11448
689.606	10793
689.630	10811
689.651	10979
689.696	10362
689.741	11398
689.750	11419
689.785	11519
689.830	11579
689.871	11503
689.875	11498
689.920	11418
689.965	11528
689.992	11409
690.010	11426
690.054	11418
690.099	11290
690.112	11445
690.144	11874
690.189	11440
690.233	12037
690.233	12056
690.278	12024
690.323	11506
690.354	11614
690.367	11720
690.412	11485
690.457	11744
690.474	11834
690.501	11920
690.546	11569
690.590	11424
690.595	11404
690.635	11717
690.680	11876
690.716	12081
690.724	12118
690.769	12206
690.813	12776
690.836	12392
690.857	12415
690.902	13702
690.946	14094
690.957	14320
690.991	16056
691.035	17803
691.077	20162
691.080	20187
691.124	18986
691.168	18573
691.198	17843
691.213	17382
691.257	16666
691.301	15057
691.318	14656
691.346	14445
691.390	13560
691.434	13142
691.439	13062
691.478	13322
691.522	13918
691.559	13577
691.567	13556
691.611	14182
691.655	14474
691.680	14789
691.699	14832
691.743	14059
691.787	14005
691.800	13870
691.831	13854
691.875	13892
691.919	13838
691.921	13811
691.964	13961
692.008	14224
692.041	14296
692.052	14316
692.096	14389
692.139	14753
692.162	14504
692.183	14252
692.227	14482
692.271	14302
692.282	14211
692.315	14306
692.359	14388
692.402	14815
692.403	14847
692.447	14902
692.490	14997
692.523	15204
692.534	15197
692.578	15146
692.622	14635
692.643	14443
692.666	14401
692.709	14024
692.753	14052
692.763	14026
692.797	14260
692.840	14366
692.884	14304
692.884	14334
692.928	14439
692.971	14298
693.004	14483
693.015	14588
693.059	14422
693.102	14477
693.124	14438
693.146	14559
693.189	14719
693.233	14587
693.245	14664
693.276	14988
693.320	15403
693.363	15526
693.365	15489
693.407	15504
693.450	15886
693.485	15991
693.493	16106
693.537	16731
693.580	16984
693.605	17284
693.624	17907
693.667	18869
693.710	20543
693.725	20964
693.753	23726
693.797	27989
693.840	32329
693.845	32754
693.883	30660
693.926	28271
693.966	26036
693.970	25791
694.013	22654
694.056	19778
694.086	17500
694.099	17418
694.142	17311
694.185	17037
694.206	16977
694.229	16986
694.272	16726
694.315	16484
694.326	16342
694.358	16657
694.401	17316
694.444	18060
694.446	18037
694.487	17776
694.530	17547
694.566	17495
694.573	17422
694.616	16412
694.659	15682
694.686	14913
694.702	14802
694.745	14895
694.787	14669
694.806	14669
694.830	14994
694.873	15076
694.916	15613
694.926	15599
694.959	15637
695.002	15912
695.044	15986
695.046	15960
695.087	16307
695.130	16356
695.166	16520
695.172	16568
695.215	16285
695.258	16540
695.286	16340
695.301	16246
695.343	16193
695.386	16144
695.406	15966
695.428	15997
695.471	15971
695.514	16146
695.526	16080
695.556	16317
695.599	16810
695.641	17228
695.646	17259
695.684	17279
695.726	16772
695.766	16554
695.769	16607
695.811	16638
695.854	16872
695.886	16735
695.896	16696
695.938	16662
695.981	16468
696.005	16307
696.023	16543
696.065	16997
696.108	17800
696.125	17868
696.150	17710
696.192	17806
696.235	17611
696.245	17534
696.277	17430
696.319	17181
696.361	17189
696.365	17123
696.404	17281
696.446	17405
696.485	17631
696.488	17712
696.530	18124
696.572	18406
696.604	18707
696.614	18677
696.656	18160
696.698	17742
696.724	17408
696.740	17344
696.783	17177
696.825	16893
696.844	16770
696.867	17192
696.909	17718
696.951	18297
696.964	18446
696.992	18402
697.034	18354
697.076	18083
697.083	18009
697.118	18096
697.160	18099
697.202	18231
697.203	18181
697.244	17944
697.286	17827
697.323	17443
697.327	17523
697.369	18058
697.411	18490
697.442	18786
697.453	18871
697.494	18919
697.536	19123
697.562	19072
697.578	19219
697.620	19617
697.661	19925
697.682	20082
697.703	20634
697.744	21487
697.786	22519
697.801	22793
697.828	23017
697.869	23238
697.911	23419
697.921	23425
697.952	22425
697.994	21006
698.035	19535
698.040	19308
698.077	19154
698.118	18921
698.160	18617
698.160	18563
698.201	18842
698.243	18916
698.279	19083
698.284	19138
698.325	19061
698.367	19048
698.399	18928
698.408	19032
698.449	19324
698.491	19570
698.518	19695
698.532	19787
698.573	19893
698.614	20008
698.638	20020
698.656	19993
698.697	19796
698.738	19572
698.757	19435
698.779	19646
698.820	19905
698.862	20184
698.877	20228
698.903	20476
698.944	20790
698.985	21094
698.996	21125
699.026	20869
699.067	20426
699.116	19846
699.235	19866
699.354	20203
699.474	18524
699.593	21399
699.713	21178
699.832	19106
699.951	21700
700.070	19950
700.190	19379
700.309	19368
700.428	20597
700.547	19261
700.667	19299
700.786	19235
700.905	18914
701.024	19786
701.143	18686
701.262	17368
701.381	18545
701.500	19415
701.619	22313
701.738	18928
701.857	17973
701.976	17337
702.095	16959
702.214	20006
702.333	20876
702.452	18951
702.571	17672
702.690	17525
702.809	17730
702.928	17427
703.047	17208
703.165	16919
703.284	17024
703.403	16535
703.522	17574
703.640	17744
703.759	20974
703.878	22381
703.997	16486
704.115	16778
704.234	16260
704.353	16172
704.471	16047
704.590	14741
704.708	15402
704.827	15406
704.946	15486
705.064	15607
705.183	16421
705.301	17420
705.420	21736
705.538	20242
705.656	18004
705.775	16842
705.893	22206
706.012	25142
706.130	18384
706.249	19089
706.367	19164
706.485	19088
706.604	18557
706.722	18533
706.840	22014
706.958	21235
707.077	17642
707.195	17676
707.313	16753
707.431	15072
707.549	16376
707.668	16768
707.786	16890
707.904	16385
708.022	16734
708.140	15958
708.258	16139
708.376	16399
708.494	16333
708.612	16823
708.730	21605
708.848	20288
708.966	21193
709.084	19095
709.202	18577
709.320	18506
709.438	18789
709.556	18617
709.674	18574
709.791	18197
709.909	17007
710.027	17403
710.145	16487
710.263	17462
710.380	17265
710.498	17114
710.616	17071
710.733	17291
710.851	17693
710.969	17936
711.086	17190
711.204	17175
711.322	16727
711.439	16566
711.557	17087
711.674	15693
711.792	16698
711.909	16312
712.027	16351
712.144	15625
712.262	15567
712.379	17261
712.497	21509
712.614	22288
712.732	19589
712.849	18522
712.966	20025
713.084	24692
713.201	20232
713.318	19139
713.436	18620
713.553	19082
713.670	19426
713.787	21063
713.905	21228
714.022	18535
714.139	19455
714.256	23263
714.373	28615
714.490	45930
714.608	116123
714.725	485930
714.842	428910
714.959	36301
715.076	22427
715.193	19702
715.310	18509
715.427	17466
715.544	17778
715.661	16974
715.778	16553
715.895	17723
716.011	17339
716.128	15815
716.245	17504
716.362	21220
716.479	20211
716.596	16298
716.713	16281
716.829	15330
716.946	15551
717.063	15204
717.180	14865
717.296	15264
717.413	15783
717.530	15907
717.646	15008
717.763	14807
717.880	14181
717.996	14396
718.113	14427
718.229	14516
718.346	13292
718.462	15400
718.579	19512
718.695	34643
718.812	21292
718.928	18288
719.045	15039
719.161	13443
719.277	13870
719.394	14068
719.510	14304
719.626	14356
719.743	17608
719.859	22166
719.975	36398
720.092	133793
720.208	278013
720.324	33133
720.440	15755
720.557	17853
720.673	27679
720.789	26986
720.905	41837
721.021	18070
721.137	12819
721.253	12956
721.369	13077
721.486	13855
721.602	15971
721.718	11448
721.834	11839
721.950	12106
722.066	10748
722.181	11325
722.297	12921
722.413	11989
722.529	11843
722.645	11756
722.761	10728
722.877	10720
722.993	10847
723.108	12253
723.224	11297
723.340	11508
723.456	11389
723.571	11604
723.687	10822
723.803	11606
723.918	10684
724.034	10399
724.150	10434
724.265	11802
724.381	18335
724.497	20280
724.612	10075
724.728	9443
724.843	9548
724.959	10856
725.074	18065
725.190	19450
725.305	11214
725.421	10334
725.536	9428
725.651	8870
725.767	10014
725.882	8994
725.997	9519
726.113	9436
726.228	9961
726.343	9332
726.459	8721
726.574	9198
726.689	9587
726.804	9571
726.920	9661
727.035	9035
727.150	8752
727.265	8907
727.380	9025
727.495	9624
727.610	8869
727.725	8613
727.841	9587
727.956	12576
728.071	10341
728.186	8561
728.301	8647
728.416	10251
728.531	9258
728.645	8657
728.760	9366
728.875	11324
728.990	10188
729.105	9546
729.220	9488
729.335	10239
729.449	7936
729.564	8077
729.679	7686
729.794	7657
729.908	9033
730.023	9219
730.138	7937
730.253	8181
730.367	7516
730.482	7566
730.596	8781
730.711	8897
730.826	9306
730.940	8595
731.055	9308
731.169	8711
731.284	8226
731.398	7919
731.513	9596
731.627	9225
731.742	10283
731.856	10686
731.970	9543
732.085	11262
732.199	14164
732.313	20722
732.428	52921
732.542	148082
732.656	77795
732.771	16281
732.885	11150
732.999	10782
733.113	11127
733.227	10858
733.342	9911
733.456	8115
733.570	8518
733.684	8816
733.798	9318
733.912	8894
734.026	8708
734.140	9230
734.254	9541
734.368	12681
734.482	13721
734.596	8286
734.710	8027
734.824	8190
734.938	8530
735.052	9527
735.166	9658
735.280	8861
735.393	7665
735.507	8854
735.621	11435
735.735	13853
735.849	8726
735.962	8287
736.076	8711
736.190	8402
736.303	9764
736.417	11845
736.531	8159
736.644	8651
736.758	8012
736.872	7938
736.985	8220
737.099	6862
737.212	7303
737.326	6902
737.439	7767
737.553	7629
737.666	7763
737.780	6758
737.893	7597
738.007	7013
738.120	7155
738.233	7441
738.347	8209
738.460	7219
738.573	8435
738.687	8771
738.800	8802
738.913	11343
739.026	7736
739.140	7598
739.253	7640
739.366	6810
739.479	6806
739.592	6417
739.705	6166
739.818	7123
739.932	8484
740.045	8637
740.158	7070
740.271	7104
740.384	7067
740.497	7263
740.610	7406
740.723	6945
740.836	7733
740.949	8435
741.062	11437
741.174	8479
741.287	7562
741.400	6739
741.513	7598
741.626	8285
741.739	8040
741.851	7473
741.964	7215
742.077	6842
742.189	6847
742.302	8572
742.415	7828
742.527	7044
742.640	6462
742.753	5813
742.865	6513
742.978	6878
743.090	6155
743.203	6235
743.316	6685
743.428	6330
743.541	5715
743.653	5445
743.766	6222
743.878	6191
743.990	7062
744.103	7356
744.215	6978
744.327	7000
744.440	9645
744.552	13073
744.664	7409
744.777	6036
744.889	5539
745.001	6174
745.113	5657
745.226	5678
745.338	5610
745.450	5715
745.562	5827
745.674	5657
745.786	5826
745.898	6460
746.010	5375
746.122	6305
746.234	7087
746.347	5601
746.459	5608
746.570	4887
746.682	5774
746.794	6207
746.906	5530
747.018	5040
747.130	6234
747.242	4952
747.354	5291
747.466	6060
747.577	4900
747.689	4764
747.801	6089
747.913	4987
748.024	4922
748.136	5270
748.248	4850
748.359	5708
748.471	5447
748.583	5140
748.694	4448
748.806	5977
748.918	6840
749.029	5827
749.141	6188
749.252	5954
749.364	7832
749.475	16009
749.587	8822
749.698	5277
749.809	5694
749.921	4729
750.032	5369
750.144	3992
750.255	4754
750.366	4870
750.478	4709
750.589	5256
750.700	5698
750.811	5921
750.923	8214
751.034	16451
751.145	16123
751.256	5085
751.367	4709
751.479	5394
751.590	4298
751.701	4841
751.812	4034
751.923	4294
752.034	4793
752.145	4050
752.256	4578
752.367	4142
752.478	4317
752.589	4989
752.700	5382
752.811	4682
752.922	4752
753.032	6159
753.143	6707
753.254	4001
753.365	4805
753.476	4036
753.586	4765
753.697	4678
753.808	4669
753.919	4098
754.029	3918
754.140	3927
754.251	4693
754.361	3949
754.472	4987
754.582	4297
754.693	4561
754.804	4324
754.914	4106
755.025	4180
755.135	4515
755.246	4404
755.356	3808
755.466	4452
755.577	5220
755.687	4010
755.798	4219
755.908	3774
756.018	4605
756.129	3688
756.239	4656
756.349	3886
756.460	4243
756.570	5165
756.680	3988
756.790	4506
756.900	5681
757.011	4355
757.121	4077
757.231	3660
757.341	3616
757.451	3828
757.561	3734
757.671	3189
757.781	2849
757.891	4676
758.001	3921
758.111	4561
758.221	5446
758.331	5553
758.441	5436
758.551	7956
758.661	7061
758.771	5586
758.880	4056
758.990	4718
759.100	4205
759.210	4810
759.320	4715
759.429	4102
759.539	4710
759.649	4126
759.758	5250
759.868	6424
759.978	5889
760.087	5656
760.197	5966
760.307	4973
760.416	5793
760.526	4407
760.635	5555
760.745	4747
760.854	5564
760.964	5635
761.073	5961
761.182	5301
761.292	5749
761.401	5004
761.511	4118
761.620	4271
761.729	4870
761.839	5360
761.948	4865
762.057	6580
762.166	5009
762.276	3413
762.385	5874
762.494	5115
762.603	5243
762.712	4507
762.822	4690
762.931	4538
763.040	3577
763.149	4359
763.258	4858
763.367	4907
763.476	5071
763.585	5582
763.694	4701
763.803	5226
763.912	5246
764.021	4589
764.130	4729
764.238	5209
764.347	5295
764.456	5891
764.565	5540
764.674	5311
764.783	6569
764.891	6309
765.000	7557
765.109	7082
765.217	7762
765.326	10284
765.435	11569
765.543	12380
765.652	13943
765.761	16849
765.869	26243
765.978	39499
766.086	68053
766.195	134702
766.303	345417
766.412	819213
766.520	696662
766.629	225148
766.737	83797
766.846	45387
766.954	31052
767.062	23861
767.171	18147
767.279	15010
767.387	12649
767.496	11698
767.604	9680
767.712	10432
767.820	8644
767.928	8241
768.037	7614
768.145	8777
768.253	8028
768.361	6727
768.469	6685
768.577	7130
768.685	8027
768.793	8611
768.901	8117
769.009	9200
769.117	10401
769.225	12220
769.333	18047
769.441	28187
769.549	51593
769.657	121101
769.765	381519
769.873	696146
769.981	267661
770.088	65896
770.196	31801
770.304	21822
770.412	16853
770.519	12048
770.627	9894
770.735	9094
770.842	8205
770.950	8791
771.058	7211
771.165	7553
771.273	6048
771.380	6480
771.488	6109
771.595	6298
771.703	6124
771.810	6931
771.918	5300
772.025	6037
772.133	6073
772.240	5658
772.348	6759
772.455	6532
772.562	5552
772.670	5798
772.777	6576
772.884	4744
772.991	5575
773.099	5066
773.206	4660
773.313	6090
773.420	5824
773.528	4905
773.635	4348
773.742	5474
773.849	5535
773.956	4679
774.063	4709
774.170	4983
774.277	5771
774.384	5074
774.491	5205
774.598	6269
774.705	5531
774.812	7342
774.919	5723
775.026	5248
775.133	4935
775.239	4785
775.346	5360
775.453	4681
775.560	4733
775.667	4616
775.773	4527
775.880	4878
775.987	4697
776.093	4425
776.200	4863
776.307	4000
776.413	5386
776.520	4625
776.627	4723
776.733	4366
776.840	3779
776.946	6519
777.053	4568
777.159	5492
777.266	4121
777.372	5132
777.478	5534
777.585	5173
777.691	4945
777.798	5231
777.904	5181
778.010	7613
778.117	6405
778.223	4500
778.329	3934
778.435	4545
778.542	4970
778.648	4444
778.754	3694
778.860	4307
778.966	4782
779.072	4015
779.178	3623
779.284	3523
779.391	4101
779.497	3408
779.603	5809
779.708	4467
779.815	6579
779.920	16037
780.026	29844
780.132	5974
780.238	4289
780.344	3935
780.450	4923
780.556	3368
780.661	3292
780.767	4131
780.873	4025
780.979	3713
781.085	3650
781.190	3566
781.296	3483
781.402	3334
781.507	3347
781.613	3612
781.719	3137
781.824	3482
781.930	4067
782.035	4177
782.141	4600
782.246	3047
782.352	3516
782.457	4180
782.563	3589
782.668	3660
782.773	4194
782.879	3630
782.984	4736
783.090	5511
783.195	8614
783.300	5030
783.405	3982
783.511	3418
783.616	4545
783.721	4053
783.826	2602
783.932	3838
784.037	3776
784.142	4044
784.247	3834
784.352	3725
784.457	3357
784.562	3323
784.667	3014
784.772	3269
784.877	2407
784.982	3289
785.087	3765
785.192	3774
785.297	2741
785.402	3184
785.507	2965
785.611	3257
785.716	3572
785.821	2865
785.926	2668
786.031	2966
786.135	3079
786.240	3542
786.345	2382
786.450	3177
786.554	3225
786.659	2526
786.763	2274
786.868	3500
786.973	4130
787.077	2799
787.182	3117
787.286	2886
787.391	3099
787.495	2490
787.600	3227
787.704	2520
787.809	2572
787.913	2837
788.017	3499
788.122	2705
788.226	3238
788.330	1843
788.435	2825
788.539	3189
788.643	1807
788.747	2161
788.852	2370
788.956	1667
789.060	3168
789.164	2826
789.268	1867
789.372	3552
789.476	2894
789.580	2223
789.684	1719
789.788	3484
789.892	2518
789.996	3290
790.100	2103
790.204	2627
790.308	3182
790.412	2538
790.516	1842
790.620	2121
790.724	2469
790.828	2746
790.931	1831
791.035	4361
791.139	2702
791.242	1485
791.346	3652
791.450	2219
791.554	2545
791.657	1463
791.761	3527
791.864	2881
791.968	2626
792.072	2953
792.175	2382
792.279	2612
792.382	2916
792.486	2434
792.589	2137
792.693	2758
792.796	1922
792.899	3490
793.003	2354
793.106	1327
793.209	2481
793.313	3747
793.416	1069
793.519	4329
793.623	5754
793.726	7914
793.829	3527
793.932	2392
794.035	1891
794.138	2935
794.242	3716
794.345	4227
794.448	4738
794.551	6477
794.654	11032
794.757	15383
794.860	4560
794.963	2655
795.066	1853
795.169	3344
795.272	2393
795.375	3148
795.477	2074
795.580	3044
795.683	1233
795.786	3017
795.889	892
795.991	3712
796.094	4129
796.197	1289
796.300	2662
796.402	1989
796.505	2427
796.608	2011
796.710	2606
796.813	2266
796.915	2822
797.018	2222
797.120	2104
797.223	1040
797.326	3563
797.428	1521
797.530	1667
797.633	2184
797.735	3237
797.838	2752
797.940	3340
798.042	2290
798.145	1959
798.247	2910
798.349	2267
798.452	2440
798.554	1705
798.656	1933
798.758	2817
798.860	1766
798.962	1408
799.065	1810
799.167	1078
799.269	2691
799.371	3501
799.473	3327
799.575	3380
799.677	2968
799.779	4692
799.881	4990
799.983	4151
800.085	2190
800.187	1647
800.289	1698
800.390	2040
800.492	2127
800.594	3472
800.696	1014
800.798	2064
800.899	1371
801.001	1576
801.103	1184
801.205	2036
801.306	3014
801.408	1963
801.509	1684
801.611	1642
801.713	1750
801.814	1012
801.916	2140
802.017	1436
802.119	497
802.220	2132
802.322	-173
802.423	4020
802.525	944
802.626	1805
802.727	2615
802.829	2097
802.930	-357
803.031	3146
803.133	1144
803.234	1593
803.335	1303
803.436	1686
803.538	2145
803.639	932
803.740	2039
803.841	1865
803.942	2482
804.043	2683
804.144	463
804.245	1379
804.346	664
804.447	1445
804.548	4278
804.649	4796
804.750	1285
804.851	1973
804.952	2092
805.053	1272
805.154	419
805.255	2748
805.355	1802
805.456	795
805.557	692
805.658	1491
805.758	1867
805.859	1716
805.960	1078
806.061	277
806.161	997
806.262	1327
806.362	649
806.463	1884
806.564	2844
806.664	1087
806.765	1638
806.865	2989
806.966	1165
807.066	1708
807.166	3257
807.267	1132
807.367	331
807.468	2847
807.568	47
807.668	2421
807.769	1981
807.869	1336
807.969	1443
808.069	1461
808.170	2224
808.270	1477
808.370	2754
808.470	3446
808.570	1785
808.670	1718
808.770	1356
808.870	785
808.970	1685
809.070	1158
809.170	1131
809.271	2229
809.370	999
809.470	2208
809.570	1322
809.670	223
809.770	1256
809.870	2055
809.970	1859
810.070	1972
810.169	1843
810.269	81
810.369	2487
810.469	1209
810.568	1196
810.668	945
810.768	665
810.867	1401
810.967	559
811.066	1561
811.166	1848
811.265	2195
811.365	1069
811.464	1045
811.564	1492
811.663	1950
811.763	572
811.862	2023
811.962	2213
812.061	1346
812.160	569
812.260	1169
812.359	2439
812.458	3563
812.557	9832
812.657	12643
812.756	4510
812.855	2047
812.954	1079
813.053	2686
813.153	2151
813.252	597
813.351	1360
813.450	663
813.549	967
813.648	1770
813.747	1300
813.846	1704
813.945	1552
814.044	2268
814.143	1986
814.242	1987
814.341	1183
814.439	2043
814.538	2298
814.637	2249
814.736	1472
814.835	2549
814.933	1944
815.032	2246
815.131	1495
815.229	3285
815.328	3575
815.427	3515
815.525	3743
815.624	2791
815.722	2539
815.821	3003
815.919	4098
816.018	3404
816.116	4379
816.215	3385
816.313	4755
816.412	3928
816.510	4152
816.609	5936
816.707	5716
816.805	5519
816.904	4352
817.002	6596
817.100	7096
817.198	7991
817.296	7237
817.395	9314
817.493	10658
817.591	11565
817.689	16841
817.787	21959
817.885	35827
817.983	63299
818.081	130148
818.179	297546
818.277	670491
818.375	560098
818.473	183124
818.571	75738
818.669	49600
818.767	41730
818.865	42909
818.963	49028
819.061	72755
819.158	118705
819.256	237492
819.354	511714
819.452	898532
819.549	638907
819.647	240740
819.745	107595
819.842	63640
819.940	42742
820.038	30243
820.135	24207
820.233	20424
820.330	15958
820.428	13387
820.525	11929
820.623	10109
820.720	9914
820.818	8977
820.915	7225
821.012	7786
821.110	6069
821.207	5954
821.304	5475
821.402	5519
821.499	5492
821.596	5630
821.693	5368
821.791	6207
821.888	6550
821.985	11348
822.082	8121
822.179	5283
822.276	3976
822.373	3631
822.470	3962
822.567	3089
822.664	2336
822.761	3734
822.858	3420
822.955	3233
823.052	3753
823.149	3079
823.246	2267
823.343	2536
823.440	2608
823.536	1895
823.633	1899
823.730	2682
823.827	2396
823.923	2916
824.020	2911
824.117	2101
824.213	2041
824.310	2840
824.407	2185
824.503	2841
824.600	3290
824.696	1760
824.793	2648
824.889	1833
824.986	2236
825.082	1184
825.179	3238
825.275	1734
825.371	1409
825.468	2682
825.564	1040
825.660	2601
825.757	1772
825.853	2965
825.949	896
826.045	1572
826.142	1490
826.238	526
826.334	1800
826.430	736
826.526	2155
826.622	927
826.718	2049
826.814	744
826.910	2504
827.006	682
827.102	593
827.198	2263
827.294	1576
827.390	1879
827.486	2414
827.582	1397
827.678	995
827.774	2117
827.869	707
827.965	2150
828.061	144
828.157	2219
828.252	1450
828.348	843
828.444	2443
828.539	817
828.635	1296
828.731	2538
828.826	866
828.922	1862
829.017	1312
829.113	1802
829.208	370
829.304	1940
829.399	2173
829.495	1547
829.590	2094
829.685	638
829.781	1479
829.876	1384
829.971	627
830.066	528
830.162	1270
830.257	1359
830.352	531
830.447	2168
830.543	1007
830.638	662
830.733	2546
830.828	972
830.923	1942
831.018	1271
831.113	1971
831.208	1107
831.303	823
831.398	1301
831.493	964
831.588	1032
831.683	169
831.778	1680
831.873	867
831.967	1607
832.062	322
832.157	154
832.252	1817
832.346	1459
832.441	2624
832.536	3675
832.631	9427
832.725	6850
832.820	2033
832.914	952
833.009	1261
833.104	2002
833.198	2392
833.293	1246
833.387	1409
833.482	1503
833.576	666
833.670	1308
833.765	473
833.859	1395
833.954	2036
834.048	1515
834.142	987
834.237	96
834.331	897
834.425	828
834.519	69
834.613	1371
834.708	1795
834.802	899
834.896	335
834.990	264
835.084	710
835.178	332
835.272	1111
835.366	850
835.460	1292
835.554	202
835.648	1051
835.742	604
835.836	881
835.930	120
836.024	889
836.117	1569
836.211	1357
836.305	1665
836.399	2055
836.493	382
836.586	854
836.680	587
836.774	-178
836.867	939
836.961	21
837.055	-92
837.148	872
837.242	650
837.335	340
837.429	1331
837.522	-43
837.616	1222
837.709	2802
837.803	329
837.896	1308
837.989	344
838.083	1556
838.176	3241
838.269	1386
838.363	1269
838.456	989
838.549	3430
838.642	4030
838.735	8897
838.829	4035
838.922	856
839.015	445
839.108	27
839.201	900
839.294	1046
839.387	749
839.480	528
839.573	1376
839.666	1039
839.759	348
839.852	235
839.945	1237
840.038	-81
840.131	1174
840.223	-144
840.316	991
840.409	38
840.502	169
840.594	1223
840.687	-470
840.780	723
840.873	322
840.965	639
841.058	1799
841.150	2119
841.243	995
841.336	954
841.428	499
841.521	-129
841.613	-569
841.706	1075
841.798	947
841.890	772
841.983	-435
842.075	1238
842.167	1114
842.260	1294
842.352	1171
842.444	1393
842.537	2934
842.629	3087
842.721	543
842.813	1341
842.905	-270
842.997	410
843.090	441
843.182	1654
843.274	2051
843.366	7270
843.458	10793
843.550	7375
843.642	366
843.734	81
843.826	607
843.918	1470
844.009	1157
844.101	250
844.193	211
844.285	478
844.377	210
844.469	806
844.560	539
844.652	899
844.744	575
844.835	764
844.927	794
845.019	864
845.110	267
845.202	243
845.293	408
845.385	640
845.476	830
845.568	635
845.659	1111
845.751	763
845.842	-379
845.934	491
846.025	551
846.116	816
846.208	620
846.299	266
846.390	923
846.482	156
846.573	1040
846.664	1648
846.755	2198
846.846	2382
846.937	-852
847.029	272
847.120	-84
847.211	554
847.302	1601
847.393	416
847.484	616
847.575	-74
847.666	-474
847.757	356
847.847	-427
847.938	1019
848.029	825
848.120	-308
848.211	878
848.302	-540
848.392	18
848.483	1107
848.574	633
848.664	206
848.755	545
848.846	245
848.936	27
849.027	-407
849.118	105
849.208	-569
849.299	1422
849.389	2557
849.480	4403
849.570	10908
849.661	19043
849.751	31773
849.841	9614
849.932	1842
850.022	458
850.112	714
850.203	236
850.293	362
850.383	-703
850.474	200
850.564	314
850.654	485
850.744	-251
850.834	831
850.924	592
851.014	415
851.104	-93
851.194	1043
851.284	1678
851.374	1503
851.464	951
851.554	-373
851.644	235
851.734	1465
851.824	311
851.914	194
852.004	166
852.094	977
852.183	501
852.273	623
852.363	332
852.452	883
852.542	357
852.632	405
852.721	170
852.811	1150
852.901	1124
852.990	399
853.080	71
853.169	28
853.259	48
853.348	399
853.438	1039
853.527	2736
853.617	3045
853.706	6053
853.795	13837
853.885	32630
853.974	63166
854.063	118147
854.152	180282
854.242	61706
854.331	9750
854.420	4395
854.509	2807
854.598	2456
854.687	1030
854.777	1522
854.866	1058
854.955	884
855.044	-134
855.133	221
855.222	-388
855.311	409
855.400	1074
855.488	91
855.577	-7
855.666	455
855.755	678
855.844	1080
855.933	802
856.021	-19
856.110	367
856.199	111
856.288	202
856.376	392
856.465	-242
856.554	-15
856.642	-32
856.731	842
856.819	565
856.908	397
856.996	691
857.085	-98
857.173	299
857.262	-566
857.350	172
857.438	774
857.527	215
857.615	-138
857.703	560
857.792	-242
857.880	-540
857.968	78
858.056	732
858.145	332
858.233	8
858.321	-744
858.409	536
858.497	-418
858.585	-323
858.673	7
858.761	-311
858.849	-418
858.937	-68
859.025	-576
859.113	-157
859.201	320
859.289	863
859.377	-128
859.465	644
859.552	109
859.640	99
859.728	30
859.816	285
859.903	529
859.991	-515
860.079	457
860.166	-39
860.254	397
860.342	-77
860.429	-725
860.517	-332
860.604	320
860.692	-246
860.779	-632
860.867	734
860.954	-60
861.042	1080
861.129	401
861.216	482
861.304	-570
861.391	89
861.478	181
861.565	286
861.653	1103
861.740	-399
861.827	-191
861.914	-476
862.001	127
862.089	47
862.176	653
862.263	25
862.350	-333
862.437	-340
862.524	-1010
862.611	-988
862.698	-565
862.785	101
862.871	383
862.958	-409
863.045	-794
863.132	-463
863.219	-629
863.306	-41
863.392	554
863.479	-353
863.566	7
863.652	-43
863.739	112
863.826	892
863.912	409
863.999	-763
864.086	198
864.172	-809
864.259	-153
864.345	-322
864.432	108
864.518	2
864.604	-254
864.691	288
864.777	768
864.863	639
864.950	1444
865.036	1357
865.122	1855
865.209	1822
865.295	1956
865.381	2121
865.467	2663
865.553	3470
865.639	3922
865.726	7310
865.812	15421
865.898	31952
865.984	47247
866.070	91063
866.156	92311
866.242	21945
866.328	4404
866.414	2112
866.499	2241
866.585	2327
866.671	1755
866.757	1850
866.843	1203
866.928	1098
867.014	919
867.100	1119
867.186	1084
867.271	1875
867.357	2666
867.442	1629
867.528	1360
867.614	652
867.699	1620
867.785	919
867.870	384
867.956	1349
868.041	1538
868.127	1623
868.212	732
868.297	972
868.383	1941
868.468	3080
868.553	5368
868.639	5168
868.724	12535
868.809	9664
868.894	1710
868.979	481
869.065	553
869.150	557
869.235	662
869.320	390
869.405	344
869.490	421
869.575	540
869.660	128
869.745	511
869.830	-58
869.915	94
870.000	132
870.085	110
870.169	277
870.254	1595
870.339	183
870.424	475
870.509	908
870.593	714
870.678	517
870.763	791
870.847	445
870.932	676
871.016	-68
871.101	406
871.186	474
871.270	1116
871.355	440
871.439	5
871.523	591
871.608	743
871.692	207
871.777	1129
871.861	730
871.945	571
872.030	808
872.114	-106
872.198	508
872.282	-131
872.367	426
872.451	422
872.535	127
872.619	260
872.703	-164
872.787	374
872.871	352
872.955	262
873.039	107
873.123	1031
873.207	1519
873.291	-398
873.375	84
873.459	360
873.543	253
873.627	-121
873.711	634
873.794	905
873.878	-76
873.962	65
874.045	-522
874.129	806
874.137	781
874.213	532
874.245	534
874.296	534
874.352	547
874.380	555
874.460	267
874.464	255
874.547	-599
874.568	-272
874.631	709
874.676	374
874.714	90
874.784	806
874.798	948
874.881	1150
874.892	988
874.965	-166
874.999	-10
875.048	214
875.107	-271
875.131	-471
875.215	466
875.215	466
875.298	-113
875.323	-10
875.381	153
875.430	334
875.465	476
875.538	855
875.548	904
875.631	338
875.646	208
875.714	-337
875.753	-183
875.798	-73
875.861	203
875.881	320
875.964	234
875.968	215
876.047	-143
876.076	285
876.130	998
876.183	1173
876.213	1317
876.291	811
876.296	771
876.379	90
876.398	201
876.462	664
876.506	397
876.545	96
876.613	387
876.628	432
876.711	541
876.721	476
876.794	246
876.828	36
876.877	-368
876.935	337
876.960	657
877.043	913
877.043	911
877.125	396
877.150	763
877.208	1559
877.258	1008
877.291	701
877.365	1010
877.374	1022
877.456	215
877.472	323
877.539	869
877.579	756
877.622	706
877.687	1021
877.704	1063
877.787	1099
877.794	1017
877.869	201
877.901	406
877.952	632
878.008	602
878.034	697
878.115	348
878.117	340
878.199	251
878.222	399
878.282	634
878.329	624
878.364	671
878.437	950
878.447	979
878.529	-427
878.544	-355
878.611	75
878.651	-113
878.694	-262
878.758	471
878.776	636
878.858	427
878.865	412
878.941	459
878.972	316
879.023	-156
879.078	-106
879.105	115
879.185	1019
879.187	1025
879.269	781
879.292	751
879.351	1124
879.399	567
879.433	-51
879.506	353
879.516	461
879.598	-200
879.613	-99
879.680	102
879.720	399
879.762	716
879.827	376
879.844	315
879.926	377
879.933	437
880.007	745
880.040	698
880.089	782
880.147	1561
880.171	1970
880.253	4504
880.254	4522
880.335	6905
880.360	7460
880.417	9446
880.467	14562
880.499	18008
880.574	20034
880.580	19753
880.662	6056
880.680	4585
880.744	1430
880.787	1008
880.825	1043
880.893	911
880.907	829
880.989	130
881.000	116
881.070	153
881.106	179
881.152	591
881.213	395
881.233	132
881.315	295
881.319	272
881.396	86
881.426	69
881.478	160
881.532	206
881.559	198
881.639	217
881.641	224
881.722	410
881.745	600
881.803	919
881.852	727
881.885	580
881.958	581
881.966	562
882.047	739
882.064	621
882.129	660
882.171	1068
882.210	1377
882.277	2270
882.291	2355
882.372	787
882.383	653
882.454	-103
882.489	-252
882.535	-144
882.596	155
882.616	204
882.697	252
882.702	242
882.778	321
882.808	585
882.859	652
882.914	307
882.940	227
883.020	-269
883.021	-268
883.102	265
883.127	268
883.183	-34
883.233	59
883.264	264
883.339	345
883.345	341
883.426	-92
883.445	-12
883.507	7
883.551	-367
883.587	-366
883.657	287
883.668	354
883.749	196
883.763	235
883.830	453
883.869	359
883.910	128
883.975	42
883.991	106
884.072	443
884.081	457
884.152	293
884.187	161
884.233	-22
884.292	-60
884.314	35
884.394	-56
884.398	-44
884.475	-210
884.504	-116
884.555	428
884.610	339
884.636	242
884.716	453
884.716	457
884.797	409
884.821	349
884.877	492
884.927	366
884.958	184
885.033	432
885.038	463
885.118	103
885.139	211
885.199	359
885.244	165
885.279	77
885.350	176
885.359	210
885.439	205
885.456	220
885.520	215
885.561	294
885.600	222
885.667	-108
885.680	-21
885.760	569
885.773	701
885.840	385
885.878	-5
885.920	-92
885.984	-96
886.000	9
886.080	644
886.089	682
886.160	140
886.195	-2
886.240	123
886.300	187
886.320	276
886.400	613
886.406	634
886.480	340
886.511	213
886.560	664
886.616	1155
886.640	1086
886.720	691
886.722	680
886.800	672
886.827	686
886.879	740
886.932	726
886.959	742
887.038	745
887.039	745
887.119	335
887.143	265
887.198	407
887.248	397
887.278	139
887.354	-519
887.358	-493
887.437	65
887.459	222
887.517	397
887.564	528
887.596	428
887.669	87
887.676	109
887.755	436
887.774	492
887.835	410
887.880	408
887.914	284
887.985	-110
887.994	-112
888.073	-145
888.090	-142
888.153	124
888.195	329
888.232	324
888.300	270
888.311	332
888.391	701
888.405	776
888.470	469
888.510	255
888.549	91
888.615	-165
888.628	-84
888.708	327
888.720	401
888.787	242
888.825	116
888.866	114
888.930	149
888.945	264
889.024	868
889.035	943
889.103	1066
889.140	1114
889.182	434
889.245	-542
889.261	-343
889.340	585
889.349	697
889.419	867
889.454	917
889.498	746
889.559	539
889.577	408
889.656	-178
889.664	-233
889.735	92
889.768	250
889.814	192
889.873	115
889.978	130
890.083	507
890.187	1437
890.292	658
890.397	920
890.501	-164
890.606	363
890.710	874
890.815	891
890.919	-68
891.024	118
891.128	34
891.233	461
891.337	496
891.442	507
891.546	379
891.650	1082
891.755	-62
891.859	1323
891.963	-12
892.068	290
892.172	589
892.276	-213
892.380	321
892.484	322
892.589	208
892.693	431
892.797	209
892.901	315
893.005	194
893.109	73
893.213	123
893.317	614
893.421	1019
893.525	329
893.629	524
893.733	975
893.837	52
893.941	-110
894.045	899
894.148	-232
894.252	678
894.356	424
894.460	-362
894.564	1437
894.667	653
894.771	23
894.875	165
894.978	490
895.082	-49
895.186	805
895.289	369
895.393	222
895.496	88
895.600	486
895.703	302
895.807	1280
895.910	320
896.014	572
896.117	171
896.221	572
896.324	-36
896.427	874
896.531	520
896.634	195
896.737	386
896.840	537
896.944	105
897.047	297
897.150	-244
897.253	171
897.356	260
897.460	224
897.563	543
897.666	111
897.769	259
897.872	-535
897.975	-154
898.078	106
898.181	330
898.284	768
898.387	1105
898.490	682
898.593	86
898.695	-93
898.798	836
898.901	309
899.004	-234
899.107	417
899.209	-258
899.312	-37
899.415	1
899.518	404
899.620	-195
899.723	-390
899.826	724
899.928	1491
900.031	5
900.133	-1108
900.236	53
900.338	413
900.441	-117
900.543	100
900.646	237
900.748	194
900.851	906
900.953	926
901.055	718
901.158	171
901.260	131
901.362	709
901.465	177
901.567	803
901.669	266
901.771	228
901.873	604
901.976	509
902.078	-208
902.180	68
902.282	-95
902.384	918
902.486	-104
902.588	780
902.690	559
902.792	-277
902.894	-194
902.996	327
903.098	-26
903.200	91
903.302	-124
903.404	487
903.505	-7
903.607	457
903.709	616
903.811	122
903.913	703
904.014	399
904.116	-441
904.218	-395
904.319	372
904.421	444
904.523	-168
904.624	794
904.726	204
904.827	67
904.929	-323
905.030	299
905.132	66
905.233	52
905.335	-93
905.436	85
905.537	457
905.639	607
905.740	-318
905.841	1095
905.943	347
906.044	-215
906.145	354
906.247	-383
906.348	-23
906.449	-24
906.550	-465
906.651	495
906.752	353
906.854	12
906.955	304
907.056	327
907.157	-117
907.258	-345
907.359	373
907.460	227
907.561	254
907.662	235
907.762	29
907.863	-82
907.964	-599
908.065	978
908.166	142
908.267	-907
908.367	443
908.468	698
908.569	-158
908.670	-30
908.770	686
908.871	410
908.971	175
909.072	521
909.173	-131
909.273	-520
909.374	-219
909.474	-583
909.575	-606
909.675	398
909.776	7
909.876	344
909.977	-42
910.077	816
910.177	512
910.278	-75
910.378	-286
910.478	-20
910.579	-53
910.679	50
910.779	13
910.879	-83
910.980	-1040
911.080	218
911.180	-223
911.280	-455
911.380	-263
911.480	271
911.580	-1128
911.680	-144
911.780	218
911.880	729
911.980	-554
912.080	-450
912.180	-272
912.280	-817
912.380	-418
912.480	93
912.580	154
912.679	128
912.779	-390
912.879	-144
912.979	-137
913.078	108
913.178	62
913.278	-229
913.377	-432
913.477	515
913.577	263
913.676	-292
913.776	171
913.875	95
913.975	103
914.074	-87
914.174	-780
914.273	-408
914.373	93
914.472	581
914.572	-798
914.671	-289
914.770	649
914.870	-18
914.969	-281
915.068	126
915.167	235
915.267	294
915.366	-360
915.465	-530
915.564	552
915.663	1257
915.763	50
915.862	92
915.961	-372
916.060	-248
916.159	-225
916.258	-84
916.357	-131
916.456	575
916.555	-298
916.654	-93
916.752	-158
916.851	-200
916.950	-238
917.049	226
917.148	-174
917.247	697
917.345	-1117
917.444	-185
917.543	-730
917.642	583
917.740	-594
917.839	-947
917.937	666
918.036	454
918.135	-245
918.233	-454
918.332	-321
918.430	4
918.529	203
918.627	-122
918.726	-104
918.824	208
918.923	261
919.021	-40
919.119	3
919.218	82
919.316	62
919.414	-417
919.512	-343
919.611	133
919.709	261
919.807	424
919.905	369
920.003	295
920.102	-445
920.200	-558
920.298	656
920.396	-540
920.494	171
920.592	-243
920.690	-293
920.788	-263
920.886	-16
920.984	329
921.082	-759
921.180	448
921.277	65
921.375	267
921.473	358
921.571	-668
921.669	787
921.766	677
921.864	170
921.962	617
922.060	-160
922.157	664
922.255	347
922.352	469
922.450	157
922.548	-355
922.645	-343
922.743	463
922.840	785
922.938	478
923.035	1201
923.133	294
923.230	446
923.327	1264
923.425	124
923.522	1452
923.619	1086
923.717	1015
923.814	618
923.911	551
924.008	1136
924.106	1066
924.203	-153
924.300	52
924.397	442
924.494	1203
924.591	-33
924.688	762
924.786	576
924.883	534
924.979	-268
925.077	359
925.173	1276
925.270	631
925.367	-2
925.464	903
925.561	1234
925.658	498
925.755	374
925.852	531
925.948	552
926.045	1157
926.142	311
926.239	304
926.335	16
926.432	414
926.529	60
926.625	490
926.722	491
926.818	670
926.915	89
927.011	213
927.108	-126
927.204	795
927.301	32
927.397	879
927.494	401
927.590	565
927.687	-431
927.783	176
927.879	787
927.976	-453
928.072	-106
928.168	613
928.264	-338
928.361	188
928.457	483
928.553	449
928.649	86
928.745	378
928.841	617
928.937	-30
929.033	-421
929.129	882
929.225	110
929.321	228
929.417	347
929.513	699
929.609	306
929.705	41
929.801	-166
929.897	387
929.993	362
930.089	80
930.184	50
930.280	-96
930.376	557
930.471	794
930.567	194
930.663	669
930.758	-332
930.854	-171
930.950	-142
931.045	-46
931.141	-155
931.236	-47
931.332	-160
931.427	-79
931.523	487
931.618	155
931.714	-248
931.809	56
931.905	605
932.000	307
932.095	-149
932.191	-52
932.286	-535
932.381	-278
932.476	-197
932.572	306
932.667	8
932.762	-12
932.857	-146
932.952	281
933.047	-419
933.142	-122
933.237	-426
933.332	453
933.427	208
933.522	538
933.617	874
933.712	79
933.807	83
933.902	-37
933.997	248
934.092	-209
934.187	125
934.282	467
934.376	-174
934.471	-277
934.566	-81
934.661	657
934.755	-18
934.850	473
934.945	604
935.039	213
935.134	-583
935.228	244
935.323	221
935.417	-202
935.512	-286
935.606	-718
935.701	69
935.795	-287
935.890	163
935.984	201
936.079	169
936.173	240
936.267	70
936.362	311
936.456	-149
936.550	524
936.644	22
936.738	-43
936.833	599
936.927	-266
937.021	11
937.115	-203
937.209	-870
937.303	622
937.397	-570
937.491	-113
937.585	262
937.679	379
937.773	257
937.867	311
937.961	99
938.055	-106
938.149	324
938.243	-23
938.337	341
938.430	250
938.524	1
938.618	588
938.712	557
938.805	-632
938.899	221
938.993	164
939.086	274
939.180	-892
939.274	558
939.367	517
939.461	885
939.554	61
939.648	-622
939.741	165
939.835	-450
939.928	937
940.022	384
940.115	685
940.208	787
940.302	494
940.395	191
940.488	-284
940.582	656
940.675	85
940.768	-187
940.861	-167
940.954	119
941.048	157
941.141	82
941.234	717
941.327	800
941.420	1445
941.513	827
941.606	-21
941.699	285
941.792	684
941.885	489
941.978	819
942.071	-227
942.164	-533
942.257	-372
942.349	-42
942.442	-178
942.535	-497
942.628	80
942.721	526
942.813	-1165
942.906	89
942.999	32
943.091	-396
943.184	-755
943.277	-938
943.369	811
943.462	481
943.554	-306
943.647	-225
943.739	-164
943.832	231
943.924	-1186
944.017	-430
944.109	-265
944.201	180
944.294	503
944.386	295
944.478	-55
944.571	109
944.663	332
944.755	-166
944.847	-120
944.940	709
945.032	-256
945.124	95
945.216	456
945.308	-38
945.400	581
945.492	-210
945.584	72
945.676	368
945.768	389
945.860	-47
945.952	-155
946.044	-110
946.136	-210
946.228	622
946.320	225
946.412	-788
946.503	-319
946.595	566
946.687	-461
946.779	-351
946.870	583
946.962	-241
947.054	554
947.145	811
947.237	-49
947.329	114
947.420	-956
947.512	138
947.603	-660
947.695	447
947.786	-1089
947.878	263
947.969	421
948.061	-723
948.152	-523
948.243	149
948.335	283
948.426	-580
948.517	7
948.609	-129
948.700	-41
948.791	-494
948.882	-85
948.973	-182
949.065	-431
949.156	322
949.247	-496
949.338	-554
949.429	-899
949.520	299
949.611	-778
949.702	709
949.793	-327
949.884	-513
949.975	-366
950.066	-462
950.157	-828
950.247	-210
950.338	-494
950.429	-53
950.520	8
950.611	-246
950.701	65
950.792	-71
950.883	32
950.973	-375
951.064	-189
951.155	-843
951.245	92
951.336	115
951.427	-461
951.517	591
951.608	-596
951.698	-316
951.788	6
951.879	-791
951.969	-407
952.060	-1047
952.150	-205
952.240	380
952.331	-1774
952.421	231
952.511	-1010
952.602	-182
952.692	-996
952.782	-25
952.872	-18
952.962	824
953.052	-654
953.143	-85
953.233	-41
953.323	-312
953.413	-168
953.503	353
953.593	-185
953.683	-879
953.773	-1643
953.863	-367
953.953	-179
954.042	-97
954.132	-300
954.222	177
954.312	-1449
954.402	418
954.492	-456
954.581	-888
954.671	-129
954.761	-499
954.850	372
954.940	-380
955.030	-613
955.119	-1
955.209	-199
955.298	-552
955.388	-103
955.477	-12
955.567	-1015
955.656	3
955.746	-294
955.835	-926
955.925	-688
956.014	604
956.103	197
956.193	-82
956.282	-454
956.371	412
956.461	-753
956.550	-809
956.639	375
956.728	-427
956.817	-124
956.906	63
956.995	-1096
957.085	-613
957.174	-449
957.263	-431
957.352	-162
957.441	-361
957.530	-431
957.619	390
957.708	-92
957.796	89
957.885	-133
957.974	-660
958.063	-145
958.152	-1626
958.241	-60
958.329	-539
958.418	-35
958.507	-1193
958.596	463
958.684	-624
958.773	455
958.861	-614
958.950	57
959.039	467
959.127	-536
959.216	-373
959.304	-1401
959.393	-426
959.481	-862
959.570	-812
959.658	-879
959.746	36
959.835	-437
959.923	-524
960.011	-1084
960.100	593
960.188	22
960.276	-740
960.365	227
960.453	-371
960.541	-994
960.629	-115
960.717	-438
960.805	-1455
960.893	-525
960.981	-1046
961.069	348
961.158	-692
961.245	-94
961.333	268
961.421	-411
961.509	-491
961.597	-489
961.685	-528
961.773	-565
961.861	-817
961.949	-220
962.036	-990
962.124	196
962.212	-224
962.299	-1270
962.387	-741
962.475	-132
962.562	-896
962.650	71
962.738	165
962.825	-1302
962.913	2
963.000	-1679
963.088	-1199
963.175	-1184
963.263	-550
963.350	-953
963.438	-443
963.525	-935
963.612	51
963.700	-394
963.787	1552
963.874	-300
963.962	-33
964.049	-1073
964.136	-118
964.223	-948
964.310	-359
964.398	-1138
964.485	-828
964.572	284
964.659	5
964.746	-494
964.833	-595
964.920	-726
965.007	-861
965.094	10
965.181	-1349
965.268	-996
965.355	-231
965.441	-21
965.528	-892
965.615	-299
965.702	269
965.789	-1083
965.875	-687
965.962	-333
966.049	-994
966.136	-153
966.222	-924
966.309	-888
966.395	-854
966.482	-281
966.569	-1497
966.655	-912
966.742	-1113
966.828	-835
966.915	-861
967.001	-359
967.087	-1375
967.174	-281
967.260	-539
967.347	-1346
967.433	-148
967.519	262
967.605	-750
967.692	-891
967.778	-630
967.864	-356
967.950	-351
968.036	-824
968.123	-851
968.209	-1190
968.295	-2085
968.381	363
968.467	-391
968.553	-2246
968.639	-194
968.725	-1184
968.811	-163
968.897	-290
968.983	-458
969.069	-1408
969.154	-762
969.240	-717
969.326	-729
969.412	-1505
969.497	-310
969.583	-1509
969.669	624
969.755	-996
969.840	-428
969.926	-1116
970.012	-899
970.097	75
970.183	-681
970.268	-1970
970.354	-359
970.439	-1577
970.525	275
970.610	-1939
970.696	271
970.781	-242
970.866	-1658
970.952	-1197
971.037	-1218
971.122	-809
971.208	197
971.293	-1193
971.378	-1843
971.463	-1306
971.549	-847
971.634	-914
971.719	-735
971.804	-1204
971.889	-135
971.974	-1583
972.059	-1153
972.144	-491
972.229	-588
972.314	-1558
972.399	-937
972.484	-828
972.569	32
972.654	-1545
972.739	321
972.824	-1560
972.908	-692
972.993	-691
973.078	-824
973.163	-429
973.247	-418
973.332	-2797
973.417	-84
973.501	-1349
973.586	127
973.671	-463
973.755	-799
973.840	-668
973.924	-511
974.009	-912
974.093	-1407
974.178	79
974.262	-918
974.346	-1620
974.431	-700
974.515	-524
974.600	-811
974.684	-166
974.768	-1187
974.852	-112
974.937	-1662
975.021	-869
975.105	-891
975.189	-1385
975.273	-675
975.358	-901
975.442	-1186
975.526	-373
975.610	-1292
975.694	-1419
975.778	-158
975.862	-575
975.946	-2611
976.030	282
976.114	-854
976.198	-459
976.281	-343
976.365	-340
976.449	-1683
976.533	-654
976.617	-1439
976.700	-923
976.784	-742
976.868	-906
976.951	-815
977.035	-771
977.119	-402
977.202	-722
977.286	-635
977.369	-602
977.453	-89
977.536	-1881
977.620	-1391
977.703	-923
977.787	-1630
977.870	-598
977.953	297
978.037	-1746
978.120	-83
978.203	-1540
978.287	-874
978.370	-1245
978.453	-1445
978.536	-490
978.620	56
978.703	-279
978.786	-1528
978.869	-1597
978.952	-1298
979.035	-461
979.118	-368
979.201	-1980
979.284	-377
979.367	-1976
979.450	-519
979.533	-2176
979.616	-1279
979.699	-1569
979.782	-1758
979.865	-742
979.948	-1287
980.030	-1163
980.113	-554
980.196	-1528
980.279	-467
980.361	-1366
980.444	-971
980.526	-810
980.609	-648
980.692	-1135
980.774	-295
980.857	-2497
980.939	145
981.022	-2084
981.104	-1742
981.187	-1074
981.269	235
981.352	-907
981.434	-1523
981.516	-826
981.599	96
981.681	-377
981.763	-178
981.846	-561
981.928	-1140
982.010	-479
982.092	-1976
982.174	-388
982.256	-1163
982.339	-309
982.421	114
982.503	-784
982.585	-1793
982.667	-1015
982.749	-642
982.831	-1287
982.913	-2337
982.995	-1
983.077	-2031
983.158	-97
983.240	-1437
983.322	-995
983.404	-75
983.486	-2140
983.568	-828
983.649	-1581
983.731	-1063
983.813	-1247
983.894	-441
983.976	-1510
984.058	-666
984.139	-191
984.221	-1680
984.302	-881
984.384	-666
984.465	-1449
984.547	102
984.628	-1296
984.710	64
984.791	-1229
984.872	-596
984.954	-1230
985.035	-1338
985.116	-1204
985.198	-1538
985.279	-317
985.360	-1097
985.441	-1138
985.522	307
985.604	-861
985.685	-2470
985.766	-125
985.847	411
985.928	-1556
986.009	-808
986.090	-1879
986.171	-359
986.252	-1515
986.333	-569
986.414	-1576
986.495	-1049
986.576	-1345
986.656	-580
986.737	-292
986.818	-1225
986.899	-920
986.980	-558
987.060	-301
987.141	-933
987.222	-80
987.302	-584
987.383	-536
987.464	-976
987.544	-128
987.625	-416
987.705	-776
987.786	-817
987.866	-356
987.947	-939
988.027	-1047
988.108	-822
988.188	-459
988.268	-1272
988.349	-306
988.429	-888
988.509	-377
988.589	-1674
988.670	-2330
988.750	434
988.830	-1212
988.910	-721
988.990	-1048
989.070	-997
989.151	-1003
989.231	-1296
989.311	-92
989.391	-958
989.471	-1346
989.551	-667
989.631	-1532
989.711	347
989.791	-2114
989.870	-1630
989.950	1152
990.030	-1885
990.110	-1158
990.190	-995
990.269	-719
990.349	-800
990.429	-1666
990.509	-893
990.588	-986
990.668	-289
990.747	-1362
990.827	-1183
990.907	-648
990.986	-1500
991.066	-893
991.145	-669
991.225	-200
991.304	-1023
991.383	-736
991.463	-701
991.542	23
991.622	-966
991.701	-1459
991.780	-881
991.859	-670
991.939	-699
992.018	-1294
992.097	-1144
992.176	-709
992.256	-890
992.335	-1308
992.414	-841
992.493	-1531
992.572	-2289
992.651	149
992.730	-1544
992.809	-214
992.888	-1223
992.967	-1398
993.046	-810
993.125	-2777
993.203	-671
993.282	-406
993.361	-1268
993.440	-1202
993.519	-1726
993.597	-460
993.676	-1788
993.755	-617
993.834	-976
993.912	-1730
993.991	-284
994.069	-1940
994.148	-728
994.226	-1201
994.305	-1191
994.384	-2172
994.462	641
994.540	-1435
994.619	-1238
994.697	-448
994.776	-1770
994.854	-1136
994.932	-1435
995.011	24
995.089	-1663
995.167	-421
995.245	-1588
995.324	-1720
995.402	-732
995.480	-977
995.558	-1136
995.636	-1860
995.714	-1745
995.792	-204
995.870	-1860
995.948	-541
996.026	-367
996.104	-1764
996.182	-344
996.260	-1604
996.338	-536
996.416	-1657
996.494	-1481
996.572	168
996.649	-1781
996.727	-2282
996.805	-547
996.883	-1762
996.960	-1492
997.038	-259
997.116	-747
997.193	-1731
997.271	-900
997.348	-1608
997.426	-828
997.504	-1106
997.581	-664
997.658	-744
997.736	-1361
997.813	-1244
997.891	-409
997.968	-1307
998.046	-1064
998.123	-933
998.200	-935
998.277	-1010
998.355	-858
998.432	-1433
998.509	-1093
998.586	-1595
998.663	-588
998.741	-916
998.818	-1507
998.895	-1093
998.972	-1227
999.049	-1273
999.126	-1257
999.203	-1052
999.280	-840
999.357	-2110
999.434	-435
999.511	-1478
999.587	-479
999.664	-1350
999.741	-180
999.818	468
999.895	-1214
999.971	-1096
1000.048	-869
1000.125	-686
1000.202	-1603
1000.278	-1307
1000.355	-1455
1000.431	-1367
1000.508	-1372
1000.584	-649
1000.661	-345
1000.738	-1920
1000.814	-1000
1000.890	-667
1000.967	-1123
1001.043	-773
1001.120	-1865
1001.196	-1390
1001.272	-2129
1001.349	-1603
1001.425	-1026
1001.501	-381
1001.577	-1892
1001.654	-788
1001.730	-1105
1001.806	-780
1001.882	-1307
1001.958	-1214
1002.034	-145
1002.110	-1172
1002.186	-1223
1002.262	-1130
1002.338	-1760
1002.414	-1140
1002.490	389
1002.566	-1278
1002.642	-1847
1002.718	-347
1002.794	-1254
1002.870	-1405
1002.945	-1562
1003.021	-1728
1003.097	-1880
1003.173	-996
1003.248	-1853
1003.324	-1632
1003.400	-1248
1003.475	-1134
1003.551	-767
1003.626	-2035
1003.702	-1689
1003.777	-1153
1003.853	-2007
1003.928	-1893
1004.004	-836
1004.079	-601
1004.155	-1495
1004.230	-2426
1004.305	-363
1004.381	-1106
1004.456	-1198
1004.531	-1682
1004.607	-1093
1004.682	-1804
1004.757	-1317
1004.832	-1056
1004.907	-1551
1004.982	-440
1005.057	-1378
1005.133	-1445
1005.208	-685
1005.283	-1159
1005.358	-1521
1005.433	-1678
1005.508	-1550
1005.583	-2102
1005.657	-1375
1005.732	-1368
1005.807	-1704
1005.882	-1004
1005.957	-482
1006.032	-749
1006.106	-848
1006.181	-1273
1006.256	-1583
1006.331	-1408
1006.405	-1511
1006.480	-999
1006.554	-1221
1006.629	-1127
1006.704	-1030
1006.778	-2176
1006.853	-681
1006.927	-1633
1007.002	-1946
1007.076	-1333
1007.150	-1047
1007.225	-1673
1007.299	-1229
1007.373	-1128
1007.448	-920
1007.522	-953
1007.596	-1394
1007.671	-1427
1007.745	-216
1007.819	-2137
1007.893	-1194
1007.967	-1200
1008.041	-1782
1008.115	-614
1008.190	-2041
1008.264	-890
1008.338	-1833
1008.412	-1153
1008.486	-482
1008.560	-1327
1008.633	-1154
1008.707	-880
1008.781	-1170
1008.855	-1967
1008.929	-1140
1009.003	-1401
1009.076	-1503
1009.150	-978
1009.224	-634
1009.298	-1131
1009.371	-2505
1009.445	-1585
1009.519	-945
1009.592	-1846
1009.666	-1303
1009.739	-1480
1009.813	-1965
1009.886	-366
1009.960	-2405
1010.033	-1244
1010.107	-1356
1010.180	-2522
1010.253	-1331
1010.327	-1920
1010.400	-1373
1010.473	-1357
1010.547	-670
1010.620	-1677
1010.693	-1450
1010.766	-1712
1010.840	-1187
1010.913	-1410
1010.986	-1817
1011.059	-2211
1011.132	-1020
1011.205	-757
1011.278	-1772
1011.351	-1197
1011.424	-1633
1011.497	-2419
1011.570	-1067
1011.643	-2409
1011.716	-1382
1011.789	-1997
1011.862	-1571
1011.934	-1608
1012.007	-2539
1012.080	-786
1012.153	-1198
1012.225	-628
1012.298	-1297
1012.371	-1654
1012.443	-876
1012.516	-1952
1012.588	-1483
1012.661	-1428
1012.733	-1336
1012.806	-604
1012.879	-1463
1012.951	-1015
1013.023	-1790
1013.096	-1291
1013.168	-952
1013.241	-1180
1013.313	-911
1013.385	-1840
1013.458	-828
1013.530	-1040
1013.602	-2094
1013.674	-669
1013.746	-1020
1013.819	-1567
1013.891	-377
1013.963	-2322
1014.035	-912
1014.107	-1015
1014.179	-1447
1014.251	-1334
1014.323	-286
1014.395	-1267
1014.467	-1263
1014.539	-835
1014.611	-2142
1014.683	-1456
1014.754	-1111
1014.826	-2284
1014.898	-1006
1014.970	-2680
1015.042	-60
1015.113	-1565
1015.185	-1496
1015.257	-2443
1015.328	-1536
1015.400	-1743
1015.471	-1138
1015.543	-2200
1015.615	-1125
1015.686	-950
1015.757	-1061
1015.829	-1608
1015.901	-1837
1015.972	-1532
1016.043	-705
1016.115	-2043
1016.186	-1561
1016.257	-2403
1016.328	-1112
1016.400	-1080
1016.471	-1610
1016.542	-1075
1016.613	-964
1016.685	-1377
1016.756	-1504
1016.827	-1507
1016.898	-1491
1016.969	-161
1017.040	-1465
1017.111	-940
1017.182	-1208
1017.253	-878
1017.324	-1671
1017.395	-1369
1017.466	-1267
1017.537	-1329
1017.608	-1495
1017.678	-754
1017.749	-1337
1017.820	-1742
1017.891	-1635
1017.961	-1823
1018.032	-1305
1018.103	-1701
1018.173	-1218
1018.244	-1695
1018.315	-1911
1018.385	-1147
1018.456	-1516
1018.526	-1711
1018.597	-1330
1018.667	-1721
1018.738	-1921
1018.808	-1283
1018.878	-2269
1018.949	-1271
1019.019	-1707
1019.089	-1556
1019.160	-1792
1019.230	-2059
1019.300	-1300
1019.371	-1811
1019.441	-915
1019.511	-1062
1019.581	-1695
1019.651	-1974
1019.721	-891
1019.791	-1278
1019.861	-1180
1019.931	-1665
1020.001	-1629
1020.071	-1648
1020.141	-1727
1020.211	-1387
1020.281	-1472
1020.351	-2045
1020.421	-868
1020.491	-1682
1020.560	-1904
1020.630	-1469
1020.700	-1569
1020.770	-1028
1020.839	-2006
1020.909	-1565
1020.979	-1832
1021.048	-1876
1021.118	-1862
1021.187	-1839
1021.257	-1923
1021.326	-1421
1021.396	-1458
1021.465	-1314
1021.535	-1183
1021.604	-1804
1021.674	-934
1021.743	-1394
1021.812	-2100
1021.882	-1888
1021.951	-1137
1022.020	-1260
1022.089	-1413
1022.159	-1387
1022.228	-1333
1022.297	-1862
1022.366	-1399
1022.435	-2096
1022.504	-938
1022.573	-2066
1022.642	-1263
1022.711	-2151
1022.781	-1077
1022.849	-931
1022.918	-1445
1022.987	-1649
1023.056	-1350
1023.125	-1256
1023.194	-2004
1023.263	-1989
1023.331	-1304
1023.400	-1644
1023.469	-2723
1023.538	-2076
1023.606	-1703
1023.675	-1416
1023.744	-1785
1023.812	-1715
1023.881	-1566
1023.949	-1493
1024.018	-1894
1024.086	-1647
1024.155	-2187
1024.223	-2387
1024.292	-987
1024.360	-1270
1024.429	-1710
1024.497	-1562
1024.565	-605
1024.634	-1891
1024.702	-935
1024.770	-733
1024.838	-2256
1024.907	-1722
1024.975	-2012
1025.043	-1532
1025.111	-2271
1025.179	-1299
1025.247	-1707
1025.315	-1698
1025.383	-1042
1025.451	-2160
1025.519	-1915
1025.587	-1531
1025.655	-1242
1025.723	-1709
1025.791	-1326
1025.859	-1345
1025.927	-1225
1025.995	-2065
1026.062	-1393
1026.130	-1533
1026.198	-1907
1026.266	-1680
1026.333	-1869
1026.401	-1249
1026.469	-1243
1026.536	-1100
1026.604	-1731
1026.671	-2037
1026.739	-1313
1026.806	-1839
1026.874	-2273
1026.941	-1877
1027.009	-1619
1027.076	-1483
1027.144	-1032
1027.211	-1712
1027.278	-2255
1027.345	-1517
1027.413	-1680
1027.480	-2113
1027.547	-1964
1027.614	-2138
1027.682	-1654
1027.749	-1375
1027.816	-1574
1027.883	-1628
1027.950	-1071
1028.017	-1775
1028.084	-1182
1028.151	-2176
1028.218	-1927
1028.285	-1440
1028.352	-2204
1028.419	-2030
1028.486	-2192
1028.553	-1650
1028.619	-2161
1028.686	-2113
1028.753	-2082
1028.820	-2253
1028.886	-1948
1028.953	-1916
1029.020	-1153
1029.086	-2282
1029.153	-1855
1029.220	-2361
1029.286	-1724
1029.353	-1640
1029.419	-1610
1029.486	-1649
1029.552	-2296
1029.619	-1525
1029.685	-1796
1029.751	-2056
1029.818	-988
1029.884	-1659
1029.951	-888
1030.017	-2322
1030.083	-1329
1030.149	-2031
1030.216	-2360
1030.282	-1332
1030.348	-2061
1030.414	-830
1030.480	-2364
1030.546	-1764
1030.612	-1667
1030.678	-2090
1030.744	-1420
1030.810	-2471
1030.876	-1939
1030.942	-2451
1031.008	-1638
1031.074	-1097
1031.140	-2305
1031.206	-1846
1031.272	-2023
1031.337	-1405
1031.403	-974
1031.469	-1696
1031.534	-1450
1031.600	-1701
1031.666	-2290
1031.731	-1945
1031.797	-1680
1031.863	-2184
1031.928	-1810
1031.994	-1859
1032.059	-1941
1032.125	-1920
1032.190	-1834
1032.256	-2634
1032.321	-1657
1032.386	-1895
1032.452	-903
1032.517	-1532
1032.582	-1356
1032.647	-1662
1032.713	-1694
1032.778	-978
1032.843	-1676
1032.908	-2019
1032.974	-1251
1033.039	-2687
1033.104	-2020
1033.169	-1469
1033.234	-1297
1033.299	-1590
1033.364	-1261
1033.429	-2007
1033.494	-1455
1033.559	-1566
1033.624	-1645
1033.688	-1609
1033.753	-1771
1033.818	-1219
1033.883	-979
1033.948	-1993
1034.013	-2197
1034.077	-2107
1034.142	-2084
1034.207	-1798
1034.271	-1158
1034.336	-1267
1034.400	-1141
1034.465	-841
1034.530	-1083
1034.594	-2746
1034.658	-1156
1034.723	-2312
1034.787	-1394
1034.852	-2338
1034.916	-1755
1034.981	-1827
1035.045	-1764
1035.109	-1556
1035.173	-1467
1035.238	-2488
1035.302	-734
1035.366	-2174
1035.430	-1746
1035.495	-1558
1035.559	-1495
1035.623	-1189
1035.687	-1737
1035.751	-1903
1035.815	-1623
1035.879	-1991
1035.943	-1496
1036.007	-2443
1036.071	-2073
1036.135	-2041
1036.198	-1466
1036.262	-1876
1036.326	-1413
1036.390	-1909
1036.454	-1008
1036.517	-909
1036.581	-1192
1036.645	-1500
1036.709	-304
1036.772	-2023
1036.836	-2316
1036.900	-1444
1036.963	-1821
1037.026	-2013
1037.090	-2417
1037.154	-2136
1037.217	-2242
1037.280	-1470
1037.344	-1291
1037.407	-1584
1037.471	-1468
1037.534	-2067
1037.597	-2227
1037.661	-1927
1037.724	-2316
1037.787	-2469
1037.850	-862
1037.913	-1870
1037.977	-659
1038.040	-2230
1038.103	-2437
1038.166	-1879
1038.229	-2424
1038.292	-1662
1038.355	-2152
1038.418	-2155
1038.481	-1303
1038.544	-1305
1038.607	-1491
1038.670	-1931
1038.732	-1741
1038.795	-3034
1038.858	-1644
1038.921	-1424
1038.984	-625
1039.046	-2457
1039.109	-999
1039.172	-1118
1039.234	-1869
1039.297	-1728
1039.360	-1608
1039.422	-2088
1039.485	-1683
1039.547	-2118
1039.610	-1658
1039.672	-2243
1039.734	-1851
1039.797	-1671
1039.859	-1739
1039.922	-1703
1039.984	-968
1040.046	-2456
1040.109	-1520
1040.171	-2397
1040.233	-2097
1040.295	-1693
1040.358	-2157
1040.420	-2333
1040.482	-1317
1040.544	-2347
1040.606	-1664
1040.668	-1971
1040.730	-972
1040.792	-2079
1040.854	-1281
1040.916	-1586
1040.978	-1874
1041.040	-1124
1041.102	-363
1041.164	-1639
1041.225	-2286
1041.287	-1954
1041.349	-1877
1041.411	-2135
1041.472	-1575
1041.534	-2531
1041.596	-1193
1041.657	-1121
1041.719	-1608
1041.781	-1494
1041.842	-2354
1041.904	-1450
1041.965	-1971
1042.027	-1720
1042.088	-2235
1042.150	-2153
1042.211	-2172
1042.272	-1066
1042.334	-1029
1042.395	-1777
1042.456	-1815
1042.518	-1565
1042.579	-1384
1042.640	-1591
1042.701	-1616
1042.763	-1675
1042.824	-1909
1042.885	-1558
1042.946	-1940
1043.007	-1212
1043.068	-2139
1043.129	-1903
1043.190	-2745
1043.251	-1840
1043.312	-2077
1043.373	-1118
1043.434	-1577
1043.495	-1844
1043.556	-1532
1043.616	-1511
1043.677	-2316
1043.738	-1399
1043.799	-2173
1043.859	-804
1043.920	-1371
1043.981	-1366
1044.041	-1575
1044.102	-2339
1044.162	-970
1044.223	-2392
1044.284	-1421
1044.344	-1715
1044.405	-1905
1044.465	-1953
1044.525	-2299
1044.586	-1549
1044.646	-1414
1044.707	-2241
1044.767	-2103
1044.827	-1859
1044.887	-1588
1044.948	-1886
1045.008	-1428
1045.068	-1051
1045.128	-1150
1045.188	-1602
1045.249	-974
1045.309	-2227
1045.369	-857
1045.429	-1900
1045.489	-2438
1045.549	-2301
1045.609	-1814
1045.669	-1761
1045.729	-1621
1045.789	-1036
1045.848	-1322
1045.908	-1934
1045.968	-1385
1046.028	-1490
1046.088	-898
1046.147	-957
1046.207	-1191
1046.267	-1447
1046.326	-1157
1046.386	-491
1046.446	-978
1046.505	-570
1046.565	-185
1046.624	-1193
1046.684	-569
1046.743	-494
1046.803	-889
1046.862	-494
1046.922	0
