'Start Wavelength	183.907
'End Wavelength	1046.922
'Gate Delay	5.000
'Gate Width (ms)	1.050
'Laser Output Level	0.000
'X Position	0.000
'Y Position	0.000
'Z Position	0.000
'Grid Point Number	1.000
'Shot Number	100.000
183.907	-65.000
183.977	811.000
184.047	634
184.116	416
184.186	289
184.256	197
184.325	-388
184.395	600
184.465	-89
184.534	396
184.604	698
184.674	-124
184.743	288
184.813	474
184.883	260
184.952	929
185.022	527
185.092	946
185.161	110
185.231	374
185.301	830
185.370	954
185.440	281
185.509	-17
185.579	-181
185.649	801
185.718	390
185.788	207
185.857	66
185.927	-215
185.996	106
186.066	608
186.136	392
186.205	161
186.275	-272
186.344	170
186.414	1476
186.483	-297
186.553	3
186.622	352
186.692	37
186.761	417
186.831	20
186.900	598
186.970	-295
187.039	337
187.109	1211
187.178	416
187.248	911
187.317	1470
187.387	-63
187.456	1259
187.526	-17
187.595	864
187.664	-39
187.734	741
187.803	344
187.873	464
187.942	523
188.012	577
188.081	613
188.150	-56
188.220	814
188.289	1106
188.358	856
188.428	527
188.497	-682
188.567	1235
188.636	-217
188.705	389
188.775	112
188.844	-199
188.913	313
188.983	736
189.052	81
189.121	381
189.191	226
189.260	1960
189.329	660
189.399	1153
189.468	130
189.537	601
189.606	863
189.676	781
189.745	365
189.814	701
189.883	398
189.953	673
190.022	344
190.091	1537
190.161	1400
190.230	1475
190.299	559
190.368	738
190.437	628
190.507	678
190.576	-382
190.645	462
190.714	-322
190.783	759
190.853	1019
190.922	743
190.991	542
191.060	779
191.129	1432
191.198	889
191.268	350
191.337	42
191.406	527
191.475	1132
191.544	-153
191.613	515
191.682	-61
191.752	505
191.821	586
191.890	586
191.959	255
192.028	957
192.097	676
192.166	1440
192.235	436
192.304	889
192.373	285
192.442	819
192.511	677
192.580	790
192.650	409
192.719	245
192.788	523
192.857	658
192.926	-462
192.995	956
193.064	1115
193.133	1602
193.202	1525
193.271	1520
193.340	1283
193.409	1429
193.478	2042
193.547	2189
193.615	2082
193.684	2245
193.753	983
193.822	1283
193.891	377
193.960	849
194.029	622
194.098	737
194.167	602
194.236	944
194.305	189
194.374	1159
194.443	1295
194.512	969
194.580	-65
194.649	1394
194.718	1217
194.787	929
194.856	375
194.925	960
194.994	648
195.062	618
195.131	571
195.200	1921
195.269	468
195.338	479
195.407	118
195.475	1064
195.544	889
195.613	996
195.682	399
195.751	1566
195.819	1170
195.888	987
195.957	1939
196.026	1894
196.094	1236
196.163	1569
196.232	1402
196.301	716
196.369	1165
196.438	1115
196.507	1507
196.576	997
196.644	1023
196.713	1195
196.782	1118
196.850	1070
196.919	737
196.988	774
197.056	832
197.125	814
197.194	1051
197.262	1003
197.331	850
197.400	1052
197.468	871
197.537	738
197.606	547
197.674	2190
197.743	1958
197.812	1054
197.880	1386
197.949	2125
198.017	1907
198.086	1516
198.155	1612
198.223	1510
198.292	2729
198.360	899
198.429	914
198.497	1632
198.566	2106
198.635	1795
198.703	615
198.772	1783
198.840	2744
198.909	1719
198.977	1136
199.046	972
199.114	1389
199.183	1377
199.251	1048
199.320	1311
199.388	904
199.457	965
199.525	1225
199.594	912
199.662	1275
199.731	947
199.799	775
199.867	1161
199.936	634
200.004	1359
200.073	1545
200.141	1071
200.210	1391
200.278	1573
200.346	975
200.415	1772
200.483	1197
200.552	658
200.620	452
200.688	831
200.757	702
200.825	650
200.893	585
200.962	969
201.030	790
201.098	1176
201.167	960
201.235	1798
201.303	899
201.372	1916
201.440	1413
201.508	1954
201.577	1132
201.645	1611
201.713	1352
201.781	1670
201.850	1196
201.918	1561
201.986	990
202.055	1811
202.123	816
202.191	1284
202.259	1418
202.327	1198
202.396	1300
202.464	2197
202.532	1148
202.600	3415
202.669	1515
202.737	1024
202.805	1443
202.873	992
202.941	1265
203.009	1651
203.078	738
203.146	1882
203.214	766
203.282	1240
203.350	903
203.418	2337
203.487	1344
203.555	2207
203.623	889
203.691	1862
203.759	1047
203.827	1640
203.895	1454
203.963	1553
204.031	1790
204.099	1201
204.168	1930
204.236	1658
204.304	1406
204.372	1807
204.440	2071
204.508	1128
204.576	852
204.644	2251
204.712	855
204.780	1426
204.848	1609
204.916	1593
204.984	1902
205.052	1472
205.120	2240
205.188	1716
205.256	1764
205.324	1637
205.392	1534
205.460	1752
205.528	1034
205.596	1713
205.664	1807
205.732	2112
205.799	3243
205.867	3423
205.935	1835
206.003	1768
206.071	1879
206.139	2010
206.207	1721
206.275	1570
206.343	1960
206.411	1910
206.478	1174
206.546	2185
206.614	1471
206.682	2030
206.750	1462
206.818	1971
206.885	2040
206.953	1870
207.021	1593
207.089	1495
207.157	1451
207.225	1302
207.292	1628
207.360	2410
207.428	1587
207.496	1495
207.563	1592
207.631	2111
207.699	1321
207.767	1535
207.834	2088
207.902	2135
207.970	2586
208.038	2081
208.105	1291
208.173	2378
208.241	2457
208.309	2662
208.376	2270
208.444	3326
208.512	2284
208.579	2615
208.647	2455
208.715	2253
208.782	1893
208.850	2525
208.918	2055
208.985	2087
209.053	2302
209.120	2160
209.188	1746
209.256	2011
209.323	2487
209.391	2248
209.459	2797
209.526	2169
209.594	1778
209.661	2324
209.729	2574
209.796	2797
209.864	2024
209.932	2345
209.999	2120
210.067	2373
210.134	2059
210.202	2843
210.269	2850
210.337	2378
210.404	2036
210.472	2674
210.539	1887
210.607	2525
210.674	2289
210.742	1935
210.809	2131
210.877	3564
210.944	3186
211.012	3146
211.079	3204
211.146	3629
211.214	2649
211.281	3113
211.349	3454
211.416	3491
211.484	2503
211.551	2917
211.618	2680
211.686	2743
211.753	2225
211.821	3307
211.888	2157
211.955	2510
212.023	2441
212.090	2383
212.157	2777
212.225	3034
212.292	4102
212.359	6305
212.427	9979
212.494	4685
212.561	3424
212.629	3767
212.696	2771
212.763	3107
212.831	2727
212.898	2514
212.965	2468
213.032	2765
213.100	2573
213.167	3488
213.234	2702
213.301	3089
213.369	2552
213.436	2471
213.503	2840
213.570	3384
213.638	2715
213.705	2549
213.772	3125
213.839	3662
213.906	2507
213.973	3213
214.041	2725
214.108	2554
214.175	2368
214.242	3261
214.309	2752
214.376	3051
214.444	3267
214.511	3874
214.578	3139
214.645	3364
214.712	3573
214.779	3292
214.846	3068
214.913	3749
214.980	2853
215.048	4608
215.115	3882
215.182	2977
215.249	3545
215.316	3605
215.383	3152
215.450	3494
215.517	3111
215.584	3137
215.651	2441
215.718	3230
215.785	2582
215.852	3999
215.919	3384
215.986	3370
216.053	3110
216.120	2671
216.187	3081
216.254	3401
216.321	3084
216.388	3388
216.455	3081
216.522	4016
216.589	3689
216.656	5350
216.722	4995
216.789	4371
216.856	4153
216.923	4487
216.990	4770
217.057	4655
217.124	4747
217.191	4323
217.258	4927
217.324	6058
217.391	5034
217.458	4524
217.525	4217
217.592	4273
217.659	3505
217.725	4181
217.792	4433
217.859	4849
217.926	3338
217.993	3418
218.059	3009
218.126	2801
218.193	3313
218.260	3008
218.327	2921
218.393	2914
218.460	2713
218.527	2934
218.594	3082
218.660	4769
218.727	4080
218.794	2929
218.860	3297
218.927	2323
218.994	1975
219.061	3231
219.127	3259
219.194	4422
219.261	3008
219.327	2514
219.394	2809
219.461	2703
219.527	2176
219.594	4139
219.661	2575
219.727	2605
219.794	3462
219.860	2659
219.927	3827
219.994	4753
220.060	4976
220.127	4426
220.193	4504
220.260	5181
220.326	6068
220.393	7653
220.460	7992
220.526	7028
220.593	5798
220.659	6497
220.726	6515
220.792	9569
220.859	9133
220.925	11841
220.992	11656
221.058	11610
221.125	10152
221.191	7665
221.258	6119
221.324	4534
221.391	3852
221.457	4089
221.524	3961
221.590	4705
221.657	8485
221.723	6365
221.789	6824
221.856	6501
221.922	4367
221.989	4440
222.055	3695
222.121	4251
222.188	3831
222.254	3527
222.321	3156
222.387	3186
222.453	2603
222.520	3353
222.586	3277
222.652	4215
222.719	3081
222.785	3146
222.851	2583
222.918	3722
222.984	3717
223.050	4031
223.116	2662
223.183	3206
223.249	3603
223.315	3606
223.382	3248
223.448	3002
223.514	2280
223.580	2776
223.647	2259
223.713	3230
223.779	3205
223.845	3683
223.911	3146
223.978	2431
224.044	2821
224.110	2682
224.176	3298
224.242	2881
224.309	2290
224.375	2699
224.441	2215
224.507	3180
224.573	2692
224.639	2815
224.705	2332
224.772	2234
224.838	3380
224.904	2705
224.970	3162
225.036	2026
225.102	2799
225.168	3062
225.234	2727
225.300	3146
225.366	3006
225.432	2732
225.499	3132
225.565	3760
225.631	3739
225.697	3694
225.763	4984
225.829	5087
225.895	4788
225.961	5868
226.027	5591
226.093	5508
226.159	6990
226.225	10610
226.291	17909
226.357	19059
226.423	11930
226.489	9270
226.554	6434
226.620	6982
226.686	8379
226.752	11767
226.818	17766
226.884	23891
226.950	19170
227.016	12198
227.082	8515
227.148	7064
227.214	6408
227.279	6168
227.345	5764
227.411	4740
227.477	4920
227.543	6824
227.609	6242
227.674	6301
227.740	3923
227.806	4113
227.872	4250
227.938	5163
228.003	5733
228.069	2792
228.135	3131
228.201	3595
228.267	2922
228.332	4544
228.398	3831
228.464	3558
228.530	2368
228.595	2798
228.661	3218
228.727	4431
228.792	4138
228.858	3374
228.924	3120
228.990	4572
229.055	2580
229.121	3769
229.187	2657
229.252	3141
229.318	2851
229.384	2734
229.449	3558
229.515	2368
229.581	2378
229.646	3860
229.712	3306
229.777	6563
229.843	5684
229.909	5412
229.974	6984
230.040	5427
230.105	4990
230.171	5475
230.236	6370
230.302	7848
230.368	6111
230.433	5320
230.499	5210
230.564	6581
230.630	4545
230.695	4551
230.761	3652
230.826	3285
230.892	5775
230.957	4121
231.023	3126
231.088	4184
231.154	4014
231.219	4377
231.284	4426
231.350	4746
231.415	3525
231.481	4139
231.546	3518
231.612	3669
231.677	3583
231.742	3152
231.808	3838
231.873	3718
231.939	2902
232.004	5040
232.069	3901
232.135	3771
232.200	3477
232.265	3650
232.331	2586
232.396	2945
232.461	2675
232.527	2779
232.592	2307
232.657	2939
232.723	3454
232.788	3258
232.853	3498
232.918	2791
232.984	3704
233.049	2178
233.114	2752
233.179	4104
233.245	4323
233.310	3961
233.375	3172
233.440	3150
233.506	3023
233.571	4149
233.636	3087
233.701	3647
233.766	3927
233.832	3632
233.897	2743
233.962	2937
234.027	3470
234.092	2680
234.157	3291
234.222	4221
234.288	4711
234.353	8045
234.418	7068
234.483	5940
234.548	5609
234.613	5470
234.678	5755
234.743	6173
234.808	8506
234.873	6885
234.938	4832
235.004	5541
235.069	4433
235.134	4830
235.199	5152
235.264	4297
235.329	4356
235.394	4950
235.459	5260
235.524	6155
235.589	4454
235.654	4281
235.719	3899
235.784	4698
235.849	4741
235.913	6183
235.978	6022
236.043	6150
236.108	4501
236.173	4946
236.238	5238
236.303	5050
236.368	4329
236.433	6313
236.498	7854
236.563	9050
236.627	18391
236.692	33842
236.757	26418
236.822	14378
236.887	11289
236.952	10059
237.017	9590
237.081	10215
237.146	12952
237.211	23994
237.276	35520
237.341	39422
237.405	25056
237.470	14897
237.535	9774
237.600	7950
237.664	7684
237.729	6873
237.794	8811
237.859	14751
237.923	8260
237.988	5855
238.053	6444
238.118	7088
238.182	11786
238.247	8469
238.312	6129
238.376	5427
238.441	4110
238.506	6134
238.570	3783
238.635	3838
238.700	4455
238.764	4696
238.829	7734
238.893	5743
238.958	6082
239.023	5990
239.087	4857
239.152	5425
239.216	4513
239.281	4723
239.346	4637
239.410	4346
239.475	5277
239.539	10224
239.604	6227
239.668	5077
239.733	4347
239.797	5705
239.862	9505
239.926	8691
239.991	4394
240.055	4370
240.120	5135
240.184	5043
240.249	3544
240.313	3486
240.378	4172
240.442	7152
240.507	7172
240.571	4801
240.635	5921
240.700	5238
240.764	4128
240.829	4313
240.893	3364
240.957	3517
241.022	6963
241.086	7964
241.151	4335
241.215	3934
241.279	4290
241.344	5640
241.408	5875
241.472	6273
241.537	6982
241.601	6511
241.665	5314
241.730	5673
241.794	6701
241.858	6806
241.922	6174
241.987	6603
242.051	4671
242.115	6332
242.179	5785
242.244	6108
242.308	6842
242.372	6377
242.436	6450
242.501	5598
242.565	5140
242.629	5429
242.693	5612
242.757	3885
242.822	4815
242.886	5535
242.950	5816
243.014	5064
243.078	5975
243.142	5573
243.206	4434
243.271	6622
243.335	6511
243.399	9796
243.463	24791
243.527	34392
243.591	12002
243.655	8215
243.719	6274
243.783	6594
243.847	9778
243.911	11260
243.975	11661
244.040	8281
244.104	7366
244.168	5591
244.232	7670
244.296	8993
244.360	8699
244.424	5589
244.488	5214
244.552	6021
244.615	4220
244.679	4559
244.743	5876
244.807	4838
244.871	4295
244.935	4925
244.999	4380
245.063	5024
245.127	5064
245.191	8694
245.255	6271
245.319	6080
245.383	4681
245.446	5535
245.510	4224
245.574	5692
245.638	3885
245.702	6247
245.766	9626
245.829	6587
245.893	5351
245.957	5210
246.021	5723
246.085	5939
246.149	6695
246.212	13494
246.276	15846
246.340	8633
246.404	6984
246.467	8151
246.531	9571
246.595	7452
246.659	6721
246.722	6040
246.786	7863
246.850	9098
246.913	8050
246.977	6171
247.041	5978
247.104	5855
247.168	7234
247.232	13876
247.295	20584
247.359	9572
247.423	7452
247.486	10526
247.550	7173
247.614	6535
247.677	7365
247.741	5296
247.804	5552
247.868	7451
247.932	14094
247.995	18054
248.059	8194
248.122	6137
248.186	8043
248.249	15883
248.313	32466
248.376	30080
248.440	19258
248.503	10111
248.567	9443
248.630	13456
248.694	16989
248.757	24074
248.821	32050
248.884	21962
248.948	23399
249.011	29491
249.075	38963
249.138	27983
249.202	15089
249.265	11884
249.328	11806
249.392	10772
249.455	10129
249.519	8767
249.582	10535
249.645	15045
249.709	10123
249.772	9637
249.835	8649
249.899	8683
249.962	8823
250.025	9426
250.089	19042
250.152	17959
250.215	10212
250.279	9765
250.342	9437
250.405	9209
250.468	9763
250.532	12216
250.595	17896
250.658	49769
250.721	52175
250.785	25185
250.848	15683
250.911	12061
250.974	11409
251.038	17534
251.101	21572
251.164	14554
251.227	15636
251.290	15144
251.354	23924
251.417	60285
251.480	47203
251.543	51320
251.606	87106
251.669	60141
251.732	33488
251.795	34249
251.859	38304
251.922	61313
251.985	32179
252.048	19482
252.111	15803
252.174	15077
252.237	26694
252.300	39098
252.363	50404
252.426	64985
252.489	30261
252.552	19363
252.615	14602
252.678	19566
252.741	34562
252.804	50661
252.867	71179
252.930	44016
252.993	25823
253.056	18854
253.119	13920
253.182	12225
253.245	17969
253.308	13147
253.371	11990
253.434	10700
253.497	12096
253.559	19928
253.622	13456
253.685	17455
253.748	13957
253.811	9243
253.874	10429
253.937	10117
254.000	8997
254.062	18399
254.125	19011
254.188	23679
254.251	13375
254.314	9116
254.376	15996
254.439	14551
254.502	12368
254.565	18000
254.628	21645
254.690	13573
254.753	7267
254.816	8151
254.878	9371
254.941	16552
255.004	12066
255.067	8453
255.129	7177
255.192	5893
255.255	5694
255.317	6820
255.380	4546
255.443	4690
255.505	4320
255.568	4770
255.631	5380
255.693	6483
255.756	4179
255.819	5604
255.881	5138
255.944	4730
256.006	4568
256.069	5107
256.132	5137
256.194	6544
256.257	9074
256.319	7187
256.382	7599
256.444	7484
256.507	6757
256.569	7041
256.632	8205
256.694	11865
256.757	34031
256.819	58110
256.882	24336
256.944	13634
257.007	11192
257.069	10495
257.132	8765
257.194	8570
257.257	7969
257.319	8335
257.381	10968
257.444	27071
257.506	72209
257.569	61998
257.631	28013
257.693	18072
257.756	10975
257.818	9284
257.880	7288
257.943	8264
258.005	6535
258.067	7474
258.130	6240
258.192	8123
258.254	9453
258.317	7915
258.379	7156
258.441	14827
258.503	10023
258.566	12712
258.628	10844
258.690	5778
258.753	8554
258.815	12056
258.877	7686
258.939	7348
259.001	7188
259.064	7263
259.126	8417
259.188	9023
259.250	7374
259.312	9087
259.375	12299
259.437	8592
259.499	6906
259.561	6872
259.623	7477
259.685	8015
259.747	6293
259.809	13222
259.872	15434
259.934	29484
259.996	26735
260.058	10817
260.120	6496
260.182	6784
260.244	5462
260.306	5658
260.368	5924
260.430	6941
260.492	17215
260.554	16927
260.616	9551
260.678	18690
260.740	13632
260.802	7626
260.864	6765
260.926	6191
260.988	7081
261.050	8313
261.112	23959
261.174	27277
261.236	12583
261.298	8061
261.359	10705
261.421	10693
261.483	6476
261.545	6813
261.607	5139
261.669	6064
261.731	7988
261.793	13207
261.854	7671
261.916	7737
261.978	10286
262.040	7837
262.102	5875
262.164	7123
262.225	5161
262.287	6875
262.349	12555
262.411	8022
262.472	4988
262.534	7946
262.596	7900
262.658	5542
262.719	4776
262.781	5748
262.843	7617
262.904	5654
262.966	5416
263.028	7974
263.090	31871
263.151	49634
263.213	21769
263.275	14577
263.336	7087
263.398	6288
263.459	4348
263.521	5729
263.583	11210
263.644	6962
263.706	4080
263.767	3787
263.829	4285
263.891	3757
263.952	3504
264.014	5000
264.075	15248
264.137	21408
264.198	8077
264.260	5242
264.321	5460
264.383	18283
264.444	29221
264.506	9666
264.567	7875
264.629	21166
264.690	26479
264.752	10753
264.813	7265
264.875	5990
264.936	6368
264.998	5340
265.059	4857
265.120	5831
265.182	11775
265.243	44345
265.305	29655
265.366	9949
265.427	7399
265.489	6524
265.550	4583
265.611	6596
265.673	6038
265.734	5902
265.795	4265
265.857	4838
265.918	6558
265.979	17723
266.040	63385
266.102	38580
266.163	14699
266.224	12543
266.286	7317
266.347	5611
266.408	5269
266.469	5193
266.530	4395
266.592	4478
266.653	9246
266.714	10108
266.775	4584
266.836	3965
266.898	5060
266.959	10061
267.020	5978
267.081	5841
267.142	4519
267.203	4788
267.264	4046
267.326	5372
267.387	4527
267.448	3952
267.509	5154
267.570	3804
267.631	4059
267.692	4468
267.753	4378
267.814	4798
267.875	10588
267.936	15465
267.997	16197
268.058	11863
268.119	6358
268.180	6327
268.241	4688
268.302	4295
268.363	4437
268.424	4733
268.485	5932
268.546	4688
268.607	3507
268.668	4059
268.729	3647
268.790	3994
268.851	6128
268.912	13703
268.972	10113
269.033	7030
269.094	3472
269.155	4879
269.216	4420
269.277	4387
269.338	4525
269.398	5655
269.459	4007
269.520	8242
269.581	8651
269.642	8611
269.702	6852
269.763	6091
269.824	4621
269.885	7943
269.945	8334
270.006	5357
270.067	4129
270.128	4437
270.188	3979
270.249	4356
270.310	3437
270.370	5270
270.431	4247
270.492	4196
270.553	4444
270.613	9447
270.674	13198
270.734	6591
270.795	5200
270.856	6819
270.916	5184
270.977	5240
271.038	5558
271.098	5806
271.159	8538
271.219	6187
271.280	4061
271.340	4252
271.401	5202
271.462	6677
271.522	5772
271.583	5133
271.643	4544
271.704	5129
271.764	7993
271.825	16011
271.885	39396
271.946	35638
272.006	15488
272.066	27149
272.127	28985
272.187	10715
272.248	7247
272.308	10228
272.369	22789
272.429	11018
272.489	13574
272.550	10969
272.610	12017
272.671	7310
272.731	8947
272.791	10634
272.852	7624
272.912	6963
272.972	4257
273.033	5925
273.093	6180
273.153	8317
273.214	5801
273.274	8297
273.334	27091
273.394	27661
273.455	12893
273.515	18337
273.575	26846
273.635	11057
273.696	18208
273.756	27159
273.816	11104
273.876	8410
273.936	13041
273.997	15774
274.057	6226
274.117	7025
274.177	14326
274.237	44142
274.297	23639
274.358	18581
274.418	25185
274.478	16994
274.538	7596
274.598	6777
274.658	14824
274.718	13282
274.778	7390
274.838	5844
274.898	11283
274.958	19784
275.018	28501
275.078	15993
275.138	8217
275.198	5878
275.258	4948
275.318	7180
275.378	10290
275.438	10922
275.498	7696
275.558	13728
275.618	25946
275.678	17843
275.738	16783
275.798	12893
275.858	7787
275.918	5652
275.978	7448
276.038	6004
276.098	5497
276.157	13184
276.217	21667
276.277	10164
276.337	7297
276.397	5560
276.457	6557
276.517	4947
276.576	4243
276.636	5081
276.696	8592
276.756	16942
276.815	8470
276.875	6048
276.935	6248
276.995	5687
277.055	4323
277.114	4819
277.174	9192
277.234	17761
277.293	7285
277.353	5517
277.413	4661
277.472	6168
277.532	4973
277.592	5777
277.651	16005
277.711	16805
277.771	9503
277.830	30576
277.890	16855
277.950	21038
278.009	34719
278.069	13593
278.128	19159
278.188	18964
278.248	12734
278.307	24095
278.367	11825
278.426	6949
278.486	5251
278.545	5542
278.605	5390
278.664	4567
278.724	6542
278.783	18189
278.843	26164
278.902	8992
278.962	7737
279.021	8344
279.081	8142
279.140	9091
279.199	8170
279.259	9189
279.318	6807
279.378	10188
279.437	18043
279.496	47903
279.556	89527
279.615	46172
279.675	18059
279.734	16621
279.793	25472
279.853	30871
279.912	12531
279.971	9310
280.031	8462
280.090	19281
280.149	22019
280.208	21562
280.268	72890
280.327	43592
280.386	15328
280.445	18604
280.505	13222
280.564	9589
280.623	8442
280.682	13942
280.742	14264
280.801	7116
280.860	5527
280.919	5897
280.978	5150
281.037	5050
281.097	4456
281.156	5438
281.215	4778
281.274	7148
281.333	22495
281.392	11544
281.451	4015
281.510	4276
281.569	4273
281.628	3721
281.688	3872
281.747	5726
281.806	4642
281.865	4571
281.924	3944
281.983	4108
282.042	3249
282.101	4040
282.160	3797
282.219	4297
282.278	5558
282.337	14107
282.396	8265
282.454	5748
282.513	7990
282.572	20152
282.631	8795
282.690	4774
282.749	3893
282.808	6231
282.867	5539
282.926	5890
282.985	3734
283.043	3869
283.102	4045
283.161	5071
283.220	13812
283.279	19130
283.338	6630
283.396	5248
283.455	6019
283.514	5890
283.573	8410
283.631	6254
283.690	4698
283.749	5630
283.808	10421
283.866	8483
283.925	4279
283.984	6074
284.043	7779
284.101	6220
284.160	5543
284.219	8255
284.277	6109
284.336	11344
284.395	27079
284.453	15969
284.512	8663
284.570	12387
284.629	8197
284.688	8796
284.746	8315
284.805	10026
284.863	12678
284.922	14471
284.981	18814
285.039	28862
285.098	51793
285.156	105961
285.215	134265
285.273	138341
285.332	88610
285.390	51075
285.449	33567
285.507	24612
285.566	18003
285.624	13865
285.683	11990
285.741	10340
285.799	9067
285.858	8142
285.916	7436
285.975	6953
286.033	5814
286.091	6385
286.150	4910
286.208	5794
286.267	6960
286.325	7084
286.383	10214
286.442	7667
286.500	5147
286.558	5012
286.616	4355
286.675	7192
286.733	5450
286.791	5660
286.850	6328
286.908	8820
286.966	10568
287.024	5149
287.083	5168
287.141	4872
287.199	5840
287.257	7340
287.315	5530
287.374	7477
287.432	15169
287.490	7418
287.548	5807
287.606	5282
287.664	5848
287.723	8085
287.781	8591
287.839	6680
287.897	7244
287.955	9201
288.013	14234
288.071	35259
288.129	112020
288.187	180654
288.245	79942
288.303	33925
288.361	21064
288.419	16368
288.477	12075
288.535	10306
288.593	7810
288.651	6893
288.709	5485
288.767	5116
288.825	4846
288.883	5643
288.941	4940
288.999	4612
289.057	3821
289.115	4638
289.173	3941
289.231	4932
289.289	4930
289.346	5053
289.404	5333
289.462	8560
289.520	7237
289.578	4903
289.636	4352
289.694	4006
289.751	3558
289.809	4412
289.867	4458
289.925	5784
289.983	4713
290.040	4504
290.098	4671
290.156	5588
290.214	5752
290.271	4472
290.329	4616
290.387	3806
290.444	4103
290.502	3849
290.560	4418
290.617	4440
290.675	4101
290.733	3390
290.790	3890
290.848	3528
290.906	4082
290.963	3813
291.021	3579
291.078	5218
291.136	6688
291.194	21092
291.251	25303
291.309	8530
291.366	4527
291.424	5123
291.481	4292
291.539	4687
291.596	3558
291.654	3362
291.711	3311
291.769	5057
291.826	7152
291.884	4891
291.941	3366
291.999	4230
292.056	4878
292.114	4657
292.171	3708
292.228	3677
292.286	4495
292.343	8752
292.401	8285
292.458	5853
292.515	4247
292.573	6278
292.630	5363
292.687	4642
292.745	4824
292.802	10948
292.859	21447
292.917	23590
292.974	10886
293.031	5337
293.089	5188
293.146	4390
293.203	4183
293.260	4424
293.318	7393
293.375	10911
293.432	5016
293.489	5223
293.546	4848
293.604	8650
293.661	20604
293.718	36664
293.775	17753
293.832	10339
293.889	6744
293.947	6631
294.004	6144
294.061	7871
294.118	16337
294.175	33334
294.232	37426
294.289	14670
294.346	10344
294.403	10466
294.460	7398
294.517	5864
294.574	5807
294.631	7080
294.688	8344
294.745	19870
294.802	54587
294.859	51540
294.916	18037
294.973	11410
295.030	9919
295.087	8167
295.144	6594
295.201	7054
295.258	5767
295.315	9153
295.372	21350
295.429	26972
295.486	14151
295.542	14453
295.599	38758
295.656	45126
295.713	31692
295.770	28726
295.827	12363
295.883	9812
295.940	8900
295.997	12843
296.054	9905
296.111	6842
296.167	5327
296.224	5443
296.281	6077
296.338	4962
296.394	6490
296.451	7685
296.508	19862
296.564	27251
296.621	22380
296.678	43705
296.734	45968
296.791	18695
296.848	13088
296.904	15421
296.961	26065
297.018	35618
297.074	22819
297.131	11802
297.187	10448
297.244	15490
297.301	39207
297.357	46778
297.414	17050
297.470	9970
297.527	8591
297.583	8323
297.640	6855
297.696	6602
297.753	5174
297.809	5531
297.866	4721
297.922	5147
297.979	5527
298.035	6537
298.092	9813
298.148	23433
298.204	16782
298.261	12636
298.317	25604
298.374	43725
298.430	21622
298.486	12361
298.543	9379
298.599	9946
298.656	13174
298.712	20095
298.768	35521
298.824	21699
298.881	10427
298.937	7439
298.993	7335
299.050	9738
299.106	7889
299.162	7561
299.218	6008
299.275	6568
299.331	9002
299.387	16878
299.443	39743
299.500	30555
299.556	13431
299.612	10395
299.668	8204
299.724	9013
299.780	9066
299.837	7552
299.893	13261
299.949	33220
300.005	30087
300.061	35081
300.117	47616
300.173	22336
300.229	12950
300.285	16417
300.341	15684
300.397	8858
300.453	7794
300.510	7139
300.566	6957
300.622	8146
300.678	17445
300.734	28663
300.790	29593
300.845	31992
300.901	22121
300.957	29690
301.013	19053
301.069	10452
301.125	9054
301.181	9366
301.237	6949
301.293	5756
301.349	6252
301.405	6009
301.461	6519
301.516	8311
301.572	8402
301.628	12212
301.684	10917
301.740	17315
301.796	21847
301.851	18262
301.907	27042
301.963	27704
302.019	48155
302.074	95255
302.130	82404
302.186	38565
302.242	19321
302.297	14931
302.353	15500
302.409	24733
302.464	19775
302.520	20582
302.576	39196
302.631	38458
302.687	22095
302.743	12031
302.798	9249
302.854	8785
302.910	9528
302.965	10991
303.021	15615
303.076	13999
303.132	18551
303.187	18111
303.243	11523
303.299	8287
303.354	7748
303.410	8138
303.465	7198
303.521	6829
303.576	7725
303.632	10626
303.687	16926
303.743	35476
303.798	24735
303.853	13023
303.909	9209
303.964	9623
304.020	13617
304.075	16522
304.130	15517
304.186	25382
304.241	24080
304.297	19295
304.352	11258
304.358	11000
304.407	8892
304.449	9195
304.463	9305
304.518	9629
304.539	9167
304.573	8406
304.629	9107
304.630	9237
304.684	15394
304.720	25701
304.739	31012
304.794	35535
304.811	31028
304.850	19267
304.902	10771
304.905	10271
304.960	9326
304.992	9219
305.015	9182
305.071	9431
305.083	9002
305.126	7266
305.173	6671
305.181	6612
305.236	6416
305.264	7112
305.292	7884
305.347	8177
305.354	8315
305.402	9117
305.445	9937
305.457	10191
305.512	11771
305.535	11875
305.567	11817
305.622	12034
305.626	12406
305.678	21594
305.716	37372
305.733	43255
305.788	41642
305.807	38844
305.843	32601
305.897	39094
305.898	39182
305.953	34772
305.988	26876
306.008	22086
306.063	15205
306.078	13821
306.118	11136
306.168	8303
306.173	8104
306.228	7935
306.259	7664
306.283	7580
306.338	6906
306.349	7047
306.393	8158
306.440	9420
306.448	9506
306.503	10050
306.530	10815
306.558	14206
306.613	27959
306.620	29395
306.668	37882
306.711	45260
306.723	45424
306.778	33035
306.801	27589
306.833	20267
306.888	11708
306.892	11250
306.943	9611
306.982	8992
306.997	8941
307.052	8578
307.072	8953
307.107	10222
307.162	12872
307.163	12907
307.217	18653
307.253	22681
307.272	23819
307.327	24228
307.343	23320
307.381	19510
307.434	16768
307.436	17189
307.491	31109
307.524	42906
307.546	46941
307.600	45182
307.614	42753
307.655	28385
307.704	16650
307.710	16590
307.765	19639
307.795	22940
307.819	28441
307.874	43618
307.885	44630
307.929	37168
307.975	30166
307.984	31150
308.038	43582
308.065	53244
308.093	81235
308.148	152483
308.156	165024
308.202	247688
308.246	299741
308.257	288598
308.312	187645
308.336	146603
308.366	116659
308.421	69944
308.426	65746
308.475	45722
308.517	31692
308.530	30033
308.585	25602
308.607	24007
308.639	23761
308.694	24427
308.697	24595
308.748	39426
308.787	53777
308.803	54670
308.857	47720
308.877	44454
308.912	39545
308.967	35596
308.967	35526
309.021	47285
309.058	56586
309.076	69500
309.130	116173
309.148	134026
309.185	210947
309.238	330696
309.239	332390
309.293	370735
309.328	374471
309.348	334688
309.402	206534
309.418	172528
309.457	127253
309.508	74462
309.511	73403
309.566	56844
309.598	48090
309.620	48521
309.674	50935
309.688	51651
309.729	50718
309.778	47843
309.783	47188
309.837	38791
309.868	34582
309.892	39381
309.946	52787
309.959	56762
310.001	82470
310.049	106410
310.055	102748
310.109	64267
310.139	43072
310.163	35453
310.218	21622
310.229	18945
310.272	16500
310.319	14116
310.326	13994
310.381	13415
310.409	13056
310.435	12652
310.489	11600
310.499	11492
310.543	12433
310.589	13284
310.598	13409
310.652	14155
310.679	14401
310.706	13333
310.760	10808
310.769	10432
310.814	9488
310.859	8662
310.868	8736
310.923	9151
310.948	9338
310.977	10065
311.031	11558
311.038	11740
311.085	11792
311.128	11599
311.139	11550
311.193	11352
311.218	11192
311.247	10575
311.301	9489
311.308	9321
311.356	9802
311.398	10368
311.410	10293
311.464	9678
311.488	9431
311.518	9467
311.572	9506
311.578	9506
311.626	12370
311.668	14817
311.680	15072
311.734	15955
311.758	16339
311.788	16505
311.842	16756
311.847	16738
311.896	20506
311.937	23851
311.950	24429
312.004	26580
312.027	27407
312.058	22349
312.112	13244
312.117	12306
312.165	11853
312.207	11426
312.297	19085
312.386	17906
312.476	12549
312.566	22192
312.656	15643
312.745	10263
312.835	11615
312.925	14536
313.015	12665
313.104	13102
313.194	9579
313.284	10544
313.374	12779
313.463	14459
313.553	10421
313.643	9795
313.732	8718
313.822	8741
313.912	10898
314.001	11472
314.091	14771
314.180	22544
314.270	16307
314.360	16852
314.449	15392
314.539	10718
314.628	9876
314.718	12167
314.808	15416
314.897	10704
314.987	8263
315.076	11466
315.166	15210
315.255	15508
315.345	14382
315.434	15793
315.524	12970
315.613	15317
315.703	15792
315.792	17321
315.881	19080
315.971	16353
316.060	23033
316.150	37177
316.239	40832
316.328	20942
316.418	9963
316.507	10156
316.597	13211
316.686	12982
316.775	15345
316.865	41497
316.954	14075
317.043	8673
317.133	10441
317.222	8926
317.311	9115
317.400	9526
317.490	11207
317.579	15530
317.668	9790
317.757	12208
317.847	18088
317.936	31832
318.025	33981
318.114	19812
318.203	18302
318.293	25118
318.382	56649
318.471	45197
318.560	58386
318.649	120624
318.738	42244
318.828	16413
318.917	20564
319.006	23117
319.095	48151
319.184	129554
319.273	94131
319.362	43638
319.451	16748
319.540	14742
319.629	23445
319.718	49206
319.807	28061
319.896	40967
319.985	157406
320.074	88257
320.163	22011
320.252	28974
320.341	26454
320.430	31080
320.519	24825
320.608	19688
320.697	15164
320.786	15754
320.875	15411
320.964	20338
321.053	29891
321.142	39909
321.230	50839
321.319	35700
321.408	82007
321.497	47488
321.586	32232
321.675	38787
321.764	44884
321.852	30527
321.941	45491
322.030	39137
322.119	33881
322.207	79359
322.296	69208
322.385	40156
322.474	33752
322.562	85383
322.651	70077
322.740	33880
322.829	50006
322.917	53837
323.006	36254
323.095	27081
323.183	22936
323.272	32278
323.361	46913
323.449	134154
323.538	67353
323.626	88655
323.715	83255
323.804	30402
323.892	84029
323.981	70194
324.069	22259
324.158	43601
324.246	61814
324.335	21320
324.424	30352
324.512	16182
324.601	19718
324.689	34581
324.778	84528
324.866	47293
324.954	18731
325.043	14036
325.131	22426
325.220	41909
325.308	51539
325.397	33949
325.485	28868
325.574	10297
325.662	10048
325.750	11470
325.839	9901
325.927	9582
326.015	13224
326.104	16067
326.192	28319
326.280	11418
326.369	10422
326.457	14055
326.545	25243
326.634	16664
326.722	9241
326.810	10020
326.898	9205
326.987	10925
327.075	21422
327.163	27705
327.251	18046
327.340	24482
327.428	53930
327.516	12925
327.604	9672
327.692	10907
327.781	11431
327.869	20397
327.957	15985
328.045	14245
328.133	8234
328.221	11267
328.309	12042
328.397	10217
328.485	12686
328.574	16777
328.662	43963
328.750	37292
328.838	16258
328.926	11093
329.014	10333
329.102	15385
329.190	38120
329.278	34283
329.366	11642
329.454	11086
329.542	12093
329.630	11602
329.718	13187
329.806	18238
329.893	20593
329.981	31329
330.069	55558
330.157	155967
330.245	370852
330.333	280350
330.421	76388
330.509	35766
330.597	62559
330.684	57679
330.772	26282
330.860	32073
330.948	42496
331.036	23910
331.123	10130
331.211	10241
331.299	16274
331.387	26463
331.475	67239
331.562	22097
331.650	10316
331.738	10916
331.825	15642
331.913	10533
332.001	8901
332.089	12405
332.176	27266
332.264	45711
332.352	53690
332.439	18835
332.527	12916
332.614	9764
332.702	14159
332.790	10629
332.877	20724
332.965	50511
333.052	18000
333.140	11730
333.228	25673
333.315	13424
333.403	10921
333.490	26866
333.578	31084
333.665	22796
333.753	19964
333.840	10674
333.928	12384
334.015	30338
334.103	49454
334.190	155947
334.278	68886
334.365	18694
334.452	13178
334.540	9969
334.627	12379
334.715	19644
334.802	30487
334.889	132377
334.977	187342
335.064	28289
335.151	14565
335.239	15167
335.326	22912
335.413	65646
335.501	135749
335.588	23990
335.675	13503
335.762	16567
335.850	35943
335.937	19693
336.024	37283
336.111	163716
336.199	101449
336.286	19425
336.373	11136
336.460	8256
336.547	8504
336.635	11805
336.722	12851
336.809	11477
336.896	16137
336.983	46767
337.070	131113
337.157	181746
337.245	113892
337.332	100824
337.419	16585
337.506	11641
337.593	14032
337.680	36931
337.767	146470
337.854	52185
337.941	49035
338.028	45774
338.115	23225
338.202	21169
338.289	34923
338.376	106348
338.463	55430
338.550	68928
338.637	108792
338.724	25850
338.811	42915
338.898	12565
338.984	9401
339.071	14462
339.158	12828
339.245	30616
339.332	26880
339.419	23242
339.506	32253
339.593	7827
339.679	6956
339.766	8330
339.853	10949
339.940	23635
340.027	11591
340.113	8811
340.200	13344
340.287	9908
340.374	11536
340.460	21432
340.547	11939
340.634	14321
340.720	48600
340.807	44186
340.894	8842
340.980	8752
341.067	8812
341.154	9526
341.240	11595
341.327	30719
341.414	12698
341.500	12346
341.587	9435
341.674	8596
341.760	16321
341.847	25670
341.933	10524
342.020	5307
342.106	5084
342.193	7390
342.279	16548
342.366	11005
342.452	21410
342.539	13350
342.625	21851
342.712	61884
342.798	33150
342.885	14865
342.971	6279
343.058	6243
343.144	6304
343.230	6592
343.317	6983
343.403	7090
343.490	5087
343.576	5969
343.662	6298
343.749	8312
343.835	11199
343.921	19249
344.008	71491
344.094	220559
344.180	74062
344.267	22416
344.353	51383
344.439	83185
344.525	36661
344.612	22401
344.698	24545
344.784	17855
344.870	9030
344.957	7252
345.043	12422
345.129	9304
345.215	19749
345.301	13377
345.387	8648
345.474	6021
345.560	7183
345.646	8210
345.732	8767
345.818	9240
345.904	8474
345.990	9831
346.076	8978
346.162	18990
346.249	10603
346.335	7552
346.421	7664
346.507	18731
346.593	84349
346.679	34017
346.765	10664
346.851	7556
346.937	8498
347.023	6631
347.108	7760
347.194	8172
347.280	7107
347.366	9315
347.452	18935
347.538	90659
347.624	83039
347.710	77590
347.796	17329
347.882	9711
347.967	8453
348.053	14213
348.139	10981
348.225	6735
348.311	7561
348.397	5403
348.482	7618
348.568	11760
348.654	6196
348.740	5322
348.825	7808
348.911	11834
348.997	36199
349.083	100547
349.168	26049
349.254	8472
349.340	9094
349.425	6345
349.511	8737
349.597	12946
349.682	17657
349.768	58849
349.854	43166
349.939	11929
350.025	7083
350.110	7457
350.196	5885
350.282	5265
350.367	5524
350.453	10350
350.538	15382
350.624	10569
350.709	12919
350.795	7315
350.880	7574
350.966	7200
351.051	11926
351.137	10752
351.222	7528
351.308	16747
351.393	61504
351.479	23001
351.564	7523
351.649	6805
351.735	6867
351.820	5029
351.906	6491
351.991	10588
352.076	30137
352.162	67073
352.247	15996
352.332	9358
352.418	16618
352.503	22000
352.588	70560
352.673	87824
352.759	20054
352.844	10836
352.929	9338
353.014	14279
353.100	8837
353.185	11640
353.270	20427
353.355	26296
353.441	9261
353.526	9574
353.611	16961
353.696	27245
353.781	14843
353.866	9198
353.952	8037
354.037	16733
354.122	42543
354.207	42652
354.292	21052
354.377	8293
354.462	7671
354.547	9995
354.632	11271
354.717	14351
354.802	16835
354.887	8300
354.972	5906
355.057	6327
355.142	5691
355.227	7544
355.312	12994
355.397	26806
355.482	65060
355.567	44939
355.652	23860
355.737	27518
355.822	60805
355.907	79841
355.991	14516
356.076	8068
356.161	8166
356.246	6647
356.331	8136
356.416	16742
356.501	84229
356.585	139981
356.670	27869
356.755	14816
356.840	18006
356.924	56507
357.009	242450
357.094	145677
357.179	31146
357.263	20494
357.348	16695
357.433	21176
357.517	17129
357.602	14927
357.687	12267
357.771	16058
357.856	59533
357.941	50394
358.025	49608
358.110	232068
358.195	172875
358.279	31567
358.364	17777
358.448	42704
358.533	135570
358.617	120396
358.702	103592
358.787	52359
358.871	22763
358.956	24004
359.040	10188
359.125	6961
359.209	8287
359.294	23741
359.378	58770
359.462	24227
359.547	13860
359.631	9954
359.716	7829
359.800	8202
359.885	16431
359.969	10908
360.053	8236
360.138	8132
360.222	11016
360.306	21204
360.391	20120
360.475	27572
360.559	80179
360.644	57440
360.728	52030
360.812	44625
360.896	165830
360.981	94843
361.065	61042
361.149	14852
361.233	13696
361.318	11215
361.402	12126
361.486	11041
361.570	8417
361.654	10273
361.739	23318
361.823	84542
361.907	183327
361.991	48024
362.075	18663
362.159	42177
362.243	34361
362.327	23749
362.411	22202
362.495	16685
362.580	12783
362.664	9201
362.748	8507
362.832	10004
362.916	13394
363.000	28081
363.084	84104
363.168	200154
363.252	69309
363.336	22352
363.420	25377
363.503	90712
363.587	166324
363.671	34496
363.755	16721
363.839	24579
363.923	14144
364.007	20727
364.091	30686
364.175	34605
364.258	160272
364.342	127011
364.426	54127
364.510	36612
364.594	29193
364.677	33026
364.761	121600
364.845	133563
364.929	40701
365.013	37053
365.096	24969
365.180	35965
365.264	36018
365.347	172360
365.431	112373
365.515	32486
365.598	13216
365.682	10084
365.766	21193
365.849	39121
365.933	15164
366.017	17672
366.100	21978
366.184	7920
366.267	7945
366.351	7025
366.435	6551
366.518	6334
366.602	5877
366.685	6509
366.769	9096
366.852	18210
366.936	36663
367.019	20475
367.103	15390
367.186	39216
367.270	15091
367.353	6155
367.436	6315
367.520	6760
367.603	8502
367.687	12870
367.770	27439
367.853	16928
367.937	33086
368.020	84197
368.104	26272
368.187	17606
368.270	27902
368.353	29780
368.437	29861
368.520	75351
368.603	57417
368.687	45386
368.770	113733
368.853	39342
368.936	26735
369.020	40008
369.103	14897
369.186	8882
369.269	10080
369.352	14998
369.436	27932
369.519	19934
369.602	11578
369.685	8625
369.768	11743
369.851	10997
369.934	7779
370.018	9419
370.101	21932
370.184	20175
370.267	16102
370.350	22710
370.433	36836
370.516	66424
370.599	101415
370.682	32338
370.765	54152
370.848	67516
370.931	123360
371.014	72806
371.097	16003
371.180	9978
371.263	6341
371.346	6511
371.429	6975
371.511	7516
371.594	15004
371.677	25452
371.760	40867
371.843	25975
371.926	70694
372.009	230987
372.091	102410
372.174	44365
372.257	108714
372.340	62897
372.423	39982
372.505	65423
372.588	29873
372.671	28142
372.754	112133
372.836	82391
372.919	44494
373.002	130499
373.085	49922
373.167	20911
373.250	45220
373.332	108742
373.415	123086
373.498	293722
373.580	149204
373.663	102758
373.746	201949
373.828	65787
373.911	27204
373.993	25516
374.076	92428
374.159	131142
374.241	39588
374.324	94940
374.406	90609
374.489	61993
374.571	227187
374.654	137591
374.736	43477
374.819	129083
374.901	189420
374.983	243974
375.066	63562
375.148	20503
375.231	62242
375.313	182747
375.395	90627
375.478	20347
375.560	11078
375.643	12262
375.725	32121
375.807	156672
375.890	173580
375.972	86583
376.054	40367
376.136	63203
376.219	37504
376.301	35166
376.383	151800
376.465	83625
376.548	41081
376.630	42673
376.712	124712
376.794	87086
376.877	13146
376.959	7802
377.041	10117
377.123	22856
377.205	42123
377.287	11202
377.369	6354
377.452	6620
377.534	7383
377.616	7127
377.698	7155
377.780	6887
377.862	7654
377.944	7882
378.026	5874
378.108	5784
378.190	6488
378.272	5804
378.354	4652
378.436	4650
378.518	11058
378.600	53990
378.682	48398
378.764	63759
378.846	75894
378.928	22541
379.010	28064
379.091	18518
379.173	9101
379.255	6712
379.337	9732
379.419	24946
379.501	101366
379.583	62171
379.664	14224
379.746	23540
379.828	65892
379.910	99551
379.991	103349
380.073	24565
380.155	12501
380.237	10729
380.318	7335
380.400	7703
380.482	13371
380.564	28396
380.645	23893
380.727	26130
380.809	16530
380.890	11791
380.972	9681
381.053	8273
381.135	10625
381.217	18140
381.298	75201
381.380	52460
381.461	27257
381.543	100883
381.624	194954
381.706	50468
381.787	21342
381.869	22304
381.951	38479
382.032	190067
382.113	177685
382.195	47471
382.276	24069
382.358	33580
382.439	110555
382.521	121714
382.602	206519
382.684	109439
382.765	153196
382.846	187636
382.928	175781
383.009	122980
383.090	75351
383.172	207786
383.253	401284
383.334	179871
383.416	179729
383.497	124978
383.578	48620
383.659	72243
383.741	189816
383.822	539312
383.903	375382
383.984	129923
384.066	220839
384.147	189550
384.228	44649
384.309	24652
384.390	22892
384.471	14803
384.553	15395
384.634	22152
384.715	26269
384.796	13859
384.877	15114
384.958	50388
385.039	95315
385.120	40357
385.201	15236
385.282	21417
385.363	24352
385.444	19885
385.525	23055
385.606	82753
385.687	103360
385.768	30014
385.849	31016
385.930	79563
386.011	197467
386.092	80064
386.173	19545
386.254	13691
386.335	15324
386.416	15281
386.496	35735
386.577	86217
386.658	43285
386.739	24140
386.820	22931
386.901	21002
386.981	17547
387.062	11179
387.143	14322
387.224	57878
387.304	83423
387.385	30422
387.466	20474
387.547	27800
387.627	18908
387.708	19288
387.789	96294
387.869	168029
387.950	60429
388.031	13009
388.111	13009
388.192	32605
388.273	57451
388.353	38232
388.434	17293
388.514	20466
388.595	84487
388.676	157830
388.756	92330
388.837	66827
388.917	58999
388.998	15978
389.078	11835
389.159	9739
389.239	9529
389.320	13554
389.400	15649
389.480	22275
389.561	76601
389.641	53538
389.722	15242
389.802	25380
389.883	27975
389.963	80261
390.043	75045
390.124	31804
390.204	22969
390.284	78958
390.365	73096
390.445	66588
390.525	182737
390.605	194877
390.686	70504
390.766	22193
390.846	11345
390.927	8303
391.007	9612
391.087	11366
391.167	13941
391.247	10379
391.328	15094
391.408	29162
391.488	29944
391.568	9452
391.648	10322
391.728	18392
391.808	14780
391.888	18026
391.969	31645
392.049	75468
392.129	42525
392.209	30962
392.289	79600
392.369	61456
392.449	56845
392.529	41549
392.609	21353
392.689	21124
392.769	65616
392.849	82868
392.929	42111
393.009	116824
393.089	101397
393.169	39580
393.248	76988
393.328	380321
393.408	623893
393.488	183901
393.568	44765
393.648	25359
393.728	18264
393.807	16633
393.887	15974
393.967	15820
394.047	21055
394.127	30272
394.206	47056
394.286	122504
394.366	483924
394.446	729292
394.525	296398
394.605	83616
394.685	46492
394.764	75299
394.844	131470
394.924	116588
395.003	35023
395.083	21219
395.163	19482
395.242	16690
395.322	17299
395.402	15303
395.481	17996
395.561	36871
395.640	135048
395.720	109125
395.799	134973
395.879	160347
395.958	88863
396.038	195868
396.117	634825
396.197	891735
396.276	464129
396.356	173101
396.435	103231
396.515	60434
396.594	43293
396.673	49199
396.753	94349
396.832	406174
396.912	457049
396.991	146468
397.070	35703
397.150	20708
397.229	15157
397.308	13567
397.388	21468
397.467	17380
397.546	10625
397.625	8134
397.705	12667
397.784	14774
397.863	9929
397.942	7049
398.022	9142
398.101	26155
398.180	126641
398.259	98268
398.338	25231
398.417	13033
398.497	11512
398.576	10300
398.655	8313
398.734	6522
398.813	8140
398.892	23324
398.971	125718
399.050	97805
399.129	14507
399.208	6568
399.287	6313
399.366	6223
399.445	7108
399.524	7020
399.603	6784
399.682	10941
399.761	28725
399.840	114781
399.919	142261
399.998	26017
400.077	7065
400.156	5311
400.235	8429
400.313	8512
400.392	9169
400.471	27387
400.550	73565
400.629	29260
400.708	11403
400.786	10704
400.865	31220
400.944	47705
401.023	22295
401.102	5261
401.180	5283
401.259	5976
401.338	8512
401.416	10616
401.495	11042
401.574	10118
401.652	8805
401.731	10885
401.810	11525
401.888	6753
401.967	4621
402.046	6048
402.124	9205
402.203	14815
402.281	10158
402.360	9916
402.438	38295
402.517	44630
402.596	13251
402.674	12013
402.753	8310
402.831	6258
402.910	6371
402.988	15276
403.066	69186
403.145	60662
403.223	20873
403.302	58213
403.380	54192
403.459	45988
403.537	26518
403.615	10911
403.694	4735
403.772	4852
403.850	5177
403.929	4857
404.007	4693
404.085	9532
404.164	12667
404.242	9263
404.320	20130
404.398	82007
404.477	116005
404.555	150740
404.633	195749
404.711	85317
404.789	63803
404.868	20080
404.946	9446
405.024	5856
405.102	5191
405.180	4720
405.258	4760
405.336	5514
405.415	5206
405.493	13573
405.571	14683
405.649	5107
405.727	4746
405.805	10018
405.883	9965
405.961	9807
406.039	16675
406.117	9669
406.195	8497
406.273	24513
406.351	126389
406.429	126167
406.507	29422
406.585	12152
406.663	6474
406.740	9492
406.818	9624
406.896	6611
406.974	6239
407.052	10078
407.130	57557
407.208	141332
407.285	42704
407.363	7840
407.441	6842
407.519	5566
407.596	6535
407.674	11758
407.752	34086
407.830	56813
407.907	36347
407.985	11515
408.063	6123
408.141	4199
408.218	10242
408.296	14148
408.373	7442
408.451	6391
408.529	7241
408.606	4322
408.684	3728
408.762	3005
408.839	2829
408.917	2068
408.994	3045
409.072	3852
409.149	3391
409.227	4617
409.304	7964
409.382	4263
409.459	3337
409.537	6105
409.614	7106
409.692	4962
409.769	4649
409.846	5797
409.924	9602
410.001	10860
410.079	8418
410.156	6658
410.233	6024
410.311	6135
410.388	4668
410.465	4881
410.543	8972
410.620	4927
410.697	4155
410.775	7390
410.852	3220
410.929	5893
411.006	10759
411.083	5923
411.161	12663
411.238	21280
411.315	14854
411.392	5206
411.469	6785
411.547	10256
411.624	6973
411.701	5824
411.778	4404
411.855	12529
411.932	11257
412.009	4688
412.086	4799
412.163	4998
412.240	8386
412.317	11226
412.394	12485
412.471	5825
412.548	3466
412.625	4973
412.702	5588
412.779	14128
412.856	12673
412.933	5446
413.010	3896
413.087	5820
413.164	25550
413.241	63297
413.318	21722
413.395	8226
413.471	13927
413.548	8975
413.625	3546
413.702	7585
413.779	8023
413.855	3302
413.932	3257
414.009	3422
414.086	3478
414.162	2970
414.239	6137
414.316	22981
414.393	78616
414.469	48615
414.546	7299
414.623	3451
414.699	3303
414.776	4798
414.853	4231
414.929	5184
415.006	5127
415.082	6547
415.159	7741
415.236	3876
415.312	4763
415.389	7021
415.465	13199
415.542	8657
415.618	3923
415.695	8904
415.771	6609
415.848	5374
415.924	5540
416.000	6712
416.077	4399
416.153	2205
416.230	1959
416.306	2248
416.383	4279
416.459	3588
416.535	2767
416.612	3338
416.688	3576
416.764	3205
416.841	2868
416.917	4014
416.993	3831
417.069	5727
417.146	8880
417.222	17307
417.298	11835
417.374	4802
417.451	4709
417.527	6056
417.603	7191
417.679	6520
417.755	4578
417.831	3358
417.908	2572
417.984	2410
418.060	2623
418.136	6286
418.212	16858
418.288	7378
418.364	4367
418.440	3539
418.516	7327
418.592	11213
418.668	20323
418.744	25208
418.820	24691
418.896	7875
418.972	3059
419.048	3051
419.124	9163
419.200	12356
419.276	4626
419.352	2234
419.428	3243
419.504	3412
419.579	6067
419.655	4993
419.731	3954
419.807	10439
419.883	27165
419.959	26272
420.034	8810
420.110	8208
420.186	38936
420.262	54281
420.337	12417
420.413	7738
420.489	4505
420.565	3579
420.640	3880
420.716	4187
420.792	3171
420.867	3216
420.943	3796
421.019	6752
421.094	8600
421.170	4455
421.245	3500
421.321	3597
421.397	3917
421.472	5997
421.548	17619
421.623	21093
421.699	9376
421.774	6652
421.850	5301
421.925	8704
422.001	10424
422.076	6969
422.152	6891
422.227	12193
422.302	15065
422.378	16427
422.453	27659
422.529	55203
422.604	175396
422.679	445908
422.755	374167
422.830	129032
422.905	42289
422.981	22094
423.056	13731
423.131	10786
423.207	7927
423.282	8279
423.357	15460
423.432	15598
423.508	9905
423.583	20629
423.658	26601
423.733	8813
423.808	10042
423.883	9550
423.959	8739
424.034	6009
424.109	5011
424.184	4135
424.259	3608
424.334	2978
424.409	2791
424.484	2757
424.559	5246
424.634	3796
424.709	4146
424.784	7958
424.859	5278
424.934	6021
425.009	23053
425.084	59708
425.159	36237
425.234	7384
425.309	3632
425.384	10275
425.459	32278
425.534	15278
425.609	6619
425.683	5630
425.758	3628
425.833	4833
425.908	5738
425.983	11402
426.058	53451
426.132	44136
426.207	10985
426.282	11498
426.357	15988
426.431	5991
426.506	4297
426.581	5366
426.655	5584
426.730	3603
426.805	4303
426.879	4808
426.954	4487
427.029	8573
427.103	30667
427.178	118673
427.253	93143
427.327	16143
427.402	10113
427.476	36881
427.551	30281
427.625	8613
427.700	8519
427.774	5095
427.849	7850
427.923	5200
427.998	4289
428.072	4555
428.147	10552
428.221	21155
428.296	73038
428.370	59707
428.444	11748
428.519	14137
428.593	32011
428.667	36249
428.742	33370
428.816	33043
428.890	47501
428.965	108897
429.039	56147
429.113	43537
429.188	24801
429.262	6817
429.336	6549
429.410	24347
429.485	26798
429.559	24304
429.633	32859
429.707	9568
429.781	10213
429.855	58669
429.930	126012
430.004	84752
430.078	135428
430.152	145168
430.226	92427
430.300	137520
430.374	35220
430.448	10707
430.522	25477
430.596	122734
430.670	104785
430.744	66161
430.818	173679
430.892	68545
430.966	10941
431.040	6553
431.114	4042
431.188	3540
431.262	4157
431.336	3817
431.410	9236
431.484	36807
431.557	37891
431.631	7888
431.705	3410
431.779	7839
431.853	45786
431.927	62759
432.000	12021
432.074	4421
432.148	6170
432.222	8689
432.295	4911
432.369	3651
432.443	5578
432.516	27613
432.590	118153
432.664	82575
432.737	14066
432.811	3582
432.885	1973
432.958	2480
433.032	2345
433.106	1857
433.179	2267
433.253	1829
433.326	2386
433.400	2047
433.473	2883
433.547	2068
433.620	2315
433.694	5592
433.767	8356
433.841	4755
433.914	2489
433.988	2580
434.061	2900
434.134	2483
434.208	2519
434.281	1112
434.355	1544
434.428	2544
434.501	3771
434.575	2883
434.648	4010
434.721	3009
434.795	1764
434.868	637
434.941	1350
435.014	1483
435.088	2031
435.161	3887
435.234	5219
435.307	8460
435.381	4901
435.454	3157
435.527	3126
435.600	2963
435.673	3586
435.746	2313
435.819	2274
435.892	2881
435.966	2758
436.039	2340
436.112	3344
436.185	1754
436.258	2333
436.331	1559
436.404	1940
436.477	1564
436.550	2114
436.623	1580
436.696	1751
436.769	3296
436.842	3225
436.915	2844
436.987	5419
437.060	4737
437.133	2411
437.206	1737
437.279	4062
437.352	2356
437.425	1990
437.498	2986
437.570	7032
437.643	10837
437.716	4492
437.789	1993
437.861	4144
437.934	20118
438.007	17539
438.080	4036
438.152	3902
438.225	7393
438.298	28020
438.370	149875
438.443	116382
438.516	31094
438.588	9332
438.661	3259
438.734	2956
438.806	3819
438.879	4988
438.951	4978
439.024	12326
439.096	7395
439.169	3379
439.241	3082
439.314	3577
439.386	5894
439.459	9366
439.531	14079
439.604	9649
439.676	3151
439.749	2595
439.821	1963
439.893	2597
439.966	2352
440.038	4364
440.110	5347
440.183	3970
440.255	2976
440.327	5399
440.400	14356
440.472	83848
440.544	109311
440.617	21554
440.689	8992
440.761	9568
440.833	16731
440.905	16129
440.978	4458
441.050	1953
441.122	2019
441.194	2320
441.266	2736
441.338	2447
441.411	4211
441.483	19653
441.555	61642
441.627	23730
441.699	8853
441.771	12865
441.843	5727
441.915	2673
441.987	2851
442.059	2111
442.131	3757
442.203	8397
442.275	8415
442.347	9114
442.419	5498
442.491	12986
442.563	47027
442.635	41727
442.706	30775
442.778	42101
442.850	10112
442.922	4137
442.994	4086
443.066	8196
443.137	7604
443.209	5048
443.281	5613
443.353	8654
443.425	23602
443.496	78469
443.568	108855
443.640	50521
443.711	14449
443.783	5613
443.855	5281
443.926	3440
443.998	2794
444.070	6866
444.141	5568
444.213	7496
444.285	9338
444.356	8117
444.428	8050
444.499	4525
444.571	2410
444.642	2277
444.714	2850
444.785	5991
444.857	8144
444.928	25551
445.000	24879
445.071	14975
445.143	25964
445.214	12638
445.285	11667
445.357	40305
445.428	67949
445.500	162214
445.571	152530
445.642	69798
445.714	31885
445.785	52261
445.856	22421
445.928	9958
445.999	9273
446.070	8730
446.141	6150
446.213	9342
446.284	6588
446.355	7338
446.426	6236
446.497	3444
446.569	6625
446.640	14052
446.711	10678
446.782	3510
446.853	5291
446.924	7352
446.995	4850
447.066	4672
447.138	10216
447.209	9990
447.280	2556
447.351	2750
447.422	2120
447.493	4090
447.564	5505
447.635	7144
447.706	4819
447.777	2762
447.847	2137
447.918	2787
447.989	4961
448.060	7347
448.131	17150
448.202	21081
448.273	12349
448.344	7124
448.414	3614
448.485	3073
448.556	2923
448.627	3526
448.698	2433
448.768	2309
448.839	3061
448.910	7889
448.981	11873
449.051	4673
449.122	3028
449.193	2751
449.263	3160
449.334	3576
449.405	2998
449.475	9173
449.546	10590
449.616	10233
449.687	14530
449.758	5783
449.828	3603
449.899	2951
449.969	2866
450.040	3419
450.110	3742
450.181	6859
450.251	4435
450.322	3133
450.392	4116
450.463	4027
450.533	2977
450.604	3545
450.674	3432
450.744	3335
450.815	2718
450.885	3119
450.955	3000
451.026	2076
451.096	2271
451.166	5804
451.237	7546
451.307	29832
451.377	21087
451.447	4736
451.518	2912
451.588	3321
451.658	4246
451.728	5448
451.799	21205
451.869	45768
451.939	15588
452.009	3823
452.079	2965
452.149	3780
452.219	6160
452.289	27521
452.360	40142
452.430	10208
452.500	4444
452.570	5121
452.640	6079
452.710	12429
452.780	35621
452.850	22102
452.920	19738
452.990	9969
453.060	4857
453.129	6887
453.199	8911
453.269	20221
453.339	92224
453.409	164275
453.479	102693
453.549	174819
453.619	208178
453.688	126933
453.758	23610
453.828	8135
453.898	4613
453.968	5137
454.037	4340
454.087	4215
454.107	4142
454.168	3691
454.177	3595
454.247	2964
454.249	2996
454.316	3208
454.330	3508
454.386	4718
454.411	7523
454.456	11300
454.492	22610
454.525	32399
454.574	20014
454.595	14757
454.655	6530
454.665	5236
454.734	5464
454.736	5606
454.804	9204
454.817	12420
454.873	23317
454.898	31975
454.943	46007
454.979	32144
455.013	20035
455.060	11841
455.082	8867
455.141	8745
455.152	8653
455.221	17880
455.222	18472
455.291	47520
455.303	46013
455.360	38466
455.384	45071
455.430	55405
455.465	54380
455.499	52972
455.546	40119
455.569	33145
455.627	29330
455.638	28905
455.707	7442
455.708	7450
455.777	5067
455.789	5120
455.846	5150
455.869	4671
455.916	3773
455.950	3784
455.985	3695
456.031	4381
456.054	4588
456.112	3501
456.124	3367
456.193	3969
456.193	3942
456.262	4819
456.274	5116
456.332	6165
456.355	6811
456.401	7017
456.436	6201
456.470	5355
456.516	3891
456.540	3420
456.597	2827
456.609	2649
456.678	3031
456.678	3014
456.747	3307
456.759	3242
456.817	2588
456.840	2596
456.886	2948
456.920	3212
456.955	3217
457.001	3419
457.024	3879
457.082	4950
457.093	5231
457.162	7773
457.163	7833
457.232	9758
457.243	9696
457.301	7180
457.324	5337
457.370	3427
457.405	3493
457.439	3556
457.485	3140
457.508	3049
457.566	3686
457.577	3765
457.646	4543
457.647	4570
457.715	5008
457.727	5183
457.784	6492
457.808	6808
457.853	7098
457.889	8752
457.922	9730
457.969	9122
457.991	9162
458.050	9750
458.060	9818
458.129	10374
458.130	10464
458.198	12204
458.211	12232
458.267	10751
458.292	8721
458.336	6419
458.372	6005
458.405	6077
458.453	6732
458.474	7638
458.533	10955
458.543	11453
458.611	17351
458.614	17660
458.680	17985
458.694	16256
458.749	10617
458.775	8382
458.818	6149
458.855	5472
458.887	5056
458.936	4693
458.955	4702
459.016	5764
459.024	5793
459.093	5599
459.097	5607
459.162	6085
459.177	6208
459.230	6199
459.257	6325
459.299	7008
459.338	7837
459.368	8302
459.418	8645
459.437	8328
459.499	8339
459.505	8375
459.574	6273
459.579	6249
459.643	6074
459.659	5957
459.711	6050
459.740	6060
459.780	5987
459.820	6408
459.849	6952
459.900	8127
459.917	8174
459.981	7941
459.986	7872
460.054	7209
460.061	7074
460.123	6890
460.141	7063
460.191	8012
460.222	8575
460.260	9187
460.302	10349
460.328	10245
460.382	9466
460.397	9434
460.462	8367
460.465	8379
460.534	9678
460.543	9899
460.602	22968
460.623	27842
460.671	46511
460.703	62512
460.739	64287
460.783	71105
460.808	63304
460.864	19228
460.876	16031
460.944	8621
460.945	8528
461.013	7536
461.024	7367
461.081	7347
461.104	7458
461.150	7250
461.184	7006
461.218	7148
461.264	7172
461.286	7155
461.345	7379
461.355	7392
461.423	7899
461.425	7898
461.491	8031
461.505	8202
461.559	13810
461.585	16400
461.628	31126
461.665	44570
461.696	52543
461.745	70841
461.764	62071
461.825	26614
461.832	26050
461.901	11000
461.905	10519
461.969	8888
461.985	8825
462.037	9017
462.065	8921
462.105	9039
462.145	9571
462.173	14652
462.225	23790
462.241	27104
462.305	41918
462.310	41017
462.378	30381
462.385	28208
462.446	14890
462.465	10876
462.514	9073
462.545	9267
462.582	9546
462.625	9740
462.650	9628
462.705	9262
462.718	9299
462.785	9428
462.786	9535
462.854	16298
462.865	17362
462.922	22132
462.945	24604
462.990	19084
463.025	13349
463.058	11679
463.104	9046
463.126	8671
463.184	8686
463.194	8795
463.262	9448
463.264	9474
463.330	9593
463.344	9585
463.398	10619
463.424	11069
463.466	11805
463.504	12711
463.533	12445
463.583	11696
463.601	12126
463.663	13484
463.669	13712
463.737	16206
463.743	16480
463.805	24913
463.823	27347
463.873	44941
463.903	55669
463.940	64603
463.982	76710
464.008	63516
464.062	32337
464.076	29674
464.142	12245
464.144	12116
464.211	10460
464.221	10389
464.279	10512
464.301	10493
464.347	11650
464.381	12616
464.414	14453
464.461	16856
464.482	18092
464.540	21891
464.550	21078
464.617	15074
464.620	14821
464.685	14614
464.699	14569
464.753	17309
464.779	18857
464.820	21338
464.859	23663
464.888	24014
464.938	24330
464.956	24527
465.018	25096
465.023	24743
465.091	19903
465.098	19316
465.158	18427
465.177	18231
465.226	18920
465.257	19346
465.293	19002
465.336	18527
465.361	19564
465.416	21741
465.428	23074
465.495	30341
465.496	30555
465.563	56846
465.575	61357
465.631	82717
465.654	92323
465.698	63539
465.734	38321
465.765	31459
465.813	19832
465.833	19473
465.893	19846
465.900	19783
465.968	19223
465.972	19151
466.035	19446
466.052	19486
466.102	20210
466.131	20608
466.170	20754
466.210	20803
466.237	21344
466.290	22351
466.304	22733
466.369	24163
466.372	24231
466.439	25138
466.449	25217
466.506	27249
466.528	27979
466.573	33690
466.607	37845
466.641	57074
466.687	83786
466.708	96326
466.766	130713
466.775	122627
466.842	60583
466.845	57496
466.909	37346
466.925	32563
466.977	30379
467.004	29324
467.044	29756
467.083	30116
467.111	32139
467.163	35786
467.178	36845
467.242	40943
467.245	40818
467.312	36666
467.321	36049
467.379	35096
467.400	34649
467.446	37745
467.480	39864
467.559	37238
467.638	30826
467.717	29945
467.796	31927
467.875	31589
467.955	33008
468.034	40694
468.113	94796
468.192	155849
468.271	65489
468.350	25580
468.429	25373
468.508	24697
468.588	24409
468.667	24121
468.746	27004
468.825	26105
468.904	23329
468.983	27010
469.062	41530
469.141	54320
469.220	29662
469.299	23248
469.378	26644
469.456	28046
469.535	29950
469.614	27138
469.693	27242
469.772	33278
469.851	47210
469.930	41220
470.009	24020
470.088	22307
470.166	23079
470.245	25205
470.324	27428
470.403	24213
470.482	23262
470.560	21975
470.639	22771
470.718	24277
470.797	23386
470.875	24162
470.954	35267
471.033	44547
471.111	23289
471.190	19199
471.269	18771
471.347	19161
471.426	21547
471.505	24893
471.583	26749
471.662	24525
471.740	22221
471.819	22292
471.898	21150
471.976	21156
472.055	21028
472.133	22723
472.212	30420
472.290	34780
472.369	26793
472.447	20318
472.526	19828
472.604	19742
472.683	20183
472.761	20790
472.839	20624
472.918	19099
472.996	20715
473.075	23727
473.153	25333
473.231	19373
473.310	23585
473.388	23335
473.466	21797
473.545	22048
473.623	25780
473.701	25928
473.780	22101
473.858	19314
473.936	20943
474.014	19643
474.093	22245
474.171	30907
474.249	50123
474.327	41826
474.405	19098
474.484	18563
474.562	19283
474.640	19343
474.718	21088
474.796	23858
474.874	21667
474.952	19659
475.030	20967
475.108	21063
475.187	22637
475.265	25144
475.343	26260
475.421	28386
475.499	23930
475.577	22681
475.655	26900
475.733	50225
475.811	96840
475.889	99463
475.966	81993
476.044	23188
476.122	21986
476.200	24459
476.278	23408
476.356	20176
476.434	21054
476.512	22518
476.590	25243
476.667	26200
476.745	19472
476.823	19503
476.901	20603
476.979	21994
477.056	21160
477.134	21128
477.212	20819
477.290	20226
477.367	19407
477.445	18058
477.523	19176
477.601	19822
477.678	18701
477.756	23075
477.834	29168
477.911	20171
477.989	18059
478.066	18347
478.144	20768
478.222	21755
478.299	22266
478.377	24421
478.454	18721
478.532	16781
478.609	16814
478.687	19937
478.764	17738
478.842	17362
478.919	18634
478.997	18783
479.074	16878
479.152	19754
479.229	28415
479.307	23022
479.384	15766
479.461	15106
479.539	16211
479.616	21911
479.694	19833
479.771	18950
479.848	21588
479.926	28153
480.003	36420
480.080	18342
480.157	16535
480.235	16944
480.312	16606
480.389	19253
480.467	31612
480.544	46293
480.621	27504
480.698	20094
480.775	22735
480.853	25469
480.930	20489
481.007	19577
481.084	23203
481.161	25666
481.238	26340
481.315	18314
481.392	17840
481.470	19096
481.547	17410
481.624	19021
481.701	18907
481.778	18379
481.855	21545
481.932	28053
482.009	53857
482.086	52155
482.163	19891
482.240	18124
482.317	24996
482.393	25337
482.470	19371
482.547	19616
482.624	17778
482.701	18483
482.778	19473
482.855	15282
482.932	16194
483.009	15828
483.085	16925
483.162	20429
483.239	20335
483.316	16508
483.393	16638
483.469	16394
483.546	19747
483.623	22289
483.699	18189
483.776	18681
483.853	21529
483.930	26380
484.006	66772
484.083	147505
484.160	88646
484.236	86229
484.313	83306
484.389	59771
484.466	51072
484.543	47433
484.619	47700
484.696	47820
484.772	52576
484.849	58176
484.925	49086
485.002	45160
485.078	47236
485.155	48626
485.231	46228
485.308	43650
485.384	45252
485.461	50049
485.537	81855
485.614	120044
485.690	57368
485.766	41969
485.843	41781
485.919	46334
485.995	53050
486.072	41662
486.148	39302
486.224	38324
486.301	40184
486.377	44583
486.453	46754
486.530	44167
486.606	53127
486.682	64395
486.758	74431
486.835	96869
486.911	70341
486.987	103073
487.063	108445
487.139	90388
487.215	78824
487.292	53893
487.368	43960
487.444	43209
487.520	48426
487.596	49949
487.672	45324
487.748	57872
487.824	86949
487.900	66511
487.976	45557
488.052	44780
488.128	51849
488.204	49148
488.280	44103
488.356	45538
488.432	84333
488.508	165371
488.584	81079
488.660	37503
488.736	37623
488.812	36738
488.888	44258
488.964	49997
489.039	71099
489.115	117560
489.191	100306
489.267	43820
489.343	40274
489.418	36283
489.494	32749
489.570	32974
489.646	34678
489.722	33736
489.797	35487
489.873	44162
489.949	104404
490.024	132028
490.100	41536
490.176	33453
490.251	34690
490.327	40033
490.403	35479
490.478	30420
490.554	26900
490.629	28151
490.705	26992
490.781	29299
490.856	29664
490.932	32154
491.007	31661
491.083	32382
491.158	32874
491.234	36179
491.309	78076
491.385	116588
491.460	43246
491.536	33897
491.611	31511
491.686	27980
491.762	33259
491.837	47146
491.913	85463
491.988	112096
492.063	158285
492.139	85783
492.214	58292
492.289	28705
492.365	24047
492.440	28956
492.515	30504
492.590	31405
492.666	26699
492.741	29677
492.816	53347
492.891	39793
492.967	25741
493.042	22083
493.117	24352
493.192	26522
493.267	30970
493.342	82751
493.418	163711
493.493	57362
493.568	23062
493.643	21874
493.718	27772
493.793	38737
493.868	44701
493.943	28623
494.018	22839
494.093	23685
494.168	23978
494.243	21355
494.318	20944
494.393	19020
494.468	19943
494.543	19321
494.618	21819
494.693	22211
494.768	21130
494.842	24346
494.917	19520
494.992	19834
495.067	21442
495.142	18275
495.217	21438
495.292	21080
495.366	24145
495.441	29930
495.516	37050
495.591	41062
495.665	76225
495.740	211985
495.815	175244
495.890	45683
495.964	33710
496.039	33593
496.114	33181
496.188	33424
496.263	35860
496.338	32989
496.412	36052
496.487	44362
496.561	40016
496.636	43103
496.710	39533
496.785	38646
496.860	48639
496.934	43151
497.009	39317
497.083	39663
497.158	41937
497.232	46806
497.307	58716
497.381	54800
497.455	58179
497.530	79879
497.604	68996
497.679	64034
497.753	84901
497.827	117593
497.902	113452
497.976	118723
498.050	163003
498.125	527511
498.199	888150
498.273	218494
498.348	122954
498.422	107755
498.496	99009
498.570	93653
498.645	81998
498.719	78733
498.793	81795
498.867	99770
498.941	127524
499.016	199448
499.090	690788
499.164	486846
499.238	69119
499.312	48244
499.386	48935
499.460	51834
499.534	46539
499.609	50417
499.683	71929
499.757	77796
499.831	92202
499.905	375396
499.979	634830
500.053	129858
500.127	89106
500.201	56788
500.275	41906
500.349	38009
500.422	42449
500.496	49591
500.570	75910
500.644	188102
500.718	539799
500.792	246067
500.866	43176
500.940	47481
501.013	48998
501.087	38058
501.161	53008
501.235	76313
501.309	130390
501.382	391056
501.456	579144
501.530	120096
501.603	163899
501.677	115317
501.751	34489
501.825	34927
501.898	50533
501.972	168984
502.046	199602
502.119	45988
502.193	61658
502.266	195052
502.340	173685
502.413	73744
502.487	191197
502.561	150721
502.634	58550
502.708	27783
502.781	26084
502.855	23172
502.928	21237
503.002	21229
503.075	20648
503.149	23085
503.222	24596
503.295	26652
503.369	33458
503.442	39887
503.516	96065
503.589	344792
503.662	350402
503.736	100638
503.809	144631
503.882	184159
503.956	157204
504.029	235469
504.102	67894
504.175	55881
504.249	37765
504.322	29015
504.395	33762
504.468	23401
504.542	23837
504.615	20640
504.688	17735
504.761	17283
504.834	21068
504.907	22193
504.980	31082
505.053	26354
505.127	23484
505.200	31811
505.273	34450
505.346	29692
505.419	19122
505.492	18846
505.565	16257
505.638	14341
505.711	15954
505.784	16338
505.857	15427
505.930	17538
506.003	17362
506.076	19043
506.149	23609
506.221	37503
506.294	29141
506.367	49239
506.440	215437
506.513	229613
506.586	43170
506.659	26667
506.731	17244
506.804	17762
506.877	26099
506.950	25309
507.022	17934
507.095	20625
507.168	31376
507.241	18890
507.313	15197
507.386	15090
507.459	18953
507.531	15809
507.604	13961
507.677	15273
507.749	13782
507.822	16462
507.894	26807
507.967	45951
508.040	33571
508.112	23305
508.185	24182
508.257	20891
508.330	26366
508.402	25503
508.475	23031
508.547	25816
508.620	24039
508.692	36723
508.765	32890
508.837	19631
508.909	19439
508.982	18825
509.054	20030
509.127	18933
509.199	17608
509.271	18297
509.344	17332
509.416	16962
509.488	19371
509.560	19168
509.633	18466
509.705	20461
509.777	21006
509.849	25317
509.922	24588
509.994	22618
510.066	20371
510.138	21595
510.210	35075
510.283	42781
510.355	34473
510.427	28539
510.499	26115
510.571	24388
510.643	25204
510.715	30395
510.787	33860
510.859	26392
510.931	28720
511.003	31849
511.076	36811
511.148	25825
511.219	25783
511.291	34441
511.363	53725
511.435	29320
511.507	22474
511.579	22963
511.651	21913
511.723	22578
511.795	21992
511.867	21633
511.939	24853
512.010	46431
512.082	59375
512.154	25714
512.226	23274
512.298	25681
512.369	44009
512.441	38605
512.513	31992
512.585	28706
512.656	26094
512.728	29374
512.800	26929
512.871	23067
512.943	24471
513.015	21666
513.086	23254
513.158	23587
513.230	24694
513.301	28859
513.373	32756
513.444	24015
513.516	22142
513.588	22138
513.659	21357
513.731	24016
513.802	24304
513.874	29177
513.945	54910
514.016	39534
514.088	23392
514.159	22600
514.231	26790
514.302	38473
514.374	37064
514.445	31168
514.516	53128
514.588	65398
514.659	32874
514.730	52585
514.802	56595
514.873	38082
514.944	44788
515.016	41522
515.087	39126
515.158	43213
515.229	68063
515.301	49059
515.372	60077
515.443	57633
515.514	43709
515.585	33167
515.656	29216
515.728	25127
515.799	24407
515.870	22666
515.941	23231
516.012	23467
516.083	27792
516.154	32397
516.225	32163
516.296	31648
516.367	28868
516.438	29635
516.509	33440
516.580	38126
516.651	66053
516.722	239312
516.793	275410
516.864	63298
516.935	53355
517.006	52015
517.077	61437
517.148	94091
517.219	207826
517.289	546265
517.360	364987
517.431	208987
517.502	44701
517.573	35407
517.643	32309
517.714	35895
517.785	38847
517.856	35063
517.926	39442
517.997	40461
518.068	45591
518.138	54385
518.209	64115
518.280	129657
518.350	576247
518.421	561666
518.492	90950
518.562	44262
518.633	42600
518.703	37887
518.774	39480
518.845	52641
518.915	65399
518.986	46502
519.056	43313
519.127	54593
519.197	82911
519.268	211555
519.338	296589
519.408	62055
519.479	46280
519.549	41685
519.620	28871
519.690	25364
519.760	24731
519.831	24779
519.901	26733
519.971	23374
520.042	24972
520.112	30526
520.182	32093
520.253	32732
520.323	28677
520.393	31200
520.463	50297
520.534	39231
520.604	64299
520.674	52523
520.744	35642
520.814	61627
520.885	87169
520.955	66525
521.025	275782
521.095	259591
521.165	40261
521.235	29899
521.305	27271
521.375	23355
521.445	23956
521.515	25408
521.585	27858
521.655	32892
521.725	25962
521.795	27195
521.865	24696
521.935	29994
522.005	40256
522.075	23551
522.145	23516
522.215	26663
522.285	37338
522.355	44535
522.424	84579
522.494	102998
522.564	50762
522.634	39759
522.704	104347
522.774	98704
522.843	25909
522.913	20885
522.983	24494
523.053	24466
523.122	22824
523.192	22063
523.262	44407
523.331	87170
523.401	33489
523.471	17821
523.540	19904
523.610	18092
523.680	17645
523.749	19070
523.819	22130
523.888	30102
523.958	19775
524.027	19161
524.097	22984
524.166	20933
524.236	19950
524.305	22155
524.375	19897
524.444	18393
524.514	20697
524.583	20816
524.653	27872
524.722	31142
524.791	26374
524.861	19677
524.930	20589
524.999	19317
525.069	23341
525.138	26328
525.207	30275
525.277	24899
525.346	20129
525.415	18896
525.484	19370
525.554	22060
525.623	25553
525.692	20997
525.761	21322
525.830	19438
525.900	20021
525.969	23988
526.038	32067
526.107	32548
526.176	71586
526.245	97520
526.314	52721
526.383	54060
526.452	77420
526.522	82744
526.591	161247
526.660	95690
526.729	56301
526.797	40573
526.867	57404
526.935	225820
527.004	403546
527.073	278972
527.142	56874
527.211	25832
527.280	20839
527.349	24116
527.418	17737
527.487	17285
527.555	14562
527.624	15916
527.693	15311
527.762	16236
527.831	15708
527.899	15429
527.968	16607
528.037	15940
528.106	17204
528.174	24905
528.243	31338
528.312	30493
528.380	51729
528.449	27922
528.518	17426
528.586	13651
528.655	14637
528.723	15525
528.792	14664
528.861	16443
528.929	17604
528.998	15897
529.066	15657
529.135	14524
529.203	15123
529.272	14925
529.340	17869
529.409	18005
529.477	18366
529.545	20125
529.614	27794
529.682	23719
529.751	35979
529.819	28676
529.887	29807
529.956	18865
530.024	20804
530.092	17875
530.161	18260
530.229	22246
530.297	21928
530.365	19203
530.434	16488
530.502	17250
530.570	16665
530.638	16463
530.707	16973
530.775	18833
530.843	17410
530.911	17347
530.979	16758
531.047	17327
531.115	18992
531.183	18132
531.252	17787
531.320	17721
531.388	18483
531.456	17221
531.524	17149
531.592	18009
531.660	19416
531.728	17783
531.796	18110
531.864	16682
531.932	19525
532.000	18563
532.067	20051
532.135	20146
532.203	21410
532.271	23567
532.339	27668
532.407	48443
532.475	57490
532.542	31244
532.610	29310
532.678	31415
532.746	59949
532.814	240328
532.881	151910
532.949	32257
533.017	23555
533.084	20383
533.152	20930
533.220	18735
533.287	21012
533.355	19933
533.423	19253
533.490	19512
533.558	19720
533.625	19986
533.693	23438
533.761	22389
533.828	23501
533.896	22240
533.963	29198
534.031	39707
534.098	46884
534.166	42072
534.233	25774
534.300	24867
534.368	26288
534.435	24255
534.503	23786
534.570	24422
534.637	23856
534.705	22269
534.772	22588
534.840	23852
534.907	36741
534.974	73629
535.041	33952
535.109	26560
535.176	24077
535.243	18788
535.310	18986
535.378	19321
535.445	17706
535.512	17847
535.579	18095
535.646	18207
535.714	19642
535.781	22534
535.848	23199
535.915	24652
535.982	27192
536.049	26725
536.116	26782
536.183	24182
536.250	23179
536.317	22713
536.384	24543
536.451	25750
536.518	28077
536.585	25532
536.652	27743
536.719	30523
536.786	31505
536.853	26687
536.920	27765
536.987	42392
537.053	40085
537.120	82940
537.187	177960
537.254	37670
537.321	21401
537.388	20863
537.454	18777
537.521	18119
537.588	17619
537.654	19169
537.721	22771
537.788	23332
537.855	20836
537.921	19480
537.988	21015
538.055	19662
538.121	19600
538.188	20353
538.254	22344
538.321	34023
538.388	32503
538.454	21790
538.521	19905
538.587	18846
538.654	17729
538.720	18874
538.787	18740
538.853	18894
538.920	23034
538.986	24385
539.053	24267
539.119	21433
539.185	20973
539.252	21310
539.318	26002
539.385	27924
539.451	26764
539.517	26615
539.583	25769
539.650	35253
539.716	102171
539.782	74470
539.849	22765
539.915	21091
539.981	20513
540.047	22168
540.114	22948
540.180	23220
540.246	22249
540.312	24608
540.378	35837
540.444	43622
540.510	35914
540.576	98424
540.643	87097
540.709	23750
540.775	20598
540.841	20744
540.907	24961
540.973	41182
541.039	37658
541.105	31514
541.171	23881
541.237	21732
541.303	23427
541.369	21373
541.435	24582
541.500	32032
541.566	31788
541.632	20454
541.698	18756
541.764	18727
541.830	19244
541.896	19834
541.961	20149
542.027	20738
542.093	20552
542.159	21041
542.224	23465
542.290	28992
542.356	35468
542.421	42889
542.487	29629
542.553	23634
542.618	27636
542.684	24677
542.750	22800
542.815	23849
542.881	29995
542.947	74608
543.012	124526
543.078	31637
543.143	21733
543.209	22834
543.274	22619
543.340	24339
543.405	32603
543.471	75851
543.536	41799
543.602	22171
543.667	20600
543.732	21915
543.798	20366
543.863	22751
543.928	20656
543.994	19311
544.059	19940
544.124	19365
544.190	19789
544.255	20880
544.320	20657
544.386	21151
544.451	24400
544.516	28161
544.581	28228
544.646	44423
544.712	118941
544.777	56649
544.842	30128
544.907	32711
544.972	30147
545.037	26789
545.102	29278
545.168	29205
545.233	30510
545.298	30520
545.363	34694
545.428	36990
545.493	40030
545.558	77868
545.623	74581
545.688	32415
545.753	29407
545.818	27573
545.883	28871
545.947	29193
546.012	30872
546.077	34436
546.142	31565
546.207	29354
546.272	32314
546.337	33279
546.401	31747
546.466	30212
546.531	30076
546.596	31039
546.661	29444
546.725	29283
546.790	27430
546.855	28411
546.919	28581
546.984	29553
547.049	31150
547.113	35182
547.178	35800
547.243	33929
547.307	36599
547.372	39167
547.436	48284
547.501	40160
547.565	36043
547.630	37439
547.695	41263
547.759	43375
547.823	47276
547.888	35595
547.952	35574
548.017	34331
548.081	39957
548.146	48868
548.210	53938
548.274	38788
548.339	35737
548.403	34382
548.468	34292
548.532	32042
548.596	34304
548.660	34574
548.725	34284
548.789	38654
548.853	45734
548.917	39554
548.982	43133
549.046	58846
549.110	38566
549.174	33935
549.238	34376
549.303	33729
549.367	35514
549.431	35690
549.495	34725
549.559	33725
549.623	35104
549.687	38970
549.751	48556
549.815	47601
549.879	44457
549.943	39928
550.007	42915
550.071	43385
550.135	46339
550.199	46543
550.263	41269
550.327	40443
550.391	52248
550.455	51651
550.519	40793
550.582	42935
550.646	47019
550.710	57350
550.774	47738
550.838	43877
550.901	45335
550.965	48472
551.029	49587
551.093	53558
551.156	60204
551.220	89380
551.284	140024
551.347	75999
551.411	94761
551.475	176655
551.538	75940
551.602	46751
551.666	44267
551.729	41439
551.793	41000
551.856	41527
551.920	41501
551.983	42266
552.047	41295
552.110	39470
552.174	40282
552.237	40439
552.301	38548
552.364	37381
552.428	36835
552.491	37534
552.554	39821
552.618	38824
552.681	40617
552.745	40064
552.808	44706
552.871	51672
552.934	49328
552.998	43761
553.061	45597
553.124	45344
553.187	43136
553.251	44769
553.314	48651
553.377	49311
553.440	57049
553.503	98372
553.567	285545
553.630	144987
553.693	48455
553.756	42390
553.819	40183
553.882	37947
553.945	38135
554.008	38062
554.071	36064
554.134	36640
554.197	37037
554.260	34168
554.323	36555
554.386	36666
554.449	36742
554.512	36949
554.575	36342
554.638	36155
554.701	37340
554.764	35696
554.827	34529
554.889	34754
554.952	32527
555.015	31381
555.078	32592
555.141	32820
555.203	31515
555.266	31999
555.329	33664
555.391	32490
555.454	32250
555.517	33400
555.580	32100
555.642	30963
555.705	31038
555.768	31238
555.830	30317
555.893	30855
555.955	30163
556.018	30796
556.080	30938
556.143	29743
556.206	29169
556.268	32237
556.330	31794
556.393	32059
556.455	31751
556.518	39304
556.580	51333
556.643	33776
556.705	30381
556.767	26958
556.830	29574
556.892	30619
556.955	34977
557.017	36822
557.079	30663
557.142	28779
557.204	30217
557.266	37672
557.328	47586
557.391	32432
557.453	27838
557.515	28353
557.577	29558
557.639	33166
557.701	28878
557.764	27361
557.826	27285
557.888	29779
557.950	29221
558.012	28474
558.074	30456
558.136	36748
558.198	69331
558.260	66709
558.322	35386
558.384	32117
558.446	34361
558.508	35309
558.570	40642
558.632	48008
558.694	74576
558.756	69202
558.818	94887
558.880	319994
558.942	263945
559.003	87189
559.065	79918
559.127	40056
559.189	36502
559.251	37312
559.312	39197
559.374	56384
559.436	160652
559.498	212120
559.559	54892
559.621	38086
559.683	38717
559.744	48109
559.806	86677
559.868	184204
559.929	99798
559.991	44696
560.052	44466
560.114	67521
560.176	85842
560.237	49749
560.299	82320
560.360	58881
560.422	35221
560.483	33312
560.545	32468
560.606	31815
560.667	31034
560.729	30333
560.790	30255
560.852	30380
560.913	31659
560.974	31053
561.036	29714
561.097	30670
561.158	30580
561.220	31880
561.281	30680
561.342	30642
561.403	33817
561.465	35170
561.526	46405
561.587	76178
561.648	49340
561.709	33156
561.771	31677
561.832	30885
561.893	30694
561.954	30061
562.015	30773
562.076	29998
562.137	30923
562.198	31693
562.259	31299
562.320	30253
562.381	31589
562.442	34948
562.503	38206
562.564	31179
562.625	30743
562.686	31103
562.747	32146
562.808	33615
562.869	32540
562.930	37636
562.991	41495
563.051	37444
563.112	34274
563.173	34244
563.234	33065
563.294	31313
563.355	32251
563.416	32029
563.477	32765
563.537	33265
563.598	35436
563.659	34269
563.720	34707
563.780	33800
563.841	35618
563.901	35227
563.962	32544
564.023	33276
564.083	34288
564.144	34493
564.204	35048
564.265	34841
564.325	38173
564.386	52973
564.446	75031
564.507	40392
564.567	34578
564.628	34430
564.688	34412
564.749	35499
564.809	36955
564.869	41885
564.930	40618
564.990	34419
565.050	34999
565.111	34483
565.171	34974
565.231	33609
565.292	36213
565.352	34019
565.412	35976
565.472	37204
565.532	37431
565.593	37026
565.653	36415
565.713	37658
565.773	39565
565.833	40222
565.893	46670
565.953	44532
566.013	41473
566.074	43642
566.134	48582
566.194	63374
566.254	78414
566.314	62635
566.374	52899
566.434	51244
566.494	51924
566.554	53835
566.614	55177
566.673	56588
566.733	59832
566.793	62334
566.853	67051
566.913	66233
566.973	68858
567.033	70030
567.092	68902
567.152	67272
567.212	69173
567.272	70298
567.331	74252
567.391	76641
567.451	79817
567.511	85008
567.570	93893
567.630	78098
567.690	70992
567.749	71675
567.809	74254
567.868	80931
567.928	89362
567.988	103091
568.047	118222
568.107	134822
568.166	167452
568.226	225082
568.285	316417
568.345	347736
568.404	318480
568.464	290059
568.523	270276
568.582	266291
568.642	274419
568.701	305607
568.761	371076
568.820	499955
568.879	601057
568.939	552260
568.998	468753
569.057	387285
569.116	322573
569.176	271148
569.235	231412
569.294	199214
569.353	174726
569.413	153351
569.472	139716
569.531	123499
569.590	111830
569.649	101987
569.708	92819
569.767	85501
569.827	82675
569.886	78334
569.945	71361
570.004	64938
570.063	64522
570.122	59765
570.181	59937
570.240	59499
570.299	59663
570.358	56339
570.417	52110
570.475	46528
570.534	46828
570.593	45346
570.652	44883
570.711	44202
570.770	43687
570.829	44386
570.887	41888
570.946	40198
571.005	40897
571.064	37076
571.122	37775
571.181	39710
571.240	40349
571.299	35532
571.357	36735
571.416	39077
571.475	39074
571.533	42958
571.592	36875
571.650	37137
571.709	35272
571.768	33080
571.826	32182
571.885	31403
571.943	31698
572.002	32203
572.060	33558
572.119	30686
572.177	30345
572.236	28800
572.294	29424
572.352	29813
572.411	29450
572.469	28886
572.528	29100
572.586	28872
572.644	29716
572.703	32419
572.761	33007
572.819	30202
572.877	28755
572.936	28116
572.994	27877
573.052	27384
573.110	27828
573.169	27958
573.227	26859
573.285	27236
573.343	26590
573.401	26891
573.459	27933
573.517	26333
573.576	27681
573.634	26501
573.692	27391
573.750	26663
573.808	26632
573.866	27589
573.924	31859
573.982	35324
574.040	29458
574.098	27669
574.155	26717
574.213	25360
574.271	25282
574.329	25348
574.387	25781
574.445	24818
574.503	24654
574.560	23487
574.618	23691
574.676	23835
574.734	24442
574.792	23696
574.849	26087
574.907	24581
574.965	24285
575.022	22803
575.080	23298
575.138	24671
575.195	24527
575.253	24661
575.311	26234
575.368	23743
575.426	23412
575.483	24101
575.541	25024
575.598	24402
575.656	25212
575.713	24771
575.771	24781
575.828	24867
575.886	25418
575.943	25858
576.001	26216
576.058	25764
576.115	27289
576.173	28688
576.230	31582
576.287	31507
576.345	30570
576.402	27335
576.459	27447
576.517	27900
576.574	29008
576.631	30983
576.688	29432
576.746	27230
576.803	27700
576.860	27673
576.917	27110
576.974	27026
577.031	27394
577.089	27032
577.146	27644
577.203	28010
577.260	27886
577.317	28709
577.374	29876
577.431	32053
577.488	28965
577.545	28021
577.602	28367
577.659	28110
577.716	29019
577.773	29275
577.830	31044
577.886	28667
577.943	28449
578.000	28619
578.057	30672
578.114	30894
578.171	32537
578.227	37141
578.284	41088
578.341	39353
578.398	35181
578.454	34363
578.511	34583
578.568	35166
578.625	34021
578.681	30562
578.738	28891
578.794	28872
578.851	29767
578.908	28256
578.964	29585
579.021	29669
579.077	29047
579.134	30319
579.190	28763
579.247	28064
579.303	28370
579.360	28852
579.416	27949
579.473	26944
579.529	28349
579.586	28353
579.642	28795
579.698	29382
579.755	29979
579.811	30562
579.867	31225
579.924	31202
579.980	32438
580.036	34510
580.093	37582
580.149	43882
580.205	55762
580.261	52843
580.317	46928
580.374	43453
580.430	42087
580.486	40016
580.542	37024
580.598	35616
580.619	35263
580.654	34691
580.692	33532
580.710	33017
580.765	33416
580.767	33467
580.823	32891
580.838	32909
580.879	33080
580.911	32553
580.935	32229
580.984	32503
580.991	32580
581.047	33144
581.057	33188
581.103	33592
581.130	34457
581.159	35427
581.203	37034
581.215	37497
581.270	38008
581.276	37823
581.326	36392
581.349	35889
581.382	35200
581.422	35433
581.438	35575
581.494	36006
581.494	35975
581.550	35464
581.567	35288
581.606	35103
581.640	35060
581.661	34996
581.713	34881
581.717	34904
581.773	34289
581.786	34353
581.829	34688
581.859	34598
581.885	34522
581.932	34617
581.940	34659
581.996	35232
582.004	35288
582.052	35759
582.077	35500
582.107	35212
582.150	35636
582.163	35794
582.219	35621
582.223	35622
582.274	35803
582.296	35849
582.330	36078
582.368	37282
582.386	37736
582.441	36387
582.441	36397
582.497	35972
582.514	36287
582.552	37215
582.587	37864
582.608	38230
582.659	39154
582.663	39207
582.719	38743
582.732	38159
582.774	36691
582.805	37457
582.830	38063
582.877	38895
582.885	39041
582.941	38715
582.950	38862
582.996	39467
583.023	40308
583.052	41485
583.095	42757
583.107	43161
583.162	46034
583.168	46468
583.218	50061
583.240	49716
583.273	48865
583.313	47136
583.328	46575
583.384	45790
583.385	45772
583.439	45075
583.458	44537
583.494	43606
583.531	43340
583.549	43170
583.603	42802
583.605	42794
583.660	43076
583.676	42918
583.715	42559
583.748	43233
583.770	43734
583.820	43866
583.825	43851
583.881	44658
583.893	44555
583.936	44181
583.965	44306
583.991	44371
584.038	44857
584.046	45009
584.101	45681
584.110	45845
584.156	46313
584.183	46722
584.211	47134
584.255	46946
584.266	46857
584.321	46712
584.328	46766
584.376	47397
584.400	47540
584.431	47763
584.472	48418
584.486	48529
584.541	49079
584.545	49110
584.596	49500
584.617	49708
584.651	50421
584.689	51293
584.706	51616
584.761	53637
584.762	53657
584.816	53796
584.834	53950
584.871	54689
584.906	55783
584.926	56232
584.978	56238
584.980	56236
585.035	57255
585.051	57934
585.090	59514
585.123	59773
585.145	60144
585.195	61812
585.200	61927
585.254	63989
585.267	64403
585.309	66365
585.340	69172
585.364	71333
585.412	72728
585.419	72574
585.473	71110
585.484	71168
585.528	72815
585.556	74618
585.583	77559
585.628	84232
585.637	86767
585.692	105591
585.700	110718
585.747	146673
585.772	155747
585.801	145427
585.845	112447
585.856	104907
585.910	85380
585.917	83651
585.965	82308
585.989	82020
586.019	82393
586.061	82874
586.074	83040
586.128	84260
586.133	84479
586.183	87316
586.205	88633
586.237	90255
586.277	92124
586.292	92629
586.346	94278
586.349	94392
586.401	95915
586.421	96905
586.455	99423
586.493	102773
586.509	104845
586.564	113343
586.565	113699
586.618	135644
586.637	143994
586.672	151443
586.709	141057
586.727	131877
586.781	119039
586.781	118994
586.835	121439
586.853	122669
586.889	125124
586.925	126590
586.944	127804
586.996	134029
586.998	134133
587.052	138624
587.068	140094
587.106	143979
587.140	148110
587.161	150528
587.212	155381
587.215	155616
587.269	164229
587.284	166680
587.323	172582
587.356	177396
587.377	180932
587.427	189599
587.431	190106
587.485	199894
587.499	202256
587.539	209923
587.571	217552
587.593	223347
587.643	236663
587.648	237860
587.702	252190
587.715	256076
587.755	270227
587.786	282355
587.810	291288
587.858	310202
587.864	312498
587.917	339817
587.930	345997
587.971	369887
588.001	389079
588.025	405034
588.073	437470
588.079	441740
588.133	486200
588.145	496147
588.187	535267
588.217	566092
588.241	595956
588.288	656142
588.295	665251
588.348	749414
588.360	767593
588.402	846184
588.431	905041
588.456	962515
588.503	1077356
588.510	1097766
588.564	1268164
588.575	1304366
588.617	1480195
588.646	1602241
588.671	1740248
588.718	2000748
588.725	2046899
588.778	2381637
588.789	2442439
588.832	2641752
588.861	2746558
588.886	2667089
588.932	2455230
588.939	2385105
588.993	1779146
589.004	1686292
589.047	2048910
589.075	2328147
589.100	2560748
589.147	2921488
589.154	2907940
589.207	2711149
589.218	2662595
589.261	2474505
589.290	2340567
589.314	2315900
589.361	2273166
589.368	2294126
589.421	2460038
589.433	2490212
589.475	2639580
589.504	2715436
589.528	2586164
589.576	2259068
589.582	2242714
589.635	2160785
589.647	2159320
589.689	2506932
589.718	2703237
589.742	2548533
589.790	2179410
589.795	2137632
589.849	1702661
589.861	1600420
589.902	1386070
589.932	1228328
589.955	1141079
590.004	959798
590.009	946895
590.062	811623
590.075	779316
590.115	703701
590.146	646914
590.168	616961
590.218	553508
590.222	549164
590.275	495456
590.289	481904
590.328	449402
590.360	424126
590.381	409531
590.431	376337
590.435	374567
590.488	346634
590.503	339055
590.541	322033
590.574	307985
590.594	299651
590.645	278954
590.647	278228
590.700	261070
590.716	256155
590.753	246234
590.787	237216
590.806	232571
590.859	220004
590.859	219776
590.912	208468
590.930	204765
590.965	198104
591.001	191893
591.018	189191
591.071	180937
591.072	180886
591.124	173948
591.143	171593
591.177	167516
591.214	163046
591.230	161610
591.283	157000
591.285	156837
591.336	153199
591.356	151609
591.389	148560
591.427	144991
591.442	143224
591.495	136820
591.498	136343
591.547	133420
591.569	132158
591.600	129108
591.640	125040
591.653	124191
591.706	120523
591.711	120153
591.759	118916
591.782	118234
591.811	118747
591.853	119656
591.864	118534
591.917	112452
591.924	111559
591.969	108226
591.995	106313
592.022	105162
592.066	103373
592.075	103409
592.127	103508
592.137	103542
592.180	108119
592.208	111078
592.233	108810
592.279	104025
592.285	103092
592.338	95019
592.350	93175
592.390	89954
592.421	87533
592.443	87441
592.491	87218
592.495	87108
592.548	85422
592.562	84948
592.600	83958
592.633	83077
592.653	82553
592.704	80713
592.705	81131
592.775	78947
592.846	78558
592.916	78660
592.987	77483
593.058	77655
593.128	73747
593.199	70580
593.270	69385
593.341	67866
593.411	66816
593.482	67541
593.553	65668
593.623	63981
593.694	63531
593.764	64767
593.835	64518
593.906	60120
593.976	59593
594.047	60973
594.117	63736
594.188	68929
594.258	60220
594.329	56112
594.399	55584
594.470	54309
594.540	53873
594.611	52477
594.681	52418
594.751	53311
594.822	53439
594.892	56793
594.963	56451
595.033	54454
595.103	53501
595.174	54073
595.244	63823
595.314	86597
595.384	68594
595.455	50239
595.525	50203
595.595	50423
595.665	49253
595.736	49164
595.806	48284
595.876	48564
595.946	47782
596.016	45513
596.087	47908
596.157	47227
596.227	46718
596.297	47430
596.367	47813
596.437	50381
596.507	55901
596.577	74173
596.647	62489
596.717	47384
596.787	46810
596.857	45898
596.927	46772
596.997	45786
597.067	46043
597.137	49607
597.207	50241
597.277	46403
597.347	44772
597.417	45985
597.487	45609
597.557	46349
597.626	46303
597.696	47737
597.766	52780
597.836	66474
597.906	64653
597.975	44635
598.045	43780
598.115	44150
598.185	43023
598.254	44099
598.324	46454
598.394	47489
598.464	48333
598.533	46404
598.603	44410
598.672	44253
598.742	44066
598.812	43720
598.881	43922
598.951	42520
599.020	41335
599.090	41561
599.159	42133
599.229	42020
599.299	41068
599.368	40769
599.437	41297
599.507	41605
599.576	42707
599.646	43823
599.715	43991
599.785	42677
599.854	42783
599.924	45284
599.993	47987
600.062	41838
600.132	40706
600.201	40820
600.270	43653
600.340	45832
600.409	41914
600.478	42076
600.547	41188
600.617	43391
600.686	41274
600.755	40945
600.824	40278
600.894	40842
600.963	39340
601.032	38191
601.101	38659
601.170	38118
601.239	38873
601.308	40650
601.378	39361
601.447	38007
601.516	37083
601.585	38551
601.654	40635
601.723	41359
601.792	40020
601.861	41948
601.930	44681
601.999	47249
602.068	43059
602.137	41867
602.206	43839
602.275	42659
602.343	44588
602.412	48074
602.481	44106
602.550	40621
602.619	39798
602.688	41924
602.756	40991
602.825	40813
602.894	39676
602.963	41298
603.032	40560
603.100	41142
603.169	40033
603.238	39354
603.307	39598
603.375	38533
603.444	39645
603.513	40465
603.581	38992
603.650	40020
603.719	38203
603.787	37550
603.856	37348
603.924	37001
603.993	39430
604.061	38877
604.130	38073
604.198	39694
604.267	39553
604.335	40177
604.404	39139
604.472	40407
604.541	40236
604.609	40952
604.678	40762
604.746	41050
604.815	41949
604.883	43012
604.951	41862
605.020	40231
605.088	41290
605.156	39857
605.225	41171
605.293	39704
605.361	39815
605.429	39920
605.498	40629
605.566	41693
605.634	42901
605.702	41970
605.771	42113
605.839	43202
605.907	42318
605.975	40680
606.043	41124
606.111	40377
606.180	42088
606.248	43946
606.316	48216
606.384	44298
606.452	46151
606.520	46734
606.588	45817
606.656	35949
606.724	35281
606.792	33816
606.860	32429
606.928	31439
606.996	29214
607.064	29650
607.132	29776
607.200	30927
607.267	30739
607.335	31227
607.403	32749
607.471	31705
607.539	31159
607.607	30863
607.674	29315
607.742	29364
607.810	32470
607.878	31076
607.946	29942
608.013	30080
608.081	30204
608.149	32630
608.216	30134
608.284	31099
608.352	31061
608.419	31554
608.487	38611
608.555	43361
608.622	30150
608.690	30565
608.757	30842
608.825	33487
608.893	33443
608.960	35000
609.028	41403
609.095	46900
609.163	42369
609.230	31913
609.298	32884
609.365	28689
609.432	29361
609.500	31126
609.567	32445
609.635	36178
609.702	37945
609.769	39059
609.837	39012
609.904	38548
609.971	33573
610.039	36060
610.106	44695
610.173	69926
610.241	148542
610.308	246385
610.375	178213
610.442	74480
610.509	41059
610.577	34641
610.644	31348
610.711	31144
610.778	31829
610.845	31622
610.912	33233
610.980	35670
611.047	41221
611.114	45831
611.181	35552
611.248	31478
611.315	31349
611.382	32023
611.449	32571
611.516	32300
611.583	32788
611.650	33115
611.717	33851
611.784	34246
611.851	36050
611.918	40212
611.984	45327
612.051	57874
612.118	98377
612.185	236769
612.252	399677
612.319	112666
612.386	48532
612.452	40463
612.519	39738
612.586	48130
612.653	52235
612.719	37053
612.786	37181
612.853	33469
612.919	33430
612.986	32847
613.053	31564
613.120	31186
613.186	29604
613.253	30096
613.319	30060
613.386	29441
613.453	30516
613.519	33228
613.586	36646
613.652	51264
613.719	49478
613.785	47299
613.852	35740
613.918	31626
613.985	34737
614.051	41128
614.118	67927
614.184	123129
614.250	55994
614.317	33890
614.383	30922
614.449	31104
614.516	31226
614.582	31330
614.648	32542
614.715	30558
614.781	31149
614.847	31583
614.914	33917
614.980	34052
615.046	33038
615.112	33284
615.179	35733
615.245	40933
615.311	52315
615.377	85746
615.443	145775
615.509	113560
615.575	63066
615.642	48152
615.708	45227
615.774	47879
615.840	53470
615.906	68074
615.972	101579
616.038	188214
616.104	356323
616.170	442308
616.236	673618
616.302	245701
616.368	83242
616.434	62699
616.500	50976
616.565	48121
616.631	51308
616.697	53205
616.763	46772
616.829	53615
616.895	80177
616.961	113617
617.026	82107
617.092	45783
617.158	37296
617.224	35319
617.289	34069
617.355	33123
617.421	32821
617.487	33508
617.552	31384
617.618	29951
617.684	29741
617.749	31876
617.815	29389
617.880	28457
617.946	28626
618.012	29083
618.077	29438
618.143	30613
618.208	28824
618.274	30659
618.339	31013
618.405	30141
618.470	28135
618.536	29328
618.601	31648
618.667	32738
618.732	29727
618.798	29379
618.863	28615
618.928	28891
618.994	27894
619.059	32004
619.124	38504
619.190	41758
619.255	29563
619.320	28026
619.386	28849
619.451	27474
619.516	27078
619.581	27325
619.647	27192
619.712	27609
619.777	26667
619.842	28023
619.907	28897
619.972	28277
620.038	29342
620.103	27677
620.168	26776
620.233	26619
620.298	26464
620.363	26342
620.428	27458
620.493	27199
620.558	26642
620.623	26772
620.688	27090
620.753	26980
620.818	26922
620.883	27751
620.948	26725
621.013	27278
621.078	27845
621.143	27855
621.207	30969
621.272	30051
621.337	32211
621.402	32702
621.467	36250
621.532	45626
621.596	38884
621.661	33871
621.726	30616
621.791	30838
621.855	30628
621.920	33189
621.985	34477
622.049	39388
622.114	40748
622.179	37454
622.243	34347
622.308	34505
622.373	34240
622.437	33716
622.502	33267
622.566	31510
622.631	32716
622.695	33020
622.760	32181
622.824	33243
622.889	32998
622.953	34967
623.018	41065
623.082	56483
623.147	38177
623.211	33586
623.276	33874
623.340	33169
623.404	30762
623.469	30086
623.533	31086
623.597	29969
623.662	30078
623.726	29949
623.790	28795
623.854	29003
623.919	29841
623.983	30138
624.047	30075
624.111	29161
624.176	29714
624.240	30821
624.304	34701
624.368	31502
624.432	29281
624.496	29769
624.560	31527
624.625	35749
624.689	34420
624.753	30004
624.817	30481
624.881	28706
624.945	28554
625.009	28091
625.073	27989
625.137	29829
625.201	33475
625.265	39203
625.329	30619
625.393	29865
625.456	30107
625.520	30076
625.584	32189
625.648	39042
625.712	51947
625.776	99970
625.839	175563
625.903	133376
625.967	40410
626.031	45060
626.095	83406
626.158	69041
626.222	28227
626.286	24582
626.349	24037
626.413	23574
626.477	25098
626.540	25241
626.604	24243
626.668	23642
626.731	22679
626.795	23860
626.858	25227
626.922	22983
626.986	23589
627.049	22785
627.113	22492
627.176	22161
627.240	21564
627.303	21725
627.366	21837
627.430	22859
627.493	22013
627.557	22105
627.620	22012
627.684	22090
627.747	21545
627.810	21725
627.874	21443
627.937	19716
628.000	21526
628.064	21818
628.127	19723
628.190	19743
628.253	19970
628.317	20060
628.380	19238
628.443	19872
628.506	20428
628.569	20028
628.632	18746
628.696	18335
628.759	18415
628.822	18181
628.885	17729
628.948	17544
629.011	18514
629.074	18089
629.137	17995
629.200	17771
629.263	18798
629.326	18535
629.389	16960
629.452	18197
629.515	18382
629.578	18605
629.641	18567
629.704	18877
629.767	19134
629.830	18910
629.892	17701
629.955	17684
630.018	17815
630.081	17815
630.144	23648
630.207	22365
630.269	20981
630.332	19861
630.395	22388
630.458	17018
630.520	15724
630.583	16515
630.646	15558
630.708	15338
630.771	16080
630.834	15769
630.896	15194
630.959	15453
631.021	15935
631.084	15593
631.146	17902
631.209	20929
631.272	19281
631.334	15560
631.397	15132
631.459	15152
631.522	15465
631.584	16730
631.646	16551
631.709	16529
631.771	19598
631.834	21353
631.896	16060
631.958	14659
632.021	14745
632.083	15136
632.145	15194
632.208	14723
632.270	15937
632.332	14639
632.395	13651
632.457	14015
632.519	14330
632.581	14300
632.643	13315
632.706	14566
632.768	14244
632.830	13349
632.892	13758
632.954	13754
633.016	13996
633.078	14076
633.141	13587
633.203	13620
633.265	13550
633.327	13795
633.389	13549
633.451	13830
633.513	17524
633.575	19442
633.637	18870
633.698	18863
633.760	15867
633.822	14290
633.884	14022
633.946	14289
634.008	14015
634.070	14716
634.132	15661
634.193	18032
634.255	15041
634.317	14266
634.379	15586
634.441	14966
634.502	14090
634.564	13672
634.626	13983
634.687	14610
634.749	13532
634.811	13034
634.873	13000
634.934	13045
634.996	12157
635.057	12945
635.119	12772
635.181	12740
635.242	13142
635.304	11008
635.365	13118
635.427	12626
635.488	12945
635.550	12797
635.611	12308
635.673	12375
635.734	14605
635.796	13963
635.857	14213
635.918	14296
635.980	14224
636.041	14450
636.102	14399
636.164	14393
636.225	15381
636.286	13647
636.348	14762
636.409	12813
636.470	12990
636.531	13005
636.593	13148
636.654	15954
636.715	12995
636.776	11148
636.838	11976
636.899	11081
636.960	11959
637.021	11132
637.082	11087
637.143	11653
637.204	11271
637.265	11499
637.326	11356
637.387	10993
637.448	10118
637.509	11057
637.570	10318
637.631	9908
637.692	9384
637.753	10278
637.814	10376
637.875	10711
637.936	10998
637.997	9948
638.058	11015
638.119	11962
638.179	11225
638.240	10796
638.301	10250
638.362	9954
638.423	10157
638.483	10768
638.544	10338
638.605	10482
638.666	9392
638.726	10192
638.787	10302
638.848	9673
638.908	10024
638.969	9366
639.030	10144
639.090	9964
639.151	10463
639.211	10485
639.272	12577
639.332	17050
639.393	21165
639.453	11328
639.514	10270
639.574	10907
639.635	8893
639.695	10467
639.756	9912
639.816	10664
639.877	10347
639.937	15355
639.997	25331
640.058	20418
640.118	10269
640.178	9295
640.239	10159
640.299	8776
640.359	9056
640.420	9138
640.480	9220
640.540	9657
640.600	9432
640.661	11223
640.721	8959
640.781	12325
640.841	13599
640.901	11582
640.961	9066
641.021	9739
641.082	11712
641.142	15291
641.202	17211
641.262	9229
641.322	9540
641.382	9173
641.442	9047
641.502	8616
641.562	8826
641.622	8679
641.682	8600
641.742	9587
641.802	9807
641.861	9553
641.921	9679
641.981	11423
642.041	11379
642.101	11107
642.161	13073
642.221	9263
642.280	8654
642.340	8302
642.400	8339
642.460	8667
642.519	8419
642.579	8551
642.639	8702
642.698	7200
642.758	8745
642.818	7852
642.877	8442
642.937	8456
642.997	10133
643.056	13409
643.116	14061
643.175	9629
643.235	8257
643.294	8630
643.354	8311
643.414	8700
643.473	9829
643.532	11374
643.592	14268
643.651	18359
643.711	28071
643.770	47211
643.830	93114
643.889	259532
643.948	271968
644.008	35357
644.067	14293
644.126	11184
644.186	10251
644.245	9765
644.304	8020
644.363	9219
644.423	8122
644.482	8500
644.541	8485
644.600	7829
644.659	9681
644.719	9347
644.778	10916
644.837	14979
644.896	21833
644.955	45030
645.014	56840
645.073	17439
645.132	11540
645.191	10129
645.250	9058
645.309	8329
645.368	8700
645.427	10564
645.486	9557
645.545	15158
645.604	13919
645.663	8242
645.722	8018
645.781	9076
645.840	9175
645.898	10075
645.957	11606
646.016	15372
646.075	23854
646.134	39792
646.192	77675
646.251	221450
646.310	142446
646.369	18700
646.427	11359
646.486	9721
646.545	8830
646.603	8309
646.662	8154
646.721	7004
646.779	7513
646.838	7092
646.896	8262
646.955	8535
647.014	10701
647.072	13839
647.131	24038
647.189	40229
647.248	11921
647.306	7577
647.365	6982
647.423	6474
647.481	8190
647.540	6406
647.598	7323
647.657	6447
647.715	6822
647.773	6309
647.832	6187
647.890	6440
647.948	6592
648.007	6648
648.065	6549
648.123	6222
648.181	8145
648.240	8016
648.298	10164
648.356	8043
648.414	7028
648.472	7494
648.531	6469
648.589	7165
648.647	6406
648.705	6633
648.763	6188
648.821	6564
648.879	5900
648.937	7613
648.995	7117
649.053	7798
649.111	10081
649.169	13836
649.227	18278
649.285	30345
649.343	68324
649.401	128036
649.459	39822
649.516	34449
649.574	17703
649.632	22970
649.690	47609
649.748	31292
649.806	14901
649.863	24865
649.921	27563
649.979	33990
650.037	14178
650.094	6426
650.152	6556
650.210	6187
650.268	6718
650.325	6982
650.383	7455
650.440	6309
650.498	6523
650.556	6536
650.613	6259
650.671	5558
650.728	5836
650.786	6533
650.843	6730
650.901	5836
650.958	6073
651.016	6543
651.073	6056
651.131	5944
651.188	4866
651.246	6147
651.303	5270
651.360	5493
651.418	5373
651.475	5765
651.532	4329
651.590	5430
651.647	4319
651.704	5615
651.762	5554
651.819	6267
651.876	4955
651.933	6167
651.990	5345
652.048	5692
652.105	5111
652.162	5280
652.219	5825
652.276	5913
652.333	5479
652.390	4141
652.448	5532
652.505	5953
652.562	5925
652.619	6545
652.676	7343
652.733	12583
652.790	8103
652.847	4609
652.904	5473
652.961	5234
653.017	4099
653.074	5676
653.131	5051
653.188	4463
653.245	5477
653.302	5127
653.359	4749
653.415	4861
653.472	4432
653.529	5506
653.586	5354
653.642	5250
653.699	4884
653.756	4756
653.813	4785
653.869	5339
653.926	4393
653.983	5132
654.039	5167
654.096	4950
654.152	5549
654.209	5065
654.266	5787
654.322	5879
654.379	5790
654.435	6768
654.492	6176
654.548	7722
654.605	12039
654.661	14874
654.717	7186
654.774	5739
654.830	6089
654.887	6478
654.943	6077
655.000	6294
655.056	5604
655.112	5439
655.168	5598
655.225	6121
655.281	6387
655.337	7539
655.394	11338
655.450	14906
655.506	9522
655.562	10226
655.618	18170
655.675	7635
655.731	6448
655.787	5284
655.843	5800
655.899	5280
655.955	6665
656.011	4998
656.067	5237
656.123	5878
656.179	5803
656.235	6860
656.291	5513
656.347	6822
656.403	6143
656.459	5957
656.515	7315
656.571	7033
656.627	7320
656.683	5639
656.739	6176
656.795	5242
656.850	5565
656.906	6365
656.962	7975
657.018	5852
657.074	4890
657.129	5332
657.185	6382
657.241	6524
657.297	7232
657.352	5909
657.408	5368
657.464	6449
657.519	5556
657.575	5095
657.630	4368
657.686	5358
657.742	4468
657.797	4592
657.853	4668
657.908	5702
657.964	4704
658.019	4352
658.075	5563
658.130	4925
658.186	4876
658.241	4547
658.297	4968
658.352	4535
658.407	5967
658.463	4454
658.518	4635
658.573	5355
658.629	4191
658.684	4687
658.739	4708
658.795	4587
658.850	4492
658.905	4668
658.960	5284
659.016	4434
659.071	5037
659.126	5336
659.181	5391
659.236	6674
659.291	9894
659.346	8435
659.401	6285
659.457	6610
659.512	8022
659.567	9885
659.622	5297
659.677	5242
659.732	4685
659.787	4816
659.842	5684
659.897	7406
659.952	7538
660.007	5634
660.061	5714
660.116	5290
660.171	4920
660.226	5144
660.281	5244
660.336	4322
660.391	4950
660.445	5171
660.500	5009
660.555	4588
660.610	4034
660.664	5414
660.719	4184
660.774	3914
660.828	5618
660.883	5300
660.938	5015
660.992	4595
661.047	4469
661.101	5039
661.156	4611
661.211	4732
661.265	4677
661.320	4124
661.374	4441
661.429	4666
661.483	4793
661.538	4974
661.592	4511
661.647	4649
661.701	5794
661.755	5314
661.810	4866
661.864	4611
661.919	4409
661.973	5600
662.027	4983
662.081	4774
662.136	4312
662.190	5273
662.244	5708
662.299	5806
662.353	4941
662.407	5373
662.461	4461
662.515	5413
662.569	4646
662.624	5413
662.678	5044
662.732	4659
662.786	4286
662.840	5482
662.894	5313
662.948	4835
663.002	4274
663.056	4453
663.110	3838
663.164	4018
663.218	4373
663.272	4801
663.326	4855
663.380	4492
663.434	5519
663.488	5710
663.542	4991
663.595	4973
663.649	5206
663.703	5224
663.757	5372
663.811	4382
663.864	5456
663.918	5059
663.972	4378
664.026	5400
664.079	4193
664.133	5085
664.187	4867
664.240	4390
664.294	4366
664.348	4628
664.401	4767
664.455	5557
664.508	4444
664.562	3987
664.615	4871
664.669	4337
664.722	4786
664.776	4812
664.829	5069
664.883	4731
664.936	4966
664.990	4772
665.043	4821
665.097	5501
665.150	5939
665.203	5874
665.257	5525
665.310	4987
665.363	5624
665.417	5753
665.470	5218
665.523	4643
665.576	5674
665.630	5347
665.683	4995
665.736	5156
665.789	5183
665.842	5081
665.895	5272
665.949	5195
666.002	4753
666.055	4715
666.108	6003
666.161	5147
666.214	5871
666.267	6049
666.320	5282
666.373	7063
666.426	5359
666.479	5010
666.532	5949
666.585	6562
666.638	7624
666.691	7281
666.744	7644
666.796	7309
666.849	6881
666.902	6692
666.955	5691
667.008	4968
667.060	4885
667.113	5352
667.166	5089
667.219	5147
667.271	4845
667.324	5370
667.377	4419
667.430	6072
667.482	4756
667.535	7166
667.587	5449
667.640	6274
667.693	5957
667.745	7885
667.798	10955
667.850	8884
667.903	5191
667.955	5273
668.008	5585
668.060	5764
668.113	6593
668.165	5889
668.218	6098
668.270	5713
668.322	5548
668.375	5804
668.427	5776
668.479	4767
668.532	5379
668.584	5023
668.636	5779
668.689	4659
668.741	5110
668.793	5782
668.845	5830
668.898	6148
668.950	5748
669.002	6027
669.054	6035
669.106	5566
669.158	6162
669.211	6101
669.263	5973
669.315	6244
669.367	7289
669.419	7776
669.471	8024
669.523	8120
669.575	10690
669.627	11033
669.679	8734
669.731	6853
669.783	7841
669.835	8088
669.886	8210
669.938	7983
669.990	7484
670.042	7320
670.094	7953
670.146	7393
670.197	9132
670.249	10500
670.301	12808
670.353	16656
670.404	21646
670.456	30026
670.508	45807
670.560	69925
670.611	106629
670.663	170215
670.715	292123
670.766	670415
670.818	776765
670.869	219945
670.921	51493
670.972	28240
671.024	21280
671.075	15718
671.127	12451
671.178	10380
671.230	9469
671.281	9057
671.333	8593
671.384	8349
671.436	8330
671.487	9062
671.538	8455
671.590	8154
671.641	10462
671.692	11897
671.744	14828
671.795	21030
671.846	14827
671.897	9746
671.949	8683
672.000	7640
672.051	6793
672.102	6935
672.153	6328
672.204	6495
672.256	5514
672.307	6088
672.358	6364
672.409	6920
672.460	6134
672.511	5338
672.562	5204
672.613	5355
672.664	5393
672.715	5468
672.766	6317
672.817	5818
672.868	5801
672.919	6028
672.970	4751
673.021	5350
673.071	5784
673.122	5777
673.173	5364
673.224	5186
673.275	5111
673.326	5266
673.376	5700
673.427	4996
673.478	4890
673.528	5498
673.579	4899
673.630	5252
673.680	5067
673.731	4587
673.782	3644
673.832	5202
673.883	5041
673.934	5555
673.984	5070
674.035	4821
674.085	4618
674.136	6025
674.186	5943
674.237	6682
674.287	8561
674.338	10452
674.388	5673
674.438	4968
674.489	5903
674.539	4915
674.589	5597
674.640	5270
674.690	5242
674.740	3846
674.791	5748
674.841	5464
674.891	5877
674.942	5039
674.992	5135
675.042	4837
675.092	5173
675.142	4314
675.193	5418
675.243	4531
675.293	5579
675.343	5038
675.393	5037
675.443	5303
675.493	5144
675.543	3957
675.593	4680
675.643	5370
675.693	4358
675.743	4215
675.793	5134
675.843	4803
675.893	5393
675.943	4746
675.993	4250
676.043	4577
676.093	5318
676.142	4098
676.192	4517
676.242	4593
676.292	4826
676.341	4748
676.391	5122
676.441	4294
676.491	4329
676.540	3926
676.590	4583
676.640	4048
676.689	4414
676.739	4186
676.789	3918
676.838	4231
676.888	4203
676.937	4097
676.987	3941
677.037	4644
677.086	3614
677.136	3864
677.185	3623
677.235	4202
677.284	3457
677.333	3763
677.383	3733
677.432	4113
677.482	3460
677.531	4134
677.580	3538
677.630	4492
677.679	4122
677.728	4143
677.778	4465
677.827	3817
677.876	3095
677.925	3385
677.975	3622
678.024	3211
678.073	3943
678.122	3829
678.171	4784
678.220	4953
678.269	4000
678.319	4650
678.368	4290
678.417	4608
678.466	4314
678.515	4760
678.564	4750
678.613	4863
678.662	4846
678.711	4416
678.760	4425
678.809	4447
678.857	4414
678.906	4277
678.955	4131
679.004	4618
679.053	3922
679.102	4236
679.151	3727
679.199	4269
679.248	4254
679.297	4040
679.346	4946
679.394	4008
679.443	3736
679.492	4150
679.540	4589
679.589	4030
679.638	4863
679.686	3935
679.735	3669
679.784	3590
679.832	3601
679.881	4149
679.929	4405
679.978	3642
680.026	3477
680.075	3330
680.123	4510
680.172	3339
680.220	3658
680.268	3175
680.317	4101
680.365	3335
680.414	3412
680.462	4302
680.510	3577
680.559	2836
680.607	3016
680.655	3962
680.703	2764
680.752	3628
680.800	4212
680.848	2805
680.896	2929
680.945	3774
680.993	3386
681.041	3943
681.089	3151
681.137	3603
681.185	3113
681.233	2868
681.258	3040
681.281	3187
681.329	3649
681.377	4022
681.380	4032
681.425	3907
681.473	3397
681.502	3428
681.521	3428
681.569	4240
681.617	4153
681.624	4135
681.665	3848
681.713	3589
681.745	3541
681.761	3504
681.809	3287
681.857	3737
681.867	3799
681.904	3928
681.952	4284
681.989	3709
682.000	3524
682.048	3804
682.096	3611
682.111	3778
682.143	4051
682.191	4217
682.233	3831
682.239	3759
682.286	4298
682.334	4094
682.354	4034
682.382	3895
682.430	4854
682.476	4453
682.477	4430
682.525	4004
682.572	4114
682.598	3880
682.620	3681
682.667	3902
682.715	4346
682.720	4342
682.763	4121
682.810	3860
682.841	4293
682.857	4523
682.905	4046
682.952	4249
682.963	4177
683.000	3827
683.047	4353
683.085	4808
683.095	4900
683.142	4245
683.190	4327
683.206	4333
683.237	4356
683.284	4397
683.328	4803
683.332	4822
683.379	4543
683.426	4290
683.449	4362
683.473	4418
683.521	4632
683.568	4447
683.571	4470
683.615	4619
683.662	5045
683.693	4896
683.709	4775
683.757	4743
683.804	4655
683.814	4547
683.851	4180
683.898	4554
683.936	4271
683.945	4183
683.992	4682
684.039	4316
684.057	4651
684.086	5170
684.133	5050
684.179	5126
684.180	5119
684.227	5421
684.274	5381
684.300	5322
684.321	5189
684.368	4801
684.415	4742
684.422	4777
684.462	5000
684.509	4884
684.543	4523
684.556	4361
684.603	6013
684.649	4858
684.665	4839
684.696	4856
684.743	5171
684.786	5456
684.790	5466
684.837	5971
684.883	6292
684.908	5767
684.930	5330
684.977	6337
685.023	6275
685.029	6256
685.070	5799
685.117	5397
685.150	5415
685.164	5471
685.210	6170
685.257	6765
685.272	6716
685.303	6561
685.350	5809
685.393	6577
685.396	6631
685.443	6758
685.490	6914
685.514	6827
685.536	6720
685.583	6947
685.629	6636
685.636	6584
685.675	6126
685.722	6069
685.757	6106
685.768	6153
685.815	7032
685.861	7014
685.878	7084
685.908	7183
685.954	6811
686.000	6399
686.000	6389
686.047	7163
686.093	7406
686.121	8271
686.139	8955
686.185	8675
686.232	8315
686.242	8437
686.278	8060
686.324	7311
686.363	6954
686.370	6965
686.416	6799
686.463	6482
686.484	6530
686.509	6656
686.555	6720
686.601	6855
686.606	6825
686.647	6485
686.693	6309
686.727	6778
686.739	6945
686.785	6852
686.831	6439
686.848	6666
686.877	7025
686.923	6617
686.969	6352
686.969	6350
687.015	6748
687.061	6584
687.090	6418
687.107	6326
687.153	6806
687.199	6775
687.211	6614
687.245	6272
687.291	6399
687.332	6515
687.336	6542
687.382	7375
687.428	7984
687.453	7823
687.474	7467
687.520	7778
687.565	6914
687.574	6890
687.611	7052
687.657	6889
687.695	7142
687.702	7178
687.748	7459
687.794	7709
687.816	7777
687.839	7938
687.885	7388
687.931	7710
687.937	7740
687.976	7571
688.022	7453
688.058	7152
688.067	7144
688.113	6798
688.158	7547
688.179	7341
688.204	7076
688.249	7162
688.295	6934
688.300	6996
688.340	7550
688.386	8392
688.421	7635
688.431	7410
688.477	7662
688.522	7416
688.542	7530
688.567	7743
688.613	7960
688.658	7893
688.663	7878
688.703	7654
688.749	8002
688.784	7807
688.794	7748
688.839	7570
688.884	7894
688.905	7737
688.930	7668
688.975	7562
689.020	7669
689.026	7696
689.065	7750
689.110	7800
689.146	7506
689.155	7497
689.201	7726
689.246	7537
689.267	7753
689.291	7941
689.336	8010
689.381	8078
689.388	8118
689.426	8193
689.471	8185
689.509	7734
689.516	7691
689.561	7624
689.606	8045
689.630	7924
689.651	7827
689.696	7954
689.741	8125
689.750	8171
689.785	8431
689.830	7903
689.871	8494
689.875	8535
689.920	8418
689.965	7775
689.992	7597
690.010	7604
690.054	7969
690.099	8197
690.112	8227
690.144	8342
690.189	8307
690.233	8435
690.233	8444
690.278	7835
690.323	8341
690.354	8113
690.367	8103
690.412	8611
690.457	8134
690.474	8460
690.501	9025
690.546	8766
690.590	9000
690.595	8987
690.635	8944
690.680	9535
690.716	9615
690.724	9706
690.769	10501
690.813	11039
690.836	11427
690.857	12177
690.902	13449
690.946	14949
690.957	15381
690.991	18767
691.035	23806
691.077	29202
691.080	29658
691.124	37737
691.168	42767
691.198	45354
691.213	42749
691.257	35405
691.301	29542
691.318	26945
691.346	24019
691.390	20073
691.434	16105
691.439	15615
691.478	14323
691.522	13109
691.559	11720
691.567	11629
691.611	11655
691.655	11212
691.680	11049
691.699	10950
691.743	10577
691.787	10168
691.800	9994
691.831	9818
691.875	10026
691.919	9931
691.921	9909
691.964	9957
692.008	10066
692.041	10375
692.052	10480
692.096	10408
692.139	10524
692.162	10504
692.183	10406
692.227	10299
692.271	10332
692.282	10202
692.315	9870
692.359	10066
692.402	10268
692.403	10289
692.447	9923
692.490	10444
692.523	10737
692.534	10758
692.578	10306
692.622	10090
692.643	9932
692.666	9957
692.709	10175
692.753	10181
692.763	10211
692.797	10309
692.840	10221
692.884	10314
692.884	10335
692.928	10532
692.971	10847
693.004	10936
693.015	10843
693.059	10426
693.102	10046
693.124	9803
693.146	10015
693.189	10572
693.233	11110
693.245	11236
693.276	11587
693.320	12268
693.363	12498
693.365	12491
693.407	12879
693.450	13339
693.485	13628
693.493	13909
693.537	15507
693.580	16734
693.605	17664
693.624	19151
693.667	22447
693.710	25803
693.725	27115
693.753	33945
693.797	44642
693.840	56758
693.845	58233
693.883	73380
693.926	86980
693.966	97184
693.970	95621
694.013	79225
694.056	63400
694.086	52735
694.099	49617
694.142	39272
694.185	29343
694.206	24454
694.229	23055
694.272	20599
694.315	17997
694.326	17301
694.358	16721
694.401	15745
694.444	15026
694.446	14955
694.487	14736
694.530	14159
694.566	14113
694.573	14031
694.616	12687
694.659	11895
694.686	11238
694.702	11232
694.745	11034
694.787	10982
694.806	10935
694.830	10999
694.873	10967
694.916	11203
694.926	11184
694.959	11145
695.002	11049
695.044	11156
695.046	11121
695.087	10905
695.130	11182
695.166	11113
695.172	11130
695.215	10989
695.258	11073
695.286	11071
695.301	11196
695.343	11345
695.386	11557
695.406	11739
695.428	11692
695.471	11309
695.514	10960
695.526	10856
695.556	10871
695.599	10905
695.641	10870
695.646	10839
695.684	10745
695.726	10562
695.766	10378
695.769	10395
695.811	10485
695.854	10396
695.886	10353
695.896	10438
695.938	10700
695.981	10866
696.005	10925
696.023	10945
696.065	11132
696.108	11092
696.125	11098
696.150	11136
696.192	11272
696.235	11169
696.245	11163
696.277	11152
696.319	10968
696.361	10946
696.365	10908
696.404	11134
696.446	11365
696.485	11657
696.488	11687
696.530	11531
696.572	11501
696.604	11355
696.614	11406
696.656	11725
696.698	11759
696.724	11935
696.740	11856
696.783	11426
696.825	11058
696.844	10834
696.867	10738
696.909	10497
696.951	10283
696.964	10184
696.992	10247
697.034	10329
697.076	10403
697.083	10384
697.118	10405
697.160	10511
697.202	10534
697.203	10508
697.244	10565
697.286	10621
697.323	10631
697.327	10670
697.369	10898
697.411	10961
697.442	11004
697.453	10993
697.494	10871
697.536	10812
697.562	10694
697.578	10815
697.620	11093
697.661	11378
697.682	11497
697.703	11580
697.744	11609
697.786	11726
697.801	11726
697.828	12063
697.869	12559
697.911	13059
697.921	13133
697.952	12630
697.994	12005
698.035	11364
698.040	11258
698.077	11260
698.118	11210
698.160	11156
698.160	11127
698.201	11135
698.243	11045
698.279	11053
698.284	11105
698.325	11231
698.367	11409
698.399	11485
698.408	11524
698.449	11579
698.491	11648
698.518	11676
698.532	11668
698.573	11537
698.614	11392
698.638	11296
698.656	11388
698.697	11507
698.738	11633
698.757	11673
698.779	11633
698.820	11470
698.862	11332
698.877	11246
698.903	11397
698.944	11605
698.985	11805
698.996	11831
699.026	11873
699.067	11895
699.116	11892
699.235	11490
699.354	12127
699.474	11512
699.593	11443
699.713	14254
699.832	11637
699.951	11980
700.070	12226
700.190	11855
700.309	11682
700.428	12371
700.547	12830
700.667	10972
700.786	11568
700.905	12562
701.024	11514
701.143	12237
701.262	10678
701.381	10324
701.500	11457
701.619	11812
701.738	10784
701.857	11136
701.976	10230
702.095	10555
702.214	10683
702.333	12058
702.452	10683
702.571	11424
702.690	10978
702.809	10265
702.928	10412
703.047	9776
703.165	11067
703.284	10295
703.403	10605
703.522	10507
703.640	12212
703.759	11718
703.878	14646
703.997	14673
704.115	10766
704.234	11701
704.353	9546
704.471	10394
704.590	9614
704.708	10558
704.827	10219
704.946	10081
705.064	10944
705.183	10964
705.301	10794
705.420	13869
705.538	15998
705.656	14507
705.775	12664
705.893	16218
706.012	29101
706.130	20231
706.249	13757
706.367	13364
706.485	13483
706.604	13466
706.722	13736
706.840	14236
706.958	16207
707.077	15677
707.195	12933
707.313	13059
707.431	11687
707.549	12110
707.668	11842
707.786	12332
707.904	11261
708.022	11778
708.140	11904
708.258	11870
708.376	11749
708.494	11865
708.612	12374
708.730	14372
708.848	18415
708.966	15410
709.084	15064
709.202	13594
709.320	14018
709.438	13922
709.556	14145
709.674	14326
709.791	14103
709.909	14611
710.027	13962
710.145	13920
710.263	13787
710.380	13506
710.498	13561
710.616	13335
710.733	13680
710.851	13962
710.969	14773
711.086	13884
711.204	13902
711.322	13668
711.439	13094
711.557	13833
711.674	14134
711.792	13780
711.909	14742
712.027	15049
712.144	13135
712.262	12921
712.379	12411
712.497	15833
712.614	20742
712.732	17638
712.849	15696
712.966	15881
713.084	18351
713.201	19597
713.318	16958
713.436	16892
713.553	15836
713.670	16571
713.787	16872
713.905	18844
714.022	16898
714.139	14826
714.256	16154
714.373	15619
714.490	18787
714.608	22534
714.725	48289
714.842	142748
714.959	52280
715.076	16317
715.193	15583
715.310	15172
715.427	14757
715.544	14956
715.661	14745
715.778	14510
715.895	14825
716.011	15952
716.128	14891
716.245	14152
716.362	14788
716.479	16087
716.596	15043
716.713	14865
716.829	14234
716.946	14038
717.063	12705
717.180	13643
717.296	13002
717.413	13330
717.530	13074
717.646	12755
717.763	12419
717.880	12793
717.996	12116
718.113	12376
718.229	12667
718.346	13336
718.462	11871
718.579	14182
718.695	16157
718.812	21704
718.928	17060
719.045	17545
719.161	12419
719.277	12160
719.394	11875
719.510	12618
719.626	12236
719.743	12956
719.859	13588
719.975	13944
720.092	19117
720.208	48438
720.324	41805
720.440	13516
720.557	13671
720.673	14884
720.789	20164
720.905	33467
721.021	44843
721.137	14002
721.253	11545
721.369	12758
721.486	11818
721.602	15353
721.718	15743
721.834	10629
721.950	10798
722.066	10892
722.181	10498
722.297	10928
722.413	10920
722.529	10521
722.645	11071
722.761	10873
722.877	10201
722.993	10148
723.108	10749
723.224	10918
723.340	9802
723.456	10997
723.571	9527
723.687	11161
723.803	9786
723.918	10212
724.034	10086
724.150	10631
724.265	10493
724.381	13898
724.497	27847
724.612	16150
724.728	9489
724.843	9907
724.959	9630
725.074	13040
725.190	27101
725.305	14660
725.421	10324
725.536	9182
725.651	9652
725.767	8710
725.882	8348
725.997	8321
726.113	8895
726.228	9208
726.343	8349
726.459	8824
726.574	7949
726.689	9062
726.804	8107
726.920	9315
727.035	9528
727.150	8962
727.265	8935
727.380	9137
727.495	9096
727.610	8052
727.725	8602
727.841	9289
727.956	11510
728.071	18694
728.186	10398
728.301	7605
728.416	8240
728.531	8858
728.645	7435
728.760	8133
728.875	8830
728.990	9190
729.105	9267
729.220	9218
729.335	8207
729.449	8959
729.564	8074
729.679	7842
729.794	7358
729.908	8558
730.023	8610
730.138	7084
730.253	7081
730.367	7770
730.482	7324
730.596	7437
730.711	7445
730.826	8160
730.940	8050
731.055	7517
731.169	7402
731.284	7074
731.398	8290
731.513	8500
731.627	8700
731.742	8081
731.856	9223
731.970	7919
732.085	7718
732.199	7542
732.313	7667
732.428	10937
732.542	18284
732.656	30811
732.771	13081
732.885	8025
732.999	7514
733.113	7163
733.227	7683
733.342	7013
733.456	6889
733.570	6849
733.684	6868
733.798	7697
733.912	6357
734.026	6359
734.140	6296
734.254	6980
734.368	8489
734.482	15518
734.596	9297
734.710	6346
734.824	6308
734.938	6778
735.052	6144
735.166	7759
735.280	7726
735.393	6656
735.507	5959
735.621	7433
735.735	11920
735.849	13350
735.962	6572
736.076	6905
736.190	7697
736.303	7039
736.417	11814
736.531	9302
736.644	6593
736.758	6110
736.872	5660
736.985	6805
737.099	6073
737.212	5512
737.326	6486
737.439	6292
737.553	6352
737.666	5678
737.780	5814
737.893	6313
738.007	6144
738.120	5524
738.233	5796
738.347	6034
738.460	5941
738.573	6336
738.687	6195
738.800	7550
738.913	6919
739.026	6610
739.140	6100
739.253	6457
739.366	6284
739.479	5663
739.592	5335
739.705	5555
739.818	5983
739.932	5296
740.045	5942
740.158	6087
740.271	5920
740.384	6416
740.497	5752
740.610	6399
740.723	6321
740.836	6737
740.949	7439
741.062	6759
741.174	8851
741.287	5764
741.400	5429
741.513	6426
741.626	6608
741.739	7029
741.851	6776
741.964	6564
742.077	5842
742.189	6148
742.302	6774
742.415	8194
742.527	6759
742.640	7163
742.753	6316
742.865	4813
742.978	5551
743.090	5508
743.203	5077
743.316	5906
743.428	5430
743.541	5775
743.653	5100
743.766	5310
743.878	5060
743.990	6246
744.103	7516
744.215	6257
744.327	6762
744.440	6943
744.552	6453
744.664	7753
744.777	4896
744.889	5025
745.001	5049
745.113	4654
745.226	5578
745.338	5415
745.450	5244
745.562	5041
745.674	4462
745.786	5050
745.898	4914
746.010	5369
746.122	4988
746.234	5107
746.347	4927
746.459	4951
746.570	5636
746.682	5682
746.794	6800
746.906	7222
747.018	4948
747.130	5072
747.242	5057
747.354	5359
747.466	5354
747.577	5175
747.689	4899
747.801	5419
747.913	5472
748.024	4856
748.136	4673
748.248	5103
748.359	4469
748.471	5580
748.583	5016
748.694	6376
748.806	6428
748.918	6460
749.029	6571
749.141	5812
749.252	6123
749.364	5411
749.475	7580
749.587	10155
749.698	6929
749.809	5102
749.921	5286
750.032	4503
750.144	5410
750.255	4958
750.366	4701
750.478	4744
750.589	5132
750.700	5216
750.811	5525
750.923	5912
751.034	6679
751.145	12274
751.256	7346
751.367	5871
751.479	5121
751.590	5023
751.701	5239
751.812	5379
751.923	5060
752.034	4827
752.145	4906
752.256	4707
752.367	4359
752.478	4685
752.589	4526
752.700	5571
752.811	4518
752.922	4475
753.032	4760
753.143	5650
753.254	5495
753.365	5469
753.476	5701
753.586	4520
753.697	4896
753.808	3837
753.919	4435
754.029	5278
754.140	4976
754.251	4953
754.361	4219
754.472	4663
754.582	5145
754.693	5340
754.804	5484
754.914	4640
755.025	5233
755.135	5119
755.246	5177
755.356	5484
755.466	4823
755.577	5361
755.687	4610
755.798	5554
755.908	4683
756.018	4566
756.129	5275
756.239	5425
756.349	5861
756.460	5417
756.570	5387
756.680	4837
756.790	5823
756.900	6572
757.011	6170
757.121	6182
757.231	5771
757.341	5652
757.451	5463
757.561	5798
757.671	5035
757.781	5208
757.891	5240
758.001	6105
758.111	6212
758.221	6396
758.331	6124
758.441	7189
758.551	6267
758.661	8319
758.771	5773
758.880	7073
758.990	6618
759.100	6921
759.210	6866
759.320	6718
759.429	6941
759.539	7632
759.649	7011
759.758	7131
759.868	7469
759.978	8162
760.087	7717
760.197	7642
760.307	7834
760.416	7105
760.526	6868
760.635	8053
760.745	8179
760.854	8188
760.964	8181
761.073	8912
761.182	8356
761.292	8573
761.401	10191
761.511	9451
761.620	8627
761.729	9529
761.839	9552
761.948	9957
762.057	10271
762.166	10515
762.276	10679
762.385	10406
762.494	10314
762.603	10944
762.712	12068
762.822	12125
762.931	12698
763.040	12436
763.149	12678
763.258	14255
763.367	14232
763.476	13746
763.585	15500
763.694	16863
763.803	16273
763.912	17826
764.021	18710
764.130	18947
764.238	20087
764.347	21319
764.456	23274
764.565	25072
764.674	26154
764.783	28676
764.891	32567
765.000	35554
765.109	39848
765.217	45216
765.326	51748
765.435	62409
765.543	74541
765.652	90458
765.761	117680
765.869	156703
765.978	222693
766.086	336344
766.195	536307
766.303	883453
766.412	1223851
766.520	1054363
766.629	1215571
766.737	842040
766.846	487675
766.954	314432
767.062	216691
767.171	161043
767.279	125123
767.387	97187
767.496	79732
767.604	66286
767.712	59086
767.820	51380
767.928	46587
768.037	43645
768.145	41215
768.253	39167
768.361	38081
768.469	35603
768.577	36268
768.685	37305
768.793	39649
768.901	42987
769.009	47986
769.117	57108
769.225	70154
769.333	94012
769.441	136249
769.549	218981
769.657	397181
769.765	753199
769.873	1072371
769.981	1043630
770.088	730743
770.196	358845
770.304	208385
770.412	139988
770.519	101043
770.627	78193
770.735	62438
770.842	52473
770.950	44055
771.058	37929
771.165	34106
771.273	30998
771.380	28255
771.488	25404
771.595	22511
771.703	22171
771.810	19937
771.918	18370
772.025	17281
772.133	16691
772.240	17138
772.348	15384
772.455	15180
772.562	13965
772.670	14495
772.777	13718
772.884	12734
772.991	11833
773.099	11968
773.206	10897
773.313	11452
773.420	11010
773.528	9987
773.635	10012
773.742	10338
773.849	10021
773.956	9421
774.063	9179
774.170	8773
774.277	8284
774.384	8724
774.491	8829
774.598	8480
774.705	7758
774.812	8169
774.919	9278
775.026	8479
775.133	8399
775.239	7215
775.346	7381
775.453	7460
775.560	7586
775.667	7845
775.773	7501
775.880	7094
775.987	6485
776.093	7110
776.200	6445
776.307	6603
776.413	6830
776.520	6182
776.627	6616
776.733	6541
776.840	6647
776.946	7204
777.053	7133
777.159	9310
777.266	10073
777.372	9059
777.478	9371
777.585	9129
777.691	6107
777.798	6145
777.904	6820
778.010	6666
778.117	8380
778.223	5766
778.329	5421
778.435	5927
778.542	5648
778.648	5456
778.754	5255
778.860	5403
778.966	5918
779.072	5461
779.178	5148
779.284	5430
779.391	5099
779.497	5751
779.603	7930
779.708	10130
779.815	18598
779.920	51838
780.026	188921
780.132	107690
780.238	12634
780.344	7015
780.450	6116
780.556	5742
780.661	4862
780.767	4617
780.873	4529
780.979	4461
781.085	4229
781.190	4601
781.296	4315
781.402	4344
781.507	4460
781.613	4642
781.719	4629
781.824	3385
781.930	4439
782.035	4497
782.141	3538
782.246	4482
782.352	4250
782.457	3788
782.563	4097
782.668	3344
782.773	4039
782.879	4952
782.984	3764
783.090	3773
783.195	4832
783.300	6007
783.405	4565
783.511	4742
783.616	4091
783.721	3975
783.826	3760
783.932	4093
784.037	4320
784.142	3823
784.247	4318
784.352	4094
784.457	4716
784.562	3573
784.667	3064
784.772	3160
784.877	4394
784.982	4164
785.087	3396
785.192	2891
785.297	3973
785.402	3322
785.507	3745
785.611	3481
785.716	3005
785.821	3548
785.926	3461
786.031	2620
786.135	3607
786.240	3726
786.345	3030
786.450	3083
786.554	2714
786.659	2562
786.763	3270
786.868	3465
786.973	2895
787.077	4168
787.182	2994
787.286	3118
787.391	2953
787.495	3429
787.600	2586
787.704	3322
787.809	3361
787.913	2586
788.017	3378
788.122	2457
788.226	3489
788.330	3173
788.435	2518
788.539	2667
788.643	2451
788.747	2410
788.852	3183
788.956	2212
789.060	2748
789.164	2759
789.268	2786
789.372	2816
789.476	3210
789.580	2827
789.684	2384
789.788	2617
789.892	2699
789.996	2863
790.100	3451
790.204	2090
790.308	3159
790.412	2954
790.516	2766
790.620	3607
790.724	3146
790.828	2656
790.931	2983
791.035	3734
791.139	3197
791.242	2493
791.346	2957
791.450	2954
791.554	2739
791.657	2108
791.761	2886
791.864	2595
791.968	2691
792.072	1555
792.175	2647
792.279	2455
792.382	2253
792.486	3005
792.589	2835
792.693	3255
792.796	2261
792.899	2990
793.003	3127
793.106	2660
793.209	2211
793.313	3536
793.416	1876
793.519	2356
793.623	3732
793.726	4311
793.829	4579
793.932	2513
794.035	2289
794.138	3092
794.242	3172
794.345	3633
794.448	6575
794.551	10982
794.654	30083
794.757	98442
794.860	62987
794.963	8116
795.066	3523
795.169	3291
795.272	2509
795.375	3639
795.477	2378
795.580	3063
795.683	1627
795.786	3007
795.889	1065
795.991	2685
796.094	2136
796.197	2781
796.300	2787
796.402	1753
796.505	1594
796.608	1614
796.710	2124
796.813	2642
796.915	2109
797.018	1673
797.120	1618
797.223	1541
797.326	2198
797.428	1968
797.530	1582
797.633	1710
797.735	2382
797.838	2692
797.940	4547
798.042	2793
798.145	1095
798.247	1836
798.349	1350
798.452	1410
798.554	1379
798.656	1797
798.758	1730
798.860	1277
798.962	1788
799.065	1518
799.167	1336
799.269	1787
799.371	2273
799.473	3032
799.575	2154
799.677	2926
799.779	2854
799.881	1886
799.983	3169
800.085	2260
800.187	958
800.289	1277
800.390	1428
800.492	1505
800.594	1986
800.696	2145
800.798	1052
800.899	2093
801.001	1773
801.103	966
801.205	566
801.306	1684
801.408	1580
801.509	1637
801.611	1216
801.713	1612
801.814	1124
801.916	1215
802.017	2063
802.119	870
802.220	1926
802.322	862
802.423	2875
802.525	2148
802.626	1727
802.727	1099
802.829	1406
802.930	563
803.031	2046
803.133	1079
803.234	1313
803.335	1312
803.436	1380
803.538	767
803.639	799
803.740	1295
803.841	1665
803.942	1182
804.043	2134
804.144	849
804.245	1134
804.346	908
804.447	1148
804.548	1861
804.649	3176
804.750	1884
804.851	1734
804.952	1566
805.053	1067
805.154	1158
805.255	1870
805.355	1405
805.456	1029
805.557	1642
805.658	786
805.758	1772
805.859	1058
805.960	909
806.061	1117
806.161	985
806.262	1410
806.362	1014
806.463	901
806.564	1428
806.664	2538
806.765	1631
806.865	2175
806.966	1700
807.066	1612
807.166	814
807.267	1204
807.367	884
807.468	875
807.568	828
807.668	846
807.769	1360
807.869	1086
807.969	1131
808.069	1301
808.170	1405
808.270	1124
808.370	1373
808.470	1376
808.570	1051
808.670	1091
808.770	1184
808.870	709
808.970	1404
809.070	952
809.170	-58
809.271	1822
809.370	1443
809.470	831
809.570	892
809.670	1310
809.770	664
809.870	1353
809.970	1869
810.070	935
810.169	731
810.269	366
810.369	1937
810.469	714
810.568	1278
810.668	838
810.768	1469
810.867	1179
810.967	970
811.066	805
811.166	1675
811.265	1197
811.365	1191
811.464	1249
811.564	1601
811.663	1062
811.763	948
811.862	776
811.962	503
812.061	784
812.160	1031
812.260	790
812.359	1294
812.458	1896
812.557	2838
812.657	6832
812.756	6224
812.855	1938
812.954	1203
813.053	1824
813.153	1636
813.252	1275
813.351	1100
813.450	1188
813.549	1464
813.648	1881
813.747	1662
813.846	1360
813.945	1481
814.044	1316
814.143	1407
814.242	1785
814.341	1761
814.439	842
814.538	1990
814.637	1038
814.736	2094
814.835	2937
814.933	1760
815.032	2795
815.131	1851
815.229	2189
815.328	2494
815.427	2453
815.525	2756
815.624	2495
815.722	1805
815.821	2050
815.919	2664
816.018	2935
816.116	3358
816.215	2943
816.313	3435
816.412	4009
816.510	3949
816.609	4462
816.707	4205
816.805	3906
816.904	4346
817.002	5814
817.100	5164
817.198	6792
817.296	7806
817.395	8520
817.493	11081
817.591	11929
817.689	15825
817.787	21408
817.885	31320
817.983	52529
818.081	92769
818.179	193591
818.277	420730
818.375	699796
818.473	442526
818.571	173092
818.669	86244
818.767	61900
818.865	52792
818.963	55118
819.061	68152
819.158	100670
819.256	173276
819.354	335315
819.452	662642
819.549	846687
819.647	514179
819.745	228538
819.842	119073
819.940	75170
820.038	51413
820.135	37721
820.233	29527
820.330	22914
820.428	18463
820.525	16040
820.623	13923
820.720	11079
820.818	10544
820.915	9175
821.012	8806
821.110	8039
821.207	7802
821.304	6145
821.402	5356
821.499	6010
821.596	6262
821.693	5662
821.791	4526
821.888	4783
821.985	5084
822.082	6530
822.179	5569
822.276	3381
822.373	3501
822.470	4134
822.567	2758
822.664	2364
822.761	3391
822.858	1929
822.955	2322
823.052	2415
823.149	1789
823.246	2304
823.343	1741
823.440	2594
823.536	1387
823.633	1897
823.730	1243
823.827	2183
823.923	1798
824.020	1618
824.117	2162
824.213	1777
824.310	1880
824.407	2122
824.503	1511
824.600	1504
824.696	1547
824.793	1998
824.889	1369
824.986	968
825.082	656
825.179	1793
825.275	450
825.371	1285
825.468	1214
825.564	860
825.660	1197
825.757	1311
825.853	1045
825.949	567
826.045	1507
826.142	1192
826.238	681
826.334	732
826.430	484
826.526	1149
826.622	1238
826.718	611
826.814	623
826.910	1318
827.006	803
827.102	652
827.198	1184
827.294	715
827.390	952
827.486	540
827.582	111
827.678	-89
827.774	1064
827.869	74
827.965	1579
828.061	461
828.157	614
828.252	970
828.348	398
828.444	1288
828.539	842
828.635	177
828.731	654
828.826	-92
828.922	-174
829.017	807
829.113	998
829.208	216
829.304	-118
829.399	773
829.495	208
829.590	-35
829.685	142
829.781	320
829.876	228
829.971	456
830.066	-184
830.162	1112
830.257	84
830.352	352
830.447	957
830.543	393
830.638	-56
830.733	760
830.828	20
830.923	65
831.018	-103
831.113	428
831.208	-74
831.303	1707
831.398	301
831.493	-78
831.588	368
831.683	64
831.778	543
831.873	369
831.967	-261
832.062	79
832.157	-308
832.252	957
832.346	772
832.441	987
832.536	581
832.631	1484
832.725	2672
832.820	1792
832.914	-369
833.009	656
833.104	-227
833.198	1043
833.293	117
833.387	641
833.482	-429
833.576	355
833.670	725
833.765	152
833.859	183
833.954	640
834.048	-215
834.142	583
834.237	-397
834.331	-337
834.425	305
834.519	-292
834.613	1228
834.708	-861
834.802	721
834.896	14
834.990	-53
835.084	315
835.178	181
835.272	617
835.366	297
835.460	179
835.554	-6
835.648	549
835.742	-802
835.836	32
835.930	-566
836.024	78
836.117	607
836.211	245
836.305	807
836.399	1505
836.493	1308
836.586	-118
836.680	-805
836.774	-239
836.867	853
836.961	-87
837.055	-222
837.148	-25
837.242	-233
837.335	947
837.429	340
837.522	-803
837.616	457
837.709	1321
837.803	2035
837.896	731
837.989	-17
838.083	663
838.176	1275
838.269	3038
838.363	2275
838.456	363
838.549	993
838.642	940
838.735	2250
838.829	3110
838.922	731
839.015	-321
839.108	-395
839.201	651
839.294	168
839.387	674
839.480	-239
839.573	547
839.666	1010
839.759	1056
839.852	180
839.945	215
840.038	-766
840.131	-439
840.223	4
840.316	-240
840.409	-544
840.502	-573
840.594	81
840.687	-352
840.780	407
840.873	70
840.965	-311
841.058	940
841.150	1271
841.243	1977
841.336	1115
841.428	48
841.521	-54
841.613	-44
841.706	354
841.798	-424
841.890	-629
841.983	-152
842.075	306
842.167	56
842.260	111
842.352	335
842.444	551
842.537	2154
842.629	4027
842.721	2565
842.813	218
842.905	-504
842.997	-233
843.090	186
843.182	129
843.274	1491
843.366	4753
843.458	9858
843.550	14183
843.642	5684
843.734	1070
843.826	661
843.918	1257
844.009	895
844.101	-166
844.193	292
844.285	-771
844.377	564
844.469	443
844.560	1294
844.652	594
844.744	1179
844.835	618
844.927	288
845.019	-56
845.110	651
845.202	-361
845.293	-729
845.385	245
845.476	-766
845.568	178
845.659	692
845.751	394
845.842	-125
845.934	-157
846.025	-674
846.116	-355
846.208	-354
846.299	-52
846.390	691
846.482	117
846.573	986
846.664	864
846.755	331
846.846	1664
846.937	-169
847.029	637
847.120	-122
847.211	29
847.302	-556
847.393	-472
847.484	636
847.575	35
847.666	-44
847.757	-342
847.847	-210
847.938	515
848.029	-177
848.120	-308
848.211	-308
848.302	-182
848.392	401
848.483	-645
848.574	-285
848.664	-799
848.755	-31
848.846	190
848.936	-70
849.027	-552
849.118	-495
849.208	128
849.299	-56
849.389	514
849.480	826
849.570	587
849.661	2651
849.751	3744
849.841	4822
849.932	685
850.022	148
850.112	-144
850.203	-230
850.293	-89
850.383	-90
850.474	-1127
850.564	-328
850.654	-4
850.744	677
850.834	-517
850.924	-526
851.014	-109
851.104	-46
851.194	-254
851.284	155
851.374	745
851.464	-173
851.554	507
851.644	190
851.734	814
851.824	372
851.914	1406
852.004	2181
852.094	4288
852.183	1948
852.273	53
852.363	705
852.452	-293
852.542	114
852.632	-360
852.721	391
852.811	-1169
852.901	681
852.990	-466
853.080	68
853.169	-302
853.259	-217
853.348	-933
853.438	-782
853.527	-520
853.617	-518
853.706	727
853.795	740
853.885	4214
853.974	9432
854.063	16846
854.152	32147
854.242	38510
854.331	9816
854.420	1529
854.509	768
854.598	783
854.687	175
854.777	1137
854.866	194
854.955	271
855.044	-52
855.133	-527
855.222	140
855.311	-151
855.400	9
855.488	765
855.577	-710
855.666	29
855.755	477
855.844	692
855.933	-78
856.021	1008
856.110	-400
856.199	-740
856.288	-737
856.376	-114
856.465	-337
856.554	-107
856.642	-463
856.731	-241
856.819	340
856.908	-386
856.996	-32
857.085	-837
857.173	-456
857.262	-71
857.350	-149
857.438	-489
857.527	560
857.615	-846
857.703	521
857.792	-204
857.880	-82
857.968	-259
858.056	-443
858.145	-220
858.233	-188
858.321	-456
858.409	632
858.497	-272
858.585	-398
858.673	-4
858.761	340
858.849	471
858.937	-794
859.025	-1065
859.113	-529
859.201	-567
859.289	-87
859.377	-867
859.465	-190
859.552	-313
859.640	-287
859.728	-450
859.816	-679
859.903	-258
859.991	-700
860.079	-296
860.166	-204
860.254	-111
860.342	-361
860.429	-8
860.517	-633
860.604	-590
860.692	11
860.779	-321
860.867	-265
860.954	-747
861.042	89
861.129	-13
861.216	727
861.304	124
861.391	82
861.478	-288
861.565	491
861.653	152
861.740	-535
861.827	-93
861.914	-395
862.001	-499
862.089	141
862.176	-325
862.263	-538
862.350	-92
862.437	-557
862.524	-1185
862.611	-718
862.698	-450
862.785	-172
862.871	-178
862.958	611
863.045	-730
863.132	109
863.219	-61
863.306	-862
863.392	-243
863.479	-316
863.566	-608
863.652	-922
863.739	-332
863.826	-530
863.912	-568
863.999	-183
864.086	-790
864.172	40
864.259	-615
864.345	-105
864.432	-157
864.518	-41
864.604	-105
864.691	-1002
864.777	46
864.863	-2
864.950	66
865.036	-632
865.122	-264
865.209	321
865.295	-128
865.381	88
865.467	58
865.553	186
865.639	208
865.726	493
865.812	1314
865.898	3388
865.984	6852
866.070	10173
866.156	21270
866.242	16118
866.328	2521
866.414	433
866.499	-782
866.585	-308
866.671	-569
866.757	296
866.843	40
866.928	-87
867.014	572
867.100	592
867.186	-622
867.271	-263
867.357	177
867.442	841
867.528	580
867.614	-174
867.699	-684
867.785	355
867.870	-51
867.956	420
868.041	1654
868.127	-419
868.212	488
868.297	462
868.383	354
868.468	940
868.553	940
868.639	1645
868.724	1374
868.809	3327
868.894	1526
868.979	191
869.065	-817
869.150	-278
869.235	-461
869.320	-266
869.405	-193
869.490	-648
869.575	-1231
869.660	-226
869.745	233
869.830	-751
869.915	-277
870.000	615
870.085	290
870.169	193
870.254	335
870.339	-691
870.424	-430
870.509	-306
870.593	2
870.678	-1244
870.763	-1023
870.847	-694
870.932	-1366
871.016	221
871.101	-776
871.186	-654
871.270	-597
871.355	-300
871.439	-245
871.523	-1100
871.608	-361
871.692	-481
871.777	-739
871.861	-443
871.945	-549
872.030	-437
872.114	-514
872.198	-204
872.282	-209
872.367	-438
872.451	-737
872.535	-277
872.619	-423
872.703	-633
872.787	-220
872.871	-381
872.955	-400
873.039	-975
873.123	-1044
873.207	-107
873.291	-231
873.375	-356
873.459	109
873.543	233
873.627	-1093
873.711	-873
873.794	-640
873.878	-521
873.962	-415
874.045	-162
874.129	-796
874.137	-770
874.213	-507
874.245	-178
874.296	346
874.352	-510
874.380	-925
874.460	-943
874.464	-945
874.547	-643
874.568	-593
874.631	-452
874.676	-413
874.714	-363
874.784	-676
874.798	-747
874.881	338
874.892	206
874.965	-664
874.999	-807
875.048	-1032
875.107	-463
875.131	-234
875.215	277
875.215	277
875.298	-234
875.323	-217
875.381	-162
875.430	-374
875.465	-525
875.538	-512
875.548	-511
875.631	-833
875.646	-698
875.714	-75
875.753	-192
875.798	-311
875.861	-841
875.881	-1006
875.964	173
875.968	153
876.047	-237
876.076	-394
876.130	-712
876.183	-211
876.213	142
876.291	356
876.296	357
876.379	-150
876.398	-291
876.462	-647
876.506	-123
876.545	314
876.613	-203
876.628	-316
876.711	-407
876.721	-414
876.794	-386
876.828	-268
876.877	-185
876.935	-323
876.960	-315
877.043	63
877.043	65
877.125	569
877.150	437
877.208	107
877.258	336
877.291	603
877.365	154
877.374	65
877.456	566
877.472	488
877.539	432
877.579	598
877.622	634
877.687	423
877.704	367
877.787	466
877.794	417
877.869	48
877.901	118
877.952	247
878.008	-28
878.034	-195
878.115	6
878.117	10
878.199	202
878.222	-10
878.282	-397
878.329	19
878.364	302
878.437	-247
878.447	-323
878.529	-19
878.544	7
878.611	115
878.651	313
878.694	471
878.758	62
878.776	-1
878.858	477
878.865	439
878.941	-225
878.972	-206
879.023	-85
879.078	-4
879.105	104
879.185	346
879.187	349
879.269	433
879.292	261
879.351	-276
879.399	-382
879.433	-323
879.506	251
879.516	295
879.598	17
879.613	-49
879.680	-177
879.720	86
879.762	302
879.827	208
879.844	227
879.926	116
879.933	145
880.007	248
880.040	66
880.089	-142
880.147	-99
880.171	-72
880.253	344
880.254	344
880.335	937
880.360	1180
880.417	1640
880.467	1839
880.499	2177
880.574	3856
880.580	3919
880.662	3958
880.680	3294
880.744	811
880.787	656
880.825	621
880.893	385
880.907	423
880.989	204
881.000	227
881.070	166
881.106	86
881.152	174
881.213	87
881.233	64
881.315	296
881.319	322
881.396	744
881.426	744
881.478	455
881.532	68
881.559	83
881.639	385
881.641	389
881.722	431
881.745	322
881.803	90
881.852	199
881.885	281
881.958	482
881.966	535
882.047	678
882.064	761
882.129	830
882.171	509
882.210	518
882.277	1277
882.291	1348
882.372	1490
882.383	1424
882.454	831
882.489	761
882.535	670
882.596	307
882.616	378
882.697	558
882.702	584
882.778	370
882.808	345
882.859	420
882.914	148
882.940	106
883.020	247
883.021	255
883.102	896
883.127	940
883.183	556
883.233	413
883.264	549
883.339	376
883.345	368
883.426	291
883.445	434
883.507	716
883.551	487
883.587	365
883.657	535
883.668	612
883.749	1021
883.763	1037
883.830	599
883.869	516
883.910	370
883.975	153
883.991	269
884.072	601
884.081	628
884.152	312
884.187	157
884.233	499
884.292	1053
884.314	1051
884.394	678
884.398	657
884.475	236
884.504	235
884.555	473
884.610	311
884.636	269
884.716	800
884.716	810
884.797	838
884.821	1021
884.877	1151
884.927	992
884.958	1025
885.033	1261
885.038	1274
885.118	1232
885.139	1174
885.199	687
885.244	548
885.279	733
885.350	722
885.359	709
885.439	789
885.456	810
885.520	1012
885.561	1060
885.600	1018
885.667	1055
885.680	1109
885.760	1198
885.773	1202
885.840	911
885.878	819
885.920	780
885.984	776
886.000	822
886.080	620
886.089	623
886.160	676
886.195	679
886.240	962
886.300	1315
886.320	1181
886.400	597
886.406	554
886.480	957
886.511	1124
886.560	1253
886.616	1421
886.640	1507
886.720	1614
886.722	1613
886.800	1175
886.827	958
886.879	1150
886.932	1295
886.959	1301
887.038	1440
887.039	1447
887.119	1211
887.143	1199
887.198	1516
887.248	1661
887.278	1450
887.354	943
887.358	978
887.437	1561
887.459	1705
887.517	1312
887.564	963
887.596	867
887.669	723
887.676	772
887.755	1319
887.774	1412
887.835	1301
887.880	1260
887.914	1312
887.985	1347
887.994	1362
888.073	1489
888.090	1489
888.153	1396
888.195	1330
888.232	1287
888.300	1184
888.311	1272
888.391	1921
888.405	2013
888.470	2023
888.510	2042
888.549	1765
888.615	1260
888.628	1275
888.708	1348
888.720	1342
888.787	1968
888.825	2349
888.866	1954
888.930	1276
888.945	1330
889.024	1624
889.035	1647
889.103	2058
889.140	2290
889.182	2138
889.245	1880
889.261	1694
889.340	781
889.349	669
889.419	1213
889.454	1505
889.498	1490
889.559	1417
889.577	1410
889.656	1386
889.664	1380
889.735	2004
889.768	2296
889.814	2157
889.873	1953
889.978	2134
890.083	2030
890.187	1351
890.292	2017
890.397	1946
890.501	2431
890.606	1552
890.710	2172
890.815	1742
890.919	1291
891.024	1815
891.128	1164
891.233	2036
891.337	1967
891.442	904
891.546	532
891.650	2297
891.755	1730
891.859	1836
891.963	1180
892.068	1591
892.172	2011
892.276	1012
892.380	1791
892.484	1009
892.589	1937
892.693	1419
892.797	1522
892.901	1334
893.005	1804
893.109	1338
893.213	2303
893.317	1860
893.421	758
893.525	1254
893.629	2022
893.733	1903
893.837	1984
893.941	2099
894.045	1318
894.148	2747
894.252	7383
894.356	4424
894.460	1179
894.564	739
894.667	1490
894.771	1077
894.875	615
894.978	1445
895.082	1899
895.186	1096
895.289	1209
895.393	1285
895.496	1863
895.600	735
895.703	562
895.807	1086
895.910	1494
896.014	1708
896.117	1484
896.221	1326
896.324	1765
896.427	1534
896.531	1640
896.634	1079
896.737	1070
896.840	1019
896.944	886
897.047	487
897.150	2042
897.253	1526
897.356	1920
897.460	1496
897.563	890
897.666	1391
897.769	1755
897.872	1199
897.975	379
898.078	586
898.181	1485
898.284	1591
898.387	970
898.490	1971
898.593	2011
898.695	1829
898.798	1426
898.901	1863
899.004	2430
899.107	978
899.209	1499
899.312	608
899.415	1409
899.518	913
899.620	1757
899.723	965
899.826	1896
899.928	1868
900.031	347
900.133	1084
900.236	448
900.338	592
900.441	1068
900.543	617
900.646	868
900.748	1301
900.851	1642
900.953	2116
901.055	1029
901.158	609
901.260	723
901.362	551
901.465	1334
901.567	937
901.669	1635
901.771	1141
901.873	1275
901.976	1027
902.078	707
902.180	958
902.282	1276
902.384	857
902.486	828
902.588	1562
902.690	958
902.792	1048
902.894	562
902.996	1370
903.098	769
903.200	1425
903.302	1668
903.404	1442
903.505	737
903.607	835
903.709	1519
903.811	785
903.913	1528
904.014	856
904.116	742
904.218	179
904.319	790
904.421	1400
904.523	1943
904.624	639
904.726	1076
904.827	615
904.929	769
905.030	651
905.132	612
905.233	469
905.335	873
905.436	176
905.537	1522
905.639	408
905.740	1450
905.841	1014
905.943	1583
906.044	1137
906.145	1685
906.247	1734
906.348	1021
906.449	1580
906.550	1004
906.651	1443
906.752	1072
906.854	694
906.955	716
907.056	439
907.157	1088
907.258	1616
907.359	579
907.460	1049
907.561	1022
907.662	407
907.762	1273
907.863	1462
907.964	792
908.065	1563
908.166	1009
908.267	768
908.367	1759
908.468	734
908.569	1500
908.670	1176
908.770	2086
908.871	1271
908.971	1610
909.072	1833
909.173	1189
909.273	1110
909.374	1036
909.474	653
909.575	1484
909.675	522
909.776	1288
909.876	911
909.977	1228
910.077	1947
910.177	879
910.278	1485
910.378	907
910.478	609
910.579	1952
910.679	840
910.779	1230
910.879	820
910.980	646
911.080	680
911.180	1528
911.280	854
911.380	1448
911.480	601
911.580	519
911.680	1157
911.780	1044
911.880	1191
911.980	1081
912.080	1186
912.180	1332
912.280	1116
912.380	954
912.480	604
912.580	944
912.679	599
912.779	1153
912.879	1022
912.979	783
913.078	825
913.178	1252
913.278	567
913.377	1744
913.477	1065
913.577	1554
913.676	756
913.776	731
913.875	1156
913.975	1189
914.074	769
914.174	872
914.273	1121
914.373	1647
914.472	648
914.572	342
914.671	655
914.770	1356
914.870	1044
914.969	1057
915.068	641
915.167	1324
915.267	565
915.366	956
915.465	511
915.564	1657
915.663	1056
915.763	1105
915.862	1473
915.961	736
916.060	871
916.159	505
916.258	107
916.357	1012
916.456	903
916.555	1328
916.654	719
916.752	1833
916.851	1503
916.950	844
917.049	399
917.148	1616
917.247	522
917.345	458
917.444	911
917.543	1171
917.642	1210
917.740	1444
917.839	719
917.937	1222
918.036	643
918.135	1160
918.233	947
918.332	1454
918.430	220
918.529	1213
918.627	869
918.726	663
918.824	916
918.923	1106
919.021	304
919.119	899
919.218	1205
919.316	749
919.414	1313
919.512	-65
919.611	242
919.709	1161
919.807	1179
919.905	1389
920.003	851
920.102	924
920.200	948
920.298	1563
920.396	1000
920.494	681
920.592	477
920.690	1306
920.788	1324
920.886	961
920.984	1032
921.082	813
921.180	1334
921.277	1029
921.375	504
921.473	427
921.571	1519
921.669	1254
921.766	732
921.864	750
921.962	1001
922.060	1271
922.157	903
922.255	1257
922.352	188
922.450	1842
922.548	1715
922.645	1209
922.743	701
922.840	1962
922.938	2354
923.035	1982
923.133	1187
923.230	1375
923.327	1196
923.425	2141
923.522	1568
923.619	1765
923.717	1331
923.814	2536
923.911	2084
924.008	2017
924.106	846
924.203	981
924.300	964
924.397	1072
924.494	1038
924.591	1651
924.688	1721
924.786	1333
924.883	1950
924.979	1433
925.077	1336
925.173	1127
925.270	1786
925.367	1713
925.464	941
925.561	654
925.658	1382
925.755	941
925.852	1793
925.948	1156
926.045	1672
926.142	1448
926.239	1989
926.335	1291
926.432	2010
926.529	1288
926.625	2504
926.722	1679
926.818	1672
926.915	347
927.011	1504
927.108	1274
927.204	1588
927.301	991
927.397	644
927.494	1349
927.590	1151
927.687	1774
927.783	1960
927.879	798
927.976	1334
928.072	1522
928.168	1236
928.264	1669
928.361	1958
928.457	1095
928.553	1107
928.649	1227
928.745	1540
928.841	1825
928.937	1249
929.033	1901
929.129	1314
929.225	2068
929.321	1404
929.417	1285
929.513	1465
929.609	1073
929.705	1043
929.801	1016
929.897	1544
929.993	1559
930.089	1133
930.184	1076
930.280	1823
930.376	619
930.471	1421
930.567	1497
930.663	1339
930.758	1787
930.854	1798
930.950	1664
931.045	667
931.141	953
931.236	1324
931.332	2087
931.427	588
931.523	1467
931.618	2282
931.714	1069
931.809	1393
931.905	1583
932.000	784
932.095	334
932.191	1584
932.286	994
932.381	899
932.476	1168
932.572	1358
932.667	1746
932.762	1345
932.857	1758
932.952	1826
933.047	249
933.142	1517
933.237	1555
933.332	1133
933.427	790
933.522	1298
933.617	1287
933.712	1214
933.807	561
933.902	809
933.997	1139
934.092	1596
934.187	1419
934.282	2014
934.376	1404
934.471	1320
934.566	1040
934.661	963
934.755	1691
934.850	1094
934.945	1166
935.039	731
935.134	1072
935.228	1308
935.323	1145
935.417	1187
935.512	905
935.606	516
935.701	1252
935.795	889
935.890	1317
935.984	1013
936.079	1571
936.173	792
936.267	1094
936.362	1320
936.456	1106
936.550	776
936.644	890
936.738	876
936.833	1655
936.927	727
937.021	1593
937.115	1033
937.209	1148
937.303	1069
937.397	1540
937.491	1494
937.585	1047
937.679	1272
937.773	935
937.867	445
937.961	967
938.055	1946
938.149	554
938.243	1706
938.337	1097
938.430	1628
938.524	916
938.618	1231
938.712	1376
938.805	1361
938.899	1395
938.993	1058
939.086	605
939.180	1059
939.274	1683
939.367	1809
939.461	1875
939.554	891
939.648	1448
939.741	1329
939.835	811
939.928	1469
940.022	975
940.115	922
940.208	383
940.302	620
940.395	1621
940.488	609
940.582	1066
940.675	209
940.768	-128
940.861	1612
940.954	938
941.048	791
941.141	514
941.234	963
941.327	1237
941.420	2175
941.513	1192
941.606	747
941.699	1493
941.792	807
941.885	452
941.978	1494
942.071	992
942.164	-122
942.257	1306
942.349	980
942.442	967
942.535	633
942.628	676
942.721	581
942.813	979
942.906	1763
942.999	515
943.091	1080
943.184	934
943.277	960
943.369	1562
943.462	1072
943.554	1639
943.647	579
943.739	1130
943.832	1320
943.924	1201
944.017	-92
944.109	775
944.201	1045
944.294	218
944.386	1371
944.478	163
944.571	760
944.663	1246
944.755	1041
944.847	426
944.940	1132
945.032	998
945.124	1124
945.216	745
945.308	672
945.400	1392
945.492	1165
945.584	1363
945.676	1046
945.768	696
945.860	304
945.952	722
946.044	1635
946.136	749
946.228	1433
946.320	1746
946.412	489
946.503	988
946.595	1141
946.687	499
946.779	589
946.870	222
946.962	167
947.054	705
947.145	409
947.237	173
947.329	965
947.420	1064
947.512	365
947.603	1865
947.695	-407
947.786	567
947.878	506
947.969	1040
948.061	748
948.152	997
948.243	1470
948.335	187
948.426	1041
948.517	719
948.609	532
948.700	804
948.791	190
948.882	953
948.973	1173
949.065	856
949.156	1582
949.247	270
949.338	299
949.429	779
949.520	471
949.611	890
949.702	1152
949.793	268
949.884	1194
949.975	923
950.066	-368
950.157	739
950.247	667
950.338	645
950.429	227
950.520	1445
950.611	1298
950.701	1757
950.792	1268
950.883	1375
950.973	904
951.064	178
951.155	714
951.245	831
951.336	1006
951.427	1993
951.517	1412
951.608	803
951.698	1200
951.788	775
951.879	401
951.969	-99
952.060	787
952.150	563
952.240	477
952.331	1093
952.421	1277
952.511	370
952.602	1210
952.692	594
952.782	702
952.872	529
952.962	938
953.052	790
953.143	984
953.233	1013
953.323	1469
953.413	471
953.503	970
953.593	813
953.683	1186
953.773	381
953.863	1081
953.953	-39
954.042	1119
954.132	972
954.222	-75
954.312	404
954.402	705
954.492	877
954.581	2002
954.671	1557
954.761	869
954.850	1127
954.940	767
955.030	230
955.119	1038
955.209	603
955.298	554
955.388	677
955.477	694
955.567	890
955.656	318
955.746	707
955.835	1223
955.925	493
956.014	147
956.103	555
956.193	697
956.282	253
956.371	566
956.461	850
956.550	763
956.639	882
956.728	793
956.817	1443
956.906	809
956.995	317
957.085	1366
957.174	138
957.263	1621
957.352	493
957.441	274
957.530	838
957.619	854
957.708	1455
957.796	760
957.885	1253
957.974	1339
958.063	922
958.152	397
958.241	994
958.329	628
958.418	855
958.507	619
958.596	2190
958.684	598
958.773	976
958.861	978
958.950	992
959.039	1140
959.127	1553
959.216	1149
959.304	1057
959.393	225
959.481	1275
959.570	1204
959.658	1171
959.746	1509
959.835	1885
959.923	2601
960.011	3368
960.100	1227
960.188	1793
960.276	895
960.365	866
960.453	714
960.541	562
960.629	728
960.717	1087
960.805	1035
960.893	914
960.981	463
961.069	1177
961.158	1166
961.245	999
961.333	357
961.421	1278
961.509	794
961.597	778
961.685	615
961.773	845
961.861	777
961.949	179
962.036	257
962.124	1054
962.212	-176
962.299	523
962.387	306
962.475	795
962.562	47
962.650	1323
962.738	772
962.825	1158
962.913	699
963.000	518
963.088	1101
963.175	684
963.263	365
963.350	1026
963.438	1152
963.525	905
963.612	1738
963.700	4597
963.787	10888
963.874	10624
963.962	1407
964.049	365
964.136	164
964.223	920
964.310	1023
964.398	129
964.485	285
964.572	517
964.659	1648
964.746	3299
964.833	1589
964.920	724
965.007	134
965.094	329
965.181	324
965.268	-129
965.355	221
965.441	406
965.528	-691
965.615	1517
965.702	732
965.789	1124
965.875	1
965.962	-285
966.049	497
966.136	451
966.222	347
966.309	941
966.395	390
966.482	872
966.569	-356
966.655	460
966.742	687
966.828	658
966.915	-186
967.001	1042
967.087	-13
967.174	531
967.260	1007
967.347	1634
967.433	3603
967.519	6490
967.605	6157
967.692	807
967.778	963
967.864	-373
967.950	514
968.036	-144
968.123	733
968.209	-222
968.295	-154
968.381	1195
968.467	364
968.553	1044
968.639	868
968.725	944
968.811	579
968.897	1945
968.983	696
969.069	213
969.154	-104
969.240	695
969.326	485
969.412	135
969.497	412
969.583	110
969.669	1630
969.755	568
969.840	-442
969.926	1011
970.012	289
970.097	716
970.183	545
970.268	674
970.354	683
970.439	2118
970.525	5406
970.610	3598
970.696	848
970.781	597
970.866	-163
970.952	-176
971.037	-258
971.122	329
971.208	857
971.293	11
971.378	184
971.463	723
971.549	650
971.634	144
971.719	927
971.804	305
971.889	884
971.974	290
972.059	33
972.144	-85
972.229	576
972.314	575
972.399	611
972.484	261
972.569	321
972.654	371
972.739	1622
972.824	3026
972.908	996
972.993	-38
973.078	-590
973.163	257
973.247	200
973.332	-632
973.417	76
973.501	-364
973.586	493
973.671	215
973.755	387
973.840	553
973.924	275
974.009	349
974.093	287
974.178	738
974.262	1451
974.346	2807
974.431	1325
974.515	610
974.600	736
974.684	659
974.768	218
974.852	344
974.937	-935
975.021	763
975.105	71
975.189	-400
975.273	212
975.358	-124
975.442	-344
975.526	829
975.610	98
975.694	-548
975.778	313
975.862	156
975.946	-219
976.030	1037
976.114	751
976.198	380
976.281	374
976.365	679
976.449	-1188
976.533	328
976.617	-249
976.700	494
976.784	813
976.868	673
976.951	1598
977.035	879
977.119	262
977.202	-441
977.286	863
977.369	207
977.453	667
977.536	768
977.620	-125
977.703	364
977.787	-166
977.870	8
977.953	970
978.037	73
978.120	878
978.203	1618
978.287	3015
978.370	2558
978.453	927
978.536	918
978.620	1662
978.703	1272
978.786	1807
978.869	180
978.952	-174
979.035	879
979.118	187
979.201	-437
979.284	387
979.367	701
979.450	279
979.533	69
979.616	231
979.699	-547
979.782	329
979.865	771
979.948	403
980.030	-412
980.113	189
980.196	-598
980.279	522
980.361	-623
980.444	293
980.526	513
980.609	1130
980.692	270
980.774	63
980.857	-708
980.939	546
981.022	227
981.104	211
981.187	872
981.269	313
981.352	362
981.434	383
981.516	-628
981.599	903
981.681	318
981.763	-159
981.846	-87
981.928	-377
982.010	799
982.092	-371
982.174	368
982.256	-328
982.339	-895
982.421	158
982.503	501
982.585	-135
982.667	636
982.749	357
982.831	-416
982.913	-320
982.995	426
983.077	-503
983.158	659
983.240	268
983.322	503
983.404	730
983.486	-239
983.568	946
983.649	-466
983.731	-640
983.813	-174
983.894	447
983.976	-289
984.058	456
984.139	-118
984.221	-465
984.302	533
984.384	1187
984.465	-1146
984.547	-111
984.628	177
984.710	-197
984.791	167
984.872	-132
984.954	-59
985.035	-225
985.116	172
985.198	362
985.279	325
985.360	192
985.441	604
985.522	92
985.604	70
985.685	-818
985.766	141
985.847	1203
985.928	-315
986.009	-23
986.090	369
986.171	230
986.252	-281
986.333	649
986.414	-208
986.495	-186
986.576	158
986.656	32
986.737	732
986.818	-101
986.899	54
986.980	252
987.060	556
987.141	-85
987.222	-296
987.302	-634
987.383	558
987.464	531
987.544	95
987.625	66
987.705	-15
987.786	643
987.866	730
987.947	1006
988.027	298
988.108	631
988.188	218
988.268	-166
988.349	145
988.429	-133
988.509	496
988.589	396
988.670	-710
988.750	227
988.830	285
988.910	442
988.990	54
989.070	-343
989.151	567
989.231	448
989.311	463
989.391	163
989.471	-22
989.551	-371
989.631	-140
989.711	66
989.791	107
989.870	-110
989.950	646
990.030	117
990.110	652
990.190	144
990.269	-528
990.349	1118
990.429	1067
990.509	46
990.588	-175
990.668	83
990.747	601
990.827	881
990.907	287
990.986	109
991.066	-80
991.145	187
991.225	186
991.304	67
991.383	891
991.463	211
991.542	44
991.622	421
991.701	816
991.780	-251
991.859	-22
991.939	-9
992.018	187
992.097	691
992.176	-493
992.256	421
992.335	-265
992.414	-683
992.493	-305
992.572	-365
992.651	-230
992.730	237
992.809	-203
992.888	-219
992.967	587
993.046	264
993.125	-296
993.203	118
993.282	125
993.361	539
993.440	939
993.519	120
993.597	-159
993.676	520
993.755	822
993.834	10
993.912	-364
993.991	443
994.069	524
994.148	129
994.226	1008
994.305	177
994.384	-529
994.462	637
994.540	142
994.619	-360
994.697	-196
994.776	-410
994.854	-473
994.932	-264
995.011	695
995.089	-678
995.167	-365
995.245	362
995.324	-28
995.402	780
995.480	324
995.558	338
995.636	568
995.714	-288
995.792	318
995.870	448
995.948	-703
996.026	270
996.104	-608
996.182	-60
996.260	-3
996.338	360
996.416	-1033
996.494	-1149
996.572	345
996.649	21
996.727	287
996.805	322
996.883	27
996.960	132
997.038	716
997.116	-466
997.193	-332
997.271	453
997.348	-60
997.426	123
997.504	-358
997.581	1117
997.658	-11
997.736	43
997.813	-406
997.891	208
997.968	409
998.046	-353
998.123	795
998.200	-25
998.277	-351
998.355	-233
998.432	-196
998.509	-52
998.586	366
998.663	44
998.741	160
998.818	-698
998.895	200
998.972	-868
999.049	150
999.126	-24
999.203	633
999.280	390
999.357	118
999.434	-952
999.511	169
999.587	-562
999.664	22
999.741	44
999.818	209
999.895	-873
999.971	74
1000.048	-737
1000.125	477
1000.202	-550
1000.278	497
1000.355	-87
1000.431	-824
1000.508	-553
1000.584	734
1000.661	-129
1000.738	-652
1000.814	-65
1000.890	351
1000.967	-867
1001.043	60
1001.120	-428
1001.196	-243
1001.272	-15
1001.349	-702
1001.425	160
1001.501	-589
1001.577	-764
1001.654	-246
1001.730	-511
1001.806	-476
1001.882	-353
1001.958	-58
1002.034	-891
1002.110	-136
1002.186	-835
1002.262	-1039
1002.338	-176
1002.414	203
1002.490	-180
1002.566	-470
1002.642	-718
1002.718	-121
1002.794	-564
1002.870	-168
1002.945	-1122
1003.021	-682
1003.097	-234
1003.173	-424
1003.248	-319
1003.324	-344
1003.400	-1249
1003.475	-160
1003.551	-144
1003.626	-311
1003.702	-380
1003.777	-599
1003.853	-456
1003.928	438
1004.004	-491
1004.079	-552
1004.155	-674
1004.230	-1058
1004.305	-768
1004.381	1
1004.456	-663
1004.531	-306
1004.607	-526
1004.682	-88
1004.757	-181
1004.832	-272
1004.907	-660
1004.982	-58
1005.057	-568
1005.133	-839
1005.208	-653
1005.283	-944
1005.358	151
1005.433	-1197
1005.508	-266
1005.583	-188
1005.657	-473
1005.732	-590
1005.807	195
1005.882	-651
1005.957	-425
1006.032	355
1006.106	-458
1006.181	-548
1006.256	232
1006.331	-1251
1006.405	-858
1006.480	-394
1006.554	-551
1006.629	-775
1006.704	-789
1006.778	-177
1006.853	-36
1006.927	-102
1007.002	-315
1007.076	-102
1007.150	-1303
1007.225	-231
1007.299	-121
1007.373	-868
1007.448	-202
1007.522	306
1007.596	-562
1007.671	-856
1007.745	-530
1007.819	-277
1007.893	-722
1007.967	-189
1008.041	-33
1008.115	-1506
1008.190	-961
1008.264	-473
1008.338	-1670
1008.412	-620
1008.486	-524
1008.560	-657
1008.633	-993
1008.707	-456
1008.781	-524
1008.855	-630
1008.929	-1434
1009.003	-995
1009.076	-742
1009.150	-663
1009.224	-711
1009.298	-642
1009.371	-877
1009.445	-749
1009.519	-941
1009.592	-701
1009.666	-663
1009.739	-750
1009.813	-757
1009.886	104
1009.960	-945
1010.033	-391
1010.107	-750
1010.180	-1295
1010.253	-886
1010.327	-1240
1010.400	-1028
1010.473	-1035
1010.547	303
1010.620	-957
1010.693	107
1010.766	-1081
1010.840	3
1010.913	-524
1010.986	-1075
1011.059	-1008
1011.132	458
1011.205	-366
1011.278	-1281
1011.351	-1287
1011.424	-573
1011.497	-505
1011.570	-472
1011.643	-220
1011.716	-725
1011.789	-750
1011.862	-1018
1011.934	-790
1012.007	-1178
1012.080	-633
1012.153	-854
1012.225	79
1012.298	-1235
1012.371	-974
1012.443	-459
1012.516	-861
1012.588	-1053
1012.661	-1481
1012.733	-1721
1012.806	-723
1012.879	-530
1012.951	-429
1013.023	-804
1013.096	-628
1013.168	-1142
1013.241	-447
1013.313	-875
1013.385	-976
1013.458	-1619
1013.530	-697
1013.602	-1195
1013.674	-547
1013.746	-1667
1013.819	-1209
1013.891	-535
1013.963	-1598
1014.035	-665
1014.107	-1008
1014.179	-696
1014.251	-1304
1014.323	-1709
1014.395	-1080
1014.467	-1324
1014.539	-282
1014.611	-1020
1014.683	-1298
1014.754	-522
1014.826	-643
1014.898	-966
1014.970	-1392
1015.042	-419
1015.113	-808
1015.185	-1210
1015.257	-1400
1015.328	-1675
1015.400	-294
1015.471	-1777
1015.543	-1979
1015.615	-641
1015.686	-1271
1015.757	-1073
1015.829	-809
1015.901	-990
1015.972	-1006
1016.043	-1199
1016.115	-1041
1016.186	-885
1016.257	-1000
1016.328	-1059
1016.400	-357
1016.471	-2591
1016.542	-1354
1016.613	-1423
1016.685	-848
1016.756	-685
1016.827	-1757
1016.898	-2210
1016.969	-346
1017.040	-306
1017.111	-1438
1017.182	-1272
1017.253	-1122
1017.324	-1265
1017.395	-876
1017.466	-1282
1017.537	-1119
1017.608	-1429
1017.678	-1013
1017.749	-634
1017.820	195
1017.891	-2301
1017.961	-1358
1018.032	-864
1018.103	-477
1018.173	-1497
1018.244	-1633
1018.315	-1512
1018.385	-1434
1018.456	-1889
1018.526	-2085
1018.597	-1406
1018.667	-1248
1018.738	-1229
1018.808	-1258
1018.878	-1524
1018.949	-1286
1019.019	-1219
1019.089	-772
1019.160	-1352
1019.230	-1665
1019.300	-270
1019.371	-1606
1019.441	-1009
1019.511	-734
1019.581	-1412
1019.651	-344
1019.721	-1480
1019.791	-1991
1019.861	-1792
1019.931	-1129
1020.001	-1753
1020.071	-1557
1020.141	-1869
1020.211	-1249
1020.281	-1415
1020.351	-1788
1020.421	-575
1020.491	-1277
1020.560	-910
1020.630	-1408
1020.700	-1801
1020.770	-1842
1020.839	-1347
1020.909	-1364
1020.979	-687
1021.048	-1370
1021.118	-2209
1021.187	-715
1021.257	-1577
1021.326	-759
1021.396	-1631
1021.465	-777
1021.535	-1107
1021.604	-1123
1021.674	-1163
1021.743	-972
1021.812	-1789
1021.882	-1203
1021.951	-1733
1022.020	-598
1022.089	-1689
1022.159	-1207
1022.228	-1255
1022.297	-1924
1022.366	-1500
1022.435	-1689
1022.504	-1688
1022.573	-2093
1022.642	-1050
1022.711	-2340
1022.781	-1488
1022.849	-1248
1022.918	-1663
1022.987	-810
1023.056	-975
1023.125	-1294
1023.194	-1039
1023.263	-1521
1023.331	-1411
1023.400	-1586
1023.469	-1574
1023.538	-1103
1023.606	-1865
1023.675	-1234
1023.744	-1544
1023.812	-1587
1023.881	-1918
1023.949	-1284
1024.018	-1593
1024.086	-1557
1024.155	-1686
1024.223	-1560
1024.292	-1824
1024.360	-1208
1024.429	-918
1024.497	-1430
1024.565	-1556
1024.634	-1175
1024.702	-1218
1024.770	-1750
1024.838	-1972
1024.907	-1133
1024.975	-1284
1025.043	-1560
1025.111	-1324
1025.179	-650
1025.247	-1934
1025.315	-1516
1025.383	-1291
1025.451	-450
1025.519	-1447
1025.587	-1837
1025.655	-2119
1025.723	-2001
1025.791	-1682
1025.859	-1418
1025.927	-1181
1025.995	-958
1026.062	-1205
1026.130	-1801
1026.198	-1685
1026.266	-1370
1026.333	-1950
1026.401	-669
1026.469	-1029
1026.536	-1136
1026.604	-2042
1026.671	-1082
1026.739	-1155
1026.806	-984
1026.874	-1306
1026.941	-1256
1027.009	-724
1027.076	-1780
1027.144	-1030
1027.211	-1994
1027.278	-1702
1027.345	-1739
1027.413	-1271
1027.480	-1314
1027.547	-1622
1027.614	-1580
1027.682	-2012
1027.749	-1063
1027.816	-2082
1027.883	-1348
1027.950	-1896
1028.017	-1760
1028.084	-1368
1028.151	-1427
1028.218	-1798
1028.285	-1588
1028.352	-1913
1028.419	-2275
1028.486	-1389
1028.553	-1422
1028.619	-1869
1028.686	-1714
1028.753	-1621
1028.820	-1707
1028.886	-1114
1028.953	-2096
1029.020	-1358
1029.086	-1557
1029.153	-2327
1029.220	-1673
1029.286	-2345
1029.353	-916
1029.419	-1386
1029.486	-1402
1029.552	-1571
1029.619	-1409
1029.685	-1669
1029.751	-2178
1029.818	-1605
1029.884	-1709
1029.951	-1426
1030.017	-1511
1030.083	-1707
1030.149	-2213
1030.216	-2522
1030.282	-1322
1030.348	-1673
1030.414	-1341
1030.480	-1198
1030.546	-1525
1030.612	-620
1030.678	-1801
1030.744	-1511
1030.810	-1685
1030.876	-1920
1030.942	-1147
1031.008	-940
1031.074	-1665
1031.140	-1290
1031.206	-1897
1031.272	-1929
1031.337	-1730
1031.403	-1823
1031.469	-1336
1031.534	-1241
1031.600	-1085
1031.666	-1494
1031.731	-1705
1031.797	-969
1031.863	-1875
1031.928	-1725
1031.994	-2700
1032.059	-1712
1032.125	-2041
1032.190	-1969
1032.256	-1175
1032.321	-1828
1032.386	-1612
1032.452	-1266
1032.517	-1895
1032.582	-1076
1032.647	-975
1032.713	-943
1032.778	-1532
1032.843	-1997
1032.908	-1255
1032.974	-2208
1033.039	-1278
1033.104	-881
1033.169	-1580
1033.234	-1321
1033.299	-1081
1033.364	-1501
1033.429	-1287
1033.494	-962
1033.559	-1570
1033.624	-1976
1033.688	-1951
1033.753	-1520
1033.818	-1067
1033.883	-1660
1033.948	-2279
1034.013	-1583
1034.077	-1499
1034.142	-1575
1034.207	-1006
1034.271	-1385
1034.336	-1812
1034.400	-1699
1034.465	-995
1034.530	-1695
1034.594	-1236
1034.658	-2094
1034.723	-1304
1034.787	-1990
1034.852	-1814
1034.916	-1122
1034.981	-1549
1035.045	-1752
1035.109	-1677
1035.173	-1401
1035.238	-1367
1035.302	-2238
1035.366	-1461
1035.430	-2209
1035.495	-1963
1035.559	-1563
1035.623	-1403
1035.687	-1675
1035.751	-1695
1035.815	-1800
1035.879	-1128
1035.943	-1480
1036.007	-1783
1036.071	-2236
1036.135	-1435
1036.198	-2103
1036.262	-1746
1036.326	-1543
1036.390	-1567
1036.454	-1091
1036.517	-1221
1036.581	-1223
1036.645	-861
1036.709	-1836
1036.772	-1516
1036.836	-1737
1036.900	-1143
1036.963	-1521
1037.026	-950
1037.090	-1587
1037.154	-1932
1037.217	-1432
1037.280	-1833
1037.344	-1036
1037.407	-1577
1037.471	-1743
1037.534	-1555
1037.597	-1895
1037.661	-1574
1037.724	-1647
1037.787	-1508
1037.850	-1614
1037.913	-1140
1037.977	-1487
1038.040	-1348
1038.103	-890
1038.166	-1361
1038.229	-1481
1038.292	-1291
1038.355	-1614
1038.418	-1675
1038.481	-1633
1038.544	-1361
1038.607	-1125
1038.670	-1618
1038.732	-1627
1038.795	-1183
1038.858	-2591
1038.921	-1325
1038.984	-1811
1039.046	-1823
1039.109	-1615
1039.172	-1511
1039.234	-2491
1039.297	-1687
1039.360	-1902
1039.422	-1804
1039.485	-1979
1039.547	-1902
1039.610	-2336
1039.672	-1665
1039.734	-1760
1039.797	-1910
1039.859	-2373
1039.922	-1405
1039.984	-1877
1040.046	-1639
1040.109	-1363
1040.171	-2070
1040.233	-2120
1040.295	-2230
1040.358	-2115
1040.420	-1502
1040.482	-1701
1040.544	-1518
1040.606	-2051
1040.668	-1422
1040.730	-2382
1040.792	-1751
1040.854	-1613
1040.916	-1402
1040.978	-2621
1041.040	-1686
1041.102	-1357
1041.164	-1916
1041.225	-2129
1041.287	-1353
1041.349	-2258
1041.411	-1800
1041.472	-911
1041.534	-1381
1041.596	-1902
1041.657	-2591
1041.719	-2158
1041.781	-1604
1041.842	-1674
1041.904	-1583
1041.965	-2178
1042.027	-1993
1042.088	-1613
1042.150	-908
1042.211	-2188
1042.272	-1656
1042.334	-1619
1042.395	-2161
1042.456	-1520
1042.518	-2329
1042.579	-1408
1042.640	-1414
1042.701	-2151
1042.763	-2311
1042.824	-2639
1042.885	-1967
1042.946	-1643
1043.007	-1818
1043.068	-1876
1043.129	-1190
1043.190	-1466
1043.251	-1543
1043.312	-2579
1043.373	-1677
1043.434	-1649
1043.495	-1362
1043.556	-2608
1043.616	-1075
1043.677	-2278
1043.738	-1003
1043.799	-1387
1043.859	-1820
1043.920	-1918
1043.981	-1556
1044.041	-1867
1044.102	-1763
1044.162	-1432
1044.223	-1466
1044.284	-1971
1044.344	-2185
1044.405	-1976
1044.465	-1745
1044.525	-1317
1044.586	-2073
1044.646	-1340
1044.707	-1525
1044.767	-2119
1044.827	-1725
1044.887	-1482
1044.948	-1354
1045.008	-1457
1045.068	-2095
1045.128	-1393
1045.188	-2116
1045.249	-1080
1045.309	-2067
1045.369	-2200
1045.429	-1421
1045.489	-2049
1045.549	-1929
1045.609	-1545
1045.669	-863
1045.729	-1659
1045.789	-762
1045.848	-1531
1045.908	-933
1045.968	-2176
1046.028	-1794
1046.088	-1843
1046.147	-1071
1046.207	-1582
1046.267	-1359
1046.326	-973
1046.386	-1023
1046.446	-868
1046.505	-1177
1046.565	-1268
1046.624	-44
1046.684	-841
1046.743	-673
1046.803	-1099
1046.862	-413
1046.922	0
