'Start Wavelength	183.907
'End Wavelength	1046.922
'Gate Delay	5.000
'Gate Width (ms)	1.050
'Laser Output Level	0.000
'X Position	0.000
'Y Position	0.000
'Z Position	0.000
'Grid Point Number	1.000
'Shot Number	100.000
183.907	-128.000
183.977	-388.000
184.047	639
184.116	-99
184.186	-134
184.256	184
184.325	-64
184.395	-1158
184.465	785
184.534	357
184.604	-1144
184.674	526
184.743	-314
184.813	276
184.883	-40
184.952	611
185.022	354
185.092	193
185.161	-749
185.231	117
185.301	-789
185.370	615
185.440	-535
185.509	-569
185.579	-362
185.649	29
185.718	230
185.788	669
185.857	-615
185.927	126
185.996	-679
186.066	-225
186.136	-722
186.205	143
186.275	-93
186.344	-110
186.414	-758
186.483	-905
186.553	594
186.622	207
186.692	-196
186.761	-1281
186.831	526
186.900	-678
186.970	-28
187.039	-316
187.109	551
187.178	122
187.248	-139
187.317	339
187.387	-748
187.456	-166
187.526	-326
187.595	34
187.664	-234
187.734	362
187.803	-158
187.873	-292
187.942	67
188.012	544
188.081	-166
188.150	-49
188.220	-417
188.289	-317
188.358	215
188.428	-164
188.497	-959
188.567	-122
188.636	-557
188.705	492
188.775	-31
188.844	-284
188.913	-336
188.983	-191
189.052	-191
189.121	720
189.191	-924
189.260	-112
189.329	-460
189.399	-444
189.468	-177
189.537	-166
189.606	92
189.676	-218
189.745	171
189.814	-293
189.883	160
189.953	-379
190.022	102
190.091	-259
190.161	599
190.230	415
190.299	-681
190.368	-449
190.437	-20
190.507	48
190.576	-903
190.645	-546
190.714	-19
190.783	-29
190.853	658
190.922	-24
190.991	-93
191.060	502
191.129	-660
191.198	-407
191.268	-119
191.337	-261
191.406	944
191.475	-42
191.544	-535
191.613	171
191.682	-392
191.752	-541
191.821	-880
191.890	-146
191.959	123
192.028	-553
192.097	178
192.166	650
192.235	-303
192.304	-200
192.373	-210
192.442	-473
192.511	246
192.580	96
192.650	222
192.719	-380
192.788	283
192.857	-7
192.926	-215
192.995	93
193.064	-644
193.133	449
193.202	238
193.271	626
193.340	91
193.409	312
193.478	-68
193.547	-389
193.615	634
193.684	207
193.753	-62
193.822	504
193.891	-514
193.960	542
194.029	-766
194.098	290
194.167	-785
194.236	434
194.305	71
194.374	431
194.443	79
194.512	-704
194.580	833
194.649	158
194.718	-383
194.787	486
194.856	-1090
194.925	288
194.994	-194
195.062	428
195.131	150
195.200	187
195.269	-157
195.338	-102
195.407	377
195.475	80
195.544	114
195.613	-156
195.682	757
195.751	592
195.819	47
195.888	-236
195.957	885
196.026	161
196.094	424
196.163	747
196.232	199
196.301	-513
196.369	100
196.438	-83
196.507	-680
196.576	-34
196.644	120
196.713	575
196.782	555
196.850	322
196.919	-42
196.988	221
197.056	-326
197.125	-435
197.194	-327
197.262	-380
197.331	-141
197.400	-367
197.468	285
197.537	-494
197.606	-298
197.674	1140
197.743	466
197.812	133
197.880	527
197.949	-16
198.017	-239
198.086	430
198.155	291
198.223	625
198.292	219
198.360	256
198.429	-281
198.497	-220
198.566	604
198.635	667
198.703	392
198.772	154
198.840	1040
198.909	448
198.977	-549
199.046	95
199.114	345
199.183	635
199.251	426
199.320	-31
199.388	83
199.457	-2
199.525	-250
199.594	-67
199.662	63
199.731	264
199.799	509
199.867	-349
199.936	-22
200.004	1329
200.073	466
200.141	482
200.210	230
200.278	-454
200.346	-59
200.415	-390
200.483	-351
200.552	615
200.620	-143
200.688	-70
200.757	631
200.825	-160
200.893	-58
200.962	192
201.030	-483
201.098	-114
201.167	507
201.235	256
201.303	-362
201.372	590
201.440	40
201.508	346
201.577	-39
201.645	256
201.713	43
201.781	-108
201.850	29
201.918	-4
201.986	-29
202.055	736
202.123	-63
202.191	753
202.259	56
202.327	-135
202.396	-14
202.464	127
202.532	-589
202.600	1118
202.669	51
202.737	-303
202.805	302
202.873	605
202.941	144
203.009	482
203.078	-99
203.146	-496
203.214	77
203.282	-593
203.350	243
203.418	-89
203.487	401
203.555	43
203.623	-523
203.691	-186
203.759	126
203.827	-204
203.895	173
203.963	249
204.031	244
204.099	-382
204.168	6
204.236	330
204.304	-264
204.372	924
204.440	-63
204.508	286
204.576	-214
204.644	0
204.712	-391
204.780	26
204.848	483
204.916	-126
204.984	66
205.052	448
205.120	80
205.188	-185
205.256	307
205.324	315
205.392	-267
205.460	377
205.528	-982
205.596	-337
205.664	19
205.732	-92
205.799	446
205.867	1212
205.935	-43
206.003	900
206.071	-582
206.139	-633
206.207	587
206.275	170
206.343	-589
206.411	-243
206.478	476
206.546	121
206.614	-92
206.682	-49
206.750	-365
206.818	225
206.885	620
206.953	-414
207.021	471
207.089	-460
207.157	4
207.225	-24
207.292	-89
207.360	229
207.428	-9
207.496	504
207.563	686
207.631	-182
207.699	-685
207.767	102
207.834	8
207.902	110
207.970	-380
208.038	-526
208.105	53
208.173	-37
208.241	-540
208.309	313
208.376	253
208.444	913
208.512	108
208.579	-526
208.647	400
208.715	451
208.782	-641
208.850	-263
208.918	-53
208.985	45
209.053	1025
209.120	63
209.188	-657
209.256	-230
209.323	-36
209.391	655
209.459	940
209.526	-324
209.594	1163
209.661	61
209.729	208
209.796	-572
209.864	372
209.932	-847
209.999	795
210.067	949
210.134	399
210.202	-575
210.269	1067
210.337	809
210.404	-448
210.472	362
210.539	-226
210.607	-16
210.674	-210
210.742	63
210.809	389
210.877	304
210.944	750
211.012	-380
211.079	794
211.146	591
211.214	-8
211.281	-111
211.349	731
211.416	843
211.484	295
211.551	-411
211.618	454
211.686	-1184
211.753	-110
211.821	1174
211.888	161
211.955	1031
212.023	97
212.090	394
212.157	-482
212.225	609
212.292	1471
212.359	1364
212.427	3625
212.494	1685
212.561	728
212.629	531
212.696	738
212.763	681
212.831	392
212.898	221
212.965	554
213.032	214
213.100	519
213.167	-543
213.234	1891
213.301	0
213.369	79
213.436	163
213.503	273
213.570	1187
213.638	813
213.705	-20
213.772	-617
213.839	638
213.906	1168
213.973	926
214.041	-412
214.108	312
214.175	387
214.242	-65
214.309	759
214.376	235
214.444	445
214.511	1018
214.578	256
214.645	857
214.712	689
214.779	723
214.846	-144
214.913	1244
214.980	597
215.048	1536
215.115	972
215.182	1283
215.249	354
215.316	475
215.383	718
215.450	317
215.517	482
215.584	322
215.651	645
215.718	429
215.785	453
215.852	-798
215.919	1192
215.986	1349
216.053	771
216.120	888
216.187	729
216.254	829
216.321	563
216.388	141
216.455	790
216.522	638
216.589	542
216.656	1802
216.722	1528
216.789	1411
216.856	1353
216.923	415
216.990	327
217.057	1186
217.124	1182
217.191	611
217.258	793
217.324	1877
217.391	2535
217.458	734
217.525	757
217.592	662
217.659	-118
217.725	716
217.792	483
217.859	1902
217.926	27
217.993	857
218.059	505
218.126	100
218.193	-358
218.260	225
218.327	495
218.393	381
218.460	998
218.527	113
218.594	413
218.660	1062
218.727	2249
218.794	-187
218.860	470
218.927	183
218.994	-480
219.061	-55
219.127	814
219.194	891
219.261	385
219.327	222
219.394	1023
219.461	-470
219.527	431
219.594	1189
219.661	1027
219.727	-244
219.794	1003
219.860	39
219.927	693
219.994	1056
220.060	1368
220.127	900
220.193	432
220.260	726
220.326	534
220.393	1236
220.460	1945
220.526	1513
220.593	481
220.659	1695
220.726	1108
220.792	2424
220.859	1434
220.925	2951
220.992	4927
221.058	3900
221.125	3489
221.191	2375
221.258	256
221.324	1002
221.391	-17
221.457	599
221.524	515
221.590	1265
221.657	2610
221.723	1906
221.789	1170
221.856	2434
221.922	-61
221.989	365
222.055	109
222.121	32
222.188	1701
222.254	1387
222.321	33
222.387	299
222.453	-311
222.520	618
222.586	-42
222.652	698
222.719	-36
222.785	1173
222.851	-316
222.918	393
222.984	981
223.050	1250
223.116	-1001
223.183	1661
223.249	-455
223.315	446
223.382	905
223.448	1037
223.514	-757
223.580	17
223.647	-1166
223.713	-114
223.779	839
223.845	558
223.911	892
223.978	-747
224.044	-399
224.110	353
224.176	-122
224.242	1041
224.309	38
224.375	325
224.441	428
224.507	-48
224.573	-722
224.639	1392
224.705	-735
224.772	-199
224.838	538
224.904	1492
224.970	113
225.036	216
225.102	-763
225.168	1285
225.234	484
225.300	844
225.366	160
225.432	-38
225.499	127
225.565	135
225.631	-561
225.697	188
225.763	991
225.829	1651
225.895	645
225.961	900
226.027	1273
226.093	-26
226.159	1785
226.225	1605
226.291	3544
226.357	6971
226.423	4280
226.489	2358
226.554	1547
226.620	728
226.686	1566
226.752	3433
226.818	3867
226.884	9274
226.950	9009
227.016	3005
227.082	1937
227.148	1637
227.214	1838
227.279	2188
227.345	957
227.411	1451
227.477	634
227.543	1711
227.609	1577
227.674	3100
227.740	1474
227.806	662
227.872	435
227.938	1260
228.003	2096
228.069	618
228.135	-132
228.201	872
228.267	105
228.332	796
228.398	214
228.464	1086
228.530	-221
228.595	342
228.661	-479
228.727	1331
228.792	1794
228.858	297
228.924	-748
228.990	2794
229.055	-620
229.121	1416
229.187	441
229.252	287
229.318	297
229.384	706
229.449	1502
229.515	-631
229.581	-132
229.646	2310
229.712	563
229.777	1674
229.843	2102
229.909	2299
229.974	2739
230.040	3232
230.105	1157
230.171	1188
230.236	2272
230.302	2824
230.368	2355
230.433	706
230.499	1759
230.564	3186
230.630	825
230.695	655
230.761	1341
230.826	-385
230.892	2501
230.957	12
231.023	-34
231.088	1010
231.154	548
231.219	1498
231.284	960
231.350	1930
231.415	-527
231.481	1378
231.546	176
231.612	451
231.677	-796
231.742	-481
231.808	1927
231.873	-72
231.939	-1457
232.004	2091
232.069	2103
232.135	560
232.200	61
232.265	1254
232.331	-174
232.396	127
232.461	473
232.527	369
232.592	-246
232.657	-110
232.723	1150
232.788	752
232.853	1117
232.918	1050
232.984	-40
233.049	872
233.114	42
233.179	1153
233.245	1366
233.310	1846
233.375	-178
233.440	1042
233.506	507
233.571	1035
233.636	210
233.701	265
233.766	72
233.832	1516
233.897	879
233.962	221
234.027	2215
234.092	1967
234.157	65
234.222	382
234.288	769
234.353	3358
234.418	3824
234.483	2541
234.548	1460
234.613	733
234.678	1218
234.743	716
234.808	4883
234.873	1442
234.938	2523
235.004	867
235.069	1168
235.134	236
235.199	1015
235.264	1568
235.329	-192
235.394	1473
235.459	2131
235.524	460
235.589	1338
235.654	81
235.719	-180
235.784	1963
235.849	916
235.913	1758
235.978	1566
236.043	2565
236.108	1135
236.173	234
236.238	2248
236.303	316
236.368	741
236.433	1822
236.498	2118
236.563	2581
236.627	2508
236.692	12374
236.757	8944
236.822	3254
236.887	1991
236.952	2994
237.017	321
237.081	2678
237.146	1300
237.211	4709
237.276	10115
237.341	19564
237.405	7979
237.470	3917
237.535	3461
237.600	1770
237.664	2085
237.729	593
237.794	1105
237.859	3500
237.923	2028
237.988	2088
238.053	2206
238.118	2138
238.182	4527
238.247	6000
238.312	1211
238.376	1916
238.441	1071
238.506	2263
238.570	-198
238.635	1538
238.700	621
238.764	394
238.829	2632
238.893	1676
238.958	1951
239.023	1409
239.087	624
239.152	1642
239.216	149
239.281	1739
239.346	-27
239.410	935
239.475	534
239.539	4838
239.604	3471
239.668	1842
239.733	1093
239.797	991
239.862	3259
239.926	3212
239.991	2178
240.055	1183
240.120	494
240.184	1914
240.249	-274
240.313	409
240.378	945
240.442	2565
240.507	4386
240.571	1681
240.635	1804
240.700	2281
240.764	411
240.829	1122
240.893	105
240.957	1529
241.022	3144
241.086	5290
241.151	1361
241.215	652
241.279	2203
241.344	2215
241.408	1459
241.472	862
241.537	1722
241.601	1808
241.665	-359
241.730	1079
241.794	1949
241.858	1053
241.922	1327
241.987	1566
242.051	387
242.115	1023
242.179	1716
242.244	1246
242.308	1672
242.372	1354
242.436	1724
242.501	2069
242.565	440
242.629	1508
242.693	2063
242.757	632
242.822	567
242.886	1511
242.950	1983
243.014	405
243.078	1651
243.142	1453
243.206	1085
243.271	1520
243.335	1186
243.399	2407
243.463	5104
243.527	15778
243.591	5044
243.655	2633
243.719	1221
243.783	2896
243.847	2886
243.911	3727
243.975	3868
244.040	3146
244.104	3216
244.168	1674
244.232	2091
244.296	3728
244.360	3331
244.424	1318
244.488	898
244.552	2234
244.615	-780
244.679	1263
244.743	1195
244.807	1734
244.871	1596
244.935	1560
244.999	241
245.063	231
245.127	2031
245.191	2738
245.255	2335
245.319	3036
245.383	1750
245.446	2690
245.510	33
245.574	1234
245.638	2433
245.702	-78
245.766	4947
245.829	3207
245.893	994
245.957	1349
246.021	1608
246.085	1877
246.149	2749
246.212	6592
246.276	8621
246.340	3745
246.404	1975
246.467	3693
246.531	3183
246.595	3307
246.659	3340
246.722	1037
246.786	3116
246.850	3703
246.913	4427
246.977	1396
247.041	1597
247.104	2407
247.168	2243
247.232	5866
247.295	11604
247.359	6770
247.423	2525
247.486	5147
247.550	4590
247.614	3126
247.677	2752
247.741	2442
247.804	1513
247.868	2398
247.932	4500
247.995	11756
248.059	4155
248.122	1222
248.186	3787
248.249	4651
248.313	17260
248.376	20620
248.440	11866
248.503	3960
248.567	4743
248.630	5795
248.694	7851
248.757	10837
248.821	18407
248.884	13229
248.948	9268
249.011	14463
249.075	22049
249.138	20554
249.202	8121
249.265	4912
249.328	5558
249.392	3545
249.455	3273
249.519	3412
249.582	3091
249.645	6090
249.709	4420
249.772	2283
249.835	2819
249.899	2362
249.962	2713
250.025	2449
250.089	6723
250.152	11076
250.215	4450
250.279	2876
250.342	3879
250.405	3820
250.468	2584
250.532	3176
250.595	5556
250.658	14379
250.721	27324
250.785	9902
250.848	7603
250.911	4010
250.974	4030
251.038	4643
251.101	12002
251.164	5640
251.227	6451
251.290	5426
251.354	6622
251.417	21912
251.480	22899
251.543	14927
251.606	40697
251.669	31899
251.732	13197
251.795	15210
251.859	15100
251.922	27455
251.985	16880
252.048	8845
252.111	6186
252.174	4750
252.237	10716
252.300	22212
252.363	20300
252.426	37740
252.489	17184
252.552	9694
252.615	6842
252.678	7054
252.741	15560
252.804	18209
252.867	36161
252.930	25443
252.993	16359
253.056	9986
253.119	7874
253.182	5157
253.245	6953
253.308	6658
253.371	5218
253.434	6531
253.497	5841
253.559	12148
253.622	8489
253.685	9432
253.748	11016
253.811	5418
253.874	4550
253.937	4418
254.000	4488
254.062	6964
254.125	11090
254.188	12795
254.251	10941
254.314	4023
254.376	7296
254.439	10125
254.502	8239
254.565	7430
254.628	13261
254.690	7412
254.753	5117
254.816	4110
254.878	5069
254.941	8100
255.004	8434
255.067	4373
255.129	4444
255.192	2793
255.255	1560
255.317	3316
255.380	2376
255.443	1394
255.505	1304
255.568	1683
255.631	1679
255.693	2195
255.756	273
255.819	2330
255.881	1072
255.944	1794
256.006	1100
256.069	1713
256.132	1683
256.194	2201
256.257	4675
256.319	3111
256.382	2296
256.444	2870
256.507	1600
256.569	1537
256.632	1445
256.694	1858
256.757	6799
256.819	19448
256.882	6440
256.944	2977
257.007	3875
257.069	3993
257.132	2392
257.194	2969
257.257	1403
257.319	1139
257.381	980
257.444	4447
257.506	19177
257.569	24675
257.631	12338
257.693	8326
257.756	3867
257.818	2511
257.880	2319
257.943	2495
258.005	2009
258.067	1766
258.130	2590
258.192	2839
258.254	4684
258.317	2770
258.379	2323
258.441	6177
258.503	7335
258.566	5518
258.628	8006
258.690	1617
258.753	3339
258.815	5466
258.877	2268
258.939	1927
259.001	1513
259.064	2111
259.126	1510
259.188	2475
259.250	2317
259.312	2526
259.375	6598
259.437	5343
259.499	1705
259.561	1810
259.623	3030
259.685	3290
259.747	1778
259.809	5667
259.872	10171
259.934	16101
259.996	20089
260.058	7414
260.120	2657
260.182	2122
260.244	1851
260.306	1774
260.368	2207
260.430	1693
260.492	6487
260.554	11558
260.616	5222
260.678	10270
260.740	11457
260.802	3580
260.864	2713
260.926	2228
260.988	2729
261.050	2137
261.112	8376
261.174	19725
261.236	10273
261.298	3703
261.359	4872
261.421	7309
261.483	1944
261.545	2689
261.607	721
261.669	2349
261.731	2945
261.793	8352
261.854	3317
261.916	4021
261.978	3959
262.040	4721
262.102	3005
262.164	2750
262.225	3015
262.287	2455
262.349	5409
262.411	5580
262.472	1974
262.534	2542
262.596	6324
262.658	3037
262.719	1387
262.781	2842
262.843	4717
262.904	3851
262.966	2812
263.028	2645
263.090	9566
263.151	29793
263.213	14112
263.275	10290
263.336	4341
263.398	3166
263.459	1086
263.521	891
263.583	5590
263.644	4366
263.706	1655
263.767	969
263.829	1409
263.891	643
263.952	580
264.014	1233
264.075	4301
264.137	13448
264.198	5954
264.260	1678
264.321	1198
264.383	6140
264.444	17883
264.506	6203
264.567	2877
264.629	6814
264.690	15646
264.752	6676
264.813	3466
264.875	2054
264.936	3030
264.998	1668
265.059	1006
265.120	1423
265.182	1903
265.243	8492
265.305	9163
265.366	2036
265.427	1442
265.489	2444
265.550	815
265.611	2469
265.673	1694
265.734	2620
265.795	1279
265.857	319
265.918	1121
265.979	2403
266.040	14905
266.102	12609
266.163	4474
266.224	5252
266.286	2882
266.347	1302
266.408	1446
266.469	1057
266.530	591
266.592	742
266.653	3264
266.714	6137
266.775	1536
266.836	1813
266.898	339
266.959	4517
267.020	3376
267.081	1981
267.142	536
267.203	963
267.264	587
267.326	1472
267.387	1112
267.448	814
267.509	955
267.570	1059
267.631	1
267.692	300
267.753	270
267.814	875
267.875	3615
267.936	8264
267.997	6157
268.058	3826
268.119	2354
268.180	2071
268.241	548
268.302	761
268.363	545
268.424	1250
268.485	1369
268.546	1439
268.607	202
268.668	1062
268.729	213
268.790	897
268.851	2047
268.912	5717
268.972	7173
269.033	3253
269.094	609
269.155	1294
269.216	925
269.277	1032
269.338	162
269.398	415
269.459	1322
269.520	2038
269.581	3298
269.642	3779
269.702	2216
269.763	1722
269.824	1140
269.885	2628
269.945	3984
270.006	2021
270.067	514
270.128	935
270.188	-381
270.249	466
270.310	750
270.370	880
270.431	894
270.492	333
270.553	1140
270.613	3655
270.674	7490
270.734	3698
270.795	2138
270.856	3216
270.916	1675
270.977	1677
271.038	2282
271.098	2090
271.159	3197
271.219	4104
271.280	1304
271.340	2539
271.401	994
271.462	4105
271.522	2816
271.583	1728
271.643	1233
271.704	1247
271.764	1482
271.825	6857
271.885	18342
271.946	26439
272.006	8709
272.066	10626
272.127	20447
272.187	6962
272.248	3269
272.308	3559
272.369	13262
272.429	8049
272.489	6892
272.550	8136
272.610	6330
272.671	4370
272.731	4252
272.791	7035
272.852	4087
272.912	4046
272.972	1732
273.033	1743
273.093	3034
273.153	5160
273.214	3257
273.274	3573
273.334	12834
273.394	22942
273.455	8938
273.515	8297
273.575	20537
273.635	8102
273.696	8802
273.756	17952
273.816	9185
273.876	3912
273.936	6877
273.997	15354
274.057	4842
274.117	3689
274.177	5269
274.237	26152
274.297	24201
274.358	12772
274.418	16772
274.478	14584
274.538	5394
274.598	3981
274.658	9232
274.718	13107
274.778	5667
274.838	3803
274.898	5643
274.958	18178
275.018	18485
275.078	13615
275.138	5515
275.198	3182
275.258	2039
275.318	2221
275.378	5908
275.438	7366
275.498	3841
275.558	7378
275.618	18424
275.678	14947
275.738	10074
275.798	9885
275.858	6422
275.918	2769
275.978	2744
276.038	3697
276.098	1696
276.157	4037
276.217	14706
276.277	7941
276.337	5592
276.397	2330
276.457	3897
276.517	2313
276.576	1420
276.636	1808
276.696	3656
276.756	8503
276.815	7154
276.875	2822
276.935	3124
276.995	3062
277.055	1622
277.114	2617
277.174	3445
277.234	13285
277.293	5313
277.353	3595
277.413	3033
277.472	1861
277.532	2551
277.592	3045
277.651	7033
277.711	16034
277.771	5990
277.830	18689
277.890	17188
277.950	10361
278.009	31159
278.069	13861
278.128	10194
278.188	16048
278.248	6759
278.307	15612
278.367	11850
278.426	3655
278.486	2919
278.545	1001
278.605	2144
278.664	1606
278.724	2886
278.783	7288
278.843	21846
278.902	6882
278.962	3498
279.021	3459
279.081	3469
279.140	3218
279.199	3402
279.259	3385
279.318	4102
279.378	4023
279.437	7053
279.496	28977
279.556	67764
279.615	60874
279.675	16472
279.734	9912
279.793	13523
279.853	26543
279.912	11005
279.971	5957
280.031	4011
280.090	9896
280.149	20258
280.208	12912
280.268	49382
280.327	59021
280.386	14751
280.445	11304
280.505	12433
280.564	6908
280.623	6130
280.682	6917
280.742	12518
280.801	3993
280.860	3147
280.919	3041
280.978	3031
281.037	2100
281.097	2453
281.156	2393
281.215	1775
281.274	2778
281.333	13962
281.392	12995
281.451	2299
281.510	2223
281.569	1326
281.628	1527
281.688	1305
281.747	3336
281.806	3074
281.865	1967
281.924	1022
281.983	2472
282.042	946
282.101	1073
282.160	1256
282.219	1863
282.278	2180
282.337	7315
282.396	6984
282.454	3014
282.513	2473
282.572	13857
282.631	9641
282.690	3022
282.749	1837
282.808	3321
282.867	3165
282.926	2558
282.985	1826
283.043	2160
283.102	1785
283.161	2016
283.220	6842
283.279	17736
283.338	5431
283.396	2045
283.455	2552
283.514	2589
283.573	4581
283.631	3777
283.690	2803
283.749	1566
283.808	5312
283.866	7969
283.925	1511
283.984	2683
284.043	3050
284.101	4740
284.160	2239
284.219	5919
284.277	4441
284.336	5123
284.395	18259
284.453	17594
284.512	4720
284.570	6685
284.629	5939
284.688	4003
284.746	4450
284.805	5330
284.863	5752
284.922	8769
284.981	8188
285.039	12855
285.098	23357
285.156	58212
285.215	139711
285.273	147585
285.332	73179
285.390	35165
285.449	21486
285.507	14725
285.566	10563
285.624	8118
285.683	6526
285.741	4127
285.799	4489
285.858	4296
285.916	3879
285.975	3445
286.033	2277
286.091	1845
286.150	1877
286.208	2377
286.267	3400
286.325	4421
286.383	6056
286.442	5404
286.500	2628
286.558	2048
286.616	2509
286.675	3570
286.733	3137
286.791	2424
286.850	3190
286.908	4790
286.966	8575
287.024	4236
287.083	2103
287.141	1868
287.199	1934
287.257	3518
287.315	3307
287.374	2486
287.432	7392
287.490	6476
287.548	2999
287.606	1600
287.664	1803
287.723	3810
287.781	6941
287.839	3946
287.897	2353
287.955	2846
288.013	5375
288.071	11531
288.129	38166
288.187	121359
288.245	61033
288.303	18450
288.361	9971
288.419	8891
288.477	6834
288.535	4757
288.593	3687
288.651	2696
288.709	1722
288.767	2571
288.825	1867
288.883	2250
288.941	2373
288.999	1559
289.057	2011
289.115	2205
289.173	2177
289.231	1779
289.289	2423
289.346	1858
289.404	3488
289.462	4606
289.520	5580
289.578	3308
289.636	1852
289.694	1374
289.751	824
289.809	698
289.867	970
289.925	3022
289.983	3273
290.040	1236
290.098	1943
290.156	2882
290.214	2328
290.271	1680
290.329	1411
290.387	1516
290.444	786
290.502	1336
290.560	1534
290.617	2111
290.675	2239
290.733	1779
290.790	2120
290.848	1718
290.906	2080
290.963	2358
291.021	2114
291.078	2092
291.136	2562
291.194	11104
291.251	27587
291.309	9240
291.366	3269
291.424	2653
291.481	2480
291.539	2379
291.596	1633
291.654	1062
291.711	1024
291.769	2095
291.826	5096
291.884	4249
291.941	2301
291.999	1357
292.056	1689
292.114	2585
292.171	1425
292.228	1820
292.286	3288
292.343	6076
292.401	7770
292.458	5238
292.515	2599
292.573	3576
292.630	3643
292.687	3398
292.745	3498
292.802	6472
292.859	17842
292.917	22716
292.974	14731
293.031	5492
293.089	2826
293.146	2715
293.203	2334
293.260	2743
293.318	3544
293.375	10152
293.432	4832
293.489	2219
293.546	2855
293.604	4301
293.661	10508
293.718	30988
293.775	22207
293.832	9644
293.889	5911
293.947	5195
294.004	5322
294.061	5403
294.118	9834
294.175	23010
294.232	34247
294.289	14798
294.346	6516
294.403	4952
294.460	4786
294.517	4943
294.574	3251
294.631	3722
294.688	4591
294.745	10185
294.802	34909
294.859	49761
294.916	20741
294.973	10401
295.030	7714
295.087	6838
295.144	4993
295.201	4150
295.258	3186
295.315	5402
295.372	11843
295.429	26570
295.486	13298
295.542	8624
295.599	18970
295.656	40915
295.713	27730
295.770	28621
295.827	14163
295.883	6798
295.940	5828
295.997	9646
296.054	10367
296.111	6168
296.167	4170
296.224	3176
296.281	2835
296.338	3125
296.394	3408
296.451	4742
296.508	11882
296.564	26939
296.621	21613
296.678	27320
296.734	43924
296.791	21747
296.848	10788
296.904	10795
296.961	18808
297.018	29663
297.074	27026
297.131	12010
297.187	7751
297.244	10247
297.301	24605
297.357	49636
297.414	21250
297.470	8301
297.527	6699
297.583	4845
297.640	5500
297.696	4641
297.753	3521
297.809	3663
297.866	3427
297.922	3648
297.979	2997
298.035	3336
298.092	6442
298.148	16123
298.204	19713
298.261	10099
298.317	14963
298.374	35860
298.430	23590
298.486	11183
298.543	7347
298.599	6041
298.656	6983
298.712	10160
298.768	22107
298.824	18227
298.881	7621
298.937	4312
298.993	4382
299.050	6013
299.106	5964
299.162	4851
299.218	5226
299.275	4003
299.331	3982
299.387	8634
299.443	25277
299.500	32233
299.556	13808
299.612	6679
299.668	5859
299.724	5292
299.780	5447
299.837	5073
299.893	8568
299.949	23629
300.005	32438
300.061	26030
300.117	44439
300.173	26287
300.229	11907
300.285	11088
300.341	14628
300.397	8471
300.453	5279
300.510	4653
300.566	4679
300.622	5418
300.678	9788
300.734	22781
300.790	25824
300.845	31962
300.901	20908
300.957	24014
301.013	22846
301.069	10940
301.125	7142
301.181	6260
301.237	5377
301.293	3920
301.349	3094
301.405	3161
301.461	4051
301.516	4171
301.572	5229
301.628	9424
301.684	9867
301.740	13367
301.796	20496
301.851	15479
301.907	20907
301.963	24026
302.019	31088
302.074	77814
302.130	86399
302.186	43622
302.242	18884
302.297	11682
302.353	11274
302.409	19376
302.464	20281
302.520	16368
302.576	30896
302.631	40274
302.687	25107
302.743	12285
302.798	6946
302.854	5775
302.910	5654
302.965	7518
303.021	11806
303.076	13368
303.132	14160
303.187	17490
303.243	10731
303.299	5461
303.354	4389
303.410	4188
303.465	4784
303.521	5143
303.576	4800
303.632	6018
303.687	9301
303.743	24246
303.798	26542
303.853	12595
303.909	6647
303.964	5973
304.020	8760
304.075	13310
304.130	13463
304.186	20088
304.241	22525
304.297	19270
304.352	11582
304.358	11118
304.407	7352
304.449	6453
304.463	6153
304.518	6716
304.539	6615
304.573	6413
304.629	7052
304.630	7122
304.684	10485
304.720	17231
304.739	20563
304.794	32972
304.811	29504
304.850	20905
304.902	11079
304.905	10460
304.960	7189
304.992	6446
305.015	5885
305.071	6236
305.083	6068
305.126	5502
305.173	4779
305.181	4674
305.236	4597
305.264	5064
305.292	5578
305.347	6427
305.354	6484
305.402	6611
305.445	6984
305.457	7131
305.512	7583
305.535	8129
305.567	8949
305.622	9989
305.626	10246
305.678	16212
305.716	26585
305.733	30139
305.788	40137
305.807	36193
305.843	29726
305.897	31299
305.898	31281
305.953	33158
305.988	24988
306.008	20648
306.063	13865
306.078	12699
306.118	9687
306.168	7360
306.173	7199
306.228	5919
306.259	5672
306.283	5583
306.338	6018
306.349	6132
306.393	6817
306.440	7072
306.448	7158
306.503	8557
306.530	9799
306.558	14161
306.613	30517
306.620	33089
306.668	43588
306.711	43231
306.723	42086
306.778	33376
306.801	26557
306.833	19174
306.888	10985
306.892	10703
306.943	9053
306.982	8328
306.997	8129
307.052	9030
307.072	8960
307.107	10463
307.162	15435
307.163	15505
307.217	24234
307.253	28853
307.272	29408
307.327	30772
307.343	28424
307.381	23188
307.434	18223
307.436	18529
307.491	30991
307.524	44307
307.546	46706
307.600	42242
307.614	37648
307.655	25141
307.704	14316
307.710	13929
307.765	16494
307.795	19853
307.819	23827
307.874	39439
307.885	40103
307.929	31841
307.975	18911
307.984	17966
308.038	17162
308.065	18561
308.093	27514
308.148	51167
308.156	56815
308.202	88104
308.246	114761
308.257	113806
308.312	68908
308.336	51700
308.366	41079
308.421	30610
308.426	29496
308.475	20734
308.517	15053
308.530	14065
308.585	12426
308.607	11998
308.639	12833
308.694	15130
308.697	15365
308.748	29363
308.787	43842
308.803	43708
308.857	35412
308.877	29950
308.912	24883
308.967	20242
308.967	20196
309.021	22725
309.058	24480
309.076	28503
309.130	45307
309.148	52032
309.185	83991
309.238	136106
309.239	136512
309.293	157786
309.328	148516
309.348	130229
309.402	64807
309.418	49039
309.457	34976
309.508	23656
309.511	23372
309.566	21855
309.598	22148
309.620	25606
309.674	36316
309.688	39390
309.729	38617
309.778	32725
309.783	32203
309.837	25068
309.868	21957
309.892	27911
309.946	44192
309.959	48951
310.001	63581
310.049	78378
310.055	75988
310.109	47587
310.139	30497
310.163	25467
310.218	17550
310.229	16279
310.272	14824
310.319	14018
310.326	14024
310.381	13778
310.409	13840
310.435	14146
310.489	14387
310.499	14469
310.543	15814
310.589	16991
310.598	17417
310.652	20065
310.679	21174
310.706	19494
310.760	15600
310.769	14962
310.814	12554
310.859	10312
310.868	10573
310.923	11851
310.948	12620
310.977	13975
311.031	16286
311.038	16595
311.085	16570
311.128	16107
311.139	16171
311.193	16313
311.218	16282
311.247	15648
311.301	14459
311.308	14269
311.356	16657
311.398	18770
311.410	18363
311.464	16031
311.488	14863
311.518	14321
311.572	13416
311.578	13273
311.626	17238
311.668	20645
311.680	21931
311.734	27415
311.758	29754
311.788	29509
311.842	28870
311.847	28704
311.896	34689
311.937	39759
311.950	39139
312.004	35878
312.027	34268
312.058	28685
312.112	18588
312.117	17531
312.165	17573
312.207	17526
312.297	34647
312.386	30223
312.476	21072
312.566	30135
312.656	18034
312.745	17661
312.835	21789
312.925	23877
313.015	20802
313.104	22881
313.194	15664
313.284	15711
313.374	17335
313.463	17684
313.553	16071
313.643	15711
313.732	14282
313.822	15939
313.912	18839
314.001	20687
314.091	26289
314.180	42937
314.270	24186
314.360	27917
314.449	21037
314.539	16620
314.628	17250
314.718	23573
314.808	26559
314.897	16109
314.987	14430
315.076	17984
315.166	21738
315.255	25187
315.345	21771
315.434	24606
315.524	20829
315.613	21194
315.703	20253
315.792	21562
315.881	21445
315.971	19229
316.060	34101
316.150	59578
316.239	58782
316.328	24964
316.418	15063
316.507	15858
316.597	18010
316.686	17654
316.775	26574
316.865	55591
316.954	16690
317.043	14253
317.133	14638
317.222	14575
317.311	14374
317.400	12606
317.490	16499
317.579	18545
317.668	14142
317.757	16739
317.847	19910
317.936	27862
318.025	31920
318.114	20371
318.203	21290
318.293	34375
318.382	64826
318.471	46282
318.560	60989
318.649	107075
318.738	30923
318.828	21621
318.917	23599
319.006	29209
319.095	60542
319.184	128417
319.273	72666
319.362	37524
319.451	18805
319.540	17383
319.629	27787
319.718	47788
319.807	30878
319.896	50190
319.985	151756
320.074	63469
320.163	29673
320.252	43827
320.341	44434
320.430	43042
320.519	36403
320.608	26489
320.697	25174
320.786	23470
320.875	22069
320.964	24614
321.053	31164
321.142	42150
321.230	46806
321.319	46502
321.408	98219
321.497	47981
321.586	38402
321.675	55579
321.764	58600
321.852	43235
321.941	60777
322.030	38481
322.119	51284
322.207	86393
322.296	88808
322.385	55745
322.474	39429
322.562	93321
322.651	68589
322.740	41735
322.829	61423
322.917	79994
323.006	40363
323.095	33887
323.183	31873
323.272	41544
323.361	53258
323.449	128397
323.538	55813
323.626	106610
323.715	66984
323.804	39875
323.892	102159
323.981	63981
324.069	27230
324.158	61484
324.246	57866
324.335	28003
324.424	36373
324.512	18673
324.601	20919
324.689	22778
324.778	28319
324.866	54125
324.954	21247
325.043	21170
325.131	37986
325.220	66275
325.308	71744
325.397	52882
325.485	34570
325.574	16330
325.662	15360
325.750	16760
325.839	16100
325.927	15379
326.015	21110
326.104	29105
326.192	39276
326.280	17671
326.369	16908
326.457	20749
326.545	30609
326.634	17467
326.722	13511
326.810	14258
326.898	14206
326.987	17125
327.075	30560
327.163	35266
327.251	20625
327.340	16132
327.428	18066
327.516	11454
327.604	14371
327.692	16740
327.781	20665
327.869	35817
327.957	21397
328.045	16975
328.133	13124
328.221	18887
328.309	15628
328.397	14291
328.485	16447
328.574	20109
328.662	45603
328.750	34505
328.838	22642
328.926	15808
329.014	14849
329.102	20752
329.190	58487
329.278	33624
329.366	12205
329.454	14825
329.542	15650
329.630	13950
329.718	14026
329.806	16022
329.893	20912
329.981	21794
330.069	12626
330.157	25818
330.245	62624
330.333	35237
330.421	15041
330.509	20049
330.597	56691
330.684	53074
330.772	32342
330.860	58125
330.948	75347
331.036	29798
331.123	13024
331.211	16619
331.299	26280
331.387	51442
331.475	92579
331.562	30717
331.650	15234
331.738	18752
331.825	31071
331.913	14674
332.001	13357
332.089	22342
332.176	49187
332.264	71703
332.352	61444
332.439	28609
332.527	23229
332.614	17553
332.702	25044
332.790	15962
332.877	34030
332.965	66658
333.052	16996
333.140	17604
333.228	31519
333.315	14536
333.403	17347
333.490	49457
333.578	36729
333.665	23547
333.753	16209
333.840	13084
333.928	18440
334.015	52163
334.103	60190
334.190	154606
334.278	52291
334.365	27294
334.452	17787
334.540	14571
334.627	19202
334.715	27865
334.802	39366
334.889	163058
334.977	135643
335.064	25470
335.151	16160
335.239	23204
335.326	32174
335.413	78392
335.501	103202
335.588	21940
335.675	17237
335.762	28693
335.850	56304
335.937	23358
336.024	46549
336.111	183732
336.199	90181
336.286	21220
336.373	12878
336.460	10462
336.547	12383
336.635	19620
336.722	15834
336.809	18324
336.896	21549
336.983	56410
337.070	127803
337.157	159025
337.245	114817
337.332	76886
337.419	19351
337.506	16534
337.593	22064
337.680	51829
337.767	144643
337.854	49717
337.941	67691
338.028	67234
338.115	25994
338.202	42667
338.289	48625
338.376	115627
338.463	46566
338.550	94792
338.637	87687
338.724	37795
338.811	55906
338.898	16762
338.984	16420
339.071	28486
339.158	18740
339.245	42165
339.332	29335
339.419	41879
339.506	40039
339.593	10304
339.679	12088
339.766	12011
339.853	19697
339.940	25309
340.027	14422
340.113	13584
340.200	16088
340.287	14937
340.374	17544
340.460	23407
340.547	14919
340.634	18551
340.720	48731
340.807	28829
340.894	10796
340.980	11992
341.067	11607
341.154	14611
341.240	15312
341.327	26761
341.414	10949
341.500	8789
341.587	13556
341.674	12096
341.760	20610
341.847	23805
341.933	10928
342.020	7185
342.106	8174
342.193	11559
342.279	17123
342.366	14147
342.452	21099
342.539	13675
342.625	25047
342.712	51578
342.798	25138
342.885	14999
342.971	7949
343.058	7967
343.144	8231
343.230	7726
343.317	8135
343.403	6833
343.490	7760
343.576	8525
343.662	8772
343.749	9565
343.835	11355
343.921	20985
344.008	69370
344.094	147197
344.180	38963
344.267	19947
344.353	54435
344.439	74162
344.525	31671
344.612	11465
344.698	10836
344.784	9908
344.870	8458
344.957	7965
345.043	13541
345.129	10747
345.215	20637
345.301	12118
345.387	10563
345.474	9334
345.560	10118
345.646	16139
345.732	13835
345.818	10967
345.904	9510
345.990	11322
346.076	14799
346.162	30711
346.249	12113
346.335	7955
346.421	8707
346.507	21588
346.593	62799
346.679	22303
346.765	15120
346.851	10011
346.937	10284
347.023	8113
347.108	9125
347.194	8657
347.280	9009
347.366	8781
347.452	20173
347.538	72704
347.624	62486
347.710	65427
347.796	18158
347.882	13299
347.967	13337
348.053	28083
348.139	15522
348.225	9188
348.311	7893
348.397	7021
348.482	9661
348.568	13690
348.654	7163
348.740	6628
348.825	6552
348.911	13135
348.997	36687
349.083	76343
349.168	19133
349.254	8878
349.340	10129
349.425	8013
349.511	12166
349.597	18132
349.682	20277
349.768	52229
349.854	29033
349.939	16071
350.025	8376
350.110	7133
350.196	5993
350.282	5375
350.367	7960
350.453	19245
350.538	18483
350.624	16907
350.709	18231
350.795	9462
350.880	7356
350.966	8667
351.051	15567
351.137	14071
351.222	8761
351.308	19144
351.393	49101
351.479	13013
351.564	6239
351.649	8883
351.735	8280
351.820	5732
351.906	6558
351.991	11640
352.076	33461
352.162	46543
352.247	12322
352.332	9098
352.418	13999
352.503	18827
352.588	73453
352.673	60067
352.759	15680
352.844	9122
352.929	9886
353.014	13293
353.100	9077
353.185	14279
353.270	20765
353.355	21696
353.441	9190
353.526	11864
353.611	19280
353.696	22039
353.781	14038
353.866	6462
353.952	8858
354.037	18937
354.122	41249
354.207	36377
354.292	16243
354.377	9051
354.462	7824
354.547	10374
354.632	12608
354.717	23871
354.802	17404
354.887	7745
354.972	6746
355.057	5855
355.142	5765
355.227	7793
355.312	12702
355.397	26715
355.482	60781
355.567	29701
355.652	25377
355.737	23876
355.822	55446
355.907	44017
355.991	11190
356.076	6945
356.161	7977
356.246	5848
356.331	7274
356.416	15763
356.501	75964
356.585	77017
356.670	14045
356.755	11833
356.840	16532
356.924	59965
357.009	191763
357.094	77601
357.179	23374
357.263	15634
357.348	18927
357.433	22993
357.517	15107
357.602	11015
357.687	7928
357.771	11080
357.856	21035
357.941	16647
358.025	45033
358.110	175568
358.195	85930
358.279	18152
358.364	14023
358.448	44303
358.533	111367
358.617	80665
358.702	78928
358.787	31650
358.871	21773
358.956	18143
359.040	6674
359.125	5319
359.209	6193
359.294	10173
359.378	14318
359.462	14654
359.547	12972
359.631	12655
359.716	6853
359.800	11651
359.885	27094
359.969	11319
360.053	6568
360.138	6051
360.222	11588
360.306	19895
360.391	18768
360.475	21332
360.559	40124
360.644	46629
360.728	36333
360.812	45783
360.896	113041
360.981	75932
361.065	53425
361.149	13533
361.233	14028
361.318	11891
361.402	14898
361.486	10335
361.570	7056
361.654	9345
361.739	21602
361.823	76288
361.907	108940
361.991	22977
362.075	16508
362.159	35463
362.243	25774
362.327	21698
362.411	19858
362.495	17871
362.580	12006
362.664	9219
362.748	6727
362.832	6749
362.916	7933
363.000	23076
363.084	78407
363.168	129146
363.252	36466
363.336	20775
363.420	28740
363.503	114079
363.587	126348
363.671	24216
363.755	20318
363.839	26695
363.923	9921
364.007	21747
364.091	26502
364.175	42440
364.258	157382
364.342	83475
364.426	44947
364.510	30877
364.594	36589
364.677	36291
364.761	97247
364.845	68873
364.929	33467
365.013	27887
365.096	23457
365.180	29636
365.264	47511
365.347	168317
365.431	94730
365.515	37178
365.598	11182
365.682	11339
365.766	36812
365.849	49177
365.933	17854
366.017	30453
366.100	31288
366.184	8641
366.267	9844
366.351	6329
366.435	6047
366.518	5500
366.602	5871
366.685	7302
366.769	10065
366.852	32558
366.936	47425
367.019	17855
367.103	24769
367.186	56330
367.270	13067
367.353	6189
367.436	7284
367.520	6897
367.603	8961
367.687	12849
367.770	23622
367.853	13949
367.937	36002
368.020	56837
368.104	15678
368.187	17807
368.270	27455
368.353	25946
368.437	37139
368.520	97835
368.603	58704
368.687	49285
368.770	82290
368.853	25808
368.936	38134
369.020	51031
369.103	14081
369.186	10640
369.269	11195
369.352	17678
369.436	35231
369.519	21657
369.602	10220
369.685	12092
369.768	13038
369.851	12715
369.934	8418
370.018	14191
370.101	22699
370.184	24536
370.267	24771
370.350	32860
370.433	49179
370.516	65082
370.599	62664
370.682	26786
370.765	60776
370.848	61267
370.931	97170
371.014	59984
371.097	14305
371.180	8947
371.263	6254
371.346	5470
371.429	7185
371.511	9659
371.594	17882
371.677	36499
371.760	56049
371.843	23103
371.926	70135
372.009	156760
372.091	55627
372.174	42279
372.257	83682
372.340	36893
372.423	63579
372.505	90435
372.588	30763
372.671	31847
372.754	89433
372.836	45134
372.919	56705
373.002	112391
373.085	31827
373.167	19847
373.250	42995
373.332	83185
373.415	105491
373.498	203446
373.580	83875
373.663	93511
373.746	123649
373.828	37699
373.911	26299
373.993	28012
374.076	105765
374.159	103244
374.241	37629
374.324	86327
374.406	55153
374.489	58642
374.571	162959
374.654	68701
374.736	39409
374.819	111960
374.901	145046
374.983	141240
375.066	29883
375.148	18488
375.231	82705
375.313	165397
375.395	79813
375.478	17650
375.560	9854
375.643	13772
375.725	37843
375.807	130201
375.890	133633
375.972	85387
376.054	45792
376.136	83104
376.219	33322
376.301	40565
376.383	106001
376.465	41706
376.548	33860
376.630	36943
376.712	94030
376.794	42289
376.877	8996
376.959	7372
377.041	10852
377.123	42174
377.205	51362
377.287	9011
377.369	6180
377.452	6941
377.534	5932
377.616	7225
377.698	6014
377.780	4902
377.862	8002
377.944	7831
378.026	5338
378.108	6123
378.190	7410
378.272	6004
378.354	4230
378.436	5738
378.518	20431
378.600	80919
378.682	48252
378.764	60626
378.846	48406
378.928	30072
379.010	29031
379.091	15103
379.173	6537
379.255	6605
379.337	11340
379.419	28961
379.501	81636
379.583	41294
379.664	14894
379.746	24753
379.828	68637
379.910	78489
379.991	64428
380.073	15516
380.155	13068
380.237	8828
380.318	7062
380.400	8185
380.482	16961
380.564	25087
380.645	25040
380.727	23982
380.809	15276
380.890	11449
380.972	7998
381.053	8344
381.135	11950
381.217	23432
381.298	67746
381.380	36168
381.461	30322
381.543	95303
381.624	108176
381.706	26827
381.787	27198
381.869	24041
381.951	42882
382.032	152054
382.113	102993
382.195	38065
382.276	24536
382.358	35299
382.439	85504
382.521	91347
382.602	136952
382.684	68479
382.765	136317
382.846	130056
382.928	129048
383.009	66742
383.090	44829
383.172	160168
383.253	244571
383.334	110727
383.416	133847
383.497	63235
383.578	26612
383.659	52757
383.741	141866
383.822	345406
383.903	174875
383.984	83931
384.066	165695
384.147	103948
384.228	25600
384.309	21343
384.390	14720
384.471	12881
384.553	17719
384.634	28654
384.715	23924
384.796	12943
384.877	13602
384.958	52474
385.039	64384
385.120	27658
385.201	15082
385.282	35542
385.363	45398
385.444	23716
385.525	28946
385.606	78370
385.687	62131
385.768	36907
385.849	45034
385.930	83123
386.011	128826
386.092	40940
386.173	16639
386.254	21835
386.335	21655
386.416	17360
386.496	45188
386.577	77550
386.658	55013
386.739	34868
386.820	45464
386.901	40104
386.981	27287
387.062	11980
387.143	14987
387.224	60800
387.304	69215
387.385	34972
387.466	35342
387.547	51175
387.627	21017
387.708	25828
387.789	97832
387.869	108966
387.950	31411
388.031	11063
388.111	23196
388.192	85959
388.273	133870
388.353	62421
388.434	18184
388.514	20962
388.595	77745
388.676	106833
388.756	62272
388.837	65064
388.917	37430
388.998	14273
389.078	11358
389.159	7039
389.239	7343
389.320	15864
389.400	14728
389.480	38530
389.561	77510
389.641	32915
389.722	17626
389.802	28203
389.883	35353
389.963	72348
390.043	66294
390.124	42489
390.204	30250
390.284	71254
390.365	46365
390.445	79253
390.525	104309
390.605	60119
390.686	34190
390.766	14843
390.846	8401
390.927	6045
391.007	9325
391.087	17052
391.167	18182
391.247	13223
391.328	28757
391.408	52523
391.488	37063
391.568	9835
391.648	12227
391.728	15558
391.808	14712
391.888	15216
391.969	35633
392.049	58352
392.129	45801
392.209	37191
392.289	63100
392.369	44086
392.449	75108
392.529	38446
392.609	23051
392.689	22425
392.769	58687
392.849	49489
392.929	52782
393.009	119648
393.089	59978
393.169	25667
393.248	63357
393.328	262808
393.408	281791
393.488	67699
393.568	22012
393.648	11823
393.728	8882
393.807	8400
393.887	8044
393.967	6954
394.047	10113
394.127	11493
394.206	15356
394.286	41652
394.366	196176
394.446	204015
394.525	43644
394.605	14066
394.685	23436
394.764	86983
394.844	132096
394.924	78041
395.003	19772
395.083	10616
395.163	8359
395.242	9116
395.322	9135
395.402	5982
395.481	11958
395.561	44878
395.640	127012
395.720	78146
395.799	126332
395.879	91657
395.958	25507
396.038	61479
396.117	256764
396.197	280213
396.276	120179
396.356	64452
396.435	66686
396.515	28449
396.594	19963
396.673	28743
396.753	75644
396.832	250346
396.912	210947
396.991	62608
397.070	16226
397.150	10007
397.229	7765
397.308	7833
397.388	11743
397.467	7914
397.546	5985
397.625	4975
397.705	9624
397.784	12001
397.863	6038
397.942	5078
398.022	8543
398.101	42678
398.180	136020
398.259	89296
398.338	24434
398.417	13887
398.497	12674
398.576	14075
398.655	6971
398.734	5730
398.813	7783
398.892	37540
398.971	131202
399.050	64151
399.129	9615
399.208	6167
399.287	7855
399.366	5662
399.445	7645
399.524	8390
399.603	5830
399.682	14014
399.761	38083
399.840	132210
399.919	104369
399.998	19963
400.077	5529
400.156	6057
400.235	14019
400.313	12647
400.392	15691
400.471	37512
400.550	58089
400.629	19941
400.708	13299
400.786	20324
400.865	57996
400.944	63257
401.023	24879
401.102	4897
401.180	6137
401.259	10515
401.338	18795
401.416	17995
401.495	16024
401.574	18272
401.652	14008
401.731	19858
401.810	18058
401.888	6932
401.967	4263
402.046	8024
402.124	15939
402.203	26015
402.281	11331
402.360	17820
402.438	67608
402.517	50253
402.596	20438
402.674	26176
402.753	12176
402.831	7297
402.910	8377
402.988	31256
403.066	89757
403.145	46918
403.223	27422
403.302	61321
403.380	45564
403.459	47278
403.537	24079
403.615	14484
403.694	3836
403.772	3960
403.850	3764
403.929	2428
404.007	5200
404.085	10907
404.164	10136
404.242	3680
404.320	4785
404.398	9554
404.477	23790
404.555	113535
404.633	92496
404.711	14516
404.789	6561
404.868	6211
404.946	4647
405.024	4020
405.102	3175
405.180	3396
405.258	2897
405.336	5162
405.415	6811
405.493	26827
405.571	17973
405.649	4620
405.727	7559
405.805	15739
405.883	10731
405.961	16894
406.039	30167
406.117	10000
406.195	8253
406.273	29170
406.351	109091
406.429	79934
406.507	33337
406.585	13245
406.663	7572
406.740	10103
406.818	9489
406.896	7423
406.974	6524
407.052	12071
407.130	66894
407.208	85830
407.285	17638
407.363	5215
407.441	5841
407.519	4038
407.596	6296
407.674	12671
407.752	24559
407.830	56097
407.907	37298
407.985	10087
408.063	4694
408.141	4455
408.218	22958
408.296	21806
408.373	6225
408.451	6510
408.529	6237
408.606	2787
408.684	2710
408.762	2282
408.839	2212
408.917	1620
408.994	3000
409.072	4253
409.149	2290
409.227	6740
409.304	7050
409.382	2964
409.459	2972
409.537	6085
409.614	4612
409.692	3034
409.769	3526
409.846	6575
409.924	13000
410.001	10830
410.079	5669
410.156	4326
410.233	3894
410.311	1926
410.388	3225
410.465	6793
410.543	8666
410.620	4030
410.697	5143
410.775	5421
410.852	2669
410.929	7080
411.006	10904
411.083	6610
411.161	21999
411.238	32299
411.315	22283
411.392	6336
411.469	9456
411.547	11835
411.624	5563
411.701	5656
411.778	5979
411.855	11250
411.932	7371
412.009	6025
412.086	5316
412.163	11205
412.240	15661
412.317	20933
412.394	18865
412.471	5913
412.548	3202
412.625	4045
412.702	11132
412.779	24835
412.856	12248
412.933	5445
413.010	4420
413.087	8049
413.164	37538
413.241	50842
413.318	12614
413.395	9624
413.471	14119
413.548	5733
413.625	5454
413.702	13898
413.779	10375
413.855	3170
413.932	2707
414.009	3739
414.086	3323
414.162	3878
414.239	10248
414.316	39326
414.393	70938
414.469	23309
414.546	4100
414.623	3281
414.699	4108
414.776	5697
414.853	4536
414.929	5646
415.006	8690
415.082	17310
415.159	10048
415.236	4979
415.312	4335
415.389	9139
415.465	12953
415.542	6300
415.618	3518
415.695	7656
415.771	5918
415.848	6913
415.924	10034
416.000	10289
416.077	5007
416.153	1311
416.230	1125
416.306	2769
416.383	4828
416.459	5007
416.535	2946
416.612	4312
416.688	3912
416.764	2574
416.841	2967
416.917	6095
416.993	4492
417.069	7833
417.146	10055
417.222	8013
417.298	5368
417.374	4907
417.451	5641
417.527	7007
417.603	6561
417.679	5299
417.755	4303
417.831	2247
417.908	2731
417.984	3058
418.060	2916
418.136	10730
418.212	13678
418.288	5920
418.364	5018
418.440	4536
418.516	10454
418.592	27473
418.668	30983
418.744	26472
418.820	18487
418.896	6393
418.972	2770
419.048	3766
419.124	12629
419.200	8919
419.276	2525
419.352	1948
419.428	1763
419.504	3578
419.579	5075
419.655	2853
419.731	3794
419.807	16035
419.883	27699
419.959	17442
420.034	6377
420.110	12826
420.186	43685
420.262	33643
420.337	10534
420.413	7416
420.489	3181
420.565	3676
420.640	1891
420.716	3851
420.792	1789
420.867	3343
420.943	2464
421.019	7813
421.094	5789
421.170	3571
421.245	2284
421.321	3212
421.397	3007
421.472	4322
421.548	8027
421.623	9684
421.699	5003
421.774	4953
421.850	3556
421.925	7824
422.001	4969
422.076	3691
422.152	4487
422.227	9876
422.302	8126
422.378	9158
422.453	16920
422.529	35958
422.604	120048
422.679	235292
422.755	143085
422.830	39541
422.905	14112
422.981	7397
423.056	5389
423.131	4154
423.207	3122
423.282	6489
423.357	15322
423.432	9610
423.508	9517
423.583	25145
423.658	17883
423.733	9435
423.808	14342
423.883	9445
423.959	4514
424.034	3643
424.109	3047
424.184	1188
424.259	2123
424.334	2818
424.409	1308
424.484	2855
424.559	4829
424.634	3182
424.709	5769
424.784	7394
424.859	6024
424.934	10124
425.009	34933
425.084	55264
425.159	21775
425.234	5831
425.309	2076
425.384	4064
425.459	6098
425.534	6206
425.609	10982
425.683	6575
425.758	3415
425.833	7394
425.908	8903
425.983	20903
426.058	57769
426.132	29818
426.207	12704
426.282	27616
426.357	28769
426.431	6707
426.506	6313
426.581	10019
426.655	7170
426.730	4204
426.805	3932
426.879	5216
426.954	6337
427.029	14603
427.103	47204
427.178	103326
427.253	49183
427.327	12773
427.402	21736
427.476	42228
427.551	16593
427.625	14286
427.700	14146
427.774	8115
427.849	13826
427.923	7167
427.998	5418
428.072	8737
428.147	20102
428.221	39758
428.296	70614
428.370	28573
428.444	14406
428.519	32648
428.593	63826
428.667	51751
428.742	64949
428.816	46131
428.890	80559
428.965	85177
429.039	49841
429.113	75581
429.188	26561
429.262	6544
429.336	11031
429.410	32244
429.485	26687
429.559	53165
429.633	40268
429.707	9351
429.781	22418
429.855	106922
429.930	137516
430.004	117193
430.078	185819
430.152	123386
430.226	70906
430.300	60789
430.374	13152
430.448	12401
430.522	50315
430.596	144138
430.670	72655
430.744	74772
430.818	111871
430.892	29299
430.966	7969
431.040	4651
431.114	4128
431.188	4852
431.262	5649
431.336	6438
431.410	27068
431.484	74982
431.557	37524
431.631	5415
431.705	4348
431.779	10186
431.853	49232
431.927	35310
432.000	6339
432.074	4975
432.148	16881
432.222	13730
432.295	5703
432.369	5091
432.443	11018
432.516	54930
432.590	110838
432.664	50622
432.737	9836
432.811	2869
432.885	1919
432.958	3454
433.032	2299
433.106	2647
433.179	1049
433.253	2579
433.326	2073
433.400	1714
433.473	3132
433.547	2308
433.620	3186
433.694	8957
433.767	9010
433.841	5523
433.914	2743
433.988	1688
434.061	3365
434.134	3585
434.208	1126
434.281	2050
434.355	2701
434.428	3177
434.501	2202
434.575	4670
434.648	6147
434.721	2576
434.795	1276
434.868	1496
434.941	1017
435.014	1911
435.088	1632
435.161	2403
435.234	5921
435.307	9633
435.381	4883
435.454	4233
435.527	3847
435.600	2934
435.673	3007
435.746	2270
435.819	1479
435.892	1609
435.966	3147
436.039	5403
436.112	4643
436.185	2271
436.258	913
436.331	658
436.404	459
436.477	1913
436.550	940
436.623	1011
436.696	1867
436.769	3212
436.842	3349
436.915	6985
436.987	11249
437.060	4342
437.133	1637
437.206	2791
437.279	5211
437.352	2767
437.425	1700
437.498	3426
437.570	9620
437.643	9802
437.716	3111
437.789	2324
437.861	9419
437.934	30397
438.007	12313
438.080	3018
438.152	2657
438.225	7890
438.298	46811
438.370	129108
438.443	66687
438.516	25326
438.588	5688
438.661	2205
438.734	2807
438.806	5564
438.879	6430
438.951	9176
439.024	15134
439.096	5407
439.169	2598
439.241	1884
439.314	4582
439.386	15240
439.459	19730
439.531	25748
439.604	8864
439.676	2339
439.749	1759
439.821	2725
439.893	2096
439.966	3559
440.038	7014
440.110	6375
440.183	3513
440.255	2678
440.327	6722
440.400	35062
440.472	113354
440.544	70241
440.617	14397
440.689	12109
440.761	16179
440.833	25338
440.905	14816
440.978	3670
441.050	1843
441.122	2812
441.194	2695
441.266	3639
441.338	1894
441.411	6691
441.483	36432
441.555	56608
441.627	18078
441.699	21695
441.771	23505
441.843	5912
441.915	3106
441.987	1791
442.059	2365
442.131	7981
442.203	16392
442.275	17695
442.347	12407
442.419	6239
442.491	17226
442.563	44127
442.635	39122
442.706	62742
442.778	44354
442.850	6398
442.922	3947
442.994	9340
443.066	17060
443.137	10534
443.209	5764
443.281	7795
443.353	16464
443.425	40246
443.496	73100
443.568	65728
443.640	29080
443.711	13121
443.783	6964
443.855	5746
443.926	2931
443.998	8395
444.070	14992
444.141	11024
444.213	10652
444.285	12880
444.356	14768
444.428	15480
444.499	6068
444.571	3166
444.642	3185
444.714	4551
444.785	9491
444.857	21437
444.928	60591
445.000	32236
445.071	39790
445.143	42742
445.214	15609
445.285	28691
445.357	88379
445.428	88290
445.500	149511
445.571	124349
445.642	48361
445.714	54535
445.785	78060
445.856	20310
445.928	12945
445.999	13128
446.070	10427
446.141	9242
446.213	12390
446.284	10999
446.355	18384
446.426	10472
446.497	7777
446.569	21985
446.640	25178
446.711	12473
446.782	5540
446.853	12583
446.924	11932
446.995	7547
447.066	10067
447.138	27342
447.209	12516
447.280	3508
447.351	2508
447.422	3865
447.493	11511
447.564	10814
447.635	10952
447.706	6351
447.777	2881
447.847	2984
447.918	4011
447.989	14232
448.060	18643
448.131	44905
448.202	31181
448.273	19744
448.344	9466
448.414	4279
448.485	3568
448.556	4063
448.627	2771
448.698	2900
448.768	1924
448.839	6337
448.910	24261
448.981	18921
449.051	6444
449.122	3646
449.193	2468
449.263	4816
449.334	4322
449.405	5482
449.475	14997
449.546	15069
449.616	26830
449.687	20494
449.758	6482
449.828	4117
449.899	2694
449.969	2238
450.040	2873
450.110	8659
450.181	10081
450.251	3712
450.322	3304
450.392	6238
450.463	5186
450.533	3801
450.604	4618
450.674	5635
450.744	4820
450.815	4950
450.885	4131
450.955	3784
451.026	3158
451.096	6019
451.166	9863
451.237	28615
451.307	68536
451.377	23445
451.447	6063
451.518	3062
451.588	5393
451.658	5913
451.728	13000
451.799	63787
451.869	69110
451.939	16335
452.009	4843
452.079	4475
452.149	6299
452.219	16839
452.289	73424
452.360	51286
452.430	9401
452.500	6690
452.570	8469
452.640	11628
452.710	40144
452.780	66255
452.850	30880
452.920	25296
452.990	11649
453.060	7334
453.129	9931
453.199	17370
453.269	53305
453.339	109608
453.409	165962
453.479	174875
453.549	258479
453.619	297297
453.688	118903
453.758	21004
453.828	7946
453.898	7657
453.968	7555
454.037	5832
454.087	6033
454.107	6117
454.168	4447
454.177	4200
454.247	3281
454.249	3301
454.316	3854
454.330	4895
454.386	8886
454.411	20524
454.456	39772
454.492	48066
454.525	55646
454.574	27096
454.595	14728
454.655	6308
454.665	5032
454.734	8484
454.736	8790
454.804	19517
454.817	28378
454.873	63969
454.898	67010
454.943	71749
454.979	47745
455.013	26160
455.060	15565
455.082	11579
455.141	12368
455.152	12144
455.221	41885
455.222	42400
455.291	77013
455.303	67675
455.360	26349
455.384	22071
455.430	15662
455.465	20783
455.499	24521
455.546	51069
455.569	62709
455.627	39352
455.638	35370
455.707	7506
455.708	7497
455.777	5334
455.789	5500
455.846	6152
455.869	5496
455.916	4327
455.950	5484
455.985	6464
456.031	6093
456.054	5894
456.112	4495
456.124	4341
456.193	3309
456.193	3286
456.262	6993
456.274	7936
456.332	11916
456.355	12744
456.401	13031
456.436	10131
456.470	7477
456.516	4413
456.540	3168
456.597	2526
456.609	2381
456.678	3548
456.678	3545
456.747	2494
456.759	2472
456.817	2627
456.840	2451
456.886	1945
456.920	2210
456.955	2663
457.001	3171
457.024	3895
457.082	7124
457.093	7789
457.162	12781
457.163	12844
457.232	17014
457.243	16103
457.301	10153
457.324	7206
457.370	3609
457.405	3363
457.439	3110
457.485	3183
457.508	3205
457.566	3603
457.577	3696
457.646	3479
457.647	3499
457.715	4975
457.727	5125
457.784	6278
457.808	6654
457.853	6844
457.889	7777
457.922	7987
457.969	6700
457.991	6876
458.050	7819
458.060	7912
458.129	10802
458.130	10896
458.198	11460
458.211	10492
458.267	6685
458.292	5639
458.336	5013
458.372	4842
458.405	5267
458.453	6506
458.474	7428
458.533	11830
458.543	12277
458.611	19486
458.614	19589
458.680	15263
458.694	12823
458.749	6701
458.775	5609
458.818	4524
458.855	4749
458.887	5171
458.936	5286
458.955	5055
459.016	4870
459.024	4907
459.093	5142
459.097	5178
459.162	5732
459.177	5941
459.230	6639
459.257	7061
459.299	7511
459.338	7196
459.368	7064
459.418	7921
459.437	7878
459.499	6391
459.505	6337
459.574	4989
459.579	5010
459.643	4980
459.659	4824
459.711	4621
459.740	4671
459.780	5115
459.820	6146
459.849	6730
459.900	7790
459.917	7796
459.981	7940
459.986	7936
460.054	5078
460.061	4963
460.123	5161
460.141	5283
460.191	5792
460.222	6344
460.260	6900
460.302	8152
460.328	8160
460.382	6741
460.397	6655
460.462	4877
460.465	4830
460.534	6036
460.543	6105
460.602	9446
460.623	11084
460.671	15823
460.703	20317
460.739	19925
460.783	17545
460.808	15953
460.864	7592
460.876	6775
460.944	7041
460.945	7029
461.013	6215
461.024	6013
461.081	5808
461.104	6038
461.150	6066
461.184	5897
461.218	5915
461.264	5499
461.286	5413
461.345	5583
461.355	5612
461.423	6443
461.425	6459
461.491	7788
461.505	8007
461.559	15405
461.585	19250
461.628	33013
461.665	48198
461.696	54126
461.745	73478
461.764	69222
461.825	24872
461.832	23147
461.901	8983
461.905	8815
461.969	7722
461.985	7477
462.037	7434
462.065	7484
462.105	8503
462.145	9869
462.173	15230
462.225	25708
462.241	28775
462.305	48025
462.310	47137
462.378	30227
462.385	26443
462.446	11066
462.465	8472
462.514	6371
462.545	6896
462.582	7105
462.625	6861
462.650	6832
462.705	6812
462.718	7067
462.785	9019
462.786	9128
462.854	15287
462.865	16637
462.922	22199
462.945	24972
462.990	20733
463.025	12742
463.058	9566
463.104	7367
463.126	6854
463.184	6729
463.194	6773
463.262	7570
463.264	7586
463.330	7710
463.344	7756
463.398	9222
463.424	9905
463.466	10053
463.504	10669
463.533	11134
463.583	10989
463.601	11177
463.663	11782
463.669	12094
463.737	16095
463.743	16592
463.805	29160
463.823	32612
463.873	50497
463.903	63248
463.940	68245
463.982	77366
464.008	66456
464.062	28527
464.076	25454
464.142	9530
464.144	9253
464.211	6692
464.221	6550
464.279	7867
464.301	8402
464.347	9302
464.381	9882
464.414	11833
464.461	14790
464.482	15376
464.540	18410
464.550	17765
464.617	10316
464.620	10036
464.685	9285
464.699	9417
464.753	9677
464.779	9880
464.820	10413
464.859	10706
464.888	11880
464.938	13925
464.956	14408
465.018	17459
465.023	17103
465.091	10644
465.098	9906
465.158	8683
465.177	8576
465.226	8725
465.257	8829
465.293	9832
465.336	10956
465.361	11810
465.416	13887
465.428	15448
465.495	24016
465.496	24211
465.563	50295
465.575	55087
465.631	67888
465.654	74061
465.698	47206
465.734	20276
465.765	15230
465.813	9040
465.833	8336
465.893	8167
465.900	8172
465.968	8651
465.972	8655
466.035	8197
466.052	8108
466.102	8537
466.131	8742
466.170	8584
466.210	8424
466.237	8851
466.290	9583
466.304	9562
466.369	9480
466.372	9514
466.439	10167
466.449	10254
466.506	12069
466.528	12755
466.573	20923
466.607	27022
466.641	45608
466.687	71533
466.708	79333
466.766	101913
466.775	93536
466.842	28456
466.845	25319
466.909	15274
466.925	13255
466.977	12003
467.004	11510
467.044	11809
467.083	12119
467.111	12477
467.163	13112
467.178	13234
467.242	13696
467.245	13708
467.312	13640
467.321	13619
467.379	14688
467.400	15037
467.446	17397
467.480	19064
467.559	17445
467.638	12862
467.717	14124
467.796	14370
467.875	16771
467.955	17468
468.034	28927
468.113	83103
468.192	122568
468.271	26254
468.350	11041
468.429	13313
468.508	11835
468.588	11685
468.667	12866
468.746	12977
468.825	12043
468.904	12097
468.983	17110
469.062	32956
469.141	40080
469.220	13066
469.299	12489
469.378	12572
469.456	11782
469.535	12008
469.614	11443
469.693	14443
469.772	23443
469.851	36927
469.930	23032
470.009	10902
470.088	11106
470.166	12138
470.245	15717
470.324	18267
470.403	12833
470.482	10787
470.560	10514
470.639	12564
470.718	14691
470.797	12050
470.875	15795
470.954	26591
471.033	29675
471.111	9813
471.190	8646
471.269	8440
471.347	9541
471.426	10936
471.505	13847
471.583	11513
471.662	10725
471.740	9494
471.819	9669
471.898	9177
471.976	9885
472.055	9832
472.133	12901
472.212	21487
472.290	23861
472.369	13996
472.447	9522
472.526	9489
472.604	9627
472.683	10963
472.761	11107
472.839	10217
472.918	10135
472.996	12228
473.075	15596
473.153	14199
473.231	11739
473.310	14807
473.388	14167
473.466	11936
473.545	11024
473.623	14111
473.701	14501
473.780	9978
473.858	8988
473.936	12167
474.014	10739
474.093	12902
474.171	25431
474.249	40937
474.327	23439
474.405	8774
474.484	8928
474.562	9315
474.640	9388
474.718	11468
474.796	11257
474.874	9059
474.952	8559
475.030	8538
475.108	8844
475.187	9092
475.265	10483
475.343	14581
475.421	16691
475.499	10863
475.577	12219
475.655	18943
475.733	48783
475.811	91325
475.889	82618
475.966	51615
476.044	12561
476.122	14006
476.200	17781
476.278	14845
476.356	12804
476.434	13073
476.512	15496
476.590	19466
476.667	17439
476.745	12588
476.823	13175
476.901	13578
476.979	14731
477.056	12972
477.134	12433
477.212	12953
477.290	11882
477.367	11279
477.445	11384
477.523	11945
477.601	12387
477.678	12341
477.756	17246
477.834	21385
477.911	13410
477.989	12733
478.066	12172
478.144	15711
478.222	15573
478.299	19027
478.377	17494
478.454	11095
478.532	10279
478.609	11630
478.687	12599
478.764	10992
478.842	11711
478.919	12397
478.997	13210
479.074	11783
479.152	16561
479.229	23088
479.307	14282
479.384	9206
479.461	10353
479.539	12969
479.616	16571
479.694	13040
479.771	15563
479.848	16334
479.926	26124
480.003	27604
480.080	11583
480.157	11909
480.235	11264
480.312	11171
480.389	16540
480.467	31502
480.544	40067
480.621	18123
480.698	15556
480.775	18855
480.853	19804
480.930	14087
481.007	15411
481.084	17728
481.161	18235
481.238	18574
481.315	12863
481.392	12684
481.470	12842
481.547	13090
481.624	13220
481.701	12898
481.778	15047
481.855	16708
481.932	27640
482.009	50051
482.086	32797
482.163	12819
482.240	15776
482.317	24140
482.393	20018
482.470	14107
482.547	14857
482.624	12968
482.701	14624
482.778	13309
482.855	10244
482.932	10814
483.009	11347
483.085	12596
483.162	14436
483.239	13672
483.316	10852
483.393	11361
483.469	12199
483.546	15855
483.623	17896
483.699	12827
483.776	13813
483.853	16178
483.930	23753
484.006	69986
484.083	121685
484.160	36126
484.236	26997
484.313	23133
484.389	20757
484.466	18633
484.543	16232
484.619	18171
484.696	20006
484.772	24319
484.849	30810
484.925	19888
485.002	17732
485.078	20454
485.155	20617
485.231	18106
485.308	17827
485.384	20565
485.461	28968
485.537	64155
485.614	82106
485.690	23182
485.766	17929
485.843	18708
485.919	26041
485.995	27775
486.072	16391
486.148	15895
486.224	16485
486.301	18883
486.377	23797
486.453	22676
486.530	19403
486.606	22119
486.682	25797
486.758	48107
486.835	61889
486.911	41513
486.987	81139
487.063	65069
487.139	60604
487.215	39251
487.292	19255
487.368	17849
487.444	19268
487.520	24433
487.596	19197
487.672	21459
487.748	41151
487.824	56025
487.900	23524
487.976	18839
488.052	22472
488.128	27552
488.204	22460
488.280	20447
488.356	25989
488.432	76813
488.508	125934
488.584	33299
488.660	16880
488.736	16437
488.812	17519
488.888	21471
488.964	26414
489.039	57580
489.115	92697
489.191	52325
489.267	19408
489.343	19774
489.418	14034
489.494	13597
489.570	12745
489.646	16025
489.722	16549
489.797	17637
489.873	33775
489.949	96476
490.024	76387
490.100	18026
490.176	14741
490.251	18701
490.327	23633
490.403	15132
490.478	12412
490.554	11510
490.629	11679
490.705	11414
490.781	13684
490.856	15532
490.932	16994
491.007	16582
491.083	15971
491.158	17710
491.234	25185
491.309	72682
491.385	74202
491.460	18713
491.536	17402
491.611	14852
491.686	15600
491.762	20950
491.837	41355
491.913	71607
491.988	104331
492.063	114074
492.139	48621
492.214	31110
492.289	13205
492.365	12127
492.440	14474
492.515	18544
492.590	17718
492.666	13817
492.741	22277
492.816	41793
492.891	19817
492.967	11688
493.042	9782
493.117	9955
493.192	10478
493.267	12519
493.342	18991
493.418	20251
493.493	11275
493.568	9154
493.643	11817
493.718	16806
493.793	32248
493.868	28226
493.943	14451
494.018	11235
494.093	12108
494.168	12948
494.243	9689
494.318	10112
494.393	9493
494.468	9818
494.543	9030
494.618	11204
494.693	10429
494.768	11991
494.842	11658
494.917	8840
494.992	9292
495.067	9014
495.142	9246
495.217	9582
495.292	12190
495.366	13716
495.441	19576
495.516	26212
495.591	30417
495.665	84274
495.740	195650
495.815	78878
495.890	23710
495.964	18051
496.039	20267
496.114	17784
496.188	17994
496.263	17580
496.338	19259
496.412	22002
496.487	25082
496.561	22842
496.636	22937
496.710	19527
496.785	22832
496.860	28577
496.934	19500
497.009	18747
497.083	16616
497.158	18955
497.232	23955
497.307	30379
497.381	22262
497.455	29020
497.530	43478
497.604	25560
497.679	25849
497.753	46459
497.827	57961
497.902	43362
497.976	49541
498.050	111793
498.125	463080
498.199	455842
498.273	63651
498.348	40572
498.422	29500
498.496	29247
498.570	27833
498.645	23588
498.719	25977
498.793	35840
498.867	61678
498.941	75610
499.016	188439
499.090	530630
499.164	176975
499.238	25155
499.312	21235
499.386	23832
499.460	24561
499.534	24492
499.609	31000
499.683	51681
499.757	49664
499.831	86592
499.905	364112
499.979	338891
500.053	67800
500.127	59979
500.201	35155
500.275	26845
500.349	25184
500.422	29430
500.496	38972
500.570	70610
500.644	196563
500.718	394389
500.792	87893
500.866	27025
500.940	37593
501.013	33454
501.087	29412
501.161	44278
501.235	61350
501.309	143409
501.382	384036
501.456	317683
501.530	76303
501.603	142112
501.677	54838
501.751	22796
501.825	28776
501.898	53476
501.972	168785
502.046	103972
502.119	30699
502.193	67915
502.266	182237
502.340	86986
502.413	78235
502.487	166067
502.561	102064
502.634	28202
502.708	20353
502.781	16746
502.855	15284
502.928	14586
503.002	16508
503.075	14594
503.149	19176
503.222	18227
503.295	21137
503.369	27982
503.442	35104
503.516	117403
503.589	321419
503.662	206721
503.736	61083
503.809	149485
503.882	113019
503.956	155848
504.029	134956
504.102	42909
504.175	39660
504.249	18580
504.322	23128
504.395	22643
504.468	16118
504.542	16886
504.615	13566
504.688	12969
504.761	11928
504.834	16350
504.907	16533
504.980	23629
505.053	16663
505.127	16035
505.200	23575
505.273	29798
505.346	17396
505.419	13255
505.492	13136
505.565	11036
505.638	10441
505.711	12245
505.784	11884
505.857	11655
505.930	13145
506.003	11436
506.076	14776
506.149	21311
506.221	28359
506.294	21846
506.367	57446
506.440	206857
506.513	105896
506.586	28920
506.659	16491
506.731	12595
506.804	15322
506.877	21106
506.950	18413
507.022	12101
507.095	19244
507.168	23919
507.241	13630
507.313	8940
507.386	10388
507.459	16127
507.531	10404
507.604	8663
507.677	11013
507.749	8053
507.822	11389
507.894	17103
507.967	18675
508.040	10623
508.112	11350
508.185	11591
508.257	9734
508.330	15608
508.402	11778
508.475	13054
508.547	14046
508.620	14316
508.692	27760
508.765	15225
508.837	9613
508.909	8819
508.982	10177
509.054	12050
509.127	9268
509.199	8594
509.271	8358
509.344	8628
509.416	8078
509.488	9557
509.560	9494
509.633	9059
509.705	11417
509.777	11623
509.849	14511
509.922	10723
509.994	7943
510.066	9885
510.138	7738
510.210	14069
510.283	13292
510.355	11158
510.427	10715
510.499	9710
510.571	8692
510.643	10008
510.715	16989
510.787	12750
510.859	11948
510.931	14885
511.003	15840
511.076	15056
511.148	9548
511.219	10690
511.291	23398
511.363	30648
511.435	10528
511.507	7865
511.579	9118
511.651	9101
511.723	9313
511.795	9359
511.867	10151
511.939	13947
512.010	41336
512.082	31603
512.154	9984
512.226	9194
512.298	11103
512.369	15573
512.441	14738
512.513	14893
512.585	10614
512.656	11547
512.728	13649
512.800	9999
512.871	10356
512.943	10771
513.015	7170
513.086	9392
513.158	9686
513.230	10488
513.301	17214
513.373	19388
513.444	9758
513.516	8865
513.588	9241
513.659	10505
513.731	13257
513.802	9801
513.874	23482
513.945	38838
514.016	12476
514.088	9669
514.159	9741
514.231	14632
514.302	15292
514.374	11824
514.445	13597
514.516	44873
514.588	30301
514.659	16615
514.730	39031
514.802	24627
514.873	10424
514.944	12147
515.016	11002
515.087	12164
515.158	23299
515.229	39238
515.301	13084
515.372	12785
515.443	8655
515.514	8316
515.585	7475
515.656	9034
515.728	8647
515.799	7793
515.870	8875
515.941	10118
516.012	8821
516.083	12046
516.154	11527
516.225	18873
516.296	16472
516.367	13071
516.438	14857
516.509	18955
516.580	25417
516.651	65757
516.722	237144
516.793	107749
516.864	33138
516.935	35433
517.006	37537
517.077	44825
517.148	80070
517.219	239514
517.289	366125
517.360	222467
517.431	81577
517.502	22850
517.573	21102
517.643	19042
517.714	19777
517.785	20965
517.856	20350
517.926	25383
517.997	28236
518.068	31040
518.138	40040
518.209	46963
518.280	146187
518.350	552385
518.421	182629
518.492	33474
518.562	25754
518.633	26446
518.703	20521
518.774	28038
518.845	44962
518.915	43268
518.986	26311
519.056	27570
519.127	43001
519.197	68566
519.268	201891
519.338	137706
519.408	34086
519.479	28555
519.549	22293
519.620	18531
519.690	14763
519.760	14896
519.831	16217
519.901	16196
519.971	14778
520.042	16798
520.112	21105
520.182	18920
520.253	19579
520.323	15051
520.393	15448
520.463	19290
520.534	15963
520.604	29461
520.674	20755
520.744	22472
520.814	29243
520.885	31982
520.955	60456
521.025	248513
521.095	92107
521.165	21906
521.235	17926
521.305	15422
521.375	13490
521.445	14408
521.515	17392
521.585	19138
521.655	16355
521.725	17139
521.795	16769
521.865	12325
521.935	26118
522.005	24138
522.075	14428
522.145	15898
522.215	18367
522.285	28474
522.355	40624
522.424	85100
522.494	68236
522.564	25375
522.634	35415
522.704	87573
522.774	35081
522.843	16086
522.913	14316
522.983	16305
523.053	13054
523.122	15247
523.192	17057
523.262	49776
523.331	46523
523.401	13955
523.471	10827
523.540	12390
523.610	9371
523.680	10641
523.749	12369
523.819	16651
523.888	17926
523.958	11928
524.027	12770
524.097	15848
524.166	13501
524.236	13076
524.305	15984
524.375	11746
524.444	11061
524.514	14067
524.583	14310
524.653	19036
524.722	22768
524.791	13095
524.861	13608
524.930	11141
524.999	12749
525.069	16724
525.138	17316
525.207	22221
525.277	14673
525.346	12821
525.415	12191
525.484	12684
525.554	16977
525.623	16249
525.692	11259
525.761	13203
525.830	12422
525.900	13030
525.969	19455
526.038	20162
526.107	22392
526.176	53154
526.245	45259
526.314	29078
526.383	39388
526.452	40270
526.522	68900
526.591	88159
526.660	52127
526.729	27127
526.797	27245
526.867	47778
526.935	202206
527.004	218592
527.073	96468
527.142	18707
527.211	14173
527.280	15023
527.349	14829
527.418	9800
527.487	11384
527.555	9539
527.624	9704
527.693	8966
527.762	10819
527.831	9893
527.899	10538
527.968	10706
528.037	10386
528.106	11938
528.174	21269
528.243	20866
528.312	30448
528.380	35268
528.449	13657
528.518	11530
528.586	8210
528.655	10530
528.723	9307
528.792	9318
528.861	11414
528.929	10380
528.998	10197
529.066	8941
529.135	9218
529.203	9271
529.272	7550
529.340	10088
529.409	10618
529.477	9560
529.545	14775
529.614	17717
529.682	15585
529.751	21097
529.819	19380
529.887	12898
529.956	8845
530.024	11207
530.092	7248
530.161	10142
530.229	15319
530.297	9259
530.365	9774
530.434	7950
530.502	7767
530.570	8196
530.638	8006
530.707	9249
530.775	11695
530.843	9025
530.911	8273
530.979	9021
531.047	8521
531.115	9830
531.183	8785
531.252	10329
531.320	10631
531.388	8950
531.456	9052
531.524	6898
531.592	10038
531.660	10880
531.728	9268
531.796	8132
531.864	8764
531.932	9906
532.000	8918
532.067	9247
532.135	10004
532.203	11229
532.271	10869
532.339	16816
532.407	40190
532.475	23439
532.542	15032
532.610	13992
532.678	17898
532.746	57337
532.814	149993
532.881	41352
532.949	12369
533.017	10562
533.084	10308
533.152	9297
533.220	9820
533.287	9577
533.355	9428
533.423	9497
533.490	8918
533.558	8926
533.625	10132
533.693	11444
533.761	9894
533.828	11579
533.896	9277
533.963	15375
534.031	17804
534.098	24867
534.166	14209
534.233	9638
534.300	8947
534.368	10067
534.435	8616
534.503	8866
534.570	9054
534.637	8033
534.705	9394
534.772	9832
534.840	10233
534.907	26108
534.974	31813
535.041	12529
535.109	16121
535.176	9015
535.243	8734
535.310	9224
535.378	8903
535.445	8424
535.512	7739
535.579	9437
535.646	9388
535.714	9685
535.781	9834
535.848	9907
535.915	11656
535.982	10108
536.049	9363
536.116	10654
536.183	9492
536.250	10351
536.317	10162
536.384	12377
536.451	16457
536.518	16593
536.585	12357
536.652	16733
536.719	21641
536.786	16170
536.853	13988
536.920	20359
536.987	32875
537.053	23959
537.120	75296
537.187	67225
537.254	13087
537.321	10770
537.388	11963
537.454	8689
537.521	9046
537.588	9641
537.654	9990
537.721	10609
537.788	11540
537.855	9132
537.921	9916
537.988	9872
538.055	11202
538.121	10051
538.188	10750
538.254	15104
538.321	28665
538.388	18223
538.454	10727
538.521	10292
538.587	8789
538.654	10151
538.720	9324
538.787	9493
538.853	11070
538.920	14401
538.986	16048
539.053	12963
539.119	12955
539.185	11366
539.252	13511
539.318	18253
539.385	14673
539.451	10859
539.517	12082
539.583	14850
539.650	27176
539.716	64649
539.782	22326
539.849	10526
539.915	11477
539.981	10252
540.047	13030
540.114	12113
540.180	13974
540.246	10475
540.312	14383
540.378	28864
540.444	28135
540.510	25618
540.576	65974
540.643	24491
540.709	10890
540.775	11489
540.841	10731
540.907	16451
540.973	23105
541.039	16816
541.105	18441
541.171	10992
541.237	10340
541.303	11499
541.369	13784
541.435	14545
541.500	24870
541.566	15647
541.632	10908
541.698	9812
541.764	11138
541.830	9779
541.896	10382
541.961	10636
542.027	10644
542.093	10673
542.159	11290
542.224	11488
542.290	16698
542.356	24074
542.421	29674
542.487	13980
542.553	11500
542.618	14832
542.684	12572
542.750	11545
542.815	14240
542.881	20896
542.947	60315
543.012	44318
543.078	12257
543.143	10643
543.209	11683
543.274	10968
543.340	12014
543.405	23503
543.471	35713
543.536	12856
543.602	11448
543.667	10369
543.732	10999
543.798	8987
543.863	10492
543.928	10205
543.994	8976
544.059	10253
544.124	9654
544.190	9296
544.255	10572
544.320	9903
544.386	10202
544.451	14383
544.516	16805
544.581	14623
544.646	37617
544.712	58044
544.777	17387
544.842	17619
544.907	20707
544.972	16843
545.037	16415
545.102	18931
545.168	18049
545.233	19318
545.298	19485
545.363	20901
545.428	21853
545.493	29602
545.558	52625
545.623	29147
545.688	19563
545.753	17718
545.818	16490
545.883	19014
545.947	15938
546.012	19626
546.077	21226
546.142	18628
546.207	15634
546.272	20813
546.337	21155
546.401	18461
546.466	17554
546.531	16385
546.596	18928
546.661	17848
546.725	16702
546.790	15833
546.855	16981
546.919	16178
546.984	17096
547.049	18939
547.113	22991
547.178	19998
547.243	21801
547.307	22396
547.372	25936
547.436	30087
547.501	20876
547.565	20939
547.630	22896
547.695	23076
547.759	31365
547.823	25522
547.888	20119
547.952	19871
548.017	20601
548.081	23451
548.146	34127
548.210	29450
548.274	20107
548.339	19359
548.403	18679
548.468	17253
548.532	17867
548.596	18825
548.660	19126
548.725	20964
548.789	25892
548.853	27017
548.917	20978
548.982	32582
549.046	33323
549.110	19085
549.174	18842
549.238	18757
549.303	17787
549.367	19723
549.431	19073
549.495	17721
549.559	17494
549.623	19166
549.687	22328
549.751	28327
549.815	24901
549.879	23713
549.943	22250
550.007	22605
550.071	24113
550.135	26036
550.199	24489
550.263	22504
550.327	24998
550.391	35551
550.455	24952
550.519	22410
550.582	23966
550.646	28249
550.710	29562
550.774	24864
550.838	24188
550.901	26889
550.965	27157
551.029	28512
551.093	31545
551.156	39300
551.220	75475
551.284	84642
551.347	41477
551.411	91579
551.475	103612
551.538	29869
551.602	23406
551.666	23098
551.729	20616
551.793	21249
551.856	22884
551.920	20531
551.983	20803
552.047	20834
552.110	20954
552.174	20327
552.237	20753
552.301	19992
552.364	19631
552.428	21665
552.491	20478
552.554	20860
552.618	21621
552.681	22668
552.745	22259
552.808	28851
552.871	32922
552.934	23389
552.998	21845
553.061	24465
553.124	21967
553.187	19786
553.251	21050
553.314	22634
553.377	20144
553.440	23055
553.503	23705
553.567	24529
553.630	21051
553.693	22079
553.756	21324
553.819	20109
553.882	20956
553.945	19962
554.008	19104
554.071	18895
554.134	20073
554.197	20411
554.260	18522
554.323	20015
554.386	20608
554.449	19138
554.512	20200
554.575	18204
554.638	21855
554.701	19972
554.764	18602
554.827	19800
554.889	17605
554.952	16770
555.015	17902
555.078	17853
555.141	18005
555.203	17799
555.266	18687
555.329	19315
555.391	18107
555.454	18228
555.517	18525
555.580	17456
555.642	16165
555.705	15929
555.768	18407
555.830	17479
555.893	15951
555.955	16879
556.018	17575
556.080	16773
556.143	16178
556.206	16510
556.268	19379
556.330	19889
556.393	17828
556.455	20327
556.518	30173
556.580	29676
556.643	16696
556.705	17157
556.767	15198
556.830	17412
556.892	17494
556.955	24732
557.017	19515
557.079	17097
557.142	16571
557.204	17649
557.266	29986
557.328	26439
557.391	15834
557.453	16117
557.515	17193
557.577	19024
557.639	18942
557.701	15856
557.764	14788
557.826	16169
557.888	18862
557.950	16599
558.012	16579
558.074	17327
558.136	25856
558.198	42477
558.260	23605
558.322	18001
558.384	17739
558.446	19304
558.508	21727
558.570	25573
558.632	35715
558.694	47121
558.756	37789
558.818	81500
558.880	190494
558.942	59305
559.003	44987
559.065	26874
559.127	19252
559.189	19240
559.251	20308
559.312	23000
559.374	40754
559.436	119010
559.498	61289
559.559	21421
559.621	20468
559.683	23134
559.744	35248
559.806	79028
559.868	93680
559.929	32395
559.991	27325
560.052	28999
560.114	48000
560.176	35808
560.237	33607
560.299	46513
560.360	23523
560.422	22199
560.483	22529
560.545	21002
560.606	20964
560.667	20479
560.729	21102
560.790	19537
560.852	19653
560.913	20512
560.974	19568
561.036	20234
561.097	19733
561.158	21313
561.220	20984
561.281	20804
561.342	20327
561.403	22728
561.465	24531
561.526	43526
561.587	51616
561.648	23428
561.709	20323
561.771	20503
561.832	20464
561.893	18942
561.954	19397
562.015	19433
562.076	19708
562.137	20042
562.198	20202
562.259	19393
562.320	18539
562.381	20674
562.442	25597
562.503	21838
562.564	19866
562.625	19352
562.686	18828
562.747	19937
562.808	20365
562.869	20820
562.930	28232
562.991	27918
563.051	24289
563.112	22908
563.173	21798
563.234	19904
563.294	20318
563.355	20290
563.416	20422
563.477	20188
563.537	20233
563.598	22702
563.659	22447
563.720	22247
563.780	22944
563.841	22036
563.901	21610
563.962	21206
564.023	21802
564.083	21382
564.144	22919
564.204	21575
564.265	22429
564.325	26362
564.386	49837
564.446	45389
564.507	22038
564.567	20038
564.628	20166
564.688	20005
564.749	22074
564.809	24853
564.869	28493
564.930	20873
564.990	19439
565.050	18751
565.111	18160
565.171	18562
565.231	18695
565.292	18991
565.352	17762
565.412	19563
565.472	19231
565.532	19636
565.593	17919
565.653	17974
565.713	17212
565.773	19595
565.833	20876
565.893	24074
565.953	20733
566.013	18602
566.074	22256
566.134	28478
566.194	45792
566.254	43388
566.314	28948
566.374	20909
566.434	20619
566.494	20572
566.554	19246
566.614	19192
566.673	18574
566.733	20659
566.793	21192
566.853	21997
566.913	20590
566.973	21734
567.033	22790
567.092	22289
567.152	21964
567.212	21529
567.272	21788
567.331	25277
567.391	21850
567.451	24300
567.511	33822
567.570	33527
567.630	20788
567.690	19776
567.749	20595
567.809	19673
567.868	21423
567.928	22784
567.988	25022
568.047	22916
568.107	23218
568.166	26274
568.226	35229
568.285	45377
568.345	36379
568.404	28648
568.464	27170
568.523	25210
568.582	26537
568.642	28412
568.701	33147
568.761	43631
568.820	67611
568.879	62994
568.939	50392
568.998	36243
569.057	26556
569.116	24046
569.176	22097
569.235	19052
569.294	18977
569.353	19168
569.413	19414
569.472	21061
569.531	18925
569.590	18366
569.649	17505
569.708	17048
569.767	18831
569.827	20520
569.886	18693
569.945	16627
570.004	17187
570.063	17625
570.122	18387
570.181	20156
570.240	23391
570.299	22809
570.358	21906
570.417	17389
570.475	16792
570.534	18571
570.593	17515
570.652	17882
570.711	19016
570.770	17449
570.829	20225
570.887	17959
570.946	18062
571.005	16346
571.064	17043
571.122	19370
571.181	21439
571.240	18343
571.299	16709
571.357	19713
571.416	20262
571.475	22528
571.533	24296
571.592	18425
571.650	20700
571.709	17271
571.768	17003
571.826	16792
571.885	15996
571.943	15573
572.002	17371
572.060	17779
572.119	15921
572.177	15800
572.236	14347
572.294	14166
572.352	14828
572.411	14395
572.469	14581
572.528	14885
572.586	15129
572.644	17313
572.703	20133
572.761	17246
572.819	16533
572.877	15494
572.936	14542
572.994	13644
573.052	14566
573.110	15881
573.169	14407
573.227	14291
573.285	14213
573.343	14248
573.401	14414
573.459	14482
573.517	13586
573.576	14448
573.634	14380
573.692	15215
573.750	14699
573.808	15056
573.866	16526
573.924	23265
573.982	21732
574.040	16360
574.098	14746
574.155	14318
574.213	13878
574.271	13958
574.329	14356
574.387	12064
574.445	13683
574.503	13242
574.560	11876
574.618	12764
574.676	11669
574.734	12898
574.792	13350
574.849	12691
574.907	11652
574.965	11610
575.022	12255
575.080	11199
575.138	13019
575.195	13693
575.253	14162
575.311	14557
575.368	11995
575.426	12723
575.483	12748
575.541	12895
575.598	12904
575.656	14275
575.713	13023
575.771	12833
575.828	13268
575.886	14198
575.943	16261
576.001	15219
576.058	14666
576.115	16071
576.173	20036
576.230	23603
576.287	21976
576.345	18434
576.402	15929
576.459	16975
576.517	17079
576.574	19887
576.631	21068
576.688	18106
576.746	16235
576.803	16439
576.860	15589
576.917	14790
576.974	15354
577.031	14522
577.089	14953
577.146	16480
577.203	16116
577.260	15780
577.317	17830
577.374	22243
577.431	19135
577.488	16556
577.545	14979
577.602	14775
577.659	14436
577.716	13672
577.773	13597
577.830	14027
577.886	15181
577.943	14760
578.000	13422
578.057	14988
578.114	15101
578.171	13420
578.227	13707
578.284	13236
578.341	15327
578.398	14601
578.454	15738
578.511	19092
578.568	22840
578.625	18570
578.681	14649
578.738	12387
578.794	14594
578.851	13745
578.908	13106
578.964	14340
579.021	15032
579.077	13466
579.134	13467
579.190	12588
579.247	13565
579.303	13162
579.360	12025
579.416	12363
579.473	11855
579.529	11898
579.586	12311
579.642	12005
579.698	13920
579.755	14494
579.811	13089
579.867	13279
579.924	12147
579.980	12970
580.036	13606
580.093	12411
580.149	13227
580.205	14071
580.261	14189
580.317	15461
580.374	16797
580.430	20271
580.486	18243
580.542	15204
580.598	13867
580.619	14047
580.654	14351
580.692	14038
580.710	13868
580.765	13649
580.767	13630
580.823	14286
580.838	14226
580.879	14028
580.911	14383
580.935	14632
580.984	13750
580.991	13625
581.047	14532
581.057	14605
581.103	14786
581.130	15446
581.159	16117
581.203	16618
581.215	16731
581.270	17135
581.276	17053
581.326	16100
581.349	16215
581.382	16354
581.422	16746
581.438	16872
581.494	18101
581.494	18111
581.550	17019
581.567	17407
581.606	18201
581.640	18106
581.661	17997
581.713	18668
581.717	18723
581.773	18173
581.786	18247
581.829	18187
581.859	18475
581.885	18792
581.932	19282
581.940	19338
581.996	18685
582.004	18827
582.052	19374
582.077	18542
582.107	17659
582.150	18987
582.163	19342
582.219	20036
582.223	20023
582.274	19992
582.296	20355
582.330	20541
582.368	20694
582.386	20731
582.441	20007
582.441	19991
582.497	20206
582.514	20039
582.552	19769
582.587	19190
582.608	18768
582.659	20110
582.663	20206
582.719	20323
582.732	20398
582.774	20802
582.805	21352
582.830	21562
582.877	21053
582.885	20993
582.941	20750
582.950	20825
582.996	21035
583.023	21855
583.052	23039
583.095	22778
583.107	22643
583.162	23192
583.168	23233
583.218	23427
583.240	23447
583.273	23122
583.313	21963
583.328	21861
583.384	22883
583.385	22944
583.439	23721
583.458	23962
583.494	24427
583.531	23861
583.549	23800
583.603	24641
583.605	24659
583.660	24406
583.676	24215
583.715	24232
583.748	25975
583.770	27183
583.820	27511
583.825	27466
583.881	26603
583.893	26587
583.936	26903
583.965	27014
583.991	27238
584.038	27344
584.046	27400
584.101	28346
584.110	28358
584.156	27885
584.183	27838
584.211	27911
584.255	27690
584.266	27626
584.321	26897
584.328	26857
584.376	27846
584.400	28324
584.431	28507
584.472	28284
584.486	28223
584.541	28648
584.545	28569
584.596	28550
584.617	29271
584.651	31249
584.689	32510
584.706	32588
584.761	33319
584.762	33276
584.816	33564
584.834	33676
584.871	34185
584.906	34545
584.926	34650
584.978	34614
584.980	34701
585.035	36255
585.051	36691
585.090	38126
585.123	39358
585.145	39868
585.195	38980
585.200	38969
585.254	39603
585.267	39670
585.309	40547
585.340	40984
585.364	41464
585.412	42876
585.419	43039
585.473	43134
585.484	43047
585.528	45913
585.556	49261
585.583	53472
585.628	60459
585.637	63408
585.692	89532
585.700	93810
585.747	107220
585.772	97300
585.801	75122
585.845	50742
585.856	48184
585.910	44833
585.917	44296
585.965	44798
585.989	45139
586.019	45373
586.061	45940
586.074	46461
586.128	47615
586.133	47713
586.183	52485
586.205	54238
586.237	55931
586.277	57288
586.292	57328
586.346	57255
586.349	57090
586.401	56659
586.421	56811
586.455	62091
586.493	68560
586.509	78638
586.564	113094
586.565	113820
586.618	175408
586.637	189388
586.672	141779
586.709	86428
586.727	76252
586.781	58096
586.781	58235
586.835	56013
586.853	55230
586.889	55135
586.925	54686
586.944	55136
586.996	56638
586.998	56846
587.052	58427
587.068	58821
587.106	58863
587.140	58108
587.161	58723
587.212	60145
587.215	60463
587.269	64200
587.284	64824
587.323	64327
587.356	63551
587.377	63669
587.427	63964
587.431	64278
587.485	64956
587.499	65224
587.539	66523
587.571	67202
587.593	68557
587.643	70819
587.648	71211
587.702	73520
587.715	73810
587.755	75858
587.786	77022
587.810	76094
587.858	72653
587.864	73246
587.917	78783
587.930	79716
587.971	86619
588.001	91378
588.025	90560
588.073	86710
588.079	86768
588.133	86272
588.145	85938
588.187	89363
588.217	91837
588.241	95369
588.288	101455
588.295	102410
588.348	108638
588.360	109923
588.402	119170
588.431	125518
588.456	131451
588.503	142515
588.510	144923
588.564	163134
588.575	166983
588.617	187850
588.646	202325
588.671	223556
588.718	267328
588.725	280788
588.778	391634
588.789	416728
588.832	612172
588.861	756421
588.886	904402
588.932	1185617
588.939	1193442
588.993	1152599
589.004	1140778
589.047	959199
589.075	803707
589.100	654844
589.147	398447
589.154	384350
589.207	292962
589.218	275742
589.261	260593
589.290	252754
589.314	263458
589.361	288455
589.368	301726
589.421	415788
589.433	442555
589.475	668912
589.504	839565
589.528	944863
589.576	1109973
589.582	1088459
589.635	821929
589.647	756074
589.689	493359
589.718	322022
589.742	280078
589.790	209924
589.795	210879
589.849	220237
589.861	222848
589.902	240047
589.932	249055
589.955	214082
590.004	136368
590.009	135216
590.062	121768
590.075	118110
590.115	114577
590.146	111061
590.168	110988
590.218	109936
590.222	110564
590.275	113339
590.289	113730
590.328	114312
590.360	113705
590.381	111829
590.431	105872
590.435	106332
590.488	107483
590.503	107426
590.541	108356
590.574	108251
590.594	108125
590.645	106310
590.647	106682
590.700	105198
590.716	104281
590.753	103394
590.787	101779
590.806	101816
590.859	100692
590.859	101089
590.912	99859
590.930	99141
590.965	100567
591.001	101116
591.018	101386
591.071	100939
591.072	100513
591.124	102600
591.143	102810
591.177	104235
591.214	104904
591.230	105998
591.283	108068
591.285	107694
591.336	112155
591.356	113332
591.389	112003
591.427	109013
591.442	108790
591.495	106595
591.498	105964
591.547	105844
591.569	105221
591.600	105701
591.640	105108
591.653	106624
591.706	111278
591.711	111307
591.759	125242
591.782	131501
591.811	139923
591.853	150755
591.864	145986
591.917	118315
591.924	113798
591.969	113253
591.995	112150
592.022	116385
592.066	122107
592.075	126849
592.127	152615
592.137	156729
592.180	178469
592.208	191227
592.233	170071
592.279	127488
592.285	126901
592.338	117318
592.350	114620
592.390	113472
592.421	111725
592.443	112978
592.491	114054
592.495	114780
592.548	117586
592.562	117826
592.600	117593
592.633	116389
592.653	116218
592.704	113757
592.705	114444
592.775	115776
592.846	115803
592.916	116083
592.987	119798
593.058	120480
593.128	115245
593.199	113065
593.270	110781
593.341	109627
593.411	111021
593.482	108655
593.553	110234
593.623	109064
593.694	115036
593.764	133033
593.835	114494
593.906	109735
593.976	113298
594.047	124973
594.117	158676
594.188	159301
594.258	107177
594.329	104584
594.399	108203
594.470	103072
594.540	102079
594.611	103372
594.681	102715
594.751	110128
594.822	112112
594.892	117359
594.963	126045
595.033	122291
595.103	123524
595.174	142394
595.244	221158
595.314	275034
595.384	128329
595.455	120610
595.525	123392
595.595	121858
595.665	123266
595.736	122118
595.806	119499
595.876	118687
595.946	116809
596.016	110212
596.087	118854
596.157	117710
596.227	117172
596.297	123826
596.367	126851
596.437	143977
596.507	208522
596.577	260918
596.647	133662
596.717	115860
596.787	115660
596.857	115007
596.927	116102
596.997	115539
597.067	112985
597.137	118510
597.207	115091
597.277	117681
597.347	121824
597.417	115386
597.487	114642
597.557	120816
597.626	121914
597.696	139250
597.766	183771
597.836	250867
597.906	142784
597.975	118530
598.045	113953
598.115	114040
598.185	113278
598.254	116857
598.324	116315
598.394	112778
598.464	116173
598.533	112684
598.603	106075
598.672	112919
598.742	111637
598.812	109985
598.881	110439
598.951	107694
599.020	104158
599.090	100555
599.159	105723
599.229	101415
599.299	98870
599.368	104630
599.437	99483
599.507	106528
599.576	112827
599.646	105443
599.715	106361
599.785	111919
599.854	127448
599.924	147107
599.993	129375
600.062	112366
600.132	109746
600.201	112987
600.270	114108
600.340	106423
600.409	104557
600.478	106988
600.547	105838
600.617	113063
600.686	110862
600.755	106426
600.824	108312
600.894	109652
600.963	101647
601.032	100165
601.101	103572
601.170	101547
601.239	106102
601.308	107781
601.378	102412
601.447	101879
601.516	95651
601.585	97689
601.654	102922
601.723	101285
601.792	101395
601.861	100126
601.930	101089
601.999	100047
602.068	92184
602.137	99973
602.206	96187
602.275	95449
602.343	105880
602.412	101525
602.481	94668
602.550	93574
602.619	91981
602.688	96761
602.756	97226
602.825	91704
602.894	93312
602.963	97294
603.032	98385
603.100	91786
603.169	93478
603.238	96301
603.307	91879
603.375	86789
603.444	92467
603.513	92165
603.581	88779
603.650	88489
603.719	90163
603.787	90876
603.856	93110
603.924	91961
603.993	93698
604.061	87923
604.130	91261
604.198	88894
604.267	91273
604.335	88850
604.404	87660
604.472	86069
604.541	90206
604.609	87229
604.678	86127
604.746	84857
604.815	87318
604.883	90478
604.951	88893
605.020	84185
605.088	92555
605.156	95631
605.225	90503
605.293	88222
605.361	93252
605.429	88605
605.498	88405
605.566	89720
605.634	90363
605.702	94559
605.771	93321
605.839	93672
605.907	92803
605.975	89731
606.043	91461
606.111	89512
606.180	90817
606.248	89970
606.316	95308
606.384	103608
606.452	134529
606.520	113678
606.588	92674
606.656	86153
606.724	90499
606.792	85522
606.860	83594
606.928	79305
606.996	82474
607.064	78315
607.132	80755
607.200	83357
607.267	84824
607.335	79764
607.403	80249
607.471	85647
607.539	82414
607.607	79584
607.674	79111
607.742	85130
607.810	83909
607.878	78410
607.946	77542
608.013	81879
608.081	85651
608.149	79849
608.216	80052
608.284	82617
608.352	82248
608.419	100845
608.487	160951
608.555	102662
608.622	76859
608.690	76500
608.757	80122
608.825	81424
608.893	83929
608.960	99116
609.028	126735
609.095	169010
609.163	94289
609.230	91033
609.298	83926
609.365	71860
609.432	72781
609.500	78737
609.567	81162
609.635	83162
609.702	84746
609.769	89433
609.837	107480
609.904	85556
609.971	71973
610.039	75613
610.106	87849
610.173	121630
610.241	202609
610.308	125614
610.375	84502
610.442	77107
610.509	71616
610.577	71682
610.644	75192
610.711	73555
610.778	74017
610.845	73740
610.912	77937
610.980	76924
611.047	79897
611.114	82180
611.181	76806
611.248	73272
611.315	77605
611.382	75373
611.449	74555
611.516	76534
611.583	78110
611.650	78612
611.717	78667
611.784	79926
611.851	81533
611.918	90287
611.984	93491
612.051	122901
612.118	198478
612.185	400656
612.252	228626
612.319	89975
612.386	83151
612.452	85530
612.519	108504
612.586	179872
612.653	109245
612.719	76868
612.786	75590
612.853	74128
612.919	71878
612.986	71812
613.053	70578
613.120	68548
613.186	67676
613.253	70091
613.319	69692
613.386	69167
613.453	71026
613.519	79033
613.586	86510
613.652	103416
613.719	90550
613.785	83464
613.852	71964
613.918	68321
613.985	66402
614.051	64152
614.118	71890
614.184	67513
614.250	64709
614.317	63498
614.383	65809
614.449	65281
614.516	69153
614.582	77745
614.648	69927
614.715	64212
614.781	69297
614.847	81904
614.914	86992
614.980	82390
615.046	71564
615.112	68357
615.179	68398
615.245	70081
615.311	75379
615.377	79214
615.443	80477
615.509	78269
615.575	80274
615.642	77124
615.708	84850
615.774	90511
615.840	108827
615.906	121029
615.972	126690
616.038	167645
616.104	273883
616.170	554740
616.236	415655
616.302	143910
616.368	126667
616.434	112726
616.500	113485
616.565	116178
616.631	121393
616.697	111084
616.763	114053
616.829	134863
616.895	177217
616.961	161491
617.026	115365
617.092	102064
617.158	102968
617.224	99292
617.289	103398
617.355	110632
617.421	123242
617.487	116323
617.552	107017
617.618	102117
617.684	103365
617.749	103610
617.815	97564
617.880	95976
617.946	98080
618.012	97702
618.077	95490
618.143	96004
618.208	97996
618.274	102497
618.339	110800
618.405	105479
618.470	108629
618.536	117172
618.601	142042
618.667	132728
618.732	118503
618.798	113783
618.863	114009
618.928	115146
618.994	124488
619.059	125866
619.124	143025
619.190	124362
619.255	119632
619.320	121982
619.386	118503
619.451	112955
619.516	112701
619.581	116233
619.647	115693
619.712	116478
619.777	115281
619.842	116214
619.907	119085
619.972	117373
620.038	117960
620.103	114478
620.168	111808
620.233	109870
620.298	110950
620.363	108774
620.428	109774
620.493	112390
620.558	108130
620.623	106617
620.688	107275
620.753	105014
620.818	107656
620.883	109058
620.948	108496
621.013	110843
621.078	116399
621.143	122172
621.207	123137
621.272	125564
621.337	133462
621.402	157125
621.467	223415
621.532	219314
621.596	164462
621.661	147899
621.726	136855
621.791	137567
621.855	140581
621.920	150959
621.985	171741
622.049	192934
622.114	182952
622.179	155643
622.243	175282
622.308	162790
622.373	162527
622.437	160464
622.502	152406
622.566	155833
622.631	161903
622.695	152518
622.760	156739
622.824	147519
622.889	150728
622.953	155179
623.018	175802
623.082	167371
623.147	148516
623.211	138778
623.276	145585
623.340	139129
623.404	136481
623.469	138408
623.533	138058
623.597	136721
623.662	135117
623.726	136099
623.790	133069
623.854	139917
623.919	138897
623.983	135901
624.047	139194
624.111	132127
624.176	135971
624.240	146813
624.304	150433
624.368	135493
624.432	136352
624.496	137240
624.560	131462
624.625	139929
624.689	129197
624.753	125508
624.817	127920
624.881	125684
624.945	123340
625.009	125527
625.073	122946
625.137	134830
625.201	138163
625.265	134527
625.329	123661
625.393	130443
625.456	127282
625.520	133919
625.584	146909
625.648	181528
625.712	297465
625.776	681429
625.839	700636
625.903	257582
625.967	171056
626.031	289754
626.095	426798
626.158	153577
626.222	115164
626.286	109180
626.349	113221
626.413	109508
626.477	118213
626.540	107501
626.604	113395
626.668	108780
626.731	109618
626.795	127437
626.858	122972
626.922	113897
626.986	108323
627.049	106547
627.113	107431
627.176	102217
627.240	105371
627.303	107068
627.366	107816
627.430	104597
627.493	112013
627.557	119950
627.620	112215
627.684	110877
627.747	110585
627.810	109227
627.874	106298
627.937	104981
628.000	110556
628.064	109986
628.127	99582
628.190	104345
628.253	107023
628.317	101194
628.380	101755
628.443	102264
628.506	104115
628.569	98227
628.632	97835
628.696	95052
628.759	98294
628.822	93909
628.885	93054
628.948	93083
629.011	96533
629.074	95017
629.137	90698
629.200	97629
629.263	103956
629.326	90359
629.389	91060
629.452	97267
629.515	101120
629.578	94528
629.641	100920
629.704	96859
629.767	94057
629.830	87542
629.892	88252
629.955	87823
630.018	91936
630.081	89376
630.144	96058
630.207	91003
630.269	99979
630.332	117500
630.395	94673
630.458	82406
630.520	88340
630.583	81863
630.646	80696
630.708	80018
630.771	84702
630.834	80544
630.896	78584
630.959	77111
631.021	81122
631.084	86358
631.146	96198
631.209	111215
631.272	81150
631.334	76283
631.397	76129
631.459	71971
631.522	73098
631.584	77906
631.646	78292
631.709	78673
631.771	95857
631.834	81110
631.896	74487
631.958	65657
632.021	72151
632.083	73767
632.145	80366
632.208	73189
632.270	74005
632.332	71292
632.395	73211
632.457	77429
632.519	75046
632.581	70144
632.643	69701
632.706	72246
632.768	71363
632.830	69782
632.892	67362
632.954	73594
633.016	75244
633.078	67370
633.141	65598
633.203	69831
633.265	71673
633.327	66717
633.389	66170
633.451	75539
633.513	83618
633.575	92497
633.637	77423
633.698	70401
633.760	68277
633.822	64029
633.884	65261
633.946	65688
634.008	66895
634.070	61117
634.132	63414
634.193	66836
634.255	63507
634.317	62646
634.379	63471
634.441	64991
634.502	63793
634.564	59436
634.626	59846
634.687	59672
634.749	64146
634.811	61323
634.873	56758
634.934	59014
634.996	63945
635.057	60374
635.119	60699
635.181	62907
635.242	61515
635.304	56106
635.365	61773
635.427	61701
635.488	59031
635.550	58950
635.611	60029
635.673	60723
635.734	68026
635.796	63393
635.857	63654
635.918	59562
635.980	63570
636.041	62190
636.102	62453
636.164	58088
636.225	58345
636.286	61717
636.348	61319
636.409	56025
636.470	55546
636.531	62485
636.593	79372
636.654	69578
636.715	53343
636.776	52345
636.838	51584
636.899	58256
636.960	56487
637.021	51175
637.082	55125
637.143	56209
637.204	51498
637.265	51721
637.326	50846
637.387	50985
637.448	49566
637.509	51151
637.570	52824
637.631	50277
637.692	49868
637.753	46657
637.814	50872
637.875	47859
637.936	50422
637.997	49161
638.058	51841
638.119	57388
638.179	49803
638.240	51848
638.301	50405
638.362	51758
638.423	55956
638.483	53069
638.544	49130
638.605	49835
638.666	48558
638.726	51562
638.787	49910
638.848	48182
638.908	48982
638.969	48760
639.030	51628
639.090	44800
639.151	47338
639.211	48424
639.272	55318
639.332	69266
639.393	50771
639.453	46891
639.514	49583
639.574	46284
639.635	44404
639.695	47230
639.756	45323
639.816	45063
639.877	46921
639.937	60826
639.997	65532
640.058	45197
640.118	43668
640.178	42861
640.239	41609
640.299	43459
640.359	42309
640.420	42273
640.480	43143
640.540	41837
640.600	42051
640.661	45121
640.721	44016
640.781	46808
640.841	40168
640.901	43918
640.961	43956
641.021	44890
641.082	43164
641.142	50930
641.202	44302
641.262	41320
641.322	43010
641.382	41235
641.442	44007
641.502	43914
641.562	44437
641.622	42050
641.682	42149
641.742	42053
641.802	44423
641.861	47699
641.921	46675
641.981	47339
642.041	48636
642.101	51294
642.161	42084
642.221	42891
642.280	41441
642.340	40139
642.400	41519
642.460	41029
642.519	43271
642.579	41035
642.639	45083
642.698	39870
642.758	43042
642.818	40907
642.877	42705
642.937	42934
642.997	45166
643.056	51875
643.116	40780
643.175	41777
643.235	39325
643.294	40637
643.354	41506
643.414	40536
643.473	42072
643.532	41620
643.592	43600
643.651	50406
643.711	63995
643.770	96811
643.830	187447
643.889	325923
643.948	85371
644.008	44160
644.067	39796
644.126	37349
644.186	38206
644.245	36371
644.304	34022
644.363	38381
644.423	34591
644.482	38396
644.541	37351
644.600	35128
644.659	39776
644.719	41928
644.778	48050
644.837	48573
644.896	64453
644.955	92343
645.014	49296
645.073	39306
645.132	41840
645.191	39503
645.250	35431
645.309	39998
645.368	38494
645.427	38425
645.486	40241
645.545	45626
645.604	35388
645.663	36508
645.722	36443
645.781	35927
645.840	37355
645.898	36902
645.957	41577
646.016	42636
646.075	55869
646.134	80632
646.192	178630
646.251	216886
646.310	50892
646.369	35868
646.427	34432
646.486	33800
646.545	34854
646.603	34539
646.662	34982
646.721	34023
646.779	30080
646.838	32887
646.896	34222
646.955	33228
647.014	39678
647.072	43146
647.131	65512
647.189	41044
647.248	32649
647.306	31328
647.365	33336
647.423	29928
647.481	33909
647.540	29426
647.598	32673
647.657	29717
647.715	31839
647.773	32063
647.832	34129
647.890	34260
647.948	34541
648.007	35260
648.065	32794
648.123	33022
648.181	35012
648.240	32999
648.298	31826
648.356	34695
648.414	37077
648.472	36351
648.531	35514
648.589	34381
648.647	33853
648.705	34236
648.763	36172
648.821	34257
648.879	32784
648.937	34487
648.995	35220
649.053	34069
649.111	38579
649.169	43318
649.227	51439
649.285	71416
649.343	144217
649.401	80232
649.459	66215
649.516	45884
649.574	34691
649.632	37814
649.690	39135
649.748	42270
649.806	37110
649.863	39643
649.921	54093
649.979	40857
650.037	32006
650.094	30531
650.152	32447
650.210	29254
650.268	31526
650.325	30616
650.383	28963
650.440	30667
650.498	31749
650.556	31366
650.613	28526
650.671	29760
650.728	33652
650.786	36478
650.843	30578
650.901	28622
650.958	28686
651.016	28796
651.073	30569
651.131	29003
651.188	31070
651.246	32476
651.303	30004
651.360	29681
651.418	30563
651.475	31021
651.532	25924
651.590	28242
651.647	29498
651.704	30954
651.762	30364
651.819	29182
651.876	29788
651.933	29542
651.990	29157
652.048	27503
652.105	28765
652.162	29451
652.219	27285
652.276	27715
652.333	27208
652.390	25218
652.448	27419
652.505	27620
652.562	26916
652.619	25892
652.676	28206
652.733	26362
652.790	24522
652.847	22770
652.904	25844
652.961	25035
653.017	25849
653.074	25447
653.131	26237
653.188	25369
653.245	25878
653.302	24730
653.359	24544
653.415	25173
653.472	25939
653.529	26273
653.586	25510
653.642	24816
653.699	23933
653.756	24665
653.813	24375
653.869	24560
653.926	23445
653.983	24827
654.039	22921
654.096	25905
654.152	28175
654.209	25488
654.266	29388
654.322	28520
654.379	33701
654.435	34779
654.492	37078
654.548	49536
654.605	70020
654.661	34836
654.717	30078
654.774	31764
654.830	30539
654.887	29358
654.943	31831
655.000	30414
655.056	30210
655.112	32440
655.168	30499
655.225	32599
655.281	38292
655.337	53347
655.394	90981
655.450	58608
655.506	53344
655.562	94606
655.618	61260
655.675	29620
655.731	29821
655.787	28666
655.843	29174
655.899	25827
655.955	27063
656.011	29379
656.067	25563
656.123	27803
656.179	30764
656.235	29385
656.291	25635
656.347	31384
656.403	32384
656.459	32802
656.515	38375
656.571	37285
656.627	31781
656.683	30385
656.739	29438
656.795	26754
656.850	29585
656.906	32567
656.962	28988
657.018	24767
657.074	28695
657.129	29649
657.185	29294
657.241	31132
657.297	29171
657.352	27647
657.408	26496
657.464	32971
657.519	30093
657.575	25577
657.630	28674
657.686	26828
657.742	27842
657.797	28750
657.853	29650
657.908	30997
657.964	26450
658.019	27758
658.075	30321
658.130	28052
658.186	24743
658.241	25683
658.297	26771
658.352	28318
658.407	27104
658.463	25836
658.518	27429
658.573	27252
658.629	25071
658.684	25683
658.739	25573
658.795	23350
658.850	25274
658.905	27590
658.960	25532
659.016	24721
659.071	25133
659.126	25550
659.181	27213
659.236	33485
659.291	33877
659.346	29965
659.401	31860
659.457	26567
659.512	26336
659.567	27876
659.622	27586
659.677	27736
659.732	28070
659.787	29113
659.842	38322
659.897	47721
659.952	29746
660.007	26530
660.061	28090
660.116	27814
660.171	26173
660.226	25730
660.281	25998
660.336	25563
660.391	26321
660.445	26385
660.500	27276
660.555	27169
660.610	27824
660.664	25951
660.719	25812
660.774	27083
660.828	26104
660.883	26989
660.938	27789
660.992	27116
661.047	27303
661.101	26374
661.156	25998
661.211	25525
661.265	27142
661.320	26373
661.374	26818
661.429	25929
661.483	27707
661.538	28519
661.592	28168
661.647	27110
661.701	27024
661.755	27407
661.810	29558
661.864	27620
661.919	26970
661.973	29714
662.027	27594
662.081	26612
662.136	28203
662.190	30611
662.244	32035
662.299	28640
662.353	27737
662.407	27315
662.461	30531
662.515	30284
662.569	32288
662.624	31992
662.678	30755
662.732	29448
662.786	29688
662.840	31982
662.894	32132
662.948	27266
663.002	25989
663.056	26405
663.110	27254
663.164	27625
663.218	26985
663.272	27581
663.326	29032
663.380	30072
663.434	30766
663.488	30982
663.542	30951
663.595	30915
663.649	30030
663.703	28416
663.757	30038
663.811	28268
663.864	28834
663.918	28739
663.972	29085
664.026	28318
664.079	27017
664.133	30229
664.187	27062
664.240	26244
664.294	27027
664.348	28849
664.401	28363
664.455	25216
664.508	28696
664.562	28624
664.615	28326
664.669	26771
664.722	27602
664.776	28732
664.829	29547
664.883	29418
664.936	31574
664.990	32479
665.043	33989
665.097	39780
665.150	39352
665.203	35123
665.257	34041
665.310	32225
665.363	33793
665.417	33732
665.470	34109
665.523	33432
665.576	32702
665.630	32054
665.683	32094
665.736	34250
665.789	34505
665.842	31580
665.895	33499
665.949	30435
666.002	30737
666.055	32443
666.108	33131
666.161	32447
666.214	34144
666.267	32595
666.320	34918
666.373	32843
666.426	34588
666.479	32410
666.532	38473
666.585	43570
666.638	45249
666.691	39474
666.744	43883
666.796	43380
666.849	38215
666.902	32813
666.955	30740
667.008	31187
667.060	28774
667.113	28015
667.166	28402
667.219	29967
667.271	30837
667.324	30063
667.377	30620
667.430	29247
667.482	31178
667.535	29712
667.587	32356
667.640	33149
667.693	38665
667.745	39571
667.798	40902
667.850	34282
667.903	32982
667.955	33420
668.008	34274
668.060	41665
668.113	40943
668.165	40857
668.218	38750
668.270	36864
668.322	36998
668.375	35406
668.427	36431
668.479	33760
668.532	36810
668.584	37273
668.636	34118
668.689	36281
668.741	35782
668.793	33992
668.845	35216
668.898	35468
668.950	33510
669.002	35528
669.054	35850
669.106	36553
669.158	37867
669.211	34440
669.263	34718
669.315	36880
669.367	34636
669.419	36430
669.471	36186
669.523	32757
669.575	36282
669.627	35377
669.679	32539
669.731	33397
669.783	33831
669.835	32502
669.886	32816
669.938	32915
669.990	33022
670.042	30435
670.094	31889
670.146	30663
670.197	32323
670.249	32746
670.301	32160
670.353	32459
670.404	32992
670.456	33310
670.508	33843
670.560	37687
670.611	40947
670.663	47062
670.715	75831
670.766	90682
670.818	41143
670.869	31444
670.921	30835
670.972	32518
671.024	31176
671.075	31635
671.127	32981
671.178	30328
671.230	32121
671.281	30696
671.333	33527
671.384	37672
671.436	39202
671.487	39961
671.538	39773
671.590	41543
671.641	46587
671.692	47714
671.744	57932
671.795	48684
671.846	39129
671.897	40506
671.949	41622
672.000	35690
672.051	37090
672.102	37654
672.153	36177
672.204	35905
672.256	37846
672.307	36947
672.358	39771
672.409	39958
672.460	35650
672.511	34702
672.562	37681
672.613	35071
672.664	35120
672.715	36178
672.766	36549
672.817	35530
672.868	33928
672.919	34246
672.970	34828
673.021	35879
673.071	33495
673.122	33520
673.173	34455
673.224	33749
673.275	33470
673.326	32610
673.376	32723
673.427	33229
673.478	32989
673.528	32231
673.579	31982
673.630	32304
673.680	35334
673.731	30920
673.782	30903
673.832	35254
673.883	36387
673.934	34071
673.984	32177
674.035	33056
674.085	32377
674.136	36674
674.186	39344
674.237	47041
674.287	63973
674.338	37643
674.388	34571
674.438	33764
674.489	34027
674.539	34826
674.589	36114
674.640	36185
674.690	34966
674.740	38472
674.791	39018
674.841	37311
674.891	36704
674.942	32975
674.992	31594
675.042	30451
675.092	30680
675.142	31712
675.193	31547
675.243	30082
675.293	33581
675.343	35801
675.393	35646
675.443	33258
675.493	29565
675.543	31948
675.593	34813
675.643	30890
675.693	31545
675.743	31889
675.793	30281
675.843	31103
675.893	31750
675.943	29440
675.993	30343
676.043	32052
676.093	30064
676.142	30512
676.192	32328
676.242	29681
676.292	29359
676.341	34377
676.391	32932
676.441	27449
676.491	29539
676.540	27562
676.590	27265
676.640	30141
676.689	29270
676.739	27570
676.789	25610
676.838	28017
676.888	27890
676.937	27729
676.987	27716
677.037	26644
677.086	25903
677.136	27935
677.185	27303
677.235	24374
677.284	25959
677.333	27282
677.383	26374
677.432	25254
677.482	25668
677.531	27689
677.580	27853
677.630	24559
677.679	23991
677.728	28131
677.778	25247
677.827	24088
677.876	25066
677.925	23870
677.975	26923
678.024	26676
678.073	26942
678.122	30969
678.171	30923
678.220	28594
678.269	33244
678.319	30942
678.368	28619
678.417	30058
678.466	31039
678.515	32514
678.564	32919
678.613	28144
678.662	29640
678.711	30634
678.760	28857
678.809	29269
678.857	29977
678.906	28982
678.955	29994
679.004	28752
679.053	30080
679.102	28479
679.151	30927
679.199	27395
679.248	26450
679.297	30795
679.346	30354
679.394	27802
679.443	27076
679.492	26671
679.540	28394
679.589	30666
679.638	26970
679.686	24184
679.735	26181
679.784	28830
679.832	28382
679.881	25142
679.929	25692
679.978	22830
680.026	26518
680.075	26614
680.123	26265
680.172	24414
680.220	23122
680.268	25844
680.317	24676
680.365	25187
680.414	25148
680.462	25117
680.510	26684
680.559	22562
680.607	24005
680.655	24995
680.703	25700
680.752	24453
680.800	22022
680.848	24223
680.896	21851
680.945	23840
680.993	24793
681.041	24099
681.089	22473
681.137	21257
681.185	22742
681.233	23825
681.258	23724
681.281	23594
681.329	23908
681.377	23106
681.380	23248
681.425	25220
681.473	27945
681.502	26633
681.521	25647
681.569	26023
681.617	24621
681.624	24762
681.665	25399
681.713	24325
681.745	24371
681.761	24329
681.809	24198
681.857	23465
681.867	23555
681.904	23746
681.952	24307
681.989	24811
682.000	24914
682.048	25601
682.096	23420
682.111	23470
682.143	23439
682.191	22686
682.233	25534
682.239	25924
682.286	24187
682.334	23928
682.354	23950
682.382	23903
682.430	25844
682.476	23385
682.477	23298
682.525	22734
682.572	23462
682.598	22992
682.620	22569
682.667	22943
682.715	25730
682.720	25667
682.763	24710
682.810	23433
682.841	23147
682.857	22941
682.905	22656
682.952	24201
682.963	24333
683.000	24653
683.047	24350
683.085	24474
683.095	24465
683.142	23077
683.190	23114
683.206	23068
683.237	22932
683.284	23165
683.328	23617
683.332	23630
683.379	23196
683.426	22922
683.449	22847
683.473	22668
683.521	23238
683.568	23725
683.571	23625
683.615	21983
683.662	23111
683.693	23403
683.709	23484
683.757	22442
683.804	23115
683.814	23214
683.851	23541
683.898	22011
683.936	22764
683.945	22909
683.992	23022
684.039	23948
684.057	23652
684.086	23131
684.133	23496
684.179	23990
684.180	23973
684.227	24398
684.274	23289
684.300	23249
684.321	23241
684.368	22036
684.415	25276
684.422	24997
684.462	22963
684.509	22965
684.543	22904
684.556	22936
684.603	22493
684.649	21715
684.665	22394
684.696	23778
684.743	23039
684.786	24869
684.790	25035
684.837	24957
684.883	27650
684.908	28628
684.930	29215
684.977	30564
685.023	26446
685.029	26336
685.070	24914
685.117	25730
685.150	26516
685.164	27096
685.210	29523
685.257	30022
685.272	29567
685.303	27965
685.350	27268
685.393	27627
685.396	27681
685.443	28012
685.490	29255
685.514	29757
685.536	29755
685.583	28846
685.629	27329
685.636	27175
685.675	26639
685.722	26975
685.757	28230
685.768	28644
685.815	28857
685.861	28405
685.878	28312
685.908	28327
685.954	29387
686.000	31989
686.000	32036
686.047	34101
686.093	40312
686.121	38488
686.139	35865
686.185	32187
686.232	29512
686.242	29196
686.278	29061
686.324	27604
686.363	25599
686.370	25341
686.416	26528
686.463	28504
686.484	27521
686.509	26272
686.555	26340
686.601	25960
686.606	26073
686.647	27303
686.693	26288
686.727	26961
686.739	27157
686.785	26683
686.831	27620
686.848	27134
686.877	26194
686.923	24485
686.969	24368
686.969	24368
687.015	26367
687.061	26538
687.090	27123
687.107	27262
687.153	26307
687.199	25920
687.211	25533
687.245	25051
687.291	27764
687.332	29403
687.336	29505
687.382	30616
687.428	26708
687.453	26306
687.474	25625
687.520	25162
687.565	24735
687.574	24489
687.611	24556
687.657	24816
687.695	25504
687.702	25611
687.748	27560
687.794	25960
687.816	26205
687.839	26048
687.885	24807
687.931	23871
687.937	23807
687.976	24395
688.022	25604
688.058	26279
688.067	26347
688.113	26127
688.158	25017
688.179	25280
688.204	25708
688.249	26265
688.295	27267
688.300	27325
688.340	28003
688.386	28561
688.421	27921
688.431	27579
688.477	27356
688.522	26683
688.542	26493
688.567	26506
688.613	26303
688.658	25397
688.663	25495
688.703	26600
688.749	27298
688.784	26899
688.794	26681
688.839	27089
688.884	26364
688.905	25690
688.930	24972
688.975	24812
689.020	26700
689.026	26585
689.065	26327
689.110	25962
689.146	26417
689.155	26376
689.201	24705
689.246	24259
689.267	24243
689.291	24749
689.336	25453
689.381	26806
689.388	26745
689.426	26022
689.471	25579
689.509	24511
689.516	24371
689.561	24738
689.606	25356
689.630	25625
689.651	25884
689.696	24905
689.741	25929
689.750	25922
689.785	25936
689.830	25512
689.871	24710
689.875	24626
689.920	24796
689.965	24792
689.992	24194
690.010	23951
690.054	24504
690.099	24892
690.112	24851
690.144	24752
690.189	24289
690.233	23948
690.233	23965
690.278	24075
690.323	23660
690.354	24000
690.367	24360
690.412	24668
690.457	25892
690.474	25777
690.501	24994
690.546	23718
690.590	23200
690.595	23169
690.635	23778
690.680	23599
690.716	24117
690.724	24249
690.769	24443
690.813	25004
690.836	24364
690.857	23780
690.902	24586
690.946	23874
690.957	23890
690.991	24139
691.035	24255
691.077	24455
691.080	24540
691.124	25838
691.168	27749
691.198	28226
691.213	28225
691.257	28694
691.301	28656
691.318	28327
691.346	26956
691.390	25622
691.434	24456
691.439	24295
691.478	24848
691.522	25855
691.559	25537
691.567	25439
691.611	26138
691.655	25463
691.680	25804
691.699	26047
691.743	26193
691.787	26141
691.800	26037
691.831	26614
691.875	27820
691.919	28810
691.921	28817
691.964	29747
692.008	30093
692.041	30210
692.052	30099
692.096	29608
692.139	29627
692.162	29068
692.183	28599
692.227	29229
692.271	28549
692.282	28465
692.315	28529
692.359	28482
692.402	28142
692.403	28175
692.447	27585
692.490	27878
692.523	28176
692.534	28564
692.578	28784
692.622	29246
692.643	29391
692.666	28750
692.709	27957
692.753	26832
692.763	26507
692.797	26393
692.840	26145
692.884	26310
692.884	26351
692.928	27006
692.971	27694
693.004	27846
693.015	27787
693.059	27427
693.102	26904
693.124	26668
693.146	27063
693.189	28334
693.233	29322
693.245	29575
693.276	29724
693.320	29410
693.363	28959
693.365	28936
693.407	29351
693.450	28754
693.485	28336
693.493	28398
693.537	28934
693.580	28902
693.605	29203
693.624	29007
693.667	27965
693.710	26925
693.725	26619
693.753	26973
693.797	27704
693.840	27543
693.845	27581
693.883	27186
693.926	26392
693.966	25343
693.970	25297
694.013	24499
694.056	23962
694.086	23866
694.099	24545
694.142	26762
694.185	27625
694.206	28240
694.229	28525
694.272	29162
694.315	30176
694.326	30231
694.358	29747
694.401	28937
694.444	28427
694.446	28368
694.487	28605
694.530	28658
694.566	28529
694.573	28366
694.616	26642
694.659	25083
694.686	24260
694.702	24205
694.745	23816
694.787	23335
694.806	23261
694.830	23663
694.873	24098
694.916	24233
694.926	24230
694.959	24233
695.002	24529
695.044	24539
695.046	24508
695.087	25094
695.130	25570
695.166	25981
695.172	26060
695.215	25784
695.258	26202
695.286	26181
695.301	26089
695.343	25863
695.386	25265
695.406	25050
695.428	24813
695.471	24107
695.514	23707
695.526	23568
695.556	24117
695.599	24696
695.641	25098
695.646	25104
695.684	24687
695.726	24140
695.766	23660
695.769	23749
695.811	24582
695.854	25161
695.886	25555
695.896	25420
695.938	24740
695.981	23876
696.005	23408
696.023	23684
696.065	24480
696.108	25149
696.125	25414
696.150	25707
696.192	25895
696.235	26050
696.245	26033
696.277	25276
696.319	24199
696.361	23442
696.365	23326
696.404	23733
696.446	23967
696.485	23990
696.488	24043
696.530	24451
696.572	24803
696.604	24977
696.614	24887
696.656	24070
696.698	23493
696.724	22977
696.740	22932
696.783	23005
696.825	22881
696.844	22824
696.867	23202
696.909	23710
696.951	24257
696.964	24342
696.992	23798
697.034	23055
697.076	22274
697.083	22103
697.118	22678
697.160	23397
697.202	23924
697.203	23892
697.244	23833
697.286	23781
697.323	23480
697.327	23441
697.369	22694
697.411	22014
697.442	21568
697.453	21945
697.494	23172
697.536	24436
697.562	25131
697.578	25004
697.620	24551
697.661	24108
697.682	23829
697.703	24014
697.744	24291
697.786	24678
697.801	24698
697.828	24987
697.869	25444
697.911	25960
697.921	25998
697.952	25501
697.994	24932
698.035	24271
698.040	24130
698.077	23441
698.118	22717
698.160	21944
698.160	21892
698.201	22147
698.243	22344
698.279	22548
698.284	22672
698.325	23310
698.367	23979
698.399	24398
698.408	24192
698.449	23020
698.491	21881
698.518	21063
698.532	21376
698.573	22214
698.614	23050
698.638	23443
698.656	23555
698.697	23753
698.738	23913
698.757	23961
698.779	24233
698.820	24606
698.862	24988
698.877	25079
698.903	25587
698.944	26310
698.985	27030
698.996	27174
699.026	26640
699.067	25815
699.116	24779
699.235	24549
699.354	23111
699.474	25538
699.593	30646
699.713	26939
699.832	24408
699.951	24886
700.070	23111
700.190	22515
700.309	24686
700.428	27267
700.547	23425
700.667	23623
700.786	29370
700.905	21862
701.024	27083
701.143	23209
701.262	18709
701.381	19503
701.500	21515
701.619	21585
701.738	19414
701.857	19267
701.976	18953
702.095	18855
702.214	22312
702.333	21202
702.452	19879
702.571	18844
702.690	19493
702.809	19223
702.928	17559
703.047	19372
703.165	17839
703.284	17777
703.403	19520
703.522	25153
703.640	22827
703.759	30593
703.878	45078
703.997	20904
704.115	19385
704.234	18784
704.353	17232
704.471	17568
704.590	15857
704.708	15577
704.827	17286
704.946	19831
705.064	22101
705.183	19674
705.301	28326
705.420	47410
705.538	37716
705.656	29299
705.775	27253
705.893	30360
706.012	32517
706.130	32634
706.249	32309
706.367	34155
706.485	35998
706.604	33093
706.722	33673
706.840	41454
706.958	36037
707.077	30643
707.195	28690
707.313	28849
707.431	28401
707.549	28506
707.668	29655
707.786	29400
707.904	27110
708.022	26453
708.140	26529
708.258	26617
708.376	27842
708.494	26904
708.612	33997
708.730	54399
708.848	46762
708.966	41960
709.084	37301
709.202	38616
709.320	40327
709.438	41058
709.556	40549
709.674	39180
709.791	39681
709.909	38286
710.027	37895
710.145	36034
710.263	38599
710.380	38397
710.498	36453
710.616	37010
710.733	37878
710.851	40071
710.969	39894
711.086	37051
711.204	35181
711.322	36239
711.439	37789
711.557	39219
711.674	36187
711.792	35568
711.909	33258
712.027	32889
712.144	33580
712.262	34387
712.379	44874
712.497	67623
712.614	61266
712.732	48595
712.849	46990
712.966	52694
713.084	60470
713.201	51393
713.318	49932
713.436	47480
713.553	48407
713.670	50139
713.787	56089
713.905	54099
714.022	45323
714.139	46038
714.256	46719
714.373	49207
714.490	54348
714.608	73084
714.725	191207
714.842	162457
714.959	45844
715.076	42681
715.193	39792
715.310	38861
715.427	40054
715.544	37364
715.661	37634
715.778	40125
715.895	44911
716.011	44576
716.128	39177
716.245	39897
716.362	42500
716.479	42272
716.596	37025
716.713	37421
716.829	37397
716.946	36010
717.063	35671
717.180	35085
717.296	34489
717.413	35275
717.530	34865
717.646	33428
717.763	34216
717.880	32087
717.996	33792
718.113	32314
718.229	32824
718.346	30755
718.462	33206
718.579	37786
718.695	52425
718.812	48484
718.928	52447
719.045	34239
719.161	29755
719.277	28045
719.394	28842
719.510	31367
719.626	30839
719.743	38958
719.859	32494
719.975	35600
720.092	65459
720.208	100909
720.324	37892
720.440	30354
720.557	37431
720.673	47934
720.789	77920
720.905	168267
721.021	48599
721.137	28942
721.253	31369
721.369	32782
721.486	38230
721.602	54548
721.718	28586
721.834	23768
721.950	26252
722.066	25604
722.181	25147
722.297	28136
722.413	23686
722.529	26229
722.645	23880
722.761	23715
722.877	22263
722.993	23045
723.108	25043
723.224	23426
723.340	25515
723.456	22050
723.571	24548
723.687	23172
723.803	23265
723.918	21087
724.034	23913
724.150	22829
724.265	30867
724.381	69680
724.497	72303
724.612	23600
724.728	21470
724.843	22088
724.959	28995
725.074	64670
725.190	63089
725.305	26691
725.421	21625
725.536	18323
725.651	19017
725.767	18319
725.882	17615
725.997	18657
726.113	18259
726.228	17779
726.343	17746
726.459	15491
726.574	20114
726.689	17030
726.804	19237
726.920	18675
727.035	19653
727.150	20479
727.265	18667
727.380	19583
727.495	16822
727.610	14898
727.725	16478
727.841	15728
727.956	17470
728.071	22132
728.186	16371
728.301	14522
728.416	17339
728.531	14714
728.645	14073
728.760	16828
728.875	15574
728.990	15084
729.105	16060
729.220	14198
729.335	14825
729.449	13631
729.564	13484
729.679	13852
729.794	13941
729.908	17530
730.023	15260
730.138	12175
730.253	13102
730.367	12216
730.482	12701
730.596	13320
730.711	14218
730.826	12194
730.940	11968
731.055	13617
731.169	11202
731.284	12641
731.398	12515
731.513	16895
731.627	15589
731.742	18912
731.856	18836
731.970	11347
732.085	12429
732.199	13231
732.313	13687
732.428	21310
732.542	50317
732.656	28078
732.771	12107
732.885	11260
732.999	13083
733.113	13728
733.227	12833
733.342	10433
733.456	10701
733.570	9807
733.684	11129
733.798	10781
733.912	9453
734.026	9129
734.140	10719
734.254	14473
734.368	33842
734.482	36000
734.596	10172
734.710	9797
734.824	9469
734.938	8619
735.052	10245
735.166	13427
735.280	10598
735.393	9557
735.507	10122
735.621	19705
735.735	41010
735.849	12308
735.962	9458
736.076	11170
736.190	12107
736.303	22124
736.417	24999
736.531	10062
736.644	10913
736.758	6742
736.872	8238
736.985	7781
737.099	7530
737.212	7123
737.326	8278
737.439	7387
737.553	7517
737.666	7752
737.780	6348
737.893	6462
738.007	6706
738.120	6401
738.233	6978
738.347	6658
738.460	7066
738.573	8126
738.687	8152
738.800	7642
738.913	9816
739.026	8035
739.140	7480
739.253	5637
739.366	7491
739.479	6948
739.592	6135
739.705	6911
739.818	7220
739.932	6511
740.045	6343
740.158	6420
740.271	7168
740.384	5911
740.497	5727
740.610	7161
740.723	7073
740.836	6186
740.949	6388
741.062	10372
741.174	8359
741.287	7060
741.400	5757
741.513	6515
741.626	7481
741.739	5359
741.851	6523
741.964	5810
742.077	6753
742.189	5910
742.302	7811
742.415	6904
742.527	6357
742.640	5936
742.753	5638
742.865	4494
742.978	6024
743.090	5827
743.203	6459
743.316	6193
743.428	4778
743.541	4733
743.653	5424
743.766	5346
743.878	6064
743.990	12622
744.103	9884
744.215	5558
744.327	5377
744.440	7433
744.552	12557
744.664	6411
744.777	4280
744.889	4037
745.001	5908
745.113	4053
745.226	4291
745.338	5043
745.450	5595
745.562	4507
745.674	4900
745.786	4035
745.898	5076
746.010	4366
746.122	4378
746.234	4170
746.347	4352
746.459	3692
746.570	4529
746.682	4082
746.794	4440
746.906	4291
747.018	5872
747.130	4524
747.242	4778
747.354	4684
747.466	5790
747.577	4195
747.689	4997
747.801	4203
747.913	3403
748.024	2996
748.136	4528
748.248	3602
748.359	4270
748.471	4296
748.583	3896
748.694	3968
748.806	5765
748.918	10394
749.029	6428
749.141	5274
749.252	5019
749.364	6144
749.475	15529
749.587	10714
749.698	3642
749.809	4470
749.921	3983
750.032	3943
750.144	3006
750.255	3281
750.366	3191
750.478	3993
750.589	5280
750.700	3833
750.811	4869
750.923	6952
751.034	15819
751.145	12026
751.256	4004
751.367	3402
751.479	3501
751.590	2649
751.701	3722
751.812	3200
751.923	4074
752.034	2549
752.145	2833
752.256	3283
752.367	3214
752.478	3459
752.589	3665
752.700	2864
752.811	3987
752.922	3271
753.032	4574
753.143	4778
753.254	3369
753.365	3982
753.476	2969
753.586	3389
753.697	2697
753.808	1901
753.919	3518
754.029	3311
754.140	4497
754.251	2949
754.361	3112
754.472	4305
754.582	3670
754.693	2713
754.804	3716
754.914	2070
755.025	2455
755.135	3112
755.246	3579
755.356	3214
755.466	2915
755.577	3069
755.687	3099
755.798	2868
755.908	2908
756.018	2624
756.129	3552
756.239	2102
756.349	3636
756.460	3032
756.570	4261
756.680	4021
756.790	3662
756.900	4126
757.011	3580
757.121	2251
757.231	3024
757.341	3164
757.451	2831
757.561	2416
757.671	3058
757.781	2255
757.891	3580
758.001	4474
758.111	3328
758.221	3669
758.331	4482
758.441	4051
758.551	6825
758.661	5026
758.771	4279
758.880	4826
758.990	4712
759.100	4485
759.210	5121
759.320	4565
759.429	4324
759.539	3269
759.649	3851
759.758	3592
759.868	4421
759.978	3802
760.087	3919
760.197	4758
760.307	4971
760.416	3954
760.526	3662
760.635	4359
760.745	4281
760.854	5065
760.964	4973
761.073	4222
761.182	3177
761.292	4551
761.401	6793
761.511	4056
761.620	5040
761.729	4647
761.839	4650
761.948	4152
762.057	4995
762.166	4906
762.276	3347
762.385	4825
762.494	4116
762.603	3233
762.712	5356
762.822	5819
762.931	5187
763.040	4052
763.149	4274
763.258	4387
763.367	5391
763.476	3925
763.585	4291
763.694	4876
763.803	5160
763.912	5793
764.021	5156
764.130	3682
764.238	4947
764.347	3620
764.456	4161
764.565	4796
764.674	4632
764.783	4236
764.891	4771
765.000	5342
765.109	5700
765.217	4475
765.326	7787
765.435	8648
765.543	5344
765.652	5196
765.761	5546
765.869	6277
765.978	7695
766.086	10387
766.195	17508
766.303	49236
766.412	169433
766.520	123284
766.629	19067
766.737	10286
766.846	8616
766.954	6835
767.062	7437
767.171	8327
767.279	8086
767.387	6820
767.496	6637
767.604	5524
767.712	5804
767.820	5774
767.928	7154
768.037	6223
768.145	6351
768.253	5901
768.361	6020
768.469	4875
768.577	6106
768.685	6175
768.793	6205
768.901	6600
769.009	5944
769.117	5775
769.225	6505
769.333	7284
769.441	8154
769.549	10309
769.657	19638
769.765	63215
769.873	143791
769.981	30324
770.088	8593
770.196	7089
770.304	6769
770.412	6775
770.519	7440
770.627	7139
770.735	6256
770.842	7358
770.950	6454
771.058	6027
771.165	5635
771.273	6594
771.380	6260
771.488	5874
771.595	6288
771.703	5532
771.810	6054
771.918	5114
772.025	5935
772.133	6089
772.240	5867
772.348	6328
772.455	5941
772.562	5174
772.670	5446
772.777	6656
772.884	6006
772.991	5870
773.099	5946
773.206	4140
773.313	5176
773.420	5355
773.528	4346
773.635	4800
773.742	4534
773.849	5331
773.956	5013
774.063	4254
774.170	4657
774.277	6564
774.384	5234
774.491	5419
774.598	6070
774.705	7175
774.812	8231
774.919	8203
775.026	8183
775.133	6333
775.239	6579
775.346	5746
775.453	5983
775.560	5566
775.667	6155
775.773	4761
775.880	7277
775.987	5758
776.093	6300
776.200	6573
776.307	5528
776.413	6358
776.520	5643
776.627	6313
776.733	6541
776.840	4696
776.946	6691
777.053	5179
777.159	6749
777.266	4847
777.372	7563
777.478	5724
777.585	5849
777.691	5331
777.798	6035
777.904	6015
778.010	9006
778.117	8312
778.223	6122
778.329	6139
778.435	5814
778.542	6202
778.648	5311
778.754	4492
778.860	6253
778.966	6855
779.072	6190
779.178	5581
779.284	5409
779.391	3954
779.497	3800
779.603	6116
779.708	4613
779.815	6311
779.920	5413
780.026	5250
780.132	4696
780.238	4446
780.344	5254
780.450	5463
780.556	3668
780.661	4295
780.767	4981
780.873	3956
780.979	5341
781.085	4990
781.190	4558
781.296	3924
781.402	3509
781.507	3788
781.613	5403
781.719	3758
781.824	4322
781.930	4313
782.035	4746
782.141	4669
782.246	4706
782.352	4215
782.457	4540
782.563	4275
782.668	4577
782.773	5441
782.879	4767
782.984	4533
783.090	6301
783.195	8010
783.300	6737
783.405	5281
783.511	5495
783.616	6197
783.721	4632
783.826	3486
783.932	6036
784.037	5357
784.142	6001
784.247	5152
784.352	5355
784.457	4151
784.562	3988
784.667	4071
784.772	4238
784.877	3683
784.982	4313
785.087	3471
785.192	5449
785.297	3802
785.402	4639
785.507	3323
785.611	4581
785.716	3812
785.821	4004
785.926	3900
786.031	4286
786.135	4387
786.240	4270
786.345	3305
786.450	4308
786.554	3374
786.659	3817
786.763	2654
786.868	4161
786.973	4588
787.077	3608
787.182	3087
787.286	3857
787.391	3799
787.495	3623
787.600	2491
787.704	2649
787.809	4124
787.913	3458
788.017	3485
788.122	4248
788.226	3097
788.330	3419
788.435	3523
788.539	3225
788.643	2959
788.747	3956
788.852	3460
788.956	3095
789.060	3800
789.164	2782
789.268	2253
789.372	3737
789.476	3202
789.580	2782
789.684	2551
789.788	4275
789.892	3050
789.996	4503
790.100	3825
790.204	3746
790.308	3988
790.412	4169
790.516	3165
790.620	3551
790.724	3927
790.828	3569
790.931	2712
791.035	4948
791.139	3119
791.242	1945
791.346	4440
791.450	2777
791.554	2794
791.657	1890
791.761	4114
791.864	3646
791.968	3358
792.072	3450
792.175	2978
792.279	2595
792.382	2974
792.486	4483
792.589	3529
792.693	4333
792.796	2155
792.899	2956
793.003	2998
793.106	2803
793.209	2535
793.313	4024
793.416	2080
793.519	4830
793.623	5300
793.726	7303
793.829	3201
793.932	3963
794.035	1771
794.138	4663
794.242	3542
794.345	5931
794.448	5212
794.551	5934
794.654	5246
794.757	4586
794.860	7914
794.963	5290
795.066	2472
795.169	3690
795.272	2131
795.375	2497
795.477	1865
795.580	2847
795.683	949
795.786	2784
795.889	1566
795.991	4088
796.094	5261
796.197	3882
796.300	3506
796.402	1949
796.505	2121
796.608	1779
796.710	2249
796.813	2001
796.915	1209
797.018	2255
797.120	2174
797.223	1727
797.326	2672
797.428	1677
797.530	1625
797.633	2790
797.735	6365
797.838	11783
797.940	7828
798.042	2722
798.145	2073
798.247	3146
798.349	1143
798.452	2159
798.554	1878
798.656	897
798.758	3345
798.860	2070
798.962	798
799.065	2611
799.167	1154
799.269	3163
799.371	2705
799.473	3145
799.575	5065
799.677	5734
799.779	4580
799.881	5387
799.983	3004
800.085	1821
800.187	2258
800.289	2218
800.390	2236
800.492	1679
800.594	3065
800.696	1179
800.798	1100
800.899	979
801.001	864
801.103	1443
801.205	1567
801.306	1177
801.408	612
801.509	798
801.611	1350
801.713	1224
801.814	1182
801.916	1050
802.017	2071
802.119	1781
802.220	2018
802.322	1498
802.423	7557
802.525	2681
802.626	1891
802.727	1980
802.829	1105
802.930	484
803.031	3213
803.133	2121
803.234	1243
803.335	1458
803.436	24
803.538	2316
803.639	423
803.740	2182
803.841	993
803.942	1987
804.043	698
804.144	1133
804.245	1895
804.346	1728
804.447	1584
804.548	2806
804.649	4402
804.750	916
804.851	223
804.952	1406
805.053	1180
805.154	370
805.255	2365
805.355	1677
805.456	1139
805.557	606
805.658	239
805.758	2102
805.859	833
805.960	865
806.061	527
806.161	1523
806.262	988
806.362	1705
806.463	1354
806.564	1445
806.664	2657
806.765	4566
806.865	2600
806.966	1269
807.066	281
807.166	1429
807.267	1422
807.367	250
807.468	1261
807.568	-60
807.668	1413
807.769	2088
807.869	1042
807.969	1114
808.069	1267
808.170	1133
808.270	-19
808.370	1455
808.470	2945
808.570	1387
808.670	1151
808.770	994
808.870	942
808.970	2163
809.070	727
809.170	941
809.271	685
809.370	518
809.470	513
809.570	370
809.670	-94
809.770	973
809.870	723
809.970	1612
810.070	-114
810.169	1104
810.269	-589
810.369	1240
810.469	111
810.568	373
810.668	-348
810.768	417
810.867	886
810.967	522
811.066	337
811.166	871
811.265	347
811.365	416
811.464	948
811.564	374
811.663	812
811.763	-1038
811.862	562
811.962	1219
812.061	279
812.160	-221
812.260	47
812.359	328
812.458	-345
812.557	995
812.657	285
812.756	759
812.855	524
812.954	133
813.053	843
813.153	1227
813.252	-936
813.351	514
813.450	315
813.549	196
813.648	455
813.747	10
813.846	448
813.945	-77
814.044	-70
814.143	712
814.242	1239
814.341	292
814.439	132
814.538	870
814.637	528
814.736	407
814.835	627
814.933	373
815.032	1021
815.131	201
815.229	522
815.328	1066
815.427	909
815.525	1196
815.624	22
815.722	187
815.821	517
815.919	838
816.018	-72
816.116	989
816.215	-206
816.313	659
816.412	550
816.510	589
816.609	1638
816.707	1278
816.805	546
816.904	734
817.002	977
817.100	1918
817.198	1326
817.296	905
817.395	1709
817.493	2550
817.591	1036
817.689	2165
817.787	2380
817.885	6431
817.983	11389
818.081	27591
818.179	67121
818.277	182359
818.375	126232
818.473	23644
818.571	9595
818.669	6700
818.767	6563
818.865	5771
818.963	7789
819.061	11867
819.158	22687
819.256	55397
819.354	136646
819.452	304969
819.549	155399
819.647	33845
819.745	12151
819.842	9259
819.940	5826
820.038	3790
820.135	2774
820.233	4424
820.330	838
820.428	1385
820.525	2139
820.623	1620
820.720	1404
820.818	2453
820.915	1107
821.012	1183
821.110	-373
821.207	1193
821.304	58
821.402	1717
821.499	1317
821.596	1497
821.693	634
821.791	1852
821.888	2864
821.985	7571
822.082	4033
822.179	1916
822.276	383
822.373	637
822.470	322
822.567	1020
822.664	55
822.761	1059
822.858	-329
822.955	427
823.052	127
823.149	-222
823.246	426
823.343	329
823.440	545
823.536	-167
823.633	628
823.730	124
823.827	47
823.923	616
824.020	1073
824.117	1074
824.213	7
824.310	365
824.407	466
824.503	605
824.600	-226
824.696	-388
824.793	1452
824.889	-248
824.986	209
825.082	261
825.179	478
825.275	358
825.371	-201
825.468	265
825.564	-903
825.660	-212
825.757	539
825.853	1040
825.949	-590
826.045	567
826.142	-361
826.238	308
826.334	1211
826.430	-1539
826.526	404
826.622	-61
826.718	-159
826.814	-327
826.910	971
827.006	81
827.102	-537
827.198	1126
827.294	-798
827.390	140
827.486	514
827.582	-508
827.678	-813
827.774	798
827.869	-802
827.965	1002
828.061	-996
828.157	-157
828.252	115
828.348	-539
828.444	312
828.539	-475
828.635	52
828.731	721
828.826	-536
828.922	1320
829.017	618
829.113	625
829.208	-396
829.304	-176
829.399	1069
829.495	80
829.590	432
829.685	-185
829.781	525
829.876	-151
829.971	-166
830.066	608
830.162	-388
830.257	-760
830.352	-195
830.447	1128
830.543	1189
830.638	-231
830.733	1109
830.828	10
830.923	581
831.018	885
831.113	1177
831.208	-282
831.303	272
831.398	283
831.493	64
831.588	285
831.683	-268
831.778	273
831.873	435
831.967	1410
832.062	-549
832.157	-178
832.252	751
832.346	531
832.441	709
832.536	2125
832.631	5781
832.725	3821
832.820	-553
832.914	116
833.009	-194
833.104	1013
833.198	1479
833.293	26
833.387	69
833.482	351
833.576	-762
833.670	928
833.765	157
833.859	96
833.954	410
834.048	169
834.142	-312
834.237	-102
834.331	599
834.425	241
834.519	-1325
834.613	129
834.708	-1660
834.802	-195
834.896	-674
834.990	408
835.084	-111
835.178	501
835.272	-5
835.366	-295
835.460	-274
835.554	119
835.648	-494
835.742	134
835.836	-118
835.930	-683
836.024	1172
836.117	1167
836.211	908
836.305	4005
836.399	5706
836.493	158
836.586	-1
836.680	-585
836.774	-613
836.867	1401
836.961	-1347
837.055	-1181
837.148	88
837.242	-38
837.335	-665
837.429	351
837.522	745
837.616	2789
837.709	8215
837.803	3685
837.896	1351
837.989	1114
838.083	4436
838.176	11076
838.269	8083
838.363	1588
838.456	-243
838.549	1689
838.642	3180
838.735	6748
838.829	3305
838.922	521
839.015	2
839.108	-167
839.201	-1
839.294	644
839.387	1130
839.480	1184
839.573	4003
839.666	4877
839.759	478
839.852	-163
839.945	-384
840.038	-278
840.131	-183
840.223	-304
840.316	863
840.409	-235
840.502	-969
840.594	287
840.687	-912
840.780	356
840.873	454
840.965	1670
841.058	3614
841.150	9437
841.243	5152
841.336	1163
841.428	-293
841.521	0
841.613	543
841.706	962
841.798	218
841.890	285
841.983	-263
842.075	719
842.167	164
842.260	987
842.352	3081
842.444	5009
842.537	12167
842.629	15195
842.721	1255
842.813	326
842.905	-553
842.997	1121
843.090	1730
843.182	5946
843.274	10296
843.366	26614
843.458	50806
843.550	27715
843.642	2850
843.734	2348
843.826	3020
843.918	2615
844.009	97
844.101	36
844.193	107
844.285	43
844.377	122
844.469	714
844.560	-68
844.652	447
844.744	-464
844.835	762
844.927	1588
845.019	1861
845.110	1254
845.202	1020
845.293	231
845.385	-735
845.476	50
845.568	814
845.659	394
845.751	905
845.842	35
845.934	-480
846.025	-463
846.116	-137
846.208	-1042
846.299	107
846.390	84
846.482	670
846.573	1539
846.664	2770
846.755	3922
846.846	3499
846.937	-409
847.029	324
847.120	-588
847.211	269
847.302	1174
847.393	-400
847.484	222
847.575	566
847.666	-79
847.757	244
847.847	-225
847.938	-107
848.029	-574
848.120	-315
848.211	-138
848.302	-645
848.392	-171
848.483	457
848.574	-660
848.664	-323
848.755	-32
848.846	95
848.936	-837
849.027	-423
849.118	-511
849.208	-73
849.299	622
849.389	1259
849.480	3073
849.570	4721
849.661	7851
849.751	14349
849.841	3771
849.932	525
850.022	-336
850.112	171
850.203	-609
850.293	-442
850.383	-380
850.474	-240
850.564	-735
850.654	401
850.744	-541
850.834	12
850.924	112
851.014	-376
851.104	-458
851.194	-857
851.284	1239
851.374	1225
851.464	140
851.554	494
851.644	1672
851.734	3849
851.824	1634
851.914	-247
852.004	-67
852.094	-377
852.183	-602
852.273	391
852.363	-365
852.452	460
852.542	77
852.632	436
852.721	-125
852.811	-264
852.901	115
852.990	-688
853.080	150
853.169	-570
853.259	173
853.348	-216
853.438	57
853.527	1002
853.617	1181
853.706	3678
853.795	6320
853.885	16134
853.974	29366
854.063	57382
854.152	90053
854.242	26093
854.331	3444
854.420	955
854.509	1482
854.598	2086
854.687	2313
854.777	1354
854.866	-161
854.955	582
855.044	-780
855.133	-490
855.222	261
855.311	-51
855.400	-599
855.488	600
855.577	-829
855.666	80
855.755	374
855.844	244
855.933	-378
856.021	81
856.110	-79
856.199	-706
856.288	-326
856.376	-169
856.465	-1221
856.554	169
856.642	-892
856.731	641
856.819	-539
856.908	328
856.996	-694
857.085	-396
857.173	553
857.262	-476
857.350	-353
857.438	222
857.527	204
857.615	-604
857.703	374
857.792	492
857.880	-1176
857.968	-1160
858.056	-245
858.145	-655
858.233	-451
858.321	-643
858.409	43
858.497	-488
858.585	-287
858.673	-51
858.761	-1128
858.849	143
858.937	-339
859.025	-184
859.113	-63
859.201	-859
859.289	31
859.377	116
859.465	-596
859.552	-296
859.640	-70
859.728	287
859.816	-36
859.903	601
859.991	-147
860.079	-434
860.166	-857
860.254	-247
860.342	-224
860.429	-770
860.517	-868
860.604	157
860.692	286
860.779	475
860.867	84
860.954	-851
861.042	620
861.129	399
861.216	-147
861.304	-44
861.391	-841
861.478	92
861.565	-714
861.653	572
861.740	-1012
861.827	-674
861.914	-1206
862.001	-511
862.089	-870
862.176	-393
862.263	-1534
862.350	-204
862.437	-1585
862.524	-562
862.611	-458
862.698	-366
862.785	-329
862.871	-288
862.958	-693
863.045	-154
863.132	-1174
863.219	11
863.306	-1532
863.392	-8
863.479	-376
863.566	-82
863.652	-1180
863.739	-955
863.826	228
863.912	158
863.999	-588
864.086	78
864.172	-1409
864.259	-399
864.345	-410
864.432	121
864.518	-402
864.604	-548
864.691	-867
864.777	-67
864.863	-207
864.950	68
865.036	-196
865.122	-355
865.209	-76
865.295	373
865.381	57
865.467	51
865.553	636
865.639	-240
865.726	2188
865.812	6213
865.898	13625
865.984	21875
866.070	42323
866.156	44752
866.242	7694
866.328	1333
866.414	-23
866.499	-615
866.585	-454
866.671	466
866.757	61
866.843	230
866.928	-783
867.014	-627
867.100	188
867.186	824
867.271	1438
867.357	2700
867.442	3625
867.528	1426
867.614	-1331
867.699	-268
867.785	-15
867.870	774
867.956	1132
868.041	1190
868.127	1207
868.212	1303
868.297	-9
868.383	-286
868.468	1161
868.553	3120
868.639	2990
868.724	8487
868.809	5575
868.894	1819
868.979	-238
869.065	1602
869.150	-455
869.235	-333
869.320	-789
869.405	-735
869.490	-1341
869.575	-690
869.660	109
869.745	-142
869.830	-1572
869.915	-562
870.000	-247
870.085	-540
870.169	-755
870.254	-490
870.339	-1394
870.424	-770
870.509	-780
870.593	-345
870.678	-243
870.763	-896
870.847	-717
870.932	-1708
871.016	-750
871.101	-1002
871.186	-1137
871.270	-533
871.355	-900
871.439	-16
871.523	-230
871.608	-184
871.692	-786
871.777	-344
871.861	-823
871.945	-509
872.030	189
872.114	-194
872.198	-580
872.282	-1506
872.367	-740
872.451	-826
872.535	-273
872.619	-715
872.703	-772
872.787	-1114
872.871	564
872.955	-638
873.039	-429
873.123	-166
873.207	26
873.291	6
873.375	-647
873.459	-931
873.543	-198
873.627	-233
873.711	-1719
873.794	180
873.878	-1111
873.962	-1112
874.045	99
874.129	-788
874.137	-813
874.213	-1065
874.245	-980
874.296	-839
874.352	-1278
874.380	-1491
874.460	-896
874.464	-873
874.547	-1203
874.568	-864
874.631	141
874.676	-341
874.714	-742
874.784	-199
874.798	-101
874.881	411
874.892	299
874.965	-360
874.999	-370
875.048	-459
875.107	-255
875.131	-157
875.215	-836
875.215	-836
875.298	-905
875.323	-766
875.381	-426
875.430	-189
875.465	-50
875.538	-413
875.548	-455
875.631	-822
875.646	-865
875.714	-1144
875.753	-832
875.798	-420
875.861	-725
875.881	-837
875.964	-383
875.968	-402
876.047	-692
876.076	-402
876.130	138
876.183	-299
876.213	-567
876.291	242
876.296	300
876.379	-312
876.398	-178
876.462	310
876.506	24
876.545	-260
876.613	-240
876.628	-244
876.711	88
876.721	-39
876.794	-888
876.828	-898
876.877	-977
876.935	-468
876.960	-222
877.043	-257
877.043	-254
877.125	308
877.150	86
877.208	-595
877.258	-463
877.291	-225
877.365	-504
877.374	-565
877.456	-560
877.472	-666
877.539	-877
877.579	-343
877.622	52
877.687	452
877.704	575
877.787	-387
877.794	-446
877.869	-997
877.901	-843
877.952	-598
878.008	-878
878.034	-1050
878.115	-748
878.117	-738
878.199	-880
878.222	-612
878.282	46
878.329	-433
878.364	-766
878.437	82
878.447	191
878.529	-627
878.544	-626
878.611	-742
878.651	-712
878.694	-541
878.758	-444
878.776	-416
878.858	-299
878.865	-264
878.941	-85
878.972	-331
879.023	-574
879.078	-217
879.105	-12
879.185	341
879.187	346
879.269	567
879.292	345
879.351	-406
879.399	-436
879.433	-330
879.506	-35
879.516	-8
879.598	-1008
879.613	-930
879.680	-426
879.720	-168
879.762	-51
879.827	-311
879.844	-338
879.926	86
879.933	51
880.007	-395
880.040	-392
880.089	-365
880.147	203
880.171	533
880.253	1565
880.254	1573
880.335	2544
880.360	2800
880.417	3437
880.467	5541
880.499	6883
880.574	7221
880.580	7163
880.662	1491
880.680	1028
880.744	46
880.787	-105
880.825	-385
880.893	-638
880.907	-645
880.989	-324
881.000	-316
881.070	-403
881.106	-396
881.152	-95
881.213	86
881.233	-35
881.315	-615
881.319	-597
881.396	225
881.426	100
881.478	-489
881.532	-669
881.559	-506
881.639	-329
881.641	-335
881.722	142
881.745	-15
881.803	-162
881.852	-157
881.885	-328
881.958	-434
881.966	-411
882.047	-126
882.064	-47
882.129	761
882.171	1283
882.210	1352
882.277	1289
882.291	1225
882.372	28
882.383	-104
882.454	-491
882.489	-296
882.535	-225
882.596	-544
882.616	-490
882.697	-159
882.702	-120
882.778	-82
882.808	-193
882.859	28
882.914	57
882.940	-126
883.020	-299
883.021	-296
883.102	-125
883.127	-181
883.183	-265
883.233	-224
883.264	-78
883.339	516
883.345	499
883.426	-552
883.445	-612
883.507	-92
883.551	-83
883.587	-240
883.657	-151
883.668	-97
883.749	251
883.763	228
883.830	-243
883.869	-322
883.910	-134
883.975	-47
883.991	-185
884.072	-681
884.081	-733
884.152	-300
884.187	-161
884.233	-92
884.292	110
884.314	71
884.394	-351
884.398	-359
884.475	-384
884.504	-496
884.555	-279
884.610	51
884.636	11
884.716	-227
884.716	-223
884.797	292
884.821	229
884.877	-119
884.927	-310
884.958	-299
885.033	115
885.038	104
885.118	-223
885.139	-445
885.199	-346
885.244	-6
885.279	-1
885.350	-76
885.359	-34
885.439	441
885.456	448
885.520	101
885.561	49
885.600	-13
885.667	-316
885.680	-331
885.760	-235
885.773	-201
885.840	578
885.878	897
885.920	738
885.984	270
886.000	160
886.080	67
886.089	53
886.160	-58
886.195	-258
886.240	-26
886.300	375
886.320	260
886.400	-86
886.406	-116
886.480	70
886.511	188
886.560	206
886.616	5
886.640	75
886.720	463
886.722	471
886.800	126
886.827	-65
886.879	-45
886.932	41
886.959	12
887.038	-58
887.039	-53
887.119	2
887.143	27
887.198	195
887.248	411
887.278	238
887.354	-351
887.358	-344
887.437	-202
887.459	-177
887.517	147
887.564	436
887.596	451
887.669	481
887.676	448
887.755	23
887.774	-114
887.835	-150
887.880	-133
887.914	21
887.985	284
887.994	240
888.073	-129
888.090	-215
888.153	-122
888.195	-39
888.232	76
888.300	189
888.311	206
888.391	498
888.405	517
888.470	32
888.510	-281
888.549	-189
888.615	18
888.628	73
888.708	389
888.720	436
888.787	-264
888.825	-693
888.866	-537
888.930	-227
888.945	-133
889.024	267
889.035	328
889.103	-66
889.140	-296
889.182	-101
889.245	197
889.261	107
889.340	-334
889.349	-383
889.419	550
889.454	1012
889.498	227
889.559	-851
889.577	-572
889.656	650
889.664	771
889.735	566
889.768	463
889.814	361
889.873	225
889.978	17
890.083	8
890.187	336
890.292	287
890.397	-119
890.501	423
890.606	-269
890.710	575
890.815	809
890.919	507
891.024	-474
891.128	231
891.233	-77
891.337	498
891.442	-36
891.546	155
891.650	274
891.755	595
891.859	861
891.963	918
892.068	195
892.172	75
892.276	-107
892.380	419
892.484	-178
892.589	29
892.693	-50
892.797	574
892.901	-275
893.005	-577
893.109	195
893.213	221
893.317	108
893.421	435
893.525	-755
893.629	1
893.733	-638
893.837	-35
893.941	-35
894.045	880
894.148	-587
894.252	-101
894.356	-229
894.460	779
894.564	636
894.667	95
894.771	-438
894.875	-103
894.978	462
895.082	-339
895.186	-747
895.289	254
895.393	-52
895.496	401
895.600	-912
895.703	323
895.807	-25
895.910	484
896.014	-512
896.117	-437
896.221	359
896.324	-839
896.427	-95
896.531	-355
896.634	-128
896.737	301
896.840	1054
896.944	479
897.047	-122
897.150	18
897.253	796
897.356	266
897.460	-531
897.563	-109
897.666	-740
897.769	-441
897.872	101
897.975	-306
898.078	-1025
898.181	-203
898.284	-524
898.387	393
898.490	6
898.593	644
898.695	-905
898.798	971
898.901	-106
899.004	325
899.107	-430
899.209	-62
899.312	-290
899.415	63
899.518	-960
899.620	139
899.723	-676
899.826	726
899.928	-15
900.031	-113
900.133	-271
900.236	-359
900.338	-749
900.441	-123
900.543	-645
900.646	-35
900.748	-38
900.851	549
900.953	-571
901.055	-528
901.158	-737
901.260	29
901.362	-216
901.465	-337
901.567	-622
901.669	462
901.771	-469
901.873	-134
901.976	-500
902.078	797
902.180	-677
902.282	-882
902.384	-74
902.486	269
902.588	-287
902.690	161
902.792	-349
902.894	701
902.996	-490
903.098	-197
903.200	-257
903.302	267
903.404	453
903.505	-77
903.607	175
903.709	-39
903.811	-128
903.913	-171
904.014	-717
904.116	135
904.218	-433
904.319	-169
904.421	238
904.523	-343
904.624	154
904.726	341
904.827	0
904.929	-230
905.030	-961
905.132	-13
905.233	188
905.335	-123
905.436	313
905.537	612
905.639	-381
905.740	-905
905.841	-75
905.943	-133
906.044	-614
906.145	119
906.247	-391
906.348	520
906.449	-933
906.550	-1815
906.651	102
906.752	43
906.854	-738
906.955	-524
907.056	-46
907.157	-565
907.258	-587
907.359	-648
907.460	-1333
907.561	193
907.662	-889
907.762	-419
907.863	-865
907.964	-335
908.065	430
908.166	-967
908.267	-326
908.367	-145
908.468	-333
908.569	-719
908.670	-321
908.770	-281
908.871	-579
908.971	233
909.072	162
909.173	-867
909.273	-288
909.374	-900
909.474	-802
909.575	-509
909.675	-959
909.776	-371
909.876	-120
909.977	-835
910.077	-105
910.177	51
910.278	-616
910.378	325
910.478	-1168
910.579	-1316
910.679	-771
910.779	-414
910.879	-207
910.980	-127
911.080	-513
911.180	-781
911.280	-56
911.380	425
911.480	-766
911.580	-105
911.680	-678
911.780	-688
911.880	-386
911.980	-518
912.080	-386
912.180	-385
912.280	-271
912.380	432
912.480	-590
912.580	725
912.679	-326
912.779	-125
912.879	-515
912.979	-125
913.078	-1262
913.178	-7
913.278	-816
913.377	-419
913.477	-184
913.577	-1009
913.676	-346
913.776	-588
913.875	-450
913.975	5
914.074	-358
914.174	-765
914.273	-401
914.373	270
914.472	-278
914.572	-451
914.671	-462
914.770	1
914.870	-861
914.969	-46
915.068	543
915.167	74
915.267	-908
915.366	693
915.465	22
915.564	-1050
915.663	-674
915.763	-526
915.862	100
915.961	-13
916.060	-302
916.159	-992
916.258	-609
916.357	-1172
916.456	-429
916.555	-863
916.654	-318
916.752	-455
916.851	-909
916.950	88
917.049	-1201
917.148	-775
917.247	-327
917.345	-1168
917.444	-1117
917.543	-785
917.642	-421
917.740	-101
917.839	578
917.937	199
918.036	-203
918.135	-662
918.233	-601
918.332	-1107
918.430	-889
918.529	-387
918.627	-256
918.726	-613
918.824	-799
918.923	-599
919.021	-589
919.119	-1023
919.218	-1139
919.316	-955
919.414	-850
919.512	-168
919.611	-943
919.709	-143
919.807	-322
919.905	-525
920.003	-884
920.102	-459
920.200	-1191
920.298	-589
920.396	-1207
920.494	-141
920.592	-958
920.690	-35
920.788	-744
920.886	19
920.984	169
921.082	-462
921.180	177
921.277	-101
921.375	-833
921.473	131
921.571	-1120
921.669	-948
921.766	-911
921.864	-326
921.962	-321
922.060	-911
922.157	-130
922.255	-296
922.352	-327
922.450	-262
922.548	-1163
922.645	-51
922.743	-156
922.840	-305
922.938	-226
923.035	-384
923.133	-767
923.230	-249
923.327	-221
923.425	-213
923.522	-572
923.619	-1315
923.717	-224
923.814	-288
923.911	-425
924.008	509
924.106	-612
924.203	-115
924.300	-575
924.397	-250
924.494	-135
924.591	275
924.688	-696
924.786	-683
924.883	-545
924.979	-207
925.077	-774
925.173	-225
925.270	-437
925.367	486
925.464	-252
925.561	-419
925.658	154
925.755	-567
925.852	-554
925.948	-989
926.045	25
926.142	-114
926.239	-175
926.335	-987
926.432	161
926.529	141
926.625	1031
926.722	-73
926.818	-751
926.915	-325
927.011	-89
927.108	-590
927.204	-290
927.301	-95
927.397	-1001
927.494	33
927.590	46
927.687	-619
927.783	-333
927.879	22
927.976	-874
928.072	-1042
928.168	-259
928.264	-465
928.361	173
928.457	-267
928.553	-86
928.649	-205
928.745	103
928.841	-411
928.937	-511
929.033	-19
929.129	-763
929.225	-276
929.321	-1288
929.417	-203
929.513	-1386
929.609	-424
929.705	-236
929.801	751
929.897	-735
929.993	-333
930.089	-312
930.184	-350
930.280	-68
930.376	-398
930.471	-924
930.567	-299
930.663	-206
930.758	-271
930.854	-1567
930.950	24
931.045	407
931.141	177
931.236	-233
931.332	-788
931.427	-914
931.523	-125
931.618	-295
931.714	-805
931.809	-1144
931.905	582
932.000	-348
932.095	-138
932.191	-936
932.286	-794
932.381	-484
932.476	-177
932.572	-847
932.667	86
932.762	-667
932.857	480
932.952	-23
933.047	-407
933.142	-1425
933.237	-329
933.332	-1048
933.427	6
933.522	76
933.617	-775
933.712	-780
933.807	928
933.902	-452
933.997	144
934.092	-426
934.187	-1073
934.282	7
934.376	-563
934.471	-369
934.566	-80
934.661	-344
934.755	-817
934.850	5
934.945	512
935.039	-110
935.134	-367
935.228	-546
935.323	-475
935.417	-338
935.512	190
935.606	-434
935.701	-76
935.795	-645
935.890	-151
935.984	-976
936.079	337
936.173	-593
936.267	74
936.362	-968
936.456	-158
936.550	-783
936.644	-92
936.738	-738
936.833	-319
936.927	-1536
937.021	-989
937.115	-596
937.209	-833
937.303	713
937.397	-338
937.491	-876
937.585	-73
937.679	-350
937.773	-31
937.867	-260
937.961	-270
938.055	-859
938.149	-755
938.243	-919
938.337	-1057
938.430	-1000
938.524	-794
938.618	-608
938.712	321
938.805	-695
938.899	-49
938.993	-843
939.086	-90
939.180	-410
939.274	386
939.367	-1139
939.461	-441
939.554	-1456
939.648	-435
939.741	463
939.835	240
939.928	-650
940.022	-99
940.115	-77
940.208	-184
940.302	-988
940.395	-1001
940.488	-1100
940.582	154
940.675	206
940.768	-768
940.861	-1154
940.954	-324
941.048	-1211
941.141	-22
941.234	-850
941.327	32
941.420	88
941.513	-726
941.606	-1053
941.699	77
941.792	-843
941.885	-635
941.978	-838
942.071	-579
942.164	-904
942.257	257
942.349	-138
942.442	-265
942.535	-1265
942.628	-301
942.721	-454
942.813	-1755
942.906	443
942.999	-1
943.091	-202
943.184	-513
943.277	-1249
943.369	-44
943.462	-735
943.554	573
943.647	-1200
943.739	-140
943.832	-708
943.924	-839
944.017	-212
944.109	-1325
944.201	-488
944.294	-232
944.386	-1442
944.478	-102
944.571	-95
944.663	294
944.755	-830
944.847	-295
944.940	7
945.032	-1000
945.124	-778
945.216	851
945.308	-1173
945.400	-805
945.492	-1145
945.584	61
945.676	-301
945.768	-986
945.860	36
945.952	-536
946.044	-331
946.136	-884
946.228	-392
946.320	-1175
946.412	-1168
946.503	-483
946.595	4
946.687	-1403
946.779	-1053
946.870	-227
946.962	-1182
947.054	-341
947.145	292
947.237	-531
947.329	-744
947.420	-1014
947.512	-995
947.603	-353
947.695	-771
947.786	-980
947.878	-1300
947.969	-202
948.061	-1206
948.152	-721
948.243	-717
948.335	-1055
948.426	-1523
948.517	-1480
948.609	-1158
948.700	-928
948.791	-771
948.882	-838
948.973	-1240
949.065	-1023
949.156	-1268
949.247	-498
949.338	-888
949.429	-897
949.520	-927
949.611	-1700
949.702	-784
949.793	-1552
949.884	-704
949.975	-988
950.066	-1775
950.157	-1076
950.247	-810
950.338	-672
950.429	-1171
950.520	-498
950.611	-166
950.701	-822
950.792	-56
950.883	-503
950.973	-151
951.064	-605
951.155	-1007
951.245	-731
951.336	-542
951.427	-1230
951.517	-488
951.608	-343
951.698	-978
951.788	-136
951.879	-601
951.969	-1367
952.060	-796
952.150	-515
952.240	-369
952.331	-2406
952.421	936
952.511	-1457
952.602	-1293
952.692	-542
952.782	-895
952.872	-702
952.962	-660
953.052	-910
953.143	-2067
953.233	-333
953.323	-396
953.413	-626
953.503	-838
953.593	-366
953.683	-1339
953.773	-1165
953.863	-775
953.953	-1080
954.042	-697
954.132	-1233
954.222	-789
954.312	-1193
954.402	-1644
954.492	-457
954.581	180
954.671	-975
954.761	-1981
954.850	-1068
954.940	-897
955.030	-952
955.119	-1376
955.209	-662
955.298	-1341
955.388	-802
955.477	-956
955.567	-1321
955.656	208
955.746	-726
955.835	-698
955.925	-952
956.014	-739
956.103	-1213
956.193	-1070
956.282	-1617
956.371	-1198
956.461	-1185
956.550	-1686
956.639	-414
956.728	-915
956.817	-1121
956.906	-2115
956.995	-708
957.085	-1397
957.174	-1234
957.263	-822
957.352	-1133
957.441	-1271
957.530	-33
957.619	-501
957.708	-241
957.796	-1300
957.885	-1375
957.974	-2030
958.063	-322
958.152	-1285
958.241	-783
958.329	-1048
958.418	-1044
958.507	-2088
958.596	1
958.684	-1817
958.773	-1192
958.861	-1312
958.950	-1206
959.039	-821
959.127	-1078
959.216	-1195
959.304	-569
959.393	-1866
959.481	-756
959.570	-1379
959.658	-1135
959.746	-660
959.835	307
959.923	-242
960.011	-339
960.100	-95
960.188	-588
960.276	-1083
960.365	-754
960.453	-1216
960.541	-1340
960.629	-808
960.717	-779
960.805	-1604
960.893	-694
960.981	-1320
961.069	-431
961.158	-1222
961.245	-823
961.333	-1461
961.421	-1552
961.509	-677
961.597	-54
961.685	-737
961.773	-1191
961.861	-1692
961.949	-732
962.036	-979
962.124	-883
962.212	-1323
962.299	-976
962.387	-1317
962.475	-720
962.562	-1309
962.650	-216
962.738	-1027
962.825	-945
962.913	-1202
963.000	-942
963.088	-1365
963.175	-194
963.263	-1091
963.350	-1281
963.438	-941
963.525	-768
963.612	124
963.700	2019
963.787	7201
963.874	2070
963.962	-495
964.049	-528
964.136	-1164
964.223	-1320
964.310	-1283
964.398	-860
964.485	-978
964.572	-424
964.659	-254
964.746	87
964.833	-741
964.920	-762
965.007	-1041
965.094	-425
965.181	-1050
965.268	-1155
965.355	-870
965.441	-752
965.528	-1432
965.615	-1133
965.702	-858
965.789	-1729
965.875	-2033
965.962	-1044
966.049	-2053
966.136	-778
966.222	-1836
966.309	-857
966.395	-1843
966.482	-810
966.569	-495
966.655	-1286
966.742	-1118
966.828	-349
966.915	-1551
967.001	-271
967.087	-1391
967.174	-247
967.260	-316
967.347	205
967.433	1200
967.519	4312
967.605	-357
967.692	-1268
967.778	-983
967.864	-967
967.950	-1495
968.036	-1462
968.123	-979
968.209	-371
968.295	-1846
968.381	461
968.467	-943
968.553	-1200
968.639	-97
968.725	-1493
968.811	-72
968.897	98
968.983	-535
969.069	-1447
969.154	-810
969.240	423
969.326	-1712
969.412	-513
969.497	-895
969.583	-1083
969.669	-462
969.755	-411
969.840	-1286
969.926	-550
970.012	-1487
970.097	165
970.183	-1709
970.268	-1049
970.354	-707
970.439	-769
970.525	2825
970.610	-1203
970.696	-761
970.781	-106
970.866	-2475
970.952	-402
971.037	-1267
971.122	-1217
971.208	-854
971.293	-856
971.378	-2065
971.463	-544
971.549	-1280
971.634	-635
971.719	-1140
971.804	-257
971.889	373
971.974	-1358
972.059	-1488
972.144	-1079
972.229	-1729
972.314	-1117
972.399	-957
972.484	-1213
972.569	-999
972.654	-1308
972.739	961
972.824	536
972.908	-1064
972.993	-715
973.078	-1581
973.163	-542
973.247	-549
973.332	-1863
973.417	-239
973.501	-1659
973.586	-1315
973.671	-94
973.755	-847
973.840	-1381
973.924	-786
974.009	-693
974.093	-1942
974.178	684
974.262	-65
974.346	281
974.431	-2285
974.515	-1618
974.600	-1137
974.684	-1082
974.768	-1815
974.852	-731
974.937	-2002
975.021	-823
975.105	-1009
975.189	-749
975.273	-762
975.358	-2299
975.442	-1973
975.526	-266
975.610	-1493
975.694	-1617
975.778	-183
975.862	-609
975.946	-2684
976.030	525
976.114	-1779
976.198	-578
976.281	-1232
976.365	-466
976.449	-1441
976.533	-300
976.617	-1586
976.700	-945
976.784	-1703
976.868	-873
976.951	83
977.035	-594
977.119	-978
977.202	-1161
977.286	-1219
977.369	-985
977.453	-1237
977.536	-711
977.620	-1686
977.703	-1399
977.787	-1046
977.870	157
977.953	-109
978.037	-2007
978.120	-66
978.203	-450
978.287	28
978.370	-121
978.453	-1693
978.536	-105
978.620	-810
978.703	-248
978.786	-1001
978.869	-1528
978.952	-1482
979.035	461
979.118	-1072
979.201	-1640
979.284	-511
979.367	-1381
979.450	-1378
979.533	-1649
979.616	-1272
979.699	-1502
979.782	-283
979.865	-1086
979.948	-1562
980.030	-1216
980.113	-1468
980.196	-1840
980.279	120
980.361	-662
980.444	-2070
980.526	-952
980.609	-1133
980.692	-1083
980.774	-2303
980.857	-1359
980.939	-539
981.022	-423
981.104	-1325
981.187	-1066
981.269	-753
981.352	-717
981.434	-880
981.516	-2103
981.599	-841
981.681	-599
981.763	-1245
981.846	-1290
981.928	-1183
982.010	-909
982.092	-1615
982.174	-1033
982.256	-1203
982.339	-1347
982.421	-1516
982.503	-560
982.585	-2174
982.667	-735
982.749	-91
982.831	-983
982.913	-1373
982.995	-766
983.077	-1883
983.158	-377
983.240	-2325
983.322	-1845
983.404	-1083
983.486	-1356
983.568	-1469
983.649	-1018
983.731	-819
983.813	-1907
983.894	-1134
983.976	-1615
984.058	-919
984.139	319
984.221	-2044
984.302	-1108
984.384	-1726
984.465	-2154
984.547	-1338
984.628	-1760
984.710	-1197
984.791	-1400
984.872	-1033
984.954	-1867
985.035	-1064
985.116	-1427
985.198	-887
985.279	-218
985.360	-1673
985.441	-1316
985.522	-830
985.604	-1303
985.685	-2383
985.766	187
985.847	-1225
985.928	-1512
986.009	-1686
986.090	-1090
986.171	-820
986.252	-1731
986.333	-1745
986.414	-1181
986.495	-1354
986.576	-1931
986.656	-1238
986.737	-319
986.818	-1843
986.899	-1043
986.980	-1667
987.060	-871
987.141	-2285
987.222	-704
987.302	-1023
987.383	-809
987.464	-2122
987.544	-728
987.625	-1429
987.705	-750
987.786	-1204
987.866	-1406
987.947	-1395
988.027	-1262
988.108	-1842
988.188	-1552
988.268	-1670
988.349	-1505
988.429	-1576
988.509	-624
988.589	-1461
988.670	-3114
988.750	-467
988.830	-897
988.910	-1117
988.990	-876
989.070	-1325
989.151	-1651
989.231	-1573
989.311	-992
989.391	-881
989.471	-673
989.551	-1909
989.631	-2618
989.711	-964
989.791	-2121
989.870	-2207
989.950	60
990.030	-1903
990.110	-1628
990.190	-1925
990.269	-1119
990.349	-2161
990.429	-1155
990.509	-592
990.588	-1425
990.668	-1216
990.747	-902
990.827	-1975
990.907	-1485
990.986	-1612
991.066	-462
991.145	-1373
991.225	-991
991.304	-1492
991.383	-1620
991.463	-1626
991.542	-1109
991.622	-1110
991.701	-1467
991.780	-2319
991.859	-958
991.939	-1926
992.018	-459
992.097	-1684
992.176	-1203
992.256	-1184
992.335	-2183
992.414	-1888
992.493	-1651
992.572	-2415
992.651	-358
992.730	-2355
992.809	-1288
992.888	-2281
992.967	-1312
993.046	-711
993.125	-1534
993.203	-1480
993.282	-692
993.361	-1363
993.440	-1368
993.519	-2161
993.597	-841
993.676	-1954
993.755	-879
993.834	-1113
993.912	-1304
993.991	-1480
994.069	-1936
994.148	-1274
994.226	-906
994.305	-2275
994.384	-1377
994.462	-1141
994.540	-1150
994.619	-2186
994.697	-550
994.776	-1958
994.854	-1442
994.932	-2157
995.011	-738
995.089	-1742
995.167	-971
995.245	-2084
995.324	-2095
995.402	-1463
995.480	-1677
995.558	-753
995.636	-1727
995.714	-1808
995.792	42
995.870	-2399
995.948	-1829
996.026	-1488
996.104	-1682
996.182	-934
996.260	-1792
996.338	-1368
996.416	-2096
996.494	-1919
996.572	-739
996.649	-1628
996.727	-2175
996.805	-1433
996.883	-1027
996.960	-2293
997.038	-1344
997.116	-1629
997.193	-2044
997.271	-547
997.348	-947
997.426	-1542
997.504	-1546
997.581	-1161
997.658	-578
997.736	-2093
997.813	-2360
997.891	-1166
997.968	-2533
998.046	-1281
998.123	-1291
998.200	-1836
998.277	-2330
998.355	-809
998.432	-2067
998.509	-1537
998.586	-1034
998.663	-1877
998.741	-1082
998.818	-2269
998.895	-1494
998.972	-1138
999.049	-1501
999.126	-2439
999.203	-412
999.280	-1679
999.357	-1747
999.434	-1432
999.511	-1650
999.587	-1003
999.664	-2025
999.741	-1826
999.818	-668
999.895	-1634
999.971	-1602
1000.048	-1291
1000.125	-458
1000.202	-2642
1000.278	-1510
1000.355	-1893
1000.431	-1646
1000.508	-1586
1000.584	-1360
1000.661	-1621
1000.738	-1647
1000.814	-1312
1000.890	-2107
1000.967	-963
1001.043	-1025
1001.120	-1583
1001.196	-1536
1001.272	-2601
1001.349	-1210
1001.425	-1149
1001.501	-622
1001.577	-2788
1001.654	-1051
1001.730	-2618
1001.806	-1395
1001.882	-2099
1001.958	-1906
1002.034	-1382
1002.110	-1705
1002.186	-2659
1002.262	-1704
1002.338	-2318
1002.414	-1174
1002.490	-1719
1002.566	-1763
1002.642	-2883
1002.718	-1904
1002.794	-2127
1002.870	-1858
1002.945	-1637
1003.021	-1230
1003.097	-1072
1003.173	-1106
1003.248	-1589
1003.324	-1643
1003.400	-1337
1003.475	-1554
1003.551	-1345
1003.626	-1497
1003.702	-2220
1003.777	-1513
1003.853	-1104
1003.928	-1123
1004.004	-2034
1004.079	-1268
1004.155	-2034
1004.230	-2452
1004.305	-388
1004.381	-2398
1004.456	-2033
1004.531	-1376
1004.607	-1940
1004.682	-1328
1004.757	-1703
1004.832	-1102
1004.907	-1256
1004.982	-1594
1005.057	-1906
1005.133	-1894
1005.208	-2559
1005.283	-1205
1005.358	-1171
1005.433	-1477
1005.508	-1246
1005.583	-1442
1005.657	-2634
1005.732	-1469
1005.807	-2356
1005.882	-1717
1005.957	-1709
1006.032	-1073
1006.106	-1228
1006.181	-1057
1006.256	-1721
1006.331	-1828
1006.405	-1966
1006.480	-2087
1006.554	-2657
1006.629	-868
1006.704	-2193
1006.778	-2087
1006.853	-1820
1006.927	-1630
1007.002	-2786
1007.076	-1579
1007.150	-2142
1007.225	-1294
1007.299	-1074
1007.373	-1910
1007.448	-1717
1007.522	-568
1007.596	-1411
1007.671	-1484
1007.745	-1558
1007.819	-2231
1007.893	-1741
1007.967	-1667
1008.041	-2722
1008.115	-471
1008.190	-2170
1008.264	-603
1008.338	-3093
1008.412	-1881
1008.486	-1571
1008.560	-1732
1008.633	-1978
1008.707	-1280
1008.781	-1423
1008.855	-2001
1008.929	-2296
1009.003	-2139
1009.076	-1550
1009.150	-1597
1009.224	-1694
1009.298	-1524
1009.371	-1777
1009.445	-1449
1009.519	-998
1009.592	-2422
1009.666	-2364
1009.739	-1891
1009.813	-1738
1009.886	-378
1009.960	-2311
1010.033	-1850
1010.107	-1447
1010.180	-1280
1010.253	-1578
1010.327	-2310
1010.400	-2750
1010.473	-1574
1010.547	-1121
1010.620	-1737
1010.693	-1886
1010.766	-2230
1010.840	-1216
1010.913	-1347
1010.986	-2255
1011.059	-1450
1011.132	-2097
1011.205	-1334
1011.278	-2104
1011.351	-1802
1011.424	-1535
1011.497	-1545
1011.570	-1469
1011.643	-2393
1011.716	-2222
1011.789	-2122
1011.862	-1157
1011.934	-1316
1012.007	-2865
1012.080	-1271
1012.153	-1628
1012.225	-1124
1012.298	-2347
1012.371	-2336
1012.443	-1158
1012.516	-1996
1012.588	-1848
1012.661	-1379
1012.733	-2805
1012.806	-1334
1012.879	-2381
1012.951	-1826
1013.023	-2054
1013.096	-1738
1013.168	-2214
1013.241	-1523
1013.313	-2092
1013.385	-2502
1013.458	-2169
1013.530	-567
1013.602	-1862
1013.674	-1729
1013.746	-2567
1013.819	-2034
1013.891	-1381
1013.963	-1699
1014.035	-2389
1014.107	-1350
1014.179	-1825
1014.251	-1898
1014.323	-1940
1014.395	-2275
1014.467	-2203
1014.539	-1870
1014.611	-2745
1014.683	-1444
1014.754	-2535
1014.826	-2254
1014.898	-1831
1014.970	-2235
1015.042	-1055
1015.113	-1322
1015.185	-2473
1015.257	-2435
1015.328	-889
1015.400	-2337
1015.471	-1897
1015.543	-2863
1015.615	-1816
1015.686	-1490
1015.757	-1785
1015.829	-1540
1015.901	-2253
1015.972	-1803
1016.043	-2330
1016.115	-1913
1016.186	-1435
1016.257	-2164
1016.328	-1934
1016.400	-1640
1016.471	-2790
1016.542	-1933
1016.613	-2562
1016.685	-1872
1016.756	-2259
1016.827	-2285
1016.898	-3176
1016.969	-1457
1017.040	-2133
1017.111	-2243
1017.182	-2584
1017.253	-1600
1017.324	-2641
1017.395	-2145
1017.466	-1142
1017.537	-1839
1017.608	-2367
1017.678	-2149
1017.749	-2665
1017.820	-1477
1017.891	-2200
1017.961	-1684
1018.032	-2187
1018.103	-1470
1018.173	-2135
1018.244	-1479
1018.315	-2913
1018.385	-1574
1018.456	-2335
1018.526	-2515
1018.597	-2451
1018.667	-1966
1018.738	-2352
1018.808	-1478
1018.878	-2853
1018.949	-2040
1019.019	-1827
1019.089	-1951
1019.160	-981
1019.230	-2264
1019.300	-1733
1019.371	-2389
1019.441	-1868
1019.511	-1828
1019.581	-2435
1019.651	-1107
1019.721	-2380
1019.791	-2473
1019.861	-1256
1019.931	-1728
1020.001	-2147
1020.071	-1523
1020.141	-1766
1020.211	-1598
1020.281	-3026
1020.351	-2506
1020.421	-1508
1020.491	-1575
1020.560	-2246
1020.630	-2173
1020.700	-2176
1020.770	-1848
1020.839	-2155
1020.909	-1631
1020.979	-2455
1021.048	-2364
1021.118	-2021
1021.187	-2170
1021.257	-2385
1021.326	-1561
1021.396	-2354
1021.465	-1081
1021.535	-2519
1021.604	-2374
1021.674	-1623
1021.743	-1696
1021.812	-2634
1021.882	-2523
1021.951	-2481
1022.020	-2432
1022.089	-2049
1022.159	-2082
1022.228	-1896
1022.297	-1633
1022.366	-2021
1022.435	-2368
1022.504	-2286
1022.573	-3184
1022.642	-2715
1022.711	-1876
1022.781	-1844
1022.849	-1727
1022.918	-2385
1022.987	-1943
1023.056	-2169
1023.125	-1361
1023.194	-1961
1023.263	-1806
1023.331	-1763
1023.400	-2687
1023.469	-2608
1023.538	-1421
1023.606	-2671
1023.675	-1940
1023.744	-1777
1023.812	-1749
1023.881	-2842
1023.949	-2125
1024.018	-2338
1024.086	-2200
1024.155	-1786
1024.223	-2313
1024.292	-1961
1024.360	-2395
1024.429	-2328
1024.497	-2582
1024.565	-3245
1024.634	-1807
1024.702	-2353
1024.770	-2240
1024.838	-2099
1024.907	-891
1024.975	-2141
1025.043	-1981
1025.111	-2757
1025.179	-2209
1025.247	-2467
1025.315	-1693
1025.383	-1507
1025.451	-1875
1025.519	-2362
1025.587	-2421
1025.655	-1680
1025.723	-2904
1025.791	-2866
1025.859	-1984
1025.927	-2156
1025.995	-2054
1026.062	-1769
1026.130	-2612
1026.198	-2552
1026.266	-2546
1026.333	-2047
1026.401	-1889
1026.469	-1598
1026.536	-2461
1026.604	-2837
1026.671	-2275
1026.739	-2459
1026.806	-1781
1026.874	-2173
1026.941	-2255
1027.009	-2458
1027.076	-2389
1027.144	-1742
1027.211	-2555
1027.278	-2658
1027.345	-1835
1027.413	-2605
1027.480	-2561
1027.547	-2372
1027.614	-1853
1027.682	-2475
1027.749	-2302
1027.816	-2500
1027.883	-1178
1027.950	-955
1028.017	-2313
1028.084	-2153
1028.151	-2724
1028.218	-2409
1028.285	-1701
1028.352	-2903
1028.419	-1711
1028.486	-2132
1028.553	-1645
1028.619	-2486
1028.686	-1774
1028.753	-2660
1028.820	-1948
1028.886	-2017
1028.953	-1674
1029.020	-1810
1029.086	-2831
1029.153	-1647
1029.220	-2049
1029.286	-2436
1029.353	-2140
1029.419	-3108
1029.486	-2182
1029.552	-2652
1029.619	-1240
1029.685	-2387
1029.751	-1475
1029.818	-1548
1029.884	-2219
1029.951	-1526
1030.017	-2465
1030.083	-2356
1030.149	-1935
1030.216	-2646
1030.282	-1389
1030.348	-1904
1030.414	-2085
1030.480	-2021
1030.546	-2373
1030.612	-1866
1030.678	-1672
1030.744	-2420
1030.810	-2264
1030.876	-2256
1030.942	-2243
1031.008	-2141
1031.074	-2165
1031.140	-2226
1031.206	-1698
1031.272	-3061
1031.337	-1943
1031.403	-1898
1031.469	-2582
1031.534	-2750
1031.600	-1994
1031.666	-2892
1031.731	-2462
1031.797	-2436
1031.863	-1924
1031.928	-2507
1031.994	-2118
1032.059	-2442
1032.125	-1678
1032.190	-2806
1032.256	-2279
1032.321	-2185
1032.386	-1224
1032.452	-1954
1032.517	-2256
1032.582	-2282
1032.647	-2458
1032.713	-2379
1032.778	-1684
1032.843	-2387
1032.908	-2598
1032.974	-2800
1033.039	-1889
1033.104	-2045
1033.169	-2425
1033.234	-1909
1033.299	-1639
1033.364	-2500
1033.429	-2983
1033.494	-1985
1033.559	-2228
1033.624	-2259
1033.688	-2276
1033.753	-2686
1033.818	-1315
1033.883	-2032
1033.948	-2238
1034.013	-2245
1034.077	-1717
1034.142	-2304
1034.207	-1499
1034.271	-2170
1034.336	-1044
1034.400	-2637
1034.465	-1689
1034.530	-2110
1034.594	-1758
1034.658	-2257
1034.723	-1931
1034.787	-3300
1034.852	-975
1034.916	-2913
1034.981	-2299
1035.045	-2145
1035.109	-1738
1035.173	-2121
1035.238	-2237
1035.302	-3105
1035.366	-1543
1035.430	-2663
1035.495	-2414
1035.559	-1939
1035.623	-2117
1035.687	-2330
1035.751	-1869
1035.815	-2053
1035.879	-2526
1035.943	-1785
1036.007	-2350
1036.071	-2181
1036.135	-2572
1036.198	-2031
1036.262	-1739
1036.326	-2267
1036.390	-1614
1036.454	-2271
1036.517	-1250
1036.581	-1613
1036.645	-1161
1036.709	-2384
1036.772	-1599
1036.836	-1709
1036.900	-2510
1036.963	-2949
1037.026	-2461
1037.090	-2697
1037.154	-1989
1037.217	-2869
1037.280	-1311
1037.344	-2365
1037.407	-1890
1037.471	-2386
1037.534	-2634
1037.597	-2474
1037.661	-2577
1037.724	-3190
1037.787	-2108
1037.850	-2273
1037.913	-1674
1037.977	-1138
1038.040	-1621
1038.103	-2917
1038.166	-3277
1038.229	-1917
1038.292	-2595
1038.355	-2481
1038.418	-1887
1038.481	-1988
1038.544	-1481
1038.607	-1789
1038.670	-1629
1038.732	-2459
1038.795	-2118
1038.858	-2764
1038.921	-2138
1038.984	-1891
1039.046	-1890
1039.109	-2177
1039.172	-1641
1039.234	-2257
1039.297	-1853
1039.360	-2147
1039.422	-1931
1039.485	-2560
1039.547	-2870
1039.610	-2049
1039.672	-2201
1039.734	-1875
1039.797	-1957
1039.859	-2158
1039.922	-1705
1039.984	-2487
1040.046	-2346
1040.109	-2481
1040.171	-2368
1040.233	-2584
1040.295	-2698
1040.358	-2248
1040.420	-2441
1040.482	-2218
1040.544	-2429
1040.606	-1846
1040.668	-1237
1040.730	-2067
1040.792	-1815
1040.854	-2198
1040.916	-2588
1040.978	-2793
1041.040	-1270
1041.102	-2636
1041.164	-2307
1041.225	-2768
1041.287	-2351
1041.349	-2659
1041.411	-2243
1041.472	-2785
1041.534	-1992
1041.596	-2679
1041.657	-1482
1041.719	-2001
1041.781	-2012
1041.842	-1961
1041.904	-1984
1041.965	-2680
1042.027	-1672
1042.088	-2091
1042.150	-2460
1042.211	-1824
1042.272	-2210
1042.334	-3259
1042.395	-1631
1042.456	-3393
1042.518	-1115
1042.579	-1785
1042.640	-1678
1042.701	-2241
1042.763	-2212
1042.824	-2217
1042.885	-2368
1042.946	-2565
1043.007	-1362
1043.068	-1914
1043.129	-1474
1043.190	-2574
1043.251	-1558
1043.312	-2365
1043.373	-1786
1043.434	-2060
1043.495	-1359
1043.556	-1765
1043.616	-1118
1043.677	-2728
1043.738	-1742
1043.799	-3002
1043.859	-1239
1043.920	-1883
1043.981	-1766
1044.041	-2733
1044.102	-1698
1044.162	-2126
1044.223	-1794
1044.284	-2196
1044.344	-2218
1044.405	-1513
1044.465	-2528
1044.525	-2139
1044.586	-1723
1044.646	-2704
1044.707	-2207
1044.767	-2537
1044.827	-2435
1044.887	-1938
1044.948	-1695
1045.008	-1556
1045.068	-1568
1045.128	-2489
1045.188	-2464
1045.249	-1854
1045.309	-2119
1045.369	-2489
1045.429	-1574
1045.489	-2041
1045.549	-1816
1045.609	-1845
1045.669	-1629
1045.729	-2104
1045.789	-2263
1045.848	-1790
1045.908	-1759
1045.968	-1853
1046.028	-1845
1046.088	-1455
1046.147	-1340
1046.207	-1738
1046.267	-1627
1046.326	-1100
1046.386	-1755
1046.446	-1651
1046.505	-985
1046.565	-1411
1046.624	-871
1046.684	-656
1046.743	-515
1046.803	-1169
1046.862	-842
1046.922	0
