'Start Wavelength	183.907
'End Wavelength	1046.922
'Gate Delay	5.000
'Gate Width (ms)	1.050
'Laser Output Level	0.000
'X Position	0.000
'Y Position	0.000
'Z Position	0.000
'Grid Point Number	1.000
'Shot Number	100.000
183.907	77.000
183.977	706.000
184.047	124
184.116	552
184.186	1160
184.256	-272
184.325	622
184.395	-874
184.465	-57
184.534	-695
184.604	-120
184.674	76
184.743	-434
184.813	679
184.883	165
184.952	322
185.022	689
185.092	526
185.161	-589
185.231	541
185.301	25
185.370	444
185.440	188
185.509	37
185.579	-129
185.649	952
185.718	528
185.788	-319
185.857	242
185.927	-253
185.996	407
186.066	-494
186.136	134
186.205	-662
186.275	723
186.344	260
186.414	615
186.483	-223
186.553	1060
186.622	200
186.692	239
186.761	-143
186.831	9
186.900	-166
186.970	177
187.039	327
187.109	551
187.178	-303
187.248	351
187.317	277
187.387	290
187.456	390
187.526	666
187.595	543
187.664	-49
187.734	220
187.803	-251
187.873	815
187.942	799
188.012	187
188.081	826
188.150	608
188.220	344
188.289	608
188.358	915
188.428	718
188.497	406
188.567	643
188.636	-297
188.705	117
188.775	576
188.844	-681
188.913	577
188.983	110
189.052	113
189.121	-310
189.191	843
189.260	961
189.329	274
189.399	635
189.468	-199
189.537	151
189.606	-271
189.676	436
189.745	1097
189.814	629
189.883	749
189.953	531
190.022	1192
190.091	2289
190.161	4027
190.230	1618
190.299	301
190.368	-391
190.437	184
190.507	-125
190.576	62
190.645	54
190.714	567
190.783	565
190.853	910
190.922	735
190.991	682
191.060	1068
191.129	1308
191.198	748
191.268	380
191.337	729
191.406	1259
191.475	689
191.544	547
191.613	151
191.682	0
191.752	217
191.821	790
191.890	393
191.959	-398
192.028	255
192.097	289
192.166	145
192.235	258
192.304	968
192.373	514
192.442	935
192.511	315
192.580	241
192.650	305
192.719	-121
192.788	56
192.857	754
192.926	833
192.995	1090
193.064	1758
193.133	1441
193.202	1195
193.271	1233
193.340	1085
193.409	1630
193.478	1307
193.547	2078
193.615	2830
193.684	2534
193.753	1693
193.822	1506
193.891	661
193.960	1026
194.029	1257
194.098	1142
194.167	740
194.236	1187
194.305	393
194.374	650
194.443	512
194.512	117
194.580	602
194.649	991
194.718	1401
194.787	-48
194.856	742
194.925	540
194.994	1448
195.062	88
195.131	1060
195.200	1462
195.269	1907
195.338	1425
195.407	-13
195.475	412
195.544	1083
195.613	682
195.682	946
195.751	981
195.819	637
195.888	915
195.957	1197
196.026	1311
196.094	1772
196.163	582
196.232	314
196.301	881
196.369	961
196.438	870
196.507	984
196.576	941
196.644	706
196.713	1105
196.782	1057
196.850	1580
196.919	1263
196.988	942
197.056	312
197.125	910
197.194	1088
197.262	355
197.331	761
197.400	1144
197.468	812
197.537	511
197.606	1273
197.674	2102
197.743	3799
197.812	1172
197.880	3333
197.949	1689
198.017	3917
198.086	1915
198.155	1522
198.223	1660
198.292	3648
198.360	1015
198.429	964
198.497	1636
198.566	3128
198.635	2726
198.703	1402
198.772	1702
198.840	4911
198.909	3577
198.977	1551
199.046	1089
199.114	1331
199.183	1251
199.251	980
199.320	532
199.388	1755
199.457	729
199.525	1485
199.594	681
199.662	1335
199.731	816
199.799	849
199.867	1506
199.936	1660
200.004	1131
200.073	909
200.141	647
200.210	1144
200.278	1493
200.346	1225
200.415	1088
200.483	2065
200.552	1039
200.620	690
200.688	435
200.757	721
200.825	770
200.893	856
200.962	918
201.030	1135
201.098	633
201.167	1684
201.235	1200
201.303	1084
201.372	944
201.440	994
201.508	969
201.577	1111
201.645	1544
201.713	1125
201.781	1165
201.850	1392
201.918	1189
201.986	1230
202.055	903
202.123	1278
202.191	1021
202.259	990
202.327	613
202.396	1723
202.464	940
202.532	807
202.600	2404
202.669	2030
202.737	1824
202.805	1171
202.873	1153
202.941	1374
203.009	562
203.078	865
203.146	1137
203.214	1246
203.282	833
203.350	1598
203.418	989
203.487	1329
203.555	628
203.623	1013
203.691	600
203.759	861
203.827	1502
203.895	1278
203.963	1697
204.031	744
204.099	1120
204.168	1254
204.236	2126
204.304	1001
204.372	1644
204.440	1334
204.508	1330
204.576	1326
204.644	1122
204.712	816
204.780	1373
204.848	1641
204.916	542
204.984	1432
205.052	1147
205.120	1422
205.188	1218
205.256	1089
205.324	990
205.392	2076
205.460	1693
205.528	1634
205.596	1291
205.664	1619
205.732	1969
205.799	4993
205.867	6947
205.935	2284
206.003	2664
206.071	1846
206.139	2161
206.207	1352
206.275	1628
206.343	1575
206.411	1467
206.478	1843
206.546	1337
206.614	1558
206.682	1057
206.750	1888
206.818	2163
206.885	1394
206.953	1205
207.021	1432
207.089	1944
207.157	1330
207.225	1646
207.292	1978
207.360	2225
207.428	1997
207.496	1100
207.563	1245
207.631	1906
207.699	1268
207.767	2125
207.834	1600
207.902	1934
207.970	2117
208.038	1759
208.105	2211
208.173	2067
208.241	2903
208.309	2848
208.376	2231
208.444	4156
208.512	2469
208.579	1581
208.647	2353
208.715	2389
208.782	2024
208.850	1722
208.918	1745
208.985	2195
209.053	1688
209.120	1700
209.188	1556
209.256	1533
209.323	1270
209.391	2323
209.459	3394
209.526	1944
209.594	1185
209.661	2427
209.729	2334
209.796	2250
209.864	1870
209.932	982
209.999	3129
210.067	2881
210.134	2355
210.202	2565
210.269	3043
210.337	2222
210.404	1902
210.472	2250
210.539	2872
210.607	2340
210.674	2989
210.742	2592
210.809	2246
210.877	2250
210.944	3023
211.012	1261
211.079	3650
211.146	1698
211.214	2040
211.281	2792
211.349	2379
211.416	2259
211.484	2979
211.551	2130
211.618	1939
211.686	2515
211.753	1758
211.821	2820
211.888	1533
211.955	2724
212.023	1962
212.090	2061
212.157	2591
212.225	2383
212.292	5208
212.359	9768
212.427	20581
212.494	10228
212.561	5106
212.629	4262
212.696	3051
212.763	3521
212.831	2323
212.898	2836
212.965	1975
213.032	2306
213.100	2604
213.167	3125
213.234	3700
213.301	2762
213.369	2096
213.436	2475
213.503	1672
213.570	3075
213.638	3355
213.705	1360
213.772	1915
213.839	3420
213.906	3748
213.973	2687
214.041	2656
214.108	2576
214.175	2775
214.242	2854
214.309	2791
214.376	3102
214.444	2676
214.511	2914
214.578	2578
214.645	2537
214.712	3642
214.779	2197
214.846	3051
214.913	3326
214.980	3408
215.048	2954
215.115	3922
215.182	3621
215.249	3104
215.316	2910
215.383	3126
215.450	3173
215.517	2776
215.584	2267
215.651	2272
215.718	1801
215.785	3359
215.852	2756
215.919	3612
215.986	2832
216.053	2848
216.120	2170
216.187	2994
216.254	3524
216.321	2764
216.388	2305
216.455	3717
216.522	3548
216.589	3776
216.656	4602
216.722	5154
216.789	4687
216.856	4331
216.923	3846
216.990	3572
217.057	3598
217.124	3447
217.191	3768
217.258	5018
217.324	5335
217.391	5945
217.458	4090
217.525	3696
217.592	3365
217.659	3386
217.725	3635
217.792	4430
217.859	4214
217.926	2921
217.993	3333
218.059	3283
218.126	2800
218.193	2260
218.260	2160
218.327	2477
218.393	2201
218.460	2911
218.527	2104
218.594	3395
218.660	4071
218.727	4412
218.794	2211
218.860	2747
218.927	2325
218.994	2631
219.061	2649
219.127	2828
219.194	3890
219.261	2667
219.327	2115
219.394	2830
219.461	1630
219.527	1889
219.594	2872
219.661	1867
219.727	2294
219.794	2783
219.860	2052
219.927	2059
219.994	4350
220.060	4874
220.127	3295
220.193	3690
220.260	3699
220.326	5296
220.393	7142
220.460	7552
220.526	5541
220.593	4857
220.659	5438
220.726	6558
220.792	11840
220.859	10122
220.925	11910
220.992	13690
221.058	13593
221.125	14363
221.191	11098
221.258	5923
221.324	4240
221.391	4155
221.457	3340
221.524	4212
221.590	5443
221.657	14074
221.723	9630
221.789	9343
221.856	7581
221.922	4827
221.989	4688
222.055	3431
222.121	2801
222.188	4067
222.254	2930
222.321	3146
222.387	2429
222.453	2866
222.520	2852
222.586	1855
222.652	2889
222.719	2424
222.785	3306
222.851	2913
222.918	2602
222.984	3104
223.050	3241
223.116	1846
223.183	2861
223.249	2614
223.315	822
223.382	2145
223.448	2258
223.514	1990
223.580	1581
223.647	1863
223.713	2226
223.779	2373
223.845	2163
223.911	2466
223.978	1639
224.044	1828
224.110	2020
224.176	2306
224.242	2104
224.309	1616
224.375	2421
224.441	1686
224.507	1185
224.573	2318
224.639	2524
224.705	1529
224.772	1961
224.838	2118
224.904	2369
224.970	2024
225.036	2135
225.102	2477
225.168	2607
225.234	2948
225.300	2211
225.366	1634
225.432	1917
225.499	1987
225.565	1971
225.631	3023
225.697	3161
225.763	2942
225.829	3162
225.895	3510
225.961	4976
226.027	5173
226.093	4863
226.159	6390
226.225	8858
226.291	14960
226.357	20133
226.423	12965
226.489	8036
226.554	6700
226.620	5526
226.686	7161
226.752	10719
226.818	15973
226.884	25868
226.950	23454
227.016	11806
227.082	7926
227.148	6351
227.214	5193
227.279	5828
227.345	4657
227.411	4291
227.477	3277
227.543	4470
227.609	5476
227.674	4830
227.740	3395
227.806	3222
227.872	3815
227.938	3171
228.003	5959
228.069	3186
228.135	3257
228.201	3376
228.267	2845
228.332	3898
228.398	3287
228.464	3836
228.530	2268
228.595	2472
228.661	2361
228.727	3691
228.792	3978
228.858	2739
228.924	2793
228.990	4254
229.055	3197
229.121	4008
229.187	2165
229.252	2311
229.318	2533
229.384	2759
229.449	2997
229.515	1070
229.581	1010
229.646	2762
229.712	2755
229.777	5350
229.843	5383
229.909	5056
229.974	5522
230.040	4964
230.105	4153
230.171	3846
230.236	6074
230.302	8813
230.368	6222
230.433	4317
230.499	4458
230.564	5672
230.630	4193
230.695	2727
230.761	2917
230.826	2049
230.892	4926
230.957	2450
231.023	2725
231.088	3306
231.154	2909
231.219	2309
231.284	4629
231.350	3866
231.415	2450
231.481	3332
231.546	2791
231.612	2079
231.677	2954
231.742	1677
231.808	3142
231.873	1796
231.939	1705
232.004	5081
232.069	4820
232.135	2920
232.200	2073
232.265	2827
232.331	2113
232.396	1400
232.461	1878
232.527	1611
232.592	2485
232.657	2303
232.723	4141
232.788	2322
232.853	3035
232.918	2224
232.984	2117
233.049	1682
233.114	3500
233.179	3817
233.245	5669
233.310	6993
233.375	1782
233.440	3000
233.506	2060
233.571	1674
233.636	2354
233.701	1872
233.766	4275
233.832	4694
233.897	2409
233.962	2249
234.027	4081
234.092	3132
234.157	2748
234.222	3018
234.288	4942
234.353	13472
234.418	11401
234.483	6772
234.548	5032
234.613	4277
234.678	4187
234.743	4600
234.808	13379
234.873	8188
234.938	6165
235.004	4057
235.069	3700
235.134	2711
235.199	3901
235.264	3103
235.329	2393
235.394	3331
235.459	4837
235.524	4496
235.589	4101
235.654	3238
235.719	2000
235.784	3941
235.849	3415
235.913	7417
235.978	7564
236.043	7967
236.108	3961
236.173	4237
236.238	4944
236.303	3830
236.368	3523
236.433	6597
236.498	8646
236.563	7233
236.627	13662
236.692	34422
236.757	29838
236.822	14857
236.887	11048
236.952	9458
237.017	7426
237.081	8486
237.146	9718
237.211	20093
237.276	35201
237.341	48398
237.405	29535
237.470	13889
237.535	10154
237.600	7366
237.664	5853
237.729	5182
237.794	6450
237.859	11502
237.923	9306
237.988	5571
238.053	8089
238.118	6877
238.182	18315
238.247	15876
238.312	7962
238.376	6721
238.441	4795
238.506	5233
238.570	3314
238.635	3492
238.700	2925
238.764	2977
238.829	8128
238.893	8979
238.958	6280
239.023	4546
239.087	4192
239.152	4609
239.216	2538
239.281	3418
239.346	3450
239.410	3272
239.475	4743
239.539	17450
239.604	12764
239.668	5462
239.733	3839
239.797	3421
239.862	6879
239.926	12830
239.991	6007
240.055	3524
240.120	3640
240.184	3712
240.249	2324
240.313	2181
240.378	4095
240.442	10181
240.507	16443
240.571	5138
240.635	7710
240.700	9623
240.764	4053
240.829	3625
240.893	1989
240.957	3653
241.022	9370
241.086	15846
241.151	7235
241.215	2778
241.279	5637
241.344	8164
241.408	4596
241.472	3930
241.537	5074
241.601	4940
241.665	3670
241.730	4100
241.794	4747
241.858	4502
241.922	3948
241.987	4058
242.051	3729
242.115	3371
242.179	4349
242.244	3316
242.308	5040
242.372	4771
242.436	5633
242.501	4116
242.565	3632
242.629	3353
242.693	3701
242.757	2982
242.822	3864
242.886	4172
242.950	4986
243.014	4281
243.078	4412
243.142	4563
243.206	4279
243.271	5283
243.335	5168
243.399	9606
243.463	27743
243.527	59304
243.591	20129
243.655	9038
243.719	5657
243.783	6579
243.847	9445
243.911	12813
243.975	11269
244.040	7057
244.104	6563
244.168	4845
244.232	5615
244.296	8184
244.360	10834
244.424	6190
244.488	5542
244.552	4532
244.615	3364
244.679	3722
244.743	4419
244.807	2996
244.871	3230
244.935	3545
244.999	3421
245.063	2930
245.127	4963
245.191	7609
245.255	7189
245.319	4705
245.383	4242
245.446	4739
245.510	3178
245.574	3119
245.638	4600
245.702	3376
245.766	8253
245.829	5908
245.893	4874
245.957	4091
246.021	5450
246.085	4107
246.149	5817
246.212	12037
246.276	16090
246.340	7909
246.404	6601
246.467	6673
246.531	8460
246.595	6427
246.659	5829
246.722	4621
246.786	6197
246.850	6103
246.913	8659
246.977	3752
247.041	4375
247.104	4893
247.168	4770
247.232	10689
247.295	21368
247.359	10957
247.423	5850
247.486	9296
247.550	5868
247.614	5578
247.677	6649
247.741	4837
247.804	4472
247.868	5608
247.932	8703
247.995	20151
248.059	7774
248.122	3866
248.186	7154
248.249	11203
248.313	33724
248.376	31816
248.440	21396
248.503	8499
248.567	9186
248.630	9499
248.694	13433
248.757	17720
248.821	35233
248.884	21653
248.948	20291
249.011	27703
249.075	41591
249.138	35288
249.202	15118
249.265	10420
249.328	14364
249.392	9802
249.455	8584
249.519	6574
249.582	8249
249.645	11746
249.709	10854
249.772	8153
249.835	7499
249.899	8826
249.962	7388
250.025	6704
250.089	14832
250.152	19541
250.215	10530
250.279	7367
250.342	9709
250.405	8105
250.468	8104
250.532	10638
250.595	17765
250.658	59664
250.721	88086
250.785	34325
250.848	18884
250.911	12339
250.974	10975
251.038	14075
251.101	23194
251.164	14229
251.227	14129
251.290	13865
251.354	23451
251.417	80584
251.480	78700
251.543	63288
251.606	136096
251.669	102912
251.732	47398
251.795	39672
251.859	41975
251.922	90234
251.985	53050
252.048	23861
252.111	17536
252.174	15053
252.237	23082
252.300	45342
252.363	55830
252.426	101886
252.489	47591
252.552	27687
252.615	19060
252.678	19582
252.741	38084
252.804	55672
252.867	111003
252.930	63314
252.993	35212
253.056	21355
253.119	17910
253.182	14253
253.245	24329
253.308	17509
253.371	13382
253.434	12717
253.497	14452
253.559	21470
253.622	15165
253.685	17457
253.748	16755
253.811	9667
253.874	13523
253.937	11148
254.000	8154
254.062	14092
254.125	21945
254.188	21521
254.251	17245
254.314	8993
254.376	13298
254.439	15283
254.502	11920
254.565	14950
254.628	24966
254.690	12896
254.753	8331
254.816	7123
254.878	8207
254.941	15621
255.004	15132
255.067	7966
255.129	6877
255.192	4207
255.255	3180
255.317	5646
255.380	4275
255.443	3710
255.505	4091
255.568	3804
255.631	3909
255.693	4871
255.756	3385
255.819	4743
255.881	3275
255.944	3677
256.006	3799
256.069	3149
256.132	3705
256.194	5584
256.257	14005
256.319	9613
256.382	8197
256.444	6752
256.507	5136
256.569	5044
256.632	5582
256.694	8616
256.757	22752
256.819	56293
256.882	26417
256.944	11100
257.007	9015
257.069	10085
257.132	6841
257.194	6727
257.257	5020
257.319	5499
257.381	7252
257.444	18613
257.506	63576
257.569	66516
257.631	28136
257.693	16701
257.756	11001
257.818	8964
257.880	5819
257.943	5370
258.005	4574
258.067	5081
258.130	5358
258.192	6394
258.254	9783
258.317	6625
258.379	5402
258.441	11157
258.503	10895
258.566	17073
258.628	20283
258.690	5407
258.753	6105
258.815	9612
258.877	6437
258.939	4781
259.001	5869
259.064	5444
259.126	5787
259.188	7767
259.250	6436
259.312	6578
259.375	11078
259.437	7361
259.499	5392
259.561	4463
259.623	5394
259.685	5470
259.747	5278
259.809	16763
259.872	28814
259.934	45142
259.996	40084
260.058	12829
260.120	5966
260.182	5444
260.244	5736
260.306	3615
260.368	4641
260.430	4618
260.492	10910
260.554	16599
260.616	9470
260.678	21098
260.740	27141
260.802	7304
260.864	6608
260.926	4162
260.988	5343
261.050	6271
261.112	17741
261.174	38632
261.236	23622
261.298	8107
261.359	13773
261.421	18086
261.483	5752
261.545	5963
261.607	3163
261.669	4750
261.731	8649
261.793	17439
261.854	7073
261.916	5779
261.978	7622
262.040	7377
262.102	5162
262.164	7547
262.225	5854
262.287	4562
262.349	9069
262.411	8170
262.472	4967
262.534	8626
262.596	17803
262.658	6217
262.719	4453
262.781	6657
262.843	16309
262.904	7711
262.966	6241
263.028	9019
263.090	41102
263.151	94439
263.213	31125
263.275	17805
263.336	8805
263.398	6169
263.459	4109
263.521	3896
263.583	9537
263.644	6985
263.706	3678
263.767	2369
263.829	2779
263.891	3096
263.952	3367
264.014	2815
264.075	8733
264.137	20147
264.198	7924
264.260	3441
264.321	4168
264.383	11027
264.444	28687
264.506	9227
264.567	6734
264.629	13198
264.690	26314
264.752	8121
264.813	5694
264.875	3644
264.936	4798
264.998	3363
265.059	2902
265.120	3805
265.182	6982
265.243	30647
265.305	31420
265.366	9583
265.427	4939
265.489	4839
265.550	3197
265.611	3897
265.673	3917
265.734	4186
265.795	2856
265.857	2808
265.918	4421
265.979	10330
266.040	48055
266.102	42172
266.163	13268
266.224	11051
266.286	5895
266.347	3320
266.408	4264
266.469	3806
266.530	3755
266.592	2592
266.653	6275
266.714	9088
266.775	3342
266.836	2902
266.898	2992
266.959	6853
267.020	5156
267.081	4310
267.142	2953
267.203	2536
267.264	2007
267.326	3695
267.387	2393
267.448	1780
267.509	3500
267.570	2703
267.631	2485
267.692	1957
267.753	3513
267.814	2438
267.875	6593
267.936	12605
267.997	11093
268.058	8174
268.119	4128
268.180	3764
268.241	3024
268.302	2704
268.363	2120
268.424	3317
268.485	3748
268.546	2889
268.607	2907
268.668	2413
268.729	2005
268.790	2222
268.851	4117
268.912	9087
268.972	10263
269.033	5200
269.094	2664
269.155	3276
269.216	3352
269.277	3605
269.338	3809
269.398	2700
269.459	2875
269.520	4862
269.581	5980
269.642	6977
269.702	5116
269.763	3902
269.824	3652
269.885	4780
269.945	6592
270.006	3762
270.067	3158
270.128	3216
270.188	2734
270.249	2639
270.310	1743
270.370	2550
270.431	2993
270.492	1988
270.553	3084
270.613	6488
270.674	12079
270.734	5035
270.795	3488
270.856	5634
270.916	3970
270.977	2627
271.038	3416
271.098	3955
271.159	5439
271.219	5769
271.280	3566
271.340	2439
271.401	3778
271.462	9383
271.522	5064
271.583	3044
271.643	3891
271.704	3319
271.764	4210
271.825	9848
271.885	30824
271.946	39176
272.006	13879
272.066	19166
272.127	30958
272.187	9794
272.248	6303
272.308	6866
272.369	20152
272.429	11670
272.489	9712
272.550	10656
272.610	10267
272.671	7581
272.731	8501
272.791	12698
272.852	5951
272.912	5549
272.972	4078
273.033	3622
273.093	6318
273.153	7396
273.214	5135
273.274	5281
273.334	20309
273.394	30871
273.455	11640
273.515	13294
273.575	27297
273.635	11577
273.696	15608
273.756	29188
273.816	11258
273.876	7017
273.936	17685
273.997	30610
274.057	8467
274.117	5740
274.177	9570
274.237	40715
274.297	32800
274.358	23504
274.418	23665
274.478	17059
274.538	7959
274.598	7570
274.658	25475
274.718	29825
274.778	10691
274.838	6604
274.898	14934
274.958	42062
275.018	32696
275.078	19334
275.138	8919
275.198	5768
275.258	4321
275.318	6617
275.378	8972
275.438	9740
275.498	7082
275.558	19609
275.618	37730
275.678	20433
275.738	14136
275.798	12184
275.858	9241
275.918	4548
275.978	4706
276.038	3537
276.098	3653
276.157	7270
276.217	20533
276.277	9052
276.337	5938
276.397	4651
276.457	4821
276.517	4257
276.576	3259
276.636	3775
276.696	6264
276.756	12704
276.815	9105
276.875	3714
276.935	4320
276.995	5068
277.055	2307
277.114	2547
277.174	5022
277.234	15621
277.293	6670
277.353	3797
277.413	3687
277.472	3133
277.532	3548
277.592	4228
277.651	9074
277.711	14809
277.771	6471
277.830	21804
277.890	16432
277.950	13129
278.009	34809
278.069	12384
278.128	12470
278.188	15751
278.248	8042
278.307	16558
278.367	10251
278.426	5000
278.486	3620
278.545	2431
278.605	3963
278.664	2240
278.724	4898
278.783	11306
278.843	28315
278.902	8306
278.962	5861
279.021	5674
279.081	7021
279.140	6429
279.199	6383
279.259	5461
279.318	5279
279.378	7687
279.437	13449
279.496	40939
279.556	133820
279.615	92413
279.675	22718
279.734	14401
279.793	21824
279.853	29005
279.912	11817
279.971	6185
280.031	6093
280.090	10924
280.149	18249
280.208	19443
280.268	97883
280.327	87084
280.386	19473
280.445	15655
280.505	15007
280.564	9153
280.623	7238
280.682	10621
280.742	14336
280.801	5377
280.860	3893
280.919	3501
280.978	3771
281.037	3388
281.097	3239
281.156	3586
281.215	2516
281.274	4138
281.333	18898
281.392	14052
281.451	4320
281.510	3967
281.569	3233
281.628	2184
281.688	3082
281.747	3961
281.806	3883
281.865	2785
281.924	2373
281.983	3029
282.042	1497
282.101	1500
282.160	2764
282.219	2110
282.278	2844
282.337	9744
282.396	7260
282.454	3136
282.513	4012
282.572	14946
282.631	9278
282.690	3203
282.749	1864
282.808	5480
282.867	4877
282.926	4431
282.985	3035
283.043	1765
283.102	2587
283.161	3782
283.220	9234
283.279	18591
283.338	6180
283.396	3752
283.455	3229
283.514	3734
283.573	6156
283.631	5011
283.690	3588
283.749	2813
283.808	6726
283.866	8591
283.925	2452
283.984	4016
284.043	4066
284.101	4311
284.160	3140
284.219	7716
284.277	5343
284.336	5607
284.395	21274
284.453	17436
284.512	5689
284.570	7939
284.629	6616
284.688	4535
284.746	4856
284.805	4477
284.863	6568
284.922	7865
284.981	9238
285.039	13240
285.098	25541
285.156	62112
285.215	146893
285.273	138179
285.332	70159
285.390	35824
285.449	22186
285.507	15197
285.566	11894
285.624	9056
285.683	7036
285.741	5250
285.799	5182
285.858	5326
285.916	4932
285.975	2953
286.033	3283
286.091	2974
286.150	2809
286.208	3458
286.267	5501
286.325	4207
286.383	6488
286.442	5555
286.500	3157
286.558	2405
286.616	2381
286.675	3912
286.733	4011
286.791	3437
286.850	4400
286.908	5591
286.966	8975
287.024	3739
287.083	3450
287.141	2761
287.199	2846
287.257	5038
287.315	4711
287.374	4581
287.432	9964
287.490	7050
287.548	4677
287.606	4721
287.664	4270
287.723	7211
287.781	9276
287.839	6228
287.897	7054
287.955	9422
288.013	16564
288.071	39659
288.129	126128
288.187	264869
288.245	138436
288.303	51322
288.361	29673
288.419	24355
288.477	17457
288.535	11549
288.593	8502
288.651	6618
288.709	5456
288.767	5324
288.825	4658
288.883	4308
288.941	3622
288.999	3323
289.057	3321
289.115	3737
289.173	3391
289.231	3797
289.289	3350
289.346	3946
289.404	3838
289.462	6020
289.520	5323
289.578	4029
289.636	3000
289.694	2296
289.751	1955
289.809	1883
289.867	2537
289.925	3672
289.983	3543
290.040	2479
290.098	2124
290.156	3223
290.214	3836
290.271	2366
290.329	1985
290.387	1488
290.444	2130
290.502	2353
290.560	3071
290.617	3110
290.675	2869
290.733	2033
290.790	3251
290.848	2526
290.906	2876
290.963	2842
291.021	2304
291.078	3060
291.136	4075
291.194	12978
291.251	25738
291.309	7773
291.366	3212
291.424	2999
291.481	2315
291.539	2045
291.596	2574
291.654	1613
291.711	2036
291.769	2897
291.826	6051
291.884	3407
291.941	1814
291.999	1687
292.056	2425
292.114	2550
292.171	1649
292.228	2784
292.286	2968
292.343	5727
292.401	7167
292.458	5215
292.515	3126
292.573	4067
292.630	3518
292.687	3700
292.745	2784
292.802	5974
292.859	18537
292.917	21067
292.974	11457
293.031	4680
293.089	3056
293.146	3028
293.203	2997
293.260	2741
293.318	3936
293.375	8379
293.432	4850
293.489	2536
293.546	3418
293.604	5007
293.661	13271
293.718	33328
293.775	18585
293.832	7759
293.889	5683
293.947	5643
294.004	4543
294.061	5479
294.118	10555
294.175	24048
294.232	35161
294.289	13058
294.346	6395
294.403	6960
294.460	5299
294.517	4838
294.574	4172
294.631	3725
294.688	5981
294.745	12341
294.802	42803
294.859	51854
294.916	18803
294.973	9055
295.030	7774
295.087	6549
295.144	5597
295.201	4333
295.258	3444
295.315	6169
295.372	13836
295.429	26470
295.486	13102
295.542	9604
295.599	26387
295.656	44406
295.713	26671
295.770	26320
295.827	11788
295.883	6805
295.940	6691
295.997	8910
296.054	8328
296.111	4924
296.167	3980
296.224	2965
296.281	3668
296.338	3033
296.394	3684
296.451	4578
296.508	12271
296.564	24221
296.621	18325
296.678	30741
296.734	44965
296.791	18349
296.848	9297
296.904	10777
296.961	18849
297.018	29912
297.074	23888
297.131	9851
297.187	7745
297.244	10525
297.301	28165
297.357	48962
297.414	18982
297.470	8818
297.527	6158
297.583	5346
297.640	5269
297.696	3909
297.753	3390
297.809	2154
297.866	2631
297.922	3391
297.979	3426
298.035	3965
298.092	5950
298.148	16473
298.204	16550
298.261	8934
298.317	16365
298.374	38303
298.430	21155
298.486	10490
298.543	7826
298.599	8262
298.656	9535
298.712	14344
298.768	39182
298.824	30347
298.881	10649
298.937	5976
298.993	6166
299.050	6556
299.106	6426
299.162	4310
299.218	4804
299.275	3797
299.331	5415
299.387	9552
299.443	29673
299.500	29997
299.556	11324
299.612	6728
299.668	6065
299.724	5816
299.780	4609
299.837	5254
299.893	7965
299.949	24077
300.005	28792
300.061	24731
300.117	44659
300.173	20963
300.229	9885
300.285	11346
300.341	13182
300.397	7323
300.453	4400
300.510	4720
300.566	5133
300.622	4645
300.678	9544
300.734	20739
300.790	22994
300.845	28888
300.901	16808
300.957	22891
301.013	18993
301.069	7992
301.125	5923
301.181	6663
301.237	5026
301.293	3609
301.349	3638
301.405	2984
301.461	4164
301.516	5404
301.572	5291
301.628	8327
301.684	7978
301.740	12815
301.796	20150
301.851	13734
301.907	20262
301.963	22035
302.019	34103
302.074	83793
302.130	84061
302.186	38920
302.242	16295
302.297	11497
302.353	12290
302.409	18867
302.464	17966
302.520	13833
302.576	29609
302.631	34263
302.687	20569
302.743	9065
302.798	6275
302.854	4952
302.910	5876
302.965	7519
303.021	11645
303.076	11343
303.132	12245
303.187	14132
303.243	8413
303.299	4796
303.354	4310
303.410	4462
303.465	4438
303.521	3501
303.576	3770
303.632	6183
303.687	9423
303.743	27768
303.798	23728
303.853	9054
303.909	5878
303.964	5377
304.020	7526
304.075	11238
304.130	10735
304.186	17397
304.241	18959
304.297	14632
304.352	8702
304.358	8431
304.407	6237
304.449	5254
304.463	4927
304.518	5815
304.539	5656
304.573	5415
304.629	5745
304.630	5834
304.684	10055
304.720	16719
304.739	20046
304.794	31754
304.811	27328
304.850	16620
304.902	8188
304.905	7658
304.960	5754
304.992	6494
305.015	7010
305.071	6355
305.083	6007
305.126	4791
305.173	4084
305.181	3973
305.236	3630
305.264	3894
305.292	4185
305.347	5003
305.354	5020
305.402	5122
305.445	6100
305.457	6353
305.512	6968
305.535	6884
305.567	6904
305.622	8416
305.626	8690
305.678	14483
305.716	26563
305.733	31031
305.788	35733
305.807	31520
305.843	24110
305.897	27689
305.898	27707
305.953	28575
305.988	19750
306.008	14910
306.063	9658
306.078	8704
306.118	6702
306.168	5381
306.173	5250
306.228	4312
306.259	3750
306.283	3457
306.338	3677
306.349	3806
306.393	4278
306.440	5173
306.448	5356
306.503	6220
306.530	7412
306.558	10694
306.613	24822
306.620	26540
306.668	32902
306.711	31821
306.723	31011
306.778	22818
306.801	17591
306.833	11716
306.888	6384
306.892	6197
306.943	4878
306.982	4930
306.997	5011
307.052	4773
307.072	5149
307.107	6866
307.162	10942
307.163	11008
307.217	18367
307.253	22685
307.272	23338
307.327	24100
307.343	21611
307.381	15748
307.434	12419
307.436	12719
307.491	26456
307.524	38557
307.546	40802
307.600	31113
307.614	26862
307.655	16565
307.704	9908
307.710	9805
307.765	13317
307.795	17804
307.819	23040
307.874	40929
307.885	41119
307.929	29435
307.975	17409
307.984	16942
308.038	21123
308.065	26465
308.093	42622
308.148	85775
308.156	95460
308.202	145914
308.246	175160
308.257	170946
308.312	98757
308.336	69131
308.366	50540
308.421	31123
308.426	29644
308.475	19957
308.517	15169
308.530	14150
308.585	12004
308.607	11631
308.639	12278
308.694	14393
308.697	14675
308.748	31640
308.787	49768
308.803	49631
308.857	35849
308.877	29447
308.912	22495
308.967	17023
308.967	16987
309.021	19568
309.058	22687
309.076	27902
309.130	49267
309.148	58969
309.185	111040
309.238	198964
309.239	199469
309.293	213963
309.328	197638
309.348	171494
309.402	83113
309.418	61117
309.457	41584
309.508	25346
309.511	24679
309.566	19884
309.598	17479
309.620	17230
309.674	18230
309.688	18885
309.729	17791
309.778	14559
309.783	14273
309.837	11732
309.868	11183
309.892	13376
309.946	19918
309.959	22280
310.001	29609
310.049	35528
310.055	34606
310.109	21921
310.139	14424
310.163	11490
310.218	7850
310.229	7390
310.272	6969
310.319	6671
310.326	6736
310.381	7757
310.409	8121
310.435	7724
310.489	7087
310.499	7012
310.543	8086
310.589	9182
310.598	9050
310.652	8213
310.679	7655
310.706	6586
310.760	4021
310.769	3730
310.814	3184
310.859	2550
310.868	2557
310.923	2643
310.948	2789
310.977	3478
311.031	4981
311.038	5175
311.085	4906
311.128	4413
311.139	4224
311.193	3516
311.218	3170
311.247	3420
311.301	3840
311.308	3898
311.356	3623
311.398	3517
311.410	3470
311.464	3106
311.488	2974
311.518	2815
311.572	2489
311.578	2468
311.626	3634
311.668	4700
311.680	5152
311.734	7188
311.758	8088
311.788	7604
311.842	6663
311.847	6574
311.896	8729
311.937	10664
311.950	10529
312.004	9911
312.027	9599
312.058	7389
312.112	3513
312.117	3141
312.165	3564
312.207	3956
312.297	6281
312.386	4791
312.476	3487
312.566	7121
312.656	3866
312.745	2858
312.835	4077
312.925	4772
313.015	5345
313.104	7613
313.194	3377
313.284	3338
313.374	3684
313.463	2939
313.553	2458
313.643	2696
313.732	2959
313.822	2569
313.912	3478
314.001	3491
314.091	5123
314.180	6592
314.270	4728
314.360	6459
314.449	4825
314.539	3394
314.628	2425
314.718	4529
314.808	7182
314.897	3674
314.987	3259
315.076	3548
315.166	5815
315.255	8023
315.345	5213
315.434	7590
315.524	5850
315.613	6386
315.703	5220
315.792	6831
315.881	11638
315.971	7292
316.060	13638
316.150	31702
316.239	33997
316.328	11390
316.418	3755
316.507	3506
316.597	4826
316.686	4526
316.775	12572
316.865	37991
316.954	6488
317.043	2548
317.133	2839
317.222	2126
317.311	2587
317.400	2021
317.490	4031
317.579	3909
317.668	2608
317.757	4865
317.847	8358
317.936	20812
318.025	11155
318.114	6640
318.203	5005
318.293	8246
318.382	14215
318.471	10855
318.560	19190
318.649	47241
318.738	9986
318.828	5847
318.917	7174
319.006	12750
319.095	38362
319.184	59794
319.273	27177
319.362	9996
319.451	4701
319.540	5694
319.629	8151
319.718	12658
319.807	9149
319.896	19192
319.985	69534
320.074	22658
320.163	8977
320.252	23011
320.341	12507
320.430	8630
320.519	7100
320.608	4592
320.697	3911
320.786	3711
320.875	5075
320.964	6126
321.053	8019
321.142	11926
321.230	12335
321.319	12374
321.408	24681
321.497	14217
321.586	11819
321.675	27143
321.764	24315
321.852	14729
321.941	14616
322.030	9315
322.119	12879
322.207	29035
322.296	43731
322.385	19103
322.474	14091
322.562	25479
322.651	17929
322.740	13347
322.829	25101
322.917	47379
323.006	17916
323.095	10803
323.183	13825
323.272	19839
323.361	34485
323.449	126484
323.538	43425
323.626	88792
323.715	56690
323.804	21652
323.892	83915
323.981	41334
324.069	13642
324.158	48093
324.246	45590
324.335	7876
324.424	8980
324.512	4678
324.601	6640
324.689	13756
324.778	26708
324.866	35716
324.954	9227
325.043	5738
325.131	17020
325.220	39043
325.308	45536
325.397	27181
325.485	15066
325.574	3343
325.662	2908
325.750	2899
325.839	3047
325.927	3278
326.015	6072
326.104	18100
326.192	29754
326.280	4578
326.369	3863
326.457	3994
326.545	6268
326.634	2952
326.722	2276
326.810	2082
326.898	2831
326.987	2958
327.075	7540
327.163	17200
327.251	10030
327.340	9871
327.428	12225
327.516	2897
327.604	3383
327.692	6161
327.781	8412
327.869	19060
327.957	9609
328.045	4781
328.133	3440
328.221	8258
328.309	4727
328.397	2920
328.485	2916
328.574	5423
328.662	14184
328.750	19898
328.838	10983
328.926	4406
329.014	2846
329.102	4901
329.190	13148
329.278	7531
329.366	2603
329.454	2739
329.542	3294
329.630	2658
329.718	2567
329.806	3873
329.893	4528
329.981	5743
330.069	10516
330.157	37569
330.245	95726
330.333	49974
330.421	9624
330.509	7594
330.597	16598
330.684	12500
330.772	6550
330.860	13548
330.948	15506
331.036	4780
331.123	2216
331.211	2943
331.299	4730
331.387	11635
331.475	20475
331.562	7511
331.650	3504
331.738	5491
331.825	9812
331.913	3360
332.001	3143
332.089	6127
332.176	17691
332.264	47758
332.352	34693
332.439	6610
332.527	4496
332.614	5108
332.702	8788
332.790	5660
332.877	17326
332.965	41762
333.052	7742
333.140	6963
333.228	15706
333.315	4659
333.403	4890
333.490	26025
333.578	19029
333.665	5942
333.753	4365
333.840	3572
333.928	6774
334.015	28229
334.103	37025
334.190	105449
334.278	24102
334.365	9953
334.452	5164
334.540	3805
334.627	7846
334.715	13254
334.802	27550
334.889	157748
334.977	147626
335.064	14427
335.151	6304
335.239	6389
335.326	8611
335.413	38385
335.501	49060
335.588	6894
335.675	3760
335.762	6675
335.850	11662
335.937	9282
336.024	29943
336.111	139127
336.199	50711
336.286	6928
336.373	3657
336.460	2555
336.547	3487
336.635	5054
336.722	3503
336.809	4194
336.896	6980
336.983	21495
337.070	54650
337.157	85091
337.245	95536
337.332	71575
337.419	8683
337.506	5595
337.593	5473
337.680	19587
337.767	54784
337.854	15940
337.941	19198
338.028	33435
338.115	10407
338.202	10599
338.289	26588
338.376	98774
338.463	29445
338.550	33317
338.637	33422
338.724	18965
338.811	34430
338.898	7440
338.984	3172
339.071	4393
339.158	5001
339.245	10205
339.332	7820
339.419	20553
339.506	20158
339.593	2548
339.679	2185
339.766	1979
339.853	3315
339.940	5935
340.027	3567
340.113	2647
340.200	3937
340.287	3475
340.374	2890
340.460	5621
340.547	2708
340.634	4592
340.720	15575
340.807	8722
340.894	2795
340.980	3363
341.067	2257
341.154	2691
341.240	3427
341.327	7278
341.414	2195
341.500	1926
341.587	2254
341.674	2537
341.760	4725
341.847	5190
341.933	2580
342.020	472
342.106	1710
342.193	2036
342.279	3595
342.366	2554
342.452	4801
342.539	2458
342.625	6812
342.712	16006
342.798	6719
342.885	2792
342.971	1341
343.058	1730
343.144	1396
343.230	1783
343.317	1598
343.403	1197
343.490	1300
343.576	918
343.662	1757
343.749	2480
343.835	4709
343.921	7753
344.008	42252
344.094	92990
344.180	19587
344.267	7526
344.353	24241
344.439	33251
344.525	9574
344.612	4619
344.698	3461
344.784	2472
344.870	2027
344.957	1613
345.043	2904
345.129	2318
345.215	5196
345.301	3485
345.387	1951
345.474	1488
345.560	2014
345.646	5546
345.732	3467
345.818	2228
345.904	1866
345.990	2745
346.076	5192
346.162	13706
346.249	4011
346.335	1384
346.421	2892
346.507	9976
346.593	32056
346.679	7740
346.765	2460
346.851	1472
346.937	1564
347.023	2189
347.108	2139
347.194	1529
347.280	1453
347.366	2328
347.452	9871
347.538	39929
347.624	28475
347.710	25928
347.796	5654
347.882	2494
347.967	2282
348.053	4580
348.139	3868
348.225	1318
348.311	1166
348.397	2049
348.482	2692
348.568	2742
348.654	434
348.740	902
348.825	-18
348.911	5047
348.997	20055
349.083	41287
349.168	9086
349.254	2409
349.340	1636
349.425	1500
349.511	1835
349.597	4417
349.682	6545
349.768	20159
349.854	9524
349.939	2196
350.025	2014
350.110	2426
350.196	1024
350.282	609
350.367	2592
350.453	11204
350.538	11373
350.624	3378
350.709	3020
350.795	1757
350.880	915
350.966	3619
351.051	9653
351.137	8508
351.222	2655
351.308	6280
351.393	15224
351.479	3895
351.564	431
351.649	1608
351.735	1375
351.820	403
351.906	1605
351.991	3740
352.076	12154
352.162	14385
352.247	3032
352.332	2498
352.418	2958
352.503	4662
352.588	22894
352.673	16452
352.759	4259
352.844	1951
352.929	2004
353.014	2289
353.100	1640
353.185	2529
353.270	4914
353.355	5606
353.441	1869
353.526	5902
353.611	6122
353.696	5602
353.781	3711
353.866	1229
353.952	2107
354.037	4298
354.122	10876
354.207	9306
354.292	4231
354.377	1292
354.462	1794
354.547	2108
354.632	2493
354.717	3389
354.802	1572
354.887	1224
354.972	563
355.057	939
355.142	1245
355.227	2522
355.312	3842
355.397	7906
355.482	17368
355.567	8975
355.652	7305
355.737	7187
355.822	23507
355.907	17579
355.991	3521
356.076	1501
356.161	1779
356.246	1862
356.331	1998
356.416	6941
356.501	47025
356.585	46775
356.670	5166
356.755	4131
356.840	5920
356.924	29915
357.009	108521
357.094	38867
357.179	6867
357.263	4817
357.348	5654
357.433	5563
357.517	4305
357.602	3119
357.687	1836
357.771	4578
357.856	16478
357.941	10508
358.025	27552
358.110	113331
358.195	48515
358.279	5720
358.364	4559
358.448	15929
358.533	40465
358.617	29044
358.702	28999
358.787	9977
358.871	5604
358.956	4385
359.040	1158
359.125	1184
359.209	2231
359.294	7656
359.378	11834
359.462	3751
359.547	3447
359.631	3661
359.716	1493
359.800	1816
359.885	4990
359.969	1957
360.053	2897
360.138	2390
360.222	2052
360.306	5118
360.391	4491
360.475	8909
360.559	18516
360.644	16038
360.728	11692
360.812	25500
360.896	69315
360.981	28196
361.065	13402
361.149	3398
361.233	2990
361.318	2892
361.402	2975
361.486	3269
361.570	1964
361.654	2791
361.739	9017
361.823	44500
361.907	69063
361.991	10952
362.075	4833
362.159	9515
362.243	7049
362.327	4273
362.411	5736
362.495	5811
362.580	2441
362.664	1298
362.748	883
362.832	1614
362.916	1302
363.000	9623
363.084	41572
363.168	78482
363.252	15965
363.336	5621
363.420	10400
363.503	51682
363.587	57042
363.671	8004
363.755	3882
363.839	6131
363.923	1361
364.007	5612
364.091	9509
364.175	20360
364.258	76731
364.342	34970
364.426	12354
364.510	6866
364.594	8326
364.677	12875
364.761	59918
364.845	41038
364.929	10142
365.013	7384
365.096	6832
365.180	8287
365.264	22106
365.347	83425
365.431	34697
365.515	6884
365.598	1724
365.682	2965
365.766	7181
365.849	9298
365.933	3910
366.017	7317
366.100	4563
366.184	2275
366.267	3778
366.351	1651
366.435	436
366.518	299
366.602	436
366.685	1392
366.769	2103
366.852	6448
366.936	8190
367.019	3863
367.103	4642
367.186	11173
367.270	3210
367.353	226
367.436	1737
367.520	622
367.603	1543
367.687	2572
367.770	6189
367.853	4294
367.937	15451
368.020	24169
368.104	4855
368.187	4570
368.270	6805
368.353	6493
368.437	19945
368.520	70740
368.603	30828
368.687	18270
368.770	31596
368.853	7316
368.936	8532
369.020	8965
369.103	2465
369.186	1792
369.269	1462
369.352	4832
369.436	6801
369.519	3361
369.602	937
369.685	3011
369.768	2217
369.851	2236
369.934	747
370.018	1729
370.101	4606
370.184	5710
370.267	4165
370.350	5761
370.433	10869
370.516	29033
370.599	33546
370.682	8496
370.765	15376
370.848	21197
370.931	40817
371.014	17224
371.097	2947
371.180	1639
371.263	727
371.346	431
371.429	1789
371.511	1102
371.594	3262
371.677	8181
371.760	10806
371.843	7852
371.926	38998
372.009	89877
372.091	26976
372.174	19001
372.257	43061
372.340	15578
372.423	14385
372.505	18965
372.588	6723
372.671	12519
372.754	39465
372.836	19708
372.919	23596
373.002	46070
373.085	10807
373.167	6000
373.250	16026
373.332	37913
373.415	60675
373.498	125192
373.580	41530
373.663	54506
373.746	75079
373.828	14693
373.911	7028
373.993	9705
374.076	47662
374.159	47802
374.241	15448
374.324	31688
374.406	21813
374.489	34518
374.571	96992
374.654	36547
374.736	18985
374.819	62001
374.901	88929
374.983	90488
375.066	15606
375.148	8086
375.231	38181
375.313	71258
375.395	22923
375.478	4163
375.560	2873
375.643	4659
375.725	20822
375.807	85484
375.890	89667
375.972	58442
376.054	26151
376.136	57918
376.219	22345
376.301	22670
376.383	63772
376.465	22762
376.548	11885
376.630	16575
376.712	51564
376.794	21823
376.877	2455
376.959	965
377.041	2475
377.123	9664
377.205	11001
377.287	1984
377.369	359
377.452	2482
377.534	1231
377.616	1821
377.698	726
377.780	374
377.862	1697
377.944	1283
378.026	603
378.108	1313
378.190	538
378.272	927
378.354	1031
378.436	553
378.518	4448
378.600	17870
378.682	11910
378.764	21001
378.846	16164
378.928	5229
379.010	5382
379.091	3033
379.173	2055
379.255	53
379.337	1965
379.419	10672
379.501	31166
379.583	11953
379.664	2442
379.746	7653
379.828	19905
379.910	27306
379.991	24497
380.073	3652
380.155	2474
380.237	1765
380.318	307
380.400	1787
380.482	4421
380.564	6691
380.645	4878
380.727	4875
380.809	2959
380.890	1937
380.972	466
381.053	1215
381.135	2318
381.217	7213
381.298	20523
381.380	10470
381.461	11188
381.543	53393
381.624	62324
381.706	10188
381.787	5732
381.869	5687
381.951	25276
382.032	97398
382.113	56377
382.195	9461
382.276	6382
382.358	13648
382.439	44173
382.521	53582
382.602	87792
382.684	36087
382.765	58439
382.846	45906
382.928	32937
383.009	17171
383.090	14272
383.172	48372
383.253	71119
383.334	37448
383.416	66950
383.497	31226
383.578	8903
383.659	14853
383.741	45784
383.822	117790
383.903	59352
383.984	34979
384.066	77852
384.147	43983
384.228	7938
384.309	5656
384.390	3786
384.471	3180
384.553	2943
384.634	6320
384.715	5188
384.796	2350
384.877	4130
384.958	18355
385.039	21328
385.120	6520
385.201	3982
385.282	5531
385.363	7275
385.444	5299
385.525	8834
385.606	34869
385.687	29463
385.768	7803
385.849	9660
385.930	42485
386.011	74573
386.092	17428
386.173	3989
386.254	3514
386.335	3917
386.416	3252
386.496	12930
386.577	21175
386.658	10020
386.739	4917
386.820	6590
386.901	5146
386.981	3985
387.062	1933
387.143	4811
387.224	20269
387.304	19045
387.385	6520
387.466	4264
387.547	7491
387.627	3039
387.708	7900
387.789	40082
387.869	48206
387.950	12774
388.031	2423
388.111	1855
388.192	12877
388.273	18980
388.353	9950
388.434	3990
388.514	8417
388.595	42903
388.676	51134
388.756	20736
388.837	18249
388.917	9401
388.998	1860
389.078	2346
389.159	2303
389.239	643
389.320	4354
389.400	2605
389.480	10210
389.561	23669
389.641	11273
389.722	3978
389.802	5689
389.883	10971
389.963	31945
390.043	27021
390.124	10503
390.204	8373
390.284	23993
390.365	16023
390.445	34204
390.525	91321
390.605	72466
390.686	14471
390.766	3914
390.846	2465
390.927	880
391.007	1209
391.087	3228
391.167	2308
391.247	2021
391.328	10335
391.408	12914
391.488	6928
391.568	1122
391.648	1904
391.728	3407
391.808	2986
391.888	4106
391.969	11422
392.049	19028
392.129	10216
392.209	11395
392.289	27226
392.369	14965
392.449	18739
392.529	9475
392.609	5437
392.689	7507
392.769	25237
392.849	19941
392.929	18122
393.009	42090
393.089	25285
393.169	14070
393.248	54411
393.328	279877
393.408	289562
393.488	51723
393.568	10802
393.648	5782
393.728	3773
393.807	2820
393.887	3650
393.967	3171
394.047	3888
394.127	6793
394.206	12648
394.286	57755
394.366	248096
394.446	259224
394.525	55930
394.605	13222
394.685	11351
394.764	28605
394.844	48728
394.924	31194
395.003	6611
395.083	4568
395.163	3020
395.242	3500
395.322	3517
395.402	1688
395.481	5158
395.561	19302
395.640	50242
395.720	32640
395.799	59682
395.879	46441
395.958	23261
396.038	85147
396.117	328263
396.197	351036
396.276	97361
396.356	30014
396.435	21521
396.515	11141
396.594	8214
396.673	15667
396.753	71598
396.832	256862
396.912	172212
396.991	32159
397.070	8065
397.150	3532
397.229	3358
397.308	2045
397.388	3044
397.467	3050
397.546	1668
397.625	-39
397.705	3237
397.784	2709
397.863	764
397.942	1669
398.022	2384
398.101	16885
398.180	53565
398.259	26320
398.338	5114
398.417	2504
398.497	1639
398.576	2482
398.655	123
398.734	1653
398.813	2191
398.892	18000
398.971	58347
399.050	26712
399.129	2200
399.208	780
399.287	1061
399.366	695
399.445	855
399.524	1509
399.603	-117
399.682	3788
399.761	14559
399.840	60771
399.919	46338
399.998	5264
400.077	409
400.156	575
400.235	3331
400.313	1296
400.392	1901
400.471	10616
400.550	15709
400.629	3285
400.708	1938
400.786	3111
400.865	11330
400.944	11499
401.023	4101
401.102	173
401.180	831
401.259	684
401.338	2254
401.416	2573
401.495	1610
401.574	2010
401.652	1304
401.731	2407
401.810	1422
401.888	443
401.967	-567
402.046	565
402.124	2434
402.203	2587
402.281	1421
402.360	3268
402.438	14830
402.517	9240
402.596	2215
402.674	2285
402.753	770
402.831	1663
402.910	1124
402.988	4493
403.066	12529
403.145	6674
403.223	4260
403.302	7954
403.380	5883
403.459	5213
403.537	2186
403.615	1227
403.694	-648
403.772	1157
403.850	-153
403.929	240
404.007	162
404.085	1834
404.164	485
404.242	693
404.320	5237
404.398	17617
404.477	22584
404.555	68850
404.633	58063
404.711	15643
404.789	6926
404.868	1582
404.946	-207
405.024	123
405.102	-351
405.180	-739
405.258	-1118
405.336	842
405.415	635
405.493	4303
405.571	2350
405.649	278
405.727	-477
405.805	3153
405.883	1299
405.961	2887
406.039	3609
406.117	604
406.195	2191
406.273	13871
406.351	54544
406.429	31335
406.507	5260
406.585	1483
406.663	1084
406.740	1033
406.818	625
406.896	478
406.974	1347
407.052	3205
407.130	29468
407.208	40189
407.285	7776
407.363	279
407.441	494
407.519	561
407.596	1849
407.674	4496
407.752	17522
407.830	18781
407.907	7198
407.985	1016
408.063	818
408.141	392
408.218	3171
408.296	2021
408.373	231
408.451	665
408.529	970
408.606	-20
408.684	-718
408.762	20
408.839	-920
408.917	-362
408.994	393
409.072	-1511
409.149	-319
409.227	725
409.304	250
409.382	72
409.459	-1611
409.537	778
409.614	350
409.692	-522
409.769	-855
409.846	520
409.924	2279
410.001	93
410.079	545
410.156	1262
410.233	373
410.311	289
410.388	13
410.465	1092
410.543	-244
410.620	884
410.697	-329
410.775	-11
410.852	-1087
410.929	938
411.006	1577
411.083	-303
411.161	2786
411.238	4778
411.315	940
411.392	-49
411.469	975
411.547	1192
411.624	-461
411.701	-146
411.778	799
411.855	1865
411.932	-166
412.009	-722
412.086	191
412.163	1043
412.240	439
412.317	2435
412.394	1683
412.471	321
412.548	-403
412.625	187
412.702	1160
412.779	3440
412.856	1460
412.933	-731
413.010	365
413.087	2159
413.164	9885
413.241	12824
413.318	1480
413.395	1279
413.471	1593
413.548	482
413.625	8
413.702	469
413.779	1256
413.855	-59
413.932	-323
414.009	-1046
414.086	-156
414.162	232
414.239	1132
414.316	9576
414.393	21927
414.469	5899
414.546	497
414.623	93
414.699	-861
414.776	-409
414.853	-380
414.929	409
415.006	-11
415.082	1084
415.159	295
415.236	360
415.312	-153
415.389	1886
415.465	1132
415.542	559
415.618	-1224
415.695	1330
415.771	-251
415.848	63
415.924	642
416.000	490
416.077	-369
416.153	-779
416.230	-2021
416.306	-212
416.383	128
416.459	936
416.535	-1153
416.612	-912
416.688	-130
416.764	-210
416.841	-1216
416.917	-379
416.993	-213
417.069	695
417.146	1814
417.222	2176
417.298	792
417.374	716
417.451	768
417.527	523
417.603	520
417.679	279
417.755	324
417.831	-971
417.908	-243
417.984	-171
418.060	-1091
418.136	1969
418.212	1705
418.288	450
418.364	20
418.440	-791
418.516	886
418.592	3607
418.668	4973
418.744	4519
418.820	3163
418.896	461
418.972	-1055
419.048	152
419.124	2244
419.200	483
419.276	-846
419.352	-1213
419.428	-657
419.504	371
419.579	470
419.655	-321
419.731	-430
419.807	2910
419.883	5870
419.959	4269
420.034	1165
420.110	2402
420.186	12810
420.262	8639
420.337	638
420.413	325
420.489	464
420.565	566
420.640	-362
420.716	553
420.792	-1477
420.867	1012
420.943	-528
421.019	1303
421.094	-150
421.170	-69
421.245	-1319
421.321	-778
421.397	-961
421.472	2492
421.548	6373
421.623	4573
421.699	1425
421.774	160
421.850	-1007
421.925	1780
422.001	1116
422.076	277
422.152	-87
422.227	2122
422.302	1397
422.378	2869
422.453	4427
422.529	15510
422.604	73377
422.679	157664
422.755	74566
422.830	15181
422.905	4138
422.981	760
423.056	972
423.131	1157
423.207	369
423.282	-352
423.357	2735
423.432	1059
423.508	1616
423.583	4425
423.658	3468
423.733	1030
423.808	681
423.883	1476
423.959	228
424.034	-850
424.109	-83
424.184	-1427
424.259	-786
424.334	-827
424.409	-1390
424.484	-512
424.559	-406
424.634	-452
424.709	519
424.784	1109
424.859	-275
424.934	398
425.009	7874
425.084	14354
425.159	4552
425.234	6
425.309	-481
425.384	2886
425.459	4232
425.534	1740
425.609	88
425.683	-7
425.758	-1095
425.833	-69
425.908	1456
425.983	4826
426.058	14505
426.132	6252
426.207	323
426.282	3546
426.357	2311
426.431	-201
426.506	181
426.581	329
426.655	99
426.730	-363
426.805	-684
426.879	268
426.954	-689
427.029	2614
427.103	15780
427.178	43347
427.253	17946
427.327	1833
427.402	3603
427.476	9207
427.551	3649
427.625	1739
427.700	834
427.774	-664
427.849	995
427.923	-559
427.998	-1013
428.072	-76
428.147	2451
428.221	6880
428.296	16580
428.370	6680
428.444	1385
428.519	4581
428.593	11376
428.667	10090
428.742	10730
428.816	9482
428.890	19516
428.965	22633
429.039	13512
429.113	12183
429.188	3296
429.262	610
429.336	2091
429.410	8179
429.485	6018
429.559	9325
429.633	6803
429.707	1095
429.781	5186
429.855	25707
429.930	31882
430.004	31765
430.078	58269
430.152	40665
430.226	27818
430.300	23565
430.374	2751
430.448	2778
430.522	17464
430.596	54741
430.670	26912
430.744	31735
430.818	48597
430.892	11030
430.966	882
431.040	313
431.114	-838
431.188	-496
431.262	118
431.336	365
431.410	4627
431.484	14248
431.557	7377
431.631	59
431.705	-120
431.779	2409
431.853	12151
431.927	8076
432.000	428
432.074	-358
432.148	1233
432.222	1286
432.295	76
432.369	315
432.443	1512
432.516	17884
432.590	46119
432.664	16512
432.737	2110
432.811	-294
432.885	-1099
432.958	-353
433.032	-973
433.106	-548
433.179	-1266
433.253	-1254
433.326	-1222
433.400	-1048
433.473	-866
433.547	-834
433.620	-609
433.694	585
433.767	1887
433.841	820
433.914	-662
433.988	-746
434.061	-774
434.134	-508
434.208	-660
434.281	-888
434.355	-1714
434.428	365
434.501	-239
434.575	221
434.648	-231
434.721	-425
434.795	-1357
434.868	-1125
434.941	-1156
435.014	-1258
435.088	-1350
435.161	-662
435.234	-299
435.307	521
435.381	-679
435.454	-189
435.527	-623
435.600	-799
435.673	-534
435.746	-866
435.819	-976
435.892	-1104
435.966	-958
436.039	-401
436.112	-151
436.185	-1859
436.258	-1088
436.331	-1654
436.404	-776
436.477	-1228
436.550	-887
436.623	-547
436.696	-1465
436.769	-540
436.842	-721
436.915	195
436.987	205
437.060	-490
437.133	-1204
437.206	-628
437.279	227
437.352	-1251
437.425	-1051
437.498	32
437.570	430
437.643	573
437.716	-897
437.789	-313
437.861	645
437.934	4071
438.007	1163
438.080	-710
438.152	383
438.225	2489
438.298	24799
438.370	69053
438.443	28340
438.516	5276
438.588	-117
438.661	-545
438.734	-709
438.806	-373
438.879	-243
438.951	221
439.024	1835
439.096	339
439.169	-379
439.241	-656
439.314	-899
439.386	1949
439.459	4264
439.531	6262
439.604	1062
439.676	-647
439.749	-880
439.821	-868
439.893	-145
439.966	-322
440.038	-417
440.110	-99
440.183	-646
440.255	-383
440.327	81
440.400	10196
440.472	38832
440.544	26286
440.617	2382
440.689	1486
440.761	1870
440.833	3835
440.905	2040
440.978	-1322
441.050	-900
441.122	133
441.194	-1667
441.266	-427
441.338	-644
441.411	986
441.483	9124
441.555	14582
441.627	3371
441.699	2606
441.771	2270
441.843	420
441.915	-494
441.987	-326
442.059	-923
442.131	837
442.203	1654
442.275	1354
442.347	558
442.419	1117
442.491	4204
442.563	9586
442.635	7363
442.706	11419
442.778	8909
442.850	437
442.922	-739
442.994	335
443.066	747
443.137	786
443.209	-589
443.281	-100
443.353	2256
443.425	8349
443.496	20268
443.568	18374
443.640	6173
443.711	1919
443.783	80
443.855	-309
443.926	-401
443.998	251
444.070	1016
444.141	450
444.213	550
444.285	2029
444.356	2785
444.428	3208
444.499	-242
444.571	-804
444.642	-946
444.714	-715
444.785	-294
444.857	2785
444.928	9956
445.000	5652
445.071	6294
445.143	6000
445.214	1240
445.285	3511
445.357	15068
445.428	22254
445.500	41392
445.571	30171
445.642	11257
445.714	10279
445.785	15175
445.856	2961
445.928	1383
445.999	1352
446.070	1627
446.141	665
446.213	1198
446.284	719
446.355	1452
446.426	-255
446.497	-597
446.569	1464
446.640	3051
446.711	1766
446.782	-392
446.853	3431
446.924	1958
446.995	466
447.066	487
447.138	3563
447.209	1333
447.280	-1343
447.351	-1084
447.422	-1360
447.493	218
447.564	637
447.635	-468
447.706	-114
447.777	-710
447.847	-512
447.918	-1057
447.989	611
448.060	2012
448.131	6360
448.202	3962
448.273	1641
448.344	454
448.414	-384
448.485	-876
448.556	-182
448.627	-738
448.698	391
448.768	-877
448.839	-664
448.910	3021
448.981	1891
449.051	-253
449.122	-455
449.193	-582
449.263	-428
449.334	-633
449.405	-194
449.475	1409
449.546	2031
449.616	3394
449.687	3135
449.758	379
449.828	-407
449.899	-538
449.969	20
450.040	-803
450.110	2308
450.181	2108
450.251	-269
450.322	-97
450.392	-86
450.463	-134
450.533	-728
450.604	-471
450.674	-1300
450.744	-49
450.815	-209
450.885	-200
450.955	-752
451.026	-1075
451.096	-776
451.166	646
451.237	3080
451.307	10200
451.377	2939
451.447	-51
451.518	-927
451.588	-542
451.658	120
451.728	2030
451.799	11408
451.869	12593
451.939	2338
452.009	-521
452.079	-99
452.149	93
452.219	2286
452.289	13137
452.360	9384
452.430	1194
452.500	145
452.570	332
452.640	1384
452.710	6412
452.780	11249
452.850	5712
452.920	3949
452.990	1339
453.060	883
453.129	847
453.199	2515
453.269	15339
453.339	35513
453.409	55735
453.479	54576
453.549	77313
453.619	82322
453.688	31093
453.758	4777
453.828	600
453.898	301
453.968	-260
454.037	130
454.087	-267
454.107	-462
454.168	9
454.177	42
454.247	-720
454.249	-665
454.316	34
454.330	128
454.386	283
454.411	2805
454.456	6196
454.492	8395
454.525	10222
454.574	5147
454.595	3012
454.655	1227
454.665	1002
454.734	1807
454.736	1968
454.804	4721
454.817	6922
454.873	13568
454.898	15136
454.943	16997
454.979	12004
455.013	7984
455.060	3638
455.082	2236
455.141	4172
455.152	4347
455.221	13100
455.222	13429
455.291	22351
455.303	22446
455.360	21398
455.384	26319
455.430	32559
455.465	26385
455.499	20553
455.546	17726
455.569	15594
455.627	9020
455.638	8123
455.707	1587
455.708	1613
455.777	304
455.789	455
455.846	980
455.869	943
455.916	1040
455.950	1331
455.985	1296
456.031	930
456.054	798
456.112	696
456.124	650
456.193	1131
456.193	1102
456.262	2124
456.274	2444
456.332	3381
456.355	3536
456.401	3172
456.436	2448
456.470	1795
456.516	1529
456.540	1488
456.597	895
456.609	733
456.678	557
456.678	537
456.747	555
456.759	524
456.817	287
456.840	400
456.886	551
456.920	795
456.955	1052
457.001	1178
457.024	1452
457.082	2373
457.093	2535
457.162	5027
457.163	5077
457.232	7141
457.243	6855
457.301	3651
457.324	2480
457.370	1592
457.405	1597
457.439	1592
457.485	1659
457.508	1784
457.566	2138
457.577	2155
457.646	2171
457.647	2206
457.715	3530
457.727	3668
457.784	3848
457.808	3934
457.853	4349
457.889	5178
457.922	5119
457.969	4684
457.991	4957
458.050	5769
458.060	5879
458.129	7128
458.130	7190
458.198	6481
458.211	6250
458.267	4243
458.292	3503
458.336	3391
458.372	3224
458.405	3578
458.453	4570
458.474	5478
458.533	8128
458.543	8444
458.611	11978
458.614	12144
458.680	8691
458.694	7606
458.749	5174
458.775	4238
458.818	3538
458.855	3117
458.887	3106
458.936	2918
458.955	2775
459.016	3379
459.024	3442
459.093	3348
459.097	3378
459.162	3893
459.177	4008
459.230	4534
459.257	4890
459.299	4969
459.338	5042
459.368	5469
459.418	6160
459.437	5704
459.499	4468
459.505	4492
459.574	3911
459.579	3924
459.643	3278
459.659	3130
459.711	3642
459.740	4042
459.780	4324
459.820	4495
459.849	4567
459.900	5191
459.917	5365
459.981	5264
459.986	5175
460.054	3981
460.061	3969
460.123	4639
460.141	4756
460.191	5685
460.222	6343
460.260	6955
460.302	7444
460.328	6862
460.382	5855
460.397	5911
460.462	5786
460.465	5863
460.534	7993
460.543	8338
460.602	22045
460.623	27048
460.671	42561
460.703	55005
460.739	49252
460.783	39983
460.808	31920
460.864	8640
460.876	7747
460.944	5971
460.945	5948
461.013	5644
461.024	5620
461.081	5672
461.104	5678
461.150	5177
461.184	5076
461.218	5033
461.264	4830
461.286	5160
461.345	5879
461.355	5866
461.423	5902
461.425	5908
461.491	6992
461.505	7293
461.559	13817
461.585	16612
461.628	28047
461.665	39189
461.696	44053
461.745	53720
461.764	45478
461.825	12815
461.832	12343
461.901	7672
461.905	7575
461.969	7007
461.985	6817
462.037	6802
462.065	6702
462.105	7660
462.145	8837
462.173	13181
462.225	21187
462.241	23760
462.305	35369
462.310	34327
462.378	17483
462.385	15305
462.446	9021
462.465	7329
462.514	7481
462.545	7914
462.582	7927
462.625	7570
462.650	7231
462.705	7168
462.718	7602
462.785	9283
462.786	9357
462.854	13596
462.865	14345
462.922	18220
462.945	19878
462.990	14323
463.025	9244
463.058	8193
463.104	6947
463.126	6924
463.184	7146
463.194	7218
463.262	7633
463.264	7651
463.330	8370
463.344	8464
463.398	9735
463.424	10286
463.466	9919
463.504	9836
463.533	9849
463.583	9488
463.601	9858
463.663	11236
463.669	11519
463.737	14696
463.743	14991
463.805	24280
463.823	26918
463.873	40797
463.903	49525
463.940	54284
463.982	60011
464.008	47468
464.062	18782
464.076	17225
464.142	9348
464.144	9322
464.211	8952
464.221	8944
464.279	9210
464.301	9296
464.347	10419
464.381	11185
464.414	12570
464.461	14681
464.482	15652
464.540	18245
464.550	17508
464.617	11671
464.620	11453
464.685	12153
464.699	12328
464.753	14937
464.779	16171
464.820	17776
464.859	19242
464.888	19181
464.938	19065
464.956	19220
465.018	19605
465.023	19360
465.091	15759
465.098	15341
465.158	15403
465.177	15473
465.226	16044
465.257	16273
465.293	16464
465.336	16653
465.361	17607
465.416	19776
465.428	21287
465.495	29140
465.496	29319
465.563	49501
465.575	52939
465.631	65944
465.654	71551
465.698	46069
465.734	24176
465.765	21217
465.813	16640
465.833	16539
465.893	16629
465.900	16679
465.968	17031
465.972	17007
466.035	16753
466.052	16694
466.102	17673
466.131	18139
466.170	18522
466.210	18838
466.237	19309
466.290	20189
466.304	20701
466.369	22717
466.372	22799
466.439	23893
466.449	24009
466.506	26310
466.528	27089
466.573	34016
466.607	39136
466.641	54111
466.687	74803
466.708	83478
466.766	107151
466.775	99723
466.842	42177
466.845	39356
466.909	30694
466.925	28610
466.977	27507
467.004	26895
467.044	27312
467.083	27613
467.111	29122
467.163	31804
467.178	32398
467.242	34507
467.245	34422
467.312	31123
467.321	30619
467.379	30456
467.400	30298
467.446	31834
467.480	32828
467.559	30988
467.638	26325
467.717	26393
467.796	26920
467.875	29040
467.955	28436
468.034	38508
468.113	82586
468.192	125843
468.271	38961
468.350	21118
468.429	20533
468.508	20679
468.588	20118
468.667	22253
468.746	22895
468.825	22958
468.904	19186
468.983	23437
469.062	34788
469.141	44414
469.220	20002
469.299	18192
469.378	21074
469.456	23199
469.535	21652
469.614	20999
469.693	21935
469.772	28800
469.851	38674
469.930	29455
470.009	18809
470.088	16888
470.166	17608
470.245	19258
470.324	20186
470.403	19634
470.482	18842
470.560	16972
470.639	17757
470.718	21378
470.797	18516
470.875	21078
470.954	28875
471.033	34992
471.111	16382
471.190	15715
471.269	14404
471.347	14165
471.426	16462
471.505	19470
471.583	19843
471.662	19394
471.740	16431
471.819	16638
471.898	15409
471.976	16089
472.055	15000
472.133	18316
472.212	25658
472.290	27724
472.369	18133
472.447	15180
472.526	14954
472.604	15165
472.683	15743
472.761	16372
472.839	15620
472.918	15976
472.996	16226
473.075	18457
473.153	18385
473.231	16230
473.310	17970
473.388	17982
473.466	16367
473.545	17845
473.623	21351
473.701	22056
473.780	16116
473.858	14537
473.936	19285
474.014	16050
474.093	17221
474.171	27400
474.249	40282
474.327	27914
474.405	13675
474.484	15388
474.562	14435
474.640	16081
474.718	16914
474.796	17911
474.874	17637
474.952	16494
475.030	16359
475.108	17675
475.187	20649
475.265	20951
475.343	21535
475.421	21909
475.499	17881
475.577	18274
475.655	22575
475.733	46832
475.811	83494
475.889	76539
475.966	53904
476.044	15965
476.122	15291
476.200	16980
476.278	16037
476.356	14344
476.434	16840
476.512	16464
476.590	18472
476.667	18808
476.745	13134
476.823	14614
476.901	14177
476.979	15838
477.056	15534
477.134	15312
477.212	15920
477.290	14869
477.367	12886
477.445	13391
477.523	13674
477.601	13698
477.678	13708
477.756	18127
477.834	20944
477.911	13908
477.989	13416
478.066	14109
478.144	15460
478.222	14875
478.299	15376
478.377	15838
478.454	13094
478.532	12646
478.609	12469
478.687	15300
478.764	12658
478.842	13509
478.919	15326
478.997	15065
479.074	12518
479.152	15805
479.229	21663
479.307	15250
479.384	11369
479.461	10327
479.539	13332
479.616	16956
479.694	13977
479.771	15579
479.848	16870
479.926	22881
480.003	26381
480.080	13432
480.157	12669
480.235	12344
480.312	12807
480.389	14898
480.467	26764
480.544	36060
480.621	17714
480.698	14125
480.775	16589
480.853	17409
480.930	14364
481.007	14526
481.084	17646
481.161	19904
481.238	18062
481.315	12603
481.392	13190
481.470	12729
481.547	13604
481.624	13872
481.701	13342
481.778	13284
481.855	15692
481.932	24409
482.009	44021
482.086	32667
482.163	12462
482.240	13751
482.317	16778
482.393	16267
482.470	13491
482.547	13311
482.624	11851
482.701	13725
482.778	13141
482.855	11104
482.932	11266
483.009	10353
483.085	12892
483.162	16239
483.239	15107
483.316	11822
483.393	10877
483.469	11590
483.546	14968
483.623	17635
483.699	12299
483.776	14433
483.853	16223
483.930	23934
484.006	64647
484.083	116533
484.160	53720
484.236	62297
484.313	50616
484.389	39024
484.466	34534
484.543	31641
484.619	31845
484.696	33088
484.772	36638
484.849	39599
484.925	32490
485.002	30300
485.078	33314
485.155	33951
485.231	30062
485.308	30030
485.384	31735
485.461	38755
485.537	67482
485.614	88055
485.690	34222
485.766	28326
485.843	29336
485.919	35166
485.995	38417
486.072	27570
486.148	26181
486.224	26267
486.301	27655
486.377	33116
486.453	34495
486.530	31688
486.606	38168
486.682	45714
486.758	57691
486.835	71345
486.911	52854
486.987	84188
487.063	78602
487.139	78467
487.215	59600
487.292	33934
487.368	29477
487.444	31382
487.520	37261
487.596	33572
487.672	33167
487.748	48862
487.824	65359
487.900	42148
487.976	30405
488.052	32795
488.128	40282
488.204	34113
488.280	29536
488.356	34863
488.432	76837
488.508	127771
488.584	45114
488.660	26173
488.736	26755
488.812	27055
488.888	33026
488.964	39572
489.039	69454
489.115	107538
489.191	72971
489.267	28877
489.343	27009
489.418	23619
489.494	22367
489.570	21335
489.646	24387
489.722	23702
489.797	26032
489.873	39146
489.949	89807
490.024	86525
490.100	24068
490.176	21809
490.251	25245
490.327	31426
490.403	22812
490.478	20311
490.554	17451
490.629	19525
490.705	18325
490.781	20540
490.856	22187
490.932	24227
491.007	21795
491.083	23790
491.158	21660
491.234	30558
491.309	65856
491.385	78285
491.460	24135
491.536	25047
491.611	21193
491.686	22257
491.762	28642
491.837	47722
491.913	81146
491.988	107874
492.063	137983
492.139	56162
492.214	37629
492.289	18477
492.365	16882
492.440	21517
492.515	20716
492.590	23406
492.666	17755
492.741	24465
492.816	42131
492.891	24883
492.967	17390
493.042	15331
493.117	18317
493.192	19393
493.267	30856
493.342	92070
493.418	137075
493.493	31149
493.568	15649
493.643	15706
493.718	20201
493.793	30282
493.868	32387
493.943	19848
494.018	16058
494.093	16468
494.168	16717
494.243	13834
494.318	13592
494.393	14627
494.468	14139
494.543	13696
494.618	16003
494.693	14342
494.768	14486
494.842	16723
494.917	12517
494.992	14765
495.067	13780
495.142	12821
495.217	15423
495.292	15903
495.366	18582
495.441	21709
495.516	28597
495.591	34733
495.665	87878
495.740	215871
495.815	106939
495.890	27872
495.964	21094
496.039	23548
496.114	21825
496.188	22998
496.263	24702
496.338	21763
496.412	25442
496.487	30606
496.561	29355
496.636	30705
496.710	27075
496.785	29162
496.860	34520
496.934	29651
497.009	28011
497.083	29222
497.158	31874
497.232	35813
497.307	44277
497.381	40138
497.455	47036
497.530	62380
497.604	50831
497.679	51941
497.753	71491
497.827	95526
497.902	89738
497.976	97780
498.050	159790
498.125	511726
498.199	596620
498.273	129973
498.348	96681
498.422	86825
498.496	80569
498.570	72108
498.645	62697
498.719	60648
498.793	65563
498.867	82668
498.941	99591
499.016	210262
499.090	574993
499.164	256449
499.238	40617
499.312	34147
499.386	36827
499.460	35715
499.534	34085
499.609	37485
499.683	56462
499.757	56376
499.831	92864
499.905	368109
499.979	404009
500.053	71719
500.127	63034
500.201	39197
500.275	28548
500.349	28285
500.422	31537
500.496	41045
500.570	71785
500.644	193483
500.718	419163
500.792	112764
500.866	28573
500.940	35462
501.013	31306
501.087	29410
501.161	45298
501.235	58924
501.309	127405
501.382	359229
501.456	353335
501.530	75521
501.603	127437
501.677	57385
501.751	21769
501.825	26934
501.898	46819
501.972	150017
502.046	109456
502.119	27267
502.193	60060
502.266	165828
502.340	93040
502.413	68707
502.487	148434
502.561	92455
502.634	30482
502.708	17847
502.781	16878
502.855	15486
502.928	13511
503.002	13835
503.075	14331
503.149	16616
503.222	17076
503.295	19908
503.369	24822
503.442	32529
503.516	101678
503.589	291622
503.662	211566
503.736	60636
503.809	127585
503.882	116118
503.956	139815
504.029	140511
504.102	40508
504.175	37415
504.249	20891
504.322	21661
504.395	21409
504.468	14526
504.542	15012
504.615	12873
504.688	12189
504.761	9911
504.834	15719
504.907	16451
504.980	25160
505.053	15467
505.127	15800
505.200	21378
505.273	25721
505.346	16776
505.419	11711
505.492	10860
505.565	8901
505.638	9950
505.711	10136
505.784	9820
505.857	9562
505.930	11659
506.003	10080
506.076	14167
506.149	18289
506.221	25992
506.294	22259
506.367	49897
506.440	190964
506.513	118960
506.586	25779
506.659	14868
506.731	11459
506.804	13878
506.877	18884
506.950	16672
507.022	11213
507.095	15415
507.168	21055
507.241	11611
507.313	9064
507.386	11291
507.459	14228
507.531	11079
507.604	8882
507.677	10353
507.749	8174
507.822	12402
507.894	22488
507.967	29068
508.040	16980
508.112	15609
508.185	14958
508.257	13954
508.330	17671
508.402	13325
508.475	14828
508.547	15469
508.620	15351
508.692	26855
508.765	17463
508.837	12076
508.909	10871
508.982	11194
509.054	13135
509.127	12179
509.199	11123
509.271	11033
509.344	9435
509.416	10256
509.488	10979
509.560	11166
509.633	11170
509.705	13107
509.777	13080
509.849	17466
509.922	13436
509.994	12453
510.066	13124
510.138	12994
510.210	25484
510.283	22679
510.355	19478
510.427	16439
510.499	16292
510.571	17607
510.643	14661
510.715	21506
510.787	18349
510.859	15614
510.931	18210
511.003	20729
511.076	19772
511.148	14295
511.219	15538
511.291	25292
511.363	33506
511.435	14526
511.507	12845
511.579	13831
511.651	12910
511.723	11864
511.795	11541
511.867	13093
511.939	17300
512.010	37823
512.082	33575
512.154	13683
512.226	14164
512.298	19196
512.369	27040
512.441	21477
512.513	19614
512.585	16266
512.656	17424
512.728	18455
512.800	14445
512.871	14538
512.943	15441
513.015	12646
513.086	13451
513.158	14849
513.230	15380
513.301	18833
513.373	20658
513.444	15233
513.516	12674
513.588	13800
513.659	13604
513.731	17213
513.802	14693
513.874	25635
513.945	44555
514.016	19937
514.088	13712
514.159	14246
514.231	18991
514.302	24867
514.374	19645
514.445	19550
514.516	42656
514.588	35527
514.659	19913
514.730	40680
514.802	32124
514.873	26052
514.944	30659
515.016	26519
515.087	24463
515.158	30996
515.229	46347
515.301	32547
515.372	46727
515.443	35475
515.514	24786
515.585	17820
515.656	17427
515.728	14869
515.799	14578
515.870	14193
515.941	13463
516.012	15129
516.083	18249
516.154	18116
516.225	21185
516.296	20950
516.367	17639
516.438	18873
516.509	22299
516.580	27391
516.651	57199
516.722	200353
516.793	115870
516.864	32312
516.935	31265
517.006	32880
517.077	39789
517.148	74595
517.219	170532
517.289	312973
517.360	213624
517.431	89486
517.502	22046
517.573	19535
517.643	18162
517.714	21083
517.785	20522
517.856	19681
517.926	23349
517.997	24678
518.068	28775
518.138	34368
518.209	40586
518.280	112958
518.350	432609
518.421	204027
518.492	34474
518.562	24412
518.633	24753
518.703	20306
518.774	25802
518.845	38076
518.915	40015
518.986	27212
519.056	28171
519.127	42697
519.197	69154
519.268	190861
519.338	149419
519.408	32575
519.479	30458
519.549	22148
519.620	17192
519.690	14089
519.760	14960
519.831	14613
519.901	15181
519.971	13235
520.042	15810
520.112	19801
520.182	17802
520.253	20748
520.323	15988
520.393	20819
520.463	33597
520.534	21620
520.604	48979
520.674	25132
520.744	23504
520.814	50844
520.885	49034
520.955	57905
521.025	238831
521.095	111759
521.165	19671
521.235	17363
521.305	13616
521.375	13467
521.445	13098
521.515	16395
521.585	18565
521.655	18210
521.725	16137
521.795	17682
521.865	12725
521.935	23313
522.005	21969
522.075	12948
522.145	14560
522.215	16235
522.285	24944
522.355	32769
522.424	66940
522.494	62987
522.564	27441
522.634	34983
522.704	97316
522.774	42338
522.843	13707
522.913	13080
522.983	16825
523.053	13331
523.122	14100
523.192	15998
523.262	47824
523.331	54745
523.401	15809
523.471	10736
523.540	11715
523.610	9381
523.680	9771
523.749	10888
523.819	14262
523.888	15797
523.958	10473
524.027	10891
524.097	12602
524.166	10297
524.236	11135
524.305	12757
524.375	10356
524.444	9410
524.514	12753
524.583	12562
524.653	14898
524.722	18383
524.791	11727
524.861	11709
524.930	9165
524.999	10056
525.069	14492
525.138	14414
525.207	18033
525.277	12883
525.346	11087
525.415	11178
525.484	10683
525.554	13695
525.623	14457
525.692	10538
525.761	11336
525.830	10639
525.900	10371
525.969	16283
526.038	19602
526.107	22378
526.176	53742
526.245	48870
526.314	29201
526.383	39897
526.452	43998
526.522	69419
526.591	91891
526.660	55351
526.729	29759
526.797	28095
526.867	53195
526.935	231373
527.004	246338
527.073	118892
527.142	20697
527.211	12823
527.280	13379
527.349	14908
527.418	7739
527.487	10339
527.555	8825
527.624	8263
527.693	7785
527.762	8912
527.831	8191
527.899	8531
527.968	9082
528.037	7228
528.106	11266
528.174	19339
528.243	18652
528.312	23646
528.380	33572
528.449	12686
528.518	8875
528.586	6573
528.655	8334
528.723	7889
528.792	6835
528.861	8203
528.929	8332
528.998	9154
529.066	7531
529.135	7004
529.203	6584
529.272	7241
529.340	8444
529.409	10372
529.477	8458
529.545	11505
529.614	15173
529.682	14261
529.751	18988
529.819	18820
529.887	13353
529.956	8196
530.024	9749
530.092	7617
530.161	8946
530.229	12136
530.297	8242
530.365	8267
530.434	6461
530.502	6861
530.570	6826
530.638	5900
530.707	7236
530.775	9710
530.843	7304
530.911	7554
530.979	7275
531.047	7057
531.115	8391
531.183	7193
531.252	8389
531.320	8845
531.388	7150
531.456	8250
531.524	5327
531.592	7770
531.660	9574
531.728	6517
531.796	7509
531.864	7231
531.932	8347
532.000	7733
532.067	8275
532.135	8925
532.203	11973
532.271	11090
532.339	17586
532.407	40216
532.475	28225
532.542	16235
532.610	15145
532.678	17912
532.746	64372
532.814	176860
532.881	46637
532.949	12541
533.017	9766
533.084	8968
533.152	8416
533.220	8038
533.287	8283
533.355	8077
533.423	8778
533.490	7856
533.558	8132
533.625	8608
533.693	10302
533.761	9313
533.828	10797
533.896	8837
533.963	17175
534.031	21469
534.098	25831
534.166	15539
534.233	9131
534.300	9623
534.368	10523
534.435	8765
534.503	9596
534.570	10887
534.637	8739
534.705	8566
534.772	8971
534.840	9991
534.907	26622
534.974	33913
535.041	11483
535.109	13822
535.176	8828
535.243	7063
535.310	8341
535.378	7409
535.445	7784
535.512	7702
535.579	8730
535.646	7748
535.714	8518
535.781	11530
535.848	10730
535.915	11788
535.982	10859
536.049	10848
536.116	11070
536.183	9714
536.250	10240
536.317	9930
536.384	11648
536.451	15358
536.518	15920
536.585	11390
536.652	15511
536.719	18356
536.786	15143
536.853	13713
536.920	19281
536.987	28203
537.053	24177
537.120	82398
537.187	77502
537.254	12050
537.321	9356
537.388	9642
537.454	8141
537.521	7518
537.588	7604
537.654	9347
537.721	10402
537.788	9304
537.855	9166
537.921	9858
537.988	8950
538.055	10292
538.121	8913
538.188	9598
538.254	14683
538.321	24934
538.388	16431
538.454	9390
538.521	8140
538.587	8021
538.654	7891
538.720	8915
538.787	8686
538.853	9222
538.920	11577
538.986	13220
539.053	10966
539.119	10672
539.185	9368
539.252	11072
539.318	16087
539.385	13056
539.451	11844
539.517	13200
539.583	13629
539.650	26454
539.716	69147
539.782	21243
539.849	9871
539.915	10637
539.981	9866
540.047	11502
540.114	11281
540.180	12315
540.246	11355
540.312	15209
540.378	24800
540.444	26692
540.510	25290
540.576	73347
540.643	26080
540.709	9692
540.775	10231
540.841	10010
540.907	14298
540.973	24171
541.039	17637
541.105	16900
541.171	10793
541.237	10374
541.303	10931
541.369	12406
541.435	14317
541.500	19993
541.566	14734
541.632	10283
541.698	8143
541.764	9400
541.830	8319
541.896	8481
541.961	10159
542.027	9225
542.093	10056
542.159	10552
542.224	10974
542.290	16152
542.356	21786
542.421	25198
542.487	14535
542.553	11804
542.618	13186
542.684	11341
542.750	10469
542.815	12973
542.881	19563
542.947	61470
543.012	48622
543.078	10216
543.143	10000
543.209	11096
543.274	10188
543.340	11696
543.405	22755
543.471	38084
543.536	12023
543.602	8971
543.667	9201
543.732	10358
543.798	8544
543.863	10434
543.928	7897
543.994	7210
544.059	8790
544.124	8700
544.190	7873
544.255	8629
544.320	9034
544.386	9591
544.451	13513
544.516	14891
544.581	13998
544.646	37892
544.712	62622
544.777	16758
544.842	12803
544.907	15320
544.972	12023
545.037	11840
545.102	13263
545.168	12869
545.233	14633
545.298	14113
545.363	16949
545.428	17424
545.493	24518
545.558	51607
545.623	25871
545.688	13521
545.753	13006
545.818	12750
545.883	13232
545.947	12267
546.012	14441
546.077	14501
546.142	13521
546.207	12832
546.272	15625
546.337	15784
546.401	14585
546.466	12909
546.531	11357
546.596	13326
546.661	13385
546.725	13204
546.790	11234
546.855	11507
546.919	10447
546.984	12294
547.049	13509
547.113	17153
547.178	13515
547.243	15109
547.307	16025
547.372	18429
547.436	22689
547.501	15367
547.565	15528
547.630	17475
547.695	17626
547.759	22315
547.823	20013
547.888	14412
547.952	13873
548.017	15645
548.081	18930
548.146	25199
548.210	23298
548.274	14448
548.339	13057
548.403	13554
548.468	12304
548.532	13384
548.596	13815
548.660	12582
548.725	15340
548.789	17280
548.853	21922
548.917	16132
548.982	22697
549.046	25386
549.110	13623
549.174	13311
549.238	12992
549.303	12130
549.367	14970
549.431	13390
549.495	12388
549.559	12860
549.623	14371
549.687	15660
549.751	21822
549.815	17144
549.879	16616
549.943	14405
550.007	15731
550.071	15362
550.135	19586
550.199	16649
550.263	16450
550.327	18314
550.391	25465
550.455	18958
550.519	16667
550.582	17166
550.646	20750
550.710	22685
550.774	17805
550.838	16816
550.901	17816
550.965	20408
551.029	20169
551.093	23222
551.156	30182
551.220	56775
551.284	67828
551.347	30855
551.411	68225
551.475	87700
551.538	24677
551.602	16768
551.666	17354
551.729	13556
551.793	15664
551.856	15862
551.920	14719
551.983	16117
552.047	15280
552.110	15400
552.174	14693
552.237	14520
552.301	14127
552.364	13633
552.428	14465
552.491	14814
552.554	14534
552.618	15452
552.681	16622
552.745	15897
552.808	19222
552.871	22086
552.934	18566
552.998	16415
553.061	18772
553.124	17349
553.187	16858
553.251	18210
553.314	20023
553.377	19383
553.440	27178
553.503	72477
553.567	127402
553.630	28610
553.693	17209
553.756	15974
553.819	14915
553.882	14365
553.945	14379
554.008	13401
554.071	14196
554.134	12961
554.197	12606
554.260	12714
554.323	15151
554.386	14225
554.449	13230
554.512	14371
554.575	13143
554.638	14522
554.701	14096
554.764	13099
554.827	13826
554.889	12516
554.952	11611
555.015	12300
555.078	11326
555.141	13078
555.203	12019
555.266	12116
555.329	12843
555.391	12180
555.454	11683
555.517	13122
555.580	11853
555.642	11638
555.705	12112
555.768	11787
555.830	11084
555.893	11850
555.955	11690
556.018	11754
556.080	11905
556.143	11196
556.206	10758
556.268	12914
556.330	12824
556.393	12330
556.455	12556
556.518	19947
556.580	23023
556.643	11676
556.705	11249
556.767	10737
556.830	11845
556.892	12201
556.955	17221
557.017	14479
557.079	12128
557.142	11494
557.204	12464
557.266	22136
557.328	20831
557.391	12028
557.453	10097
557.515	10940
557.577	12546
557.639	13175
557.701	10660
557.764	9244
557.826	11134
557.888	11727
557.950	11383
558.012	10424
558.074	12134
558.136	19040
558.198	37319
558.260	20408
558.322	12974
558.384	14030
558.446	14743
558.508	15295
558.570	19683
558.632	29216
558.694	41059
558.756	32888
558.818	73209
558.880	189603
558.942	65610
559.003	40776
559.065	25842
559.127	14632
559.189	14393
559.251	15553
559.312	18721
559.374	34016
559.436	107423
559.498	62395
559.559	16675
559.621	15038
559.683	16948
559.744	24435
559.806	54947
559.868	80905
559.929	24489
559.991	17893
560.052	19576
560.114	37985
560.176	28611
560.237	25074
560.299	37250
560.360	16641
560.422	14087
560.483	12970
560.545	11635
560.606	12409
560.667	11419
560.729	11507
560.790	11202
560.852	11420
560.913	11847
560.974	10663
561.036	10863
561.097	11080
561.158	12173
561.220	12693
561.281	11484
561.342	12222
561.403	14369
561.465	16232
561.526	30430
561.587	42376
561.648	15601
561.709	13854
561.771	12875
561.832	11480
561.893	11824
561.954	11450
562.015	11793
562.076	11262
562.137	11645
562.198	11703
562.259	12088
562.320	12601
562.381	12509
562.442	16703
562.503	15120
562.564	11900
562.625	12034
562.686	11805
562.747	12886
562.808	12644
562.869	12180
562.930	15599
562.991	14803
563.051	15020
563.112	13313
563.173	12165
563.234	12678
563.294	12175
563.355	11973
563.416	12376
563.477	12253
563.537	13120
563.598	13824
563.659	12924
563.720	12406
563.780	13503
563.841	13107
563.901	13753
563.962	13103
564.023	12401
564.083	13674
564.144	13860
564.204	13265
564.265	14423
564.325	17307
564.386	31860
564.446	33338
564.507	13794
564.567	13164
564.628	14140
564.688	13674
564.749	13672
564.809	15258
564.869	18917
564.930	15178
564.990	13333
565.050	12376
565.111	14317
565.171	13235
565.231	13049
565.292	13554
565.352	13016
565.412	14117
565.472	14661
565.532	14418
565.593	14835
565.653	13793
565.713	15515
565.773	15751
565.833	17153
565.893	20652
565.953	16964
566.013	16554
566.074	18380
566.134	22648
566.194	32723
566.254	36146
566.314	25517
566.374	20733
566.434	21285
566.494	21122
566.554	21011
566.614	22215
566.673	23977
566.733	24864
566.793	27233
566.853	27986
566.913	28744
566.973	29608
567.033	29353
567.092	29668
567.152	28834
567.212	28365
567.272	29631
567.331	32559
567.391	34394
567.451	35362
567.511	42093
567.570	43716
567.630	32551
567.690	30174
567.749	31733
567.809	34167
567.868	38766
567.928	43188
567.988	50939
568.047	60789
568.107	73008
568.166	93761
568.226	136874
568.285	189589
568.345	183273
568.404	158310
568.464	140144
568.523	132082
568.582	130871
568.642	138761
568.701	164035
568.761	217807
568.820	312380
568.879	336678
568.939	278465
568.998	219555
569.057	173467
569.116	140794
569.176	115984
569.235	97679
569.294	83124
569.353	71743
569.413	63580
569.472	57060
569.531	50535
569.590	44491
569.649	40102
569.708	36584
569.767	34861
569.827	34651
569.886	30413
569.945	27919
570.004	27591
570.063	25830
570.122	24473
570.181	24581
570.240	25810
570.299	25417
570.358	23429
570.417	19261
570.475	19193
570.534	18960
570.593	18362
570.652	19037
570.711	18865
570.770	17598
570.829	19572
570.887	17439
570.946	16974
571.005	15073
571.064	14614
571.122	14781
571.181	17943
571.240	15158
571.299	14956
571.357	15371
571.416	17126
571.475	17376
571.533	18784
571.592	13840
571.650	15330
571.709	12827
571.768	12656
571.826	12779
571.885	12287
571.943	12610
572.002	13361
572.060	14208
572.119	11973
572.177	11450
572.236	11324
572.294	10367
572.352	11807
572.411	11721
572.469	11132
572.528	11076
572.586	11761
572.644	12284
572.703	15186
572.761	11872
572.819	12077
572.877	11202
572.936	10250
572.994	10291
573.052	11078
573.110	10797
573.169	9662
573.227	10608
573.285	9922
573.343	9911
573.401	10187
573.459	10299
573.517	9840
573.576	9288
573.634	9971
573.692	10853
573.750	10119
573.808	9717
573.866	10824
573.924	14154
573.982	14828
574.040	10707
574.098	10121
574.155	9710
574.213	9010
574.271	8750
574.329	10358
574.387	9083
574.445	8633
574.503	9710
574.560	8059
574.618	8261
574.676	8551
574.734	8489
574.792	8923
574.849	8413
574.907	8264
574.965	8563
575.022	7951
575.080	8052
575.138	8891
575.195	8827
575.253	9509
575.311	9919
575.368	9029
575.426	8684
575.483	10147
575.541	8833
575.598	8498
575.656	10717
575.713	8935
575.771	9068
575.828	9094
575.886	9756
575.943	9749
576.001	9702
576.058	10248
576.115	10108
576.173	12381
576.230	13366
576.287	13640
576.345	12218
576.402	10530
576.459	10664
576.517	10463
576.574	12512
576.631	13118
576.688	10821
576.746	10412
576.803	10016
576.860	10302
576.917	10564
576.974	9474
577.031	9162
577.089	10635
577.146	11295
577.203	10431
577.260	11436
577.317	11342
577.374	13097
577.431	12475
577.488	11212
577.545	10572
577.602	10373
577.659	9598
577.716	11356
577.773	10541
577.830	10804
577.886	10156
577.943	10316
578.000	11192
578.057	12108
578.114	11779
578.171	12700
578.227	13960
578.284	13526
578.341	13175
578.398	12815
578.454	12665
578.511	13795
578.568	14203
578.625	13068
578.681	11691
578.738	11014
578.794	10415
578.851	11410
578.908	11034
578.964	10866
579.021	11576
579.077	10974
579.134	10820
579.190	10759
579.247	10058
579.303	10060
579.360	10063
579.416	10472
579.473	10220
579.529	10947
579.586	9431
579.642	10649
579.698	10391
579.755	12092
579.811	11946
579.867	11229
579.924	11512
579.980	10911
580.036	12977
580.093	14109
580.149	17498
580.205	18633
580.261	17124
580.317	14554
580.374	14464
580.430	15705
580.486	15636
580.542	14260
580.598	12240
580.619	12106
580.654	11889
580.692	11346
580.710	11102
580.765	11313
580.767	11333
580.823	12602
580.838	12483
580.879	12225
580.911	11764
580.935	11445
580.984	10939
580.991	10891
581.047	12784
581.057	12590
581.103	11798
581.130	12341
581.159	12909
581.203	13230
581.215	13346
581.270	13816
581.276	13647
581.326	12120
581.349	12285
581.382	12592
581.422	12687
581.438	12734
581.494	13048
581.494	13034
581.550	12771
581.567	12944
581.606	13399
581.640	12299
581.661	11620
581.713	13409
581.717	13555
581.773	12774
581.786	12440
581.829	11447
581.859	11931
581.885	12358
581.932	12463
581.940	12513
581.996	13074
582.004	13070
582.052	12866
582.077	12142
582.107	11427
582.150	12205
582.163	12430
582.219	12890
582.223	12903
582.274	13236
582.296	13174
582.330	13028
582.368	13856
582.386	14268
582.441	12341
582.441	12344
582.497	12671
582.514	12824
582.552	13246
582.587	13390
582.608	13435
582.659	13561
582.663	13573
582.719	12919
582.732	13013
582.774	13456
582.805	13712
582.830	13935
582.877	13323
582.885	13209
582.941	13995
582.950	13901
582.996	13408
583.023	13945
583.052	14677
583.095	14504
583.107	14445
583.162	15771
583.168	15922
583.218	17117
583.240	16348
583.273	15261
583.313	15664
583.328	15810
583.384	14577
583.385	14545
583.439	13746
583.458	14008
583.494	14479
583.531	14299
583.549	14195
583.603	14257
583.605	14263
583.660	14854
583.676	14813
583.715	14595
583.748	14962
583.770	15095
583.820	14640
583.825	14622
583.881	14900
583.893	14803
583.936	14473
583.965	14762
583.991	14845
584.038	15043
584.046	15130
584.101	14763
584.110	14871
584.156	15117
584.183	14800
584.211	14536
584.255	15041
584.266	15217
584.321	14590
584.328	14775
584.376	15874
584.400	15890
584.431	15940
584.472	15667
584.486	15543
584.541	16026
584.545	16051
584.596	16308
584.617	16244
584.651	16340
584.689	16718
584.706	16760
584.761	17206
584.762	17214
584.816	16885
584.834	16935
584.871	17149
584.906	17163
584.926	17095
584.978	17561
584.980	17569
585.035	17939
585.051	18235
585.090	18927
585.123	19291
585.145	19546
585.195	19584
585.200	19585
585.254	20527
585.267	20803
585.309	21771
585.340	22752
585.364	23299
585.412	22937
585.419	22803
585.473	21991
585.484	22107
585.528	23097
585.556	23993
585.583	24936
585.628	27988
585.637	28819
585.692	36742
585.700	38829
585.747	49507
585.772	45550
585.801	38129
585.845	28586
585.856	26743
585.910	25325
585.917	25163
585.965	24575
585.989	24658
586.019	24733
586.061	25492
586.074	25562
586.128	25320
586.133	25416
586.183	27137
586.205	27414
586.237	27165
586.277	27668
586.292	27879
586.346	28447
586.349	28510
586.401	29038
586.421	29526
586.455	30378
586.493	31655
586.509	32541
586.564	37763
586.565	38029
586.618	48633
586.637	49222
586.672	46075
586.709	39126
586.727	36019
586.781	34652
586.781	34596
586.835	34748
586.853	35111
586.889	35784
586.925	36692
586.944	36994
586.996	38253
586.998	38234
587.052	39861
587.068	40428
587.106	41609
587.140	42884
587.161	43288
587.212	44672
587.215	44678
587.269	47306
587.284	48025
587.323	49611
587.356	50900
587.377	51819
587.427	54835
587.431	54883
587.485	56816
587.499	57565
587.539	59909
587.571	62184
587.593	63610
587.643	67826
587.648	68126
587.702	72862
587.715	74373
587.755	78380
587.786	82167
587.810	84379
587.858	89613
587.864	90192
587.917	98558
587.930	100883
587.971	107862
588.001	114135
588.025	118683
588.073	128558
588.079	129627
588.133	143903
588.145	147925
588.187	161498
588.217	172137
588.241	180737
588.288	201244
588.295	203791
588.348	232170
588.360	239423
588.402	265193
588.431	286768
588.456	305935
588.503	348741
588.510	354494
588.564	414070
588.575	428925
588.617	490178
588.646	539356
588.671	590021
588.718	698290
588.725	719022
588.778	893296
588.789	928510
588.832	1116131
588.861	1220943
588.886	1284641
588.932	1346280
588.939	1331232
588.993	1220772
589.004	1229274
589.047	1302048
589.075	1330789
589.100	1251458
589.147	1023408
589.154	1000219
589.207	811952
589.218	778053
589.261	710470
589.290	680051
589.314	681879
589.361	710042
589.368	722784
589.421	861309
589.433	891993
589.475	1080969
589.504	1191425
589.528	1227191
589.576	1254608
589.582	1238427
589.635	1200185
589.647	1185313
589.689	993077
589.718	813652
589.742	712853
589.790	512731
589.795	497020
589.849	381716
589.861	359471
589.902	307164
589.932	273338
589.955	250918
590.004	211679
590.009	207652
590.062	177399
590.075	171445
590.115	153951
590.146	142526
590.168	135086
590.218	121881
590.222	120405
590.275	108642
590.289	106183
590.328	98722
590.360	93937
590.381	90470
590.431	83704
590.435	82946
590.488	76627
590.503	75206
590.541	71246
590.574	68633
590.594	66261
590.645	61365
590.647	60987
590.700	57800
590.716	57282
590.753	54654
590.787	52594
590.806	51186
590.859	48172
590.859	47927
590.912	45519
590.930	44993
590.965	43128
591.001	41694
591.018	41061
591.071	39522
591.072	39673
591.124	37827
591.143	37488
591.177	36572
591.214	35910
591.230	35499
591.283	34751
591.285	34855
591.336	33340
591.356	33054
591.389	32433
591.427	31735
591.442	30942
591.495	28546
591.498	28509
591.547	28015
591.569	27991
591.600	27551
591.640	27085
591.653	26698
591.706	25782
591.711	25790
591.759	26012
591.782	26338
591.811	26327
591.853	26516
591.864	26047
591.917	24102
591.924	23926
591.969	23102
591.995	22828
592.022	22303
592.066	21735
592.075	21815
592.127	22947
592.137	23269
592.180	23792
592.208	24216
592.233	22668
592.279	19941
592.285	19775
592.338	19326
592.350	19323
592.390	18761
592.421	18500
592.443	18433
592.491	18586
592.495	18468
592.548	18070
592.562	18042
592.600	17509
592.633	17219
592.653	16852
592.704	16029
592.705	16128
592.775	16625
592.846	15595
592.916	16692
592.987	16725
593.058	16301
593.128	15077
593.199	14888
593.270	14795
593.341	14166
593.411	14190
593.482	14032
593.553	12936
593.623	13548
593.694	13183
593.764	13782
593.835	13266
593.906	12598
593.976	12777
594.047	12666
594.117	14870
594.188	14157
594.258	12502
594.329	12178
594.399	12010
594.470	11309
594.540	11625
594.611	11135
594.681	11800
594.751	10940
594.822	11407
594.892	12238
594.963	12057
595.033	11644
595.103	11457
595.174	12031
595.244	15934
595.314	20689
595.384	11643
595.455	11146
595.525	10772
595.595	10497
595.665	11123
595.736	9995
595.806	11241
595.876	10943
595.946	10044
596.016	10082
596.087	9804
596.157	10064
596.227	10410
596.297	10204
596.367	10613
596.437	11769
596.507	14464
596.577	17796
596.647	11724
596.717	9949
596.787	10453
596.857	9897
596.927	9685
596.997	9813
597.067	9970
597.137	11533
597.207	10864
597.277	9350
597.347	10405
597.417	10135
597.487	9952
597.557	10504
597.626	10086
597.696	10435
597.766	12779
597.836	16613
597.906	12102
597.975	9358
598.045	10027
598.115	9152
598.185	8948
598.254	10514
598.324	10822
598.394	10016
598.464	10243
598.533	10261
598.603	9114
598.672	10097
598.742	9484
598.812	9617
598.881	9227
598.951	9502
599.020	9015
599.090	9104
599.159	8800
599.229	9016
599.299	9070
599.368	8812
599.437	9382
599.507	9144
599.576	9993
599.646	10405
599.715	9627
599.785	9450
599.854	9671
599.924	10587
599.993	9538
600.062	9112
600.132	9547
600.201	8711
600.270	9702
600.340	9550
600.409	8955
600.478	9063
600.547	9175
600.617	9826
600.686	8211
600.755	8404
600.824	9153
600.894	9411
600.963	8253
601.032	8721
601.101	7930
601.170	7760
601.239	7526
601.308	8324
601.378	7583
601.447	7795
601.516	7419
601.585	8206
601.654	7751
601.723	8284
601.792	9141
601.861	8544
601.930	9605
601.999	8900
602.068	8078
602.137	8278
602.206	9013
602.275	8534
602.343	9456
602.412	9195
602.481	7604
602.550	7885
602.619	7794
602.688	8424
602.756	8338
602.825	7703
602.894	8024
602.963	7094
603.032	7974
603.100	7552
603.169	7665
603.238	7934
603.307	7378
603.375	8700
603.444	8242
603.513	8388
603.581	7613
603.650	7960
603.719	7920
603.787	6753
603.856	7505
603.924	7045
603.993	7905
604.061	7468
604.130	7122
604.198	8135
604.267	8080
604.335	8118
604.404	7281
604.472	7555
604.541	8262
604.609	7895
604.678	8344
604.746	7293
604.815	7515
604.883	8462
604.951	7541
605.020	7843
605.088	9060
605.156	8101
605.225	7081
605.293	7991
605.361	7528
605.429	7654
605.498	7711
605.566	8594
605.634	8590
605.702	8477
605.771	8147
605.839	7735
605.907	7729
605.975	7890
606.043	8171
606.111	7597
606.180	7534
606.248	8436
606.316	9605
606.384	8257
606.452	10415
606.520	10173
606.588	8891
606.656	6749
606.724	7011
606.792	7030
606.860	6910
606.928	6092
606.996	6497
607.064	6337
607.132	6179
607.200	7617
607.267	6586
607.335	7118
607.403	6479
607.471	6464
607.539	6661
607.607	6949
607.674	6647
607.742	7800
607.810	6217
607.878	7102
607.946	6540
608.013	6895
608.081	6527
608.149	7459
608.216	6869
608.284	8126
608.352	6570
608.419	7278
608.487	10368
608.555	8162
608.622	7152
608.690	6233
608.757	6434
608.825	7660
608.893	6447
608.960	8155
609.028	9472
609.095	11341
609.163	7538
609.230	6892
609.298	6831
609.365	6386
609.432	6717
609.500	6903
609.567	7652
609.635	7822
609.702	8167
609.769	8586
609.837	8516
609.904	6780
609.971	5731
610.039	8319
610.106	9583
610.173	14202
610.241	31445
610.308	30799
610.375	18193
610.442	8318
610.509	6147
610.577	6917
610.644	6418
610.711	6333
610.778	7429
610.845	6257
610.912	7150
610.980	8255
611.047	9879
611.114	8858
611.181	6491
611.248	5981
611.315	7413
611.382	5768
611.449	5592
611.516	8682
611.583	7780
611.650	7550
611.717	7337
611.784	7357
611.851	8144
611.918	9432
611.984	8993
612.051	13409
612.118	24573
612.185	59623
612.252	47027
612.319	12158
612.386	8148
612.452	8247
612.519	8841
612.586	11315
612.653	10083
612.719	7635
612.786	7736
612.853	7052
612.919	6582
612.986	8318
613.053	6091
613.120	6647
613.186	5480
613.253	8212
613.319	6741
613.386	6226
613.453	7425
613.519	7746
613.586	8768
613.652	11691
613.719	9503
613.785	9502
613.852	7578
613.918	6621
613.985	8040
614.051	12578
614.118	24981
614.184	28503
614.250	9484
614.317	6988
614.383	7110
614.449	6395
614.516	7082
614.582	6592
614.648	6731
614.715	6722
614.781	6455
614.847	7259
614.914	7338
614.980	7474
615.046	7015
615.112	7803
615.179	8416
615.245	9569
615.311	14602
615.377	26283
615.443	33171
615.509	17773
615.575	11603
615.642	8976
615.708	10009
615.774	10892
615.840	13436
615.906	17510
615.972	28715
616.038	59845
616.104	80047
616.170	96363
616.236	89020
616.302	24059
616.368	13261
616.434	10768
616.500	10349
616.565	10268
616.631	10589
616.697	9493
616.763	10054
616.829	12782
616.895	18261
616.961	18924
617.026	11155
617.092	8714
617.158	7937
617.224	6854
617.289	7501
617.355	7344
617.421	6730
617.487	7858
617.552	7154
617.618	5971
617.684	5940
617.749	8625
617.815	7027
617.880	6291
617.946	6797
618.012	5996
618.077	5862
618.143	6179
618.208	6321
618.274	6826
618.339	6875
618.405	6965
618.470	6884
618.536	6482
618.601	8144
618.667	7366
618.732	6614
618.798	6716
618.863	6791
618.928	6448
618.994	7243
619.059	7394
619.124	9811
619.190	7954
619.255	5875
619.320	7370
619.386	6321
619.451	5546
619.516	6890
619.581	6153
619.647	6734
619.712	6615
619.777	6219
619.842	6673
619.907	6475
619.972	7398
620.038	7010
620.103	5707
620.168	5611
620.233	7021
620.298	6414
620.363	6469
620.428	5830
620.493	5392
620.558	5894
620.623	6958
620.688	6642
620.753	6480
620.818	6422
620.883	5934
620.948	6019
621.013	5693
621.078	6429
621.143	5538
621.207	7993
621.272	7716
621.337	7277
621.402	7876
621.467	10656
621.532	10681
621.596	8996
621.661	7296
621.726	7244
621.791	7237
621.855	8340
621.920	8115
621.985	8232
622.049	10583
622.114	9801
622.179	8647
622.243	8791
622.308	8467
622.373	9958
622.437	8120
622.502	7588
622.566	7438
622.631	6745
622.695	8546
622.760	8178
622.824	7928
622.889	7739
622.953	8963
623.018	11227
623.082	10777
623.147	7676
623.211	7688
623.276	7209
623.340	7548
623.404	7056
623.469	7774
623.533	7479
623.597	6706
623.662	7207
623.726	7237
623.790	6846
623.854	6680
623.919	7210
623.983	6087
624.047	6630
624.111	6689
624.176	7535
624.240	7564
624.304	9124
624.368	6904
624.432	7190
624.496	7745
624.560	7384
624.625	7472
624.689	6693
624.753	6377
624.817	7059
624.881	6716
624.945	7248
625.009	6201
625.073	6424
625.137	6651
625.201	7425
625.265	8610
625.329	6878
625.393	7776
625.456	7475
625.520	7866
625.584	7503
625.648	9883
625.712	15346
625.776	34448
625.839	43343
625.903	18546
625.967	8031
626.031	15139
626.095	23561
626.158	9624
626.222	5524
626.286	5632
626.349	5198
626.413	4961
626.477	7021
626.540	5330
626.604	5617
626.668	6355
626.731	4976
626.795	5456
626.858	5964
626.922	4849
626.986	5282
627.049	5059
627.113	5285
627.176	5192
627.240	5235
627.303	5007
627.366	4966
627.430	4987
627.493	4806
627.557	4442
627.620	5920
627.684	5324
627.747	5113
627.810	3904
627.874	5944
627.937	3945
628.000	6235
628.064	4963
628.127	4393
628.190	5120
628.253	4964
628.317	4272
628.380	4363
628.443	4626
628.506	4311
628.569	5599
628.632	4211
628.696	5171
628.759	3783
628.822	4771
628.885	2986
628.948	4439
629.011	4050
629.074	3255
629.137	4744
629.200	3787
629.263	5043
629.326	3633
629.389	2732
629.452	4516
629.515	3623
629.578	4848
629.641	5420
629.704	3874
629.767	4656
629.830	4123
629.892	4076
629.955	2767
630.018	4906
630.081	4167
630.144	6277
630.207	3769
630.269	5416
630.332	4471
630.395	4638
630.458	4100
630.520	3662
630.583	4266
630.646	3885
630.708	3432
630.771	3278
630.834	4214
630.896	3439
630.959	3835
631.021	2845
631.084	2972
631.146	4599
631.209	4570
631.272	3825
631.334	3846
631.397	3610
631.459	3014
631.522	3673
631.584	3088
631.646	4354
631.709	3921
631.771	4930
631.834	4319
631.896	4018
631.958	2425
632.021	3908
632.083	3069
632.145	3127
632.208	3042
632.270	4060
632.332	2780
632.395	2734
632.457	3458
632.519	3099
632.581	4608
632.643	2326
632.706	4006
632.768	2269
632.830	4484
632.892	3006
632.954	2627
633.016	3851
633.078	2631
633.141	2869
633.203	3354
633.265	2830
633.327	3698
633.389	3192
633.451	4110
633.513	2899
633.575	3875
633.637	3844
633.698	2602
633.760	3099
633.822	3169
633.884	3334
633.946	2823
634.008	2959
634.070	3492
634.132	3758
634.193	2901
634.255	3497
634.317	2381
634.379	3828
634.441	2860
634.502	3289
634.564	3862
634.626	3900
634.687	4526
634.749	3581
634.811	3449
634.873	2646
634.934	2544
634.996	2925
635.057	2768
635.119	1965
635.181	2516
635.242	3399
635.304	849
635.365	4707
635.427	1933
635.488	2842
635.550	3005
635.611	2786
635.673	1082
635.734	3252
635.796	2882
635.857	3891
635.918	2367
635.980	3989
636.041	2360
636.102	2460
636.164	2800
636.225	3159
636.286	1488
636.348	4431
636.409	3049
636.470	2496
636.531	3296
636.593	2478
636.654	4295
636.715	2396
636.776	2247
636.838	1722
636.899	3229
636.960	2064
637.021	2635
637.082	1696
637.143	2637
637.204	2238
637.265	1790
637.326	2952
637.387	2834
637.448	1092
637.509	2674
637.570	2252
637.631	2619
637.692	1238
637.753	1353
637.814	2049
637.875	2058
637.936	3136
637.997	1704
638.058	3041
638.119	2918
638.179	1922
638.240	2026
638.301	1498
638.362	2590
638.423	1438
638.483	2696
638.544	1258
638.605	2953
638.666	368
638.726	2625
638.787	3109
638.848	2023
638.908	2019
638.969	2450
639.030	1877
639.090	762
639.151	1337
639.211	2185
639.272	3080
639.332	4674
639.393	3284
639.453	1467
639.514	2287
639.574	2676
639.635	1607
639.695	2753
639.756	1809
639.816	3175
639.877	2519
639.937	4274
639.997	5137
640.058	2144
640.118	939
640.178	2840
640.239	873
640.299	1690
640.359	1501
640.420	1534
640.480	2138
640.540	1575
640.600	2641
640.661	1418
640.721	696
640.781	3254
640.841	804
640.901	2727
640.961	2637
641.021	2327
641.082	2114
641.142	3031
641.202	2961
641.262	910
641.322	2273
641.382	1448
641.442	1250
641.502	1848
641.562	2126
641.622	1178
641.682	1608
641.742	1864
641.802	1809
641.861	2439
641.921	1598
641.981	2161
642.041	1856
642.101	1804
642.161	1197
642.221	1354
642.280	972
642.340	1308
642.400	864
642.460	2153
642.519	1745
642.579	1537
642.639	1387
642.698	92
642.758	3529
642.818	1896
642.877	879
642.937	1959
642.997	1989
643.056	2947
643.116	532
643.175	3438
643.235	1343
643.294	1049
643.354	2268
643.414	1365
643.473	3055
643.532	1649
643.592	2493
643.651	2790
643.711	7371
643.770	11010
643.830	24142
643.889	60420
643.948	18933
644.008	2788
644.067	2645
644.126	1066
644.186	1116
644.245	2661
644.304	902
644.363	3207
644.423	622
644.482	1514
644.541	2609
644.600	104
644.659	1501
644.719	433
644.778	2061
644.837	2330
644.896	5089
644.955	10176
645.014	5051
645.073	2310
645.132	1905
645.191	2124
645.250	544
645.309	2327
645.368	1490
645.427	2164
645.486	985
645.545	3535
645.604	1005
645.663	2606
645.722	1682
645.781	1881
645.840	1473
645.898	1921
645.957	2860
646.016	1791
646.075	5592
646.134	8562
646.192	21623
646.251	41810
646.310	7184
646.369	1790
646.427	1984
646.486	378
646.545	959
646.603	1383
646.662	2035
646.721	1507
646.779	291
646.838	-44
646.896	1406
646.955	1768
647.014	2720
647.072	1979
647.131	6438
647.189	3758
647.248	904
647.306	1951
647.365	772
647.423	45
647.481	2219
647.540	727
647.598	805
647.657	644
647.715	2023
647.773	427
647.832	1804
647.890	574
647.948	836
648.007	2313
648.065	367
648.123	742
648.181	2760
648.240	2186
648.298	1323
648.356	1390
648.414	1481
648.472	2381
648.531	2454
648.589	1590
648.647	1249
648.705	1538
648.763	1217
648.821	1408
648.879	1483
648.937	1068
648.995	1659
649.053	1093
649.111	2815
649.169	3560
649.227	4526
649.285	6442
649.343	18202
649.401	14367
649.459	5676
649.516	5850
649.574	3168
649.632	9299
649.690	13074
649.748	4759
649.806	1647
649.863	5552
649.921	5651
649.979	3235
650.037	1870
650.094	-786
650.152	930
650.210	342
650.268	2224
650.325	1023
650.383	856
650.440	292
650.498	1456
650.556	1182
650.613	423
650.671	1594
650.728	629
650.786	2111
650.843	610
650.901	-430
650.958	1063
651.016	1402
651.073	1473
651.131	121
651.188	549
651.246	1769
651.303	25
651.360	1218
651.418	732
651.475	1553
651.532	45
651.590	1432
651.647	601
651.704	881
651.762	784
651.819	923
651.876	-334
651.933	695
651.990	1054
652.048	-33
652.105	1013
652.162	1098
652.219	565
652.276	961
652.333	818
652.390	31
652.448	514
652.505	241
652.562	-19
652.619	1176
652.676	1824
652.733	2835
652.790	-84
652.847	305
652.904	1247
652.961	-485
653.017	-139
653.074	1185
653.131	900
653.188	350
653.245	-34
653.302	706
653.359	523
653.415	1227
653.472	425
653.529	1125
653.586	-463
653.642	613
653.699	454
653.756	-240
653.813	-33
653.869	623
653.926	-1170
653.983	1
654.039	709
654.096	-36
654.152	1193
654.209	182
654.266	819
654.322	123
654.379	1250
654.435	904
654.492	-8
654.548	1435
654.605	2022
654.661	1520
654.717	1236
654.774	553
654.830	931
654.887	1325
654.943	-314
655.000	1346
655.056	773
655.112	1096
655.168	-637
655.225	1061
655.281	1563
655.337	1519
655.394	3487
655.450	2744
655.506	2116
655.562	2173
655.618	3991
655.675	558
655.731	818
655.787	1554
655.843	2335
655.899	1385
655.955	1508
656.011	2460
656.067	1864
656.123	3138
656.179	3050
656.235	5544
656.291	2083
656.347	3183
656.403	2542
656.459	1851
656.515	2400
656.571	1975
656.627	1389
656.683	1466
656.739	1590
656.795	809
656.850	354
656.906	555
656.962	1994
657.018	170
657.074	-306
657.129	-302
657.185	757
657.241	1028
657.297	714
657.352	1217
657.408	19
657.464	1401
657.519	534
657.575	464
657.630	537
657.686	287
657.742	200
657.797	800
657.853	-109
657.908	1049
657.964	-596
658.019	281
658.075	339
658.130	1084
658.186	-590
658.241	-267
658.297	-342
658.352	121
658.407	1498
658.463	505
658.518	437
658.573	445
658.629	-1152
658.684	208
658.739	624
658.795	-368
658.850	-303
658.905	10
658.960	441
659.016	-1004
659.071	-707
659.126	130
659.181	677
659.236	2165
659.291	2337
659.346	467
659.401	714
659.457	1535
659.512	367
659.567	1746
659.622	748
659.677	-170
659.732	-703
659.787	28
659.842	382
659.897	340
659.952	1310
660.007	535
660.061	134
660.116	1
660.171	146
660.226	744
660.281	818
660.336	-222
660.391	276
660.445	107
660.500	630
660.555	477
660.610	-106
660.664	719
660.719	343
660.774	869
660.828	128
660.883	1126
660.938	354
660.992	-645
661.047	643
661.101	-528
661.156	91
661.211	-222
661.265	-239
661.320	42
661.374	312
661.429	151
661.483	964
661.538	-309
661.592	55
661.647	616
661.701	799
661.755	328
661.810	522
661.864	-922
661.919	-101
661.973	4
662.027	424
662.081	-352
662.136	278
662.190	312
662.244	930
662.299	505
662.353	199
662.407	182
662.461	-252
662.515	760
662.569	-323
662.624	805
662.678	299
662.732	-312
662.786	-479
662.840	-251
662.894	529
662.948	780
663.002	-463
663.056	872
663.110	-462
663.164	235
663.218	689
663.272	532
663.326	-35
663.380	367
663.434	373
663.488	-58
663.542	648
663.595	61
663.649	94
663.703	1500
663.757	-24
663.811	-26
663.864	152
663.918	432
663.972	-135
664.026	267
664.079	-250
664.133	438
664.187	197
664.240	294
664.294	-851
664.348	1351
664.401	440
664.455	831
664.508	-327
664.562	741
664.615	332
664.669	158
664.722	788
664.776	795
664.829	475
664.883	949
664.936	116
664.990	-369
665.043	529
665.097	725
665.150	1552
665.203	-454
665.257	-75
665.310	280
665.363	47
665.417	785
665.470	86
665.523	565
665.576	1133
665.630	-1
665.683	195
665.736	220
665.789	786
665.842	124
665.895	584
665.949	514
666.002	-46
666.055	466
666.108	868
666.161	749
666.214	555
666.267	466
666.320	624
666.373	452
666.426	1119
666.479	319
666.532	776
666.585	1179
666.638	1593
666.691	637
666.744	1483
666.796	918
666.849	575
666.902	306
666.955	700
667.008	158
667.060	379
667.113	639
667.166	215
667.219	727
667.271	-643
667.324	-122
667.377	606
667.430	219
667.482	46
667.535	738
667.587	34
667.640	1328
667.693	581
667.745	1563
667.798	2819
667.850	1212
667.903	-65
667.955	770
668.008	919
668.060	964
668.113	197
668.165	1560
668.218	1460
668.270	802
668.322	318
668.375	45
668.427	1167
668.479	612
668.532	1452
668.584	707
668.636	425
668.689	767
668.741	420
668.793	467
668.845	294
668.898	1140
668.950	492
669.002	972
669.054	-69
669.106	646
669.158	764
669.211	406
669.263	704
669.315	1356
669.367	459
669.419	536
669.471	1671
669.523	734
669.575	2362
669.627	1891
669.679	966
669.731	893
669.783	1250
669.835	1474
669.886	856
669.938	947
669.990	1546
670.042	341
670.094	1326
670.146	1391
670.197	1158
670.249	1269
670.301	1531
670.353	2980
670.404	3275
670.456	5485
670.508	9170
670.560	14759
670.611	25200
670.663	46460
670.715	105773
670.766	215225
670.818	89329
670.869	13828
670.921	5286
670.972	4041
671.024	1974
671.075	2138
671.127	2113
671.178	464
671.230	726
671.281	1552
671.333	836
671.384	850
671.436	1095
671.487	1645
671.538	1867
671.590	1659
671.641	857
671.692	2203
671.744	4136
671.795	3419
671.846	1209
671.897	1206
671.949	1030
672.000	934
672.051	842
672.102	1117
672.153	597
672.204	1039
672.256	-55
672.307	1281
672.358	969
672.409	1704
672.460	275
672.511	553
672.562	634
672.613	1280
672.664	1056
672.715	653
672.766	811
672.817	1203
672.868	494
672.919	953
672.970	89
673.021	183
673.071	236
673.122	1058
673.173	127
673.224	1002
673.275	402
673.326	542
673.376	1337
673.427	453
673.478	551
673.528	654
673.579	897
673.630	-45
673.680	1311
673.731	932
673.782	-228
673.832	194
673.883	934
673.934	1182
673.984	748
674.035	555
674.085	1185
674.136	704
674.186	794
674.237	896
674.287	1037
674.338	1787
674.388	-429
674.438	-362
674.489	454
674.539	234
674.589	10
674.640	924
674.690	491
674.740	197
674.791	864
674.841	870
674.891	668
674.942	442
674.992	385
675.042	239
675.092	145
675.142	390
675.193	610
675.243	-309
675.293	240
675.343	130
675.393	-728
675.443	1168
675.493	710
675.543	302
675.593	-678
675.643	1060
675.693	649
675.743	245
675.793	806
675.843	490
675.893	1261
675.943	280
675.993	-270
676.043	1047
676.093	616
676.142	300
676.192	344
676.242	678
676.292	10
676.341	187
676.391	89
676.441	275
676.491	-226
676.540	-387
676.590	225
676.640	-111
676.689	87
676.739	325
676.789	-268
676.838	44
676.888	375
676.937	408
676.987	957
677.037	379
677.086	-101
677.136	-361
677.185	-103
677.235	21
677.284	-2
677.333	-335
677.383	593
677.432	494
677.482	-10
677.531	792
677.580	-152
677.630	-373
677.679	-161
677.728	-76
677.778	553
677.827	83
677.876	-294
677.925	96
677.975	305
678.024	-617
678.073	258
678.122	7
678.171	-314
678.220	-417
678.269	243
678.319	101
678.368	164
678.417	753
678.466	351
678.515	1247
678.564	924
678.613	748
678.662	201
678.711	576
678.760	-174
678.809	323
678.857	47
678.906	1535
678.955	-3
679.004	316
679.053	703
679.102	286
679.151	-43
679.199	-367
679.248	804
679.297	-132
679.346	-385
679.394	684
679.443	576
679.492	-293
679.540	-113
679.589	178
679.638	498
679.686	902
679.735	-31
679.784	-179
679.832	-385
679.881	855
679.929	30
679.978	634
680.026	429
680.075	326
680.123	-751
680.172	70
680.220	360
680.268	-95
680.317	-13
680.365	-76
680.414	-571
680.462	487
680.510	401
680.559	329
680.607	884
680.655	-371
680.703	840
680.752	-676
680.800	1048
680.848	-448
680.896	10
680.945	-697
680.993	72
681.041	-206
681.089	245
681.137	-463
681.185	-76
681.233	-652
681.258	-348
681.281	-75
681.329	-266
681.377	125
681.380	109
681.425	-476
681.473	856
681.502	429
681.521	101
681.569	277
681.617	524
681.624	467
681.665	-10
681.713	727
681.745	452
681.761	296
681.809	-131
681.857	1567
681.867	1339
681.904	515
681.952	617
681.989	598
682.000	573
682.048	324
682.096	82
682.111	177
682.143	327
682.191	172
682.233	392
682.239	413
682.286	372
682.334	517
682.354	385
682.382	174
682.430	364
682.476	622
682.477	615
682.525	694
682.572	364
682.598	257
682.620	137
682.667	900
682.715	524
682.720	657
682.763	1750
682.810	362
682.841	901
682.857	1168
682.905	844
682.952	682
682.963	813
683.000	1224
683.047	801
683.085	1477
683.095	1646
683.142	963
683.190	1207
683.206	1236
683.237	1274
683.284	1252
683.328	1174
683.332	1157
683.379	1528
683.426	825
683.449	782
683.473	687
683.521	911
683.568	1305
683.571	1306
683.615	1207
683.662	2019
683.693	1537
683.709	1251
683.757	929
683.804	1302
683.814	1329
683.851	1435
683.898	2512
683.936	1650
683.945	1400
683.992	1343
684.039	1547
684.057	1645
684.086	1850
684.133	1473
684.179	1231
684.180	1214
684.227	1342
684.274	1917
684.300	2036
684.321	2110
684.368	2135
684.415	1689
684.422	1666
684.462	1435
684.509	995
684.543	1575
684.556	1802
684.603	1826
684.649	1784
684.665	1949
684.696	2273
684.743	2329
684.786	2371
684.790	2366
684.837	1953
684.883	2243
684.908	2101
684.930	1940
684.977	2258
685.023	2101
685.029	2160
685.070	2478
685.117	2903
685.150	2110
685.164	1810
685.210	2701
685.257	2491
685.272	2634
685.303	2915
685.350	2501
685.393	2588
685.396	2593
685.443	2921
685.490	3355
685.514	3073
685.536	2785
685.583	2799
685.629	2983
685.636	2994
685.675	2962
685.722	1830
685.757	2515
685.768	2772
685.815	2919
685.861	2774
685.878	2867
685.908	2953
685.954	2862
686.000	3840
686.000	3855
686.047	3218
686.093	3625
686.121	4015
686.139	4110
686.185	3560
686.232	3366
686.242	3354
686.278	3380
686.324	3489
686.363	2815
686.370	2692
686.416	3431
686.463	2748
686.484	2893
686.509	3122
686.555	3147
686.601	3001
686.606	3077
686.647	3534
686.693	2564
686.727	2497
686.739	2571
686.785	3444
686.831	3078
686.848	3038
686.877	2715
686.923	2937
686.969	3020
686.969	3022
687.015	2729
687.061	3177
687.090	3245
687.107	3195
687.153	2984
687.199	3517
687.211	3333
687.245	3021
687.291	3313
687.332	3941
687.336	3994
687.382	3682
687.428	3516
687.453	3610
687.474	3601
687.520	3752
687.565	3582
687.574	3544
687.611	3522
687.657	3654
687.695	3518
687.702	3515
687.748	3339
687.794	4369
687.816	4307
687.839	4075
687.885	3928
687.931	3489
687.937	3384
687.976	3060
688.022	3744
688.058	3712
688.067	3680
688.113	3658
688.158	3875
688.179	3841
688.204	3902
688.249	3741
688.295	4125
688.300	4156
688.340	4130
688.386	4691
688.421	3851
688.431	3665
688.477	3784
688.522	3804
688.542	3994
688.567	4206
688.613	3769
688.658	3872
688.663	3879
688.703	4059
688.749	3990
688.784	4248
688.794	4310
688.839	4137
688.884	4573
688.905	4317
688.930	3999
688.975	4187
689.020	4074
689.026	4074
689.065	4232
689.110	4137
689.146	4196
689.155	4172
689.201	4274
689.246	4137
689.267	4071
689.291	4109
689.336	4153
689.381	4069
689.388	4155
689.426	4479
689.471	4145
689.509	3853
689.516	3849
689.561	4144
689.606	4596
689.630	4551
689.651	4366
689.696	3928
689.741	4188
689.750	4153
689.785	4321
689.830	4150
689.871	4084
689.875	4063
689.920	3723
689.965	4420
689.992	4323
690.010	4388
690.054	4499
690.099	4997
690.112	4982
690.144	4843
690.189	4695
690.233	4656
690.233	4663
690.278	4615
690.323	4776
690.354	4312
690.367	4273
690.412	4731
690.457	4485
690.474	4850
690.501	5244
690.546	5188
690.590	4781
690.595	4755
690.635	4951
690.680	5589
690.716	5759
690.724	5793
690.769	6353
690.813	6582
690.836	6655
690.857	7168
690.902	8356
690.946	9617
690.957	9883
690.991	12640
691.035	16960
691.077	20615
691.080	20679
691.124	20990
691.168	20905
691.198	20751
691.213	19401
691.257	15315
691.301	11926
691.318	10481
691.346	9743
691.390	8275
691.434	6694
691.439	6561
691.478	6483
691.522	6315
691.559	6005
691.567	5997
691.611	6039
691.655	5948
691.680	5866
691.699	5800
691.743	5981
691.787	5419
691.800	5388
691.831	5496
691.875	5702
691.919	5993
691.921	5970
691.964	5711
692.008	6088
692.041	6199
692.052	6219
692.096	5975
692.139	6210
692.162	6136
692.183	5930
692.227	5898
692.271	5614
692.282	5467
692.315	5497
692.359	6162
692.402	6366
692.403	6378
692.447	5952
692.490	5844
692.523	5923
692.534	6109
692.578	6451
692.622	6770
692.643	6959
692.666	6758
692.709	6096
692.753	5738
692.763	5677
692.797	5941
692.840	5734
692.884	5950
692.884	5966
692.928	5874
692.971	5795
693.004	5813
693.015	5846
693.059	6540
693.102	6370
693.124	6386
693.146	6419
693.189	6779
693.233	6804
693.245	6794
693.276	6957
693.320	7301
693.363	7522
693.365	7509
693.407	7607
693.450	7952
693.485	7894
693.493	8101
693.537	9623
693.580	10781
693.605	11643
693.624	12985
693.667	15646
693.710	18765
693.725	19776
693.753	25715
693.797	35025
693.840	45009
693.845	45998
693.883	45336
693.926	44269
693.966	43473
693.970	42662
694.013	33563
694.056	24021
694.086	17816
694.099	17110
694.142	14487
694.185	11882
694.206	10491
694.229	10070
694.272	9753
694.315	9091
694.326	8906
694.358	8704
694.401	8294
694.444	8229
694.446	8194
694.487	8039
694.530	8000
694.566	7805
694.573	7738
694.616	7039
694.659	6611
694.686	6449
694.702	6552
694.745	6369
694.787	6372
694.806	6283
694.830	6139
694.873	6190
694.916	5911
694.926	5894
694.959	6294
695.002	6434
695.044	6851
695.046	6853
695.087	6614
695.130	6116
695.166	5750
695.172	5816
695.215	6153
695.258	6469
695.286	6691
695.301	6665
695.343	6533
695.386	6394
695.406	6298
695.428	6315
695.471	6279
695.514	6319
695.526	6291
695.556	6339
695.599	6531
695.641	6520
695.646	6524
695.684	6565
695.726	6443
695.766	6363
695.769	6384
695.811	6368
695.854	6268
695.886	6312
695.896	6319
695.938	6120
695.981	6118
696.005	5999
696.023	5978
696.065	6008
696.108	5988
696.125	5921
696.150	6121
696.192	6548
696.235	6905
696.245	7022
696.277	7015
696.319	6656
696.361	6493
696.365	6462
696.404	6848
696.446	7120
696.485	7371
696.488	7384
696.530	7350
696.572	7220
696.604	7183
696.614	7165
696.656	6889
696.698	6663
696.724	6532
696.740	6465
696.783	6127
696.825	5952
696.844	5761
696.867	6046
696.909	6729
696.951	7232
696.964	7427
696.992	7250
697.034	6776
697.076	6398
697.083	6303
697.118	6366
697.160	6545
697.202	6654
697.203	6635
697.244	6641
697.286	6740
697.323	6732
697.327	6734
697.369	6609
697.411	6483
697.442	6364
697.453	6357
697.494	6206
697.536	6098
697.562	6028
697.578	6146
697.620	6312
697.661	6534
697.682	6624
697.703	6721
697.744	6897
697.786	7151
697.801	7157
697.828	7141
697.869	7144
697.911	7152
697.921	7138
697.952	7316
697.994	7478
698.035	7700
698.040	7698
698.077	7257
698.118	6736
698.160	6213
698.160	6191
698.201	6593
698.243	6962
698.279	7267
698.284	7275
698.325	7150
698.367	7033
698.399	6900
698.408	6937
698.449	6996
698.491	7103
698.518	7112
698.532	7074
698.573	6918
698.614	6765
698.638	6651
698.656	6750
698.697	6936
698.738	7124
698.757	7189
698.779	7344
698.820	7605
698.862	7858
698.877	7926
698.903	7931
698.944	7914
698.985	7893
698.996	7866
699.026	7800
699.067	7679
699.116	7515
699.235	6422
699.354	7395
699.474	6392
699.593	7812
699.713	7643
699.832	7541
699.951	7332
700.070	6932
700.190	6920
700.309	7268
700.428	6225
700.547	7844
700.667	7169
700.786	7295
700.905	6802
701.024	7406
701.143	7490
701.262	6011
701.381	5563
701.500	7065
701.619	6777
701.738	5931
701.857	7094
701.976	6516
702.095	6684
702.214	7582
702.333	6993
702.452	6065
702.571	6059
702.690	6447
702.809	5714
702.928	5398
703.047	7062
703.165	5704
703.284	5806
703.403	7140
703.522	6113
703.640	6769
703.759	6994
703.878	8829
703.997	6458
704.115	6317
704.234	6323
704.353	5442
704.471	5918
704.590	5445
704.708	4588
704.827	5980
704.946	6112
705.064	6683
705.183	6036
705.301	6788
705.420	9520
705.538	9945
705.656	7222
705.775	8282
705.893	12311
706.012	16950
706.130	7896
706.249	8425
706.367	8127
706.485	7838
706.604	7304
706.722	8157
706.840	8565
706.958	9064
707.077	7504
707.195	6844
707.313	7551
707.431	6848
707.549	6396
707.668	6367
707.786	7393
707.904	7710
708.022	6928
708.140	6857
708.258	5905
708.376	7362
708.494	7013
708.612	7914
708.730	11171
708.848	10334
708.966	8612
709.084	7992
709.202	7762
709.320	9040
709.438	8832
709.556	8502
709.674	8996
709.791	7689
709.909	7852
710.027	8330
710.145	8377
710.263	8386
710.380	8000
710.498	8590
710.616	8410
710.733	7992
710.851	7698
710.969	8242
711.086	7591
711.204	8385
711.322	7110
711.439	7749
711.557	8223
711.674	8161
711.792	7609
711.909	7768
712.027	8947
712.144	7120
712.262	8047
712.379	7993
712.497	10725
712.614	11886
712.732	9853
712.849	9322
712.966	9347
713.084	10153
713.201	9619
713.318	9928
713.436	9095
713.553	9626
713.670	8610
713.787	10521
713.905	9559
714.022	9938
714.139	8959
714.256	8851
714.373	9841
714.490	10727
714.608	13721
714.725	34463
714.842	43116
714.959	9868
715.076	8094
715.193	7771
715.310	8433
715.427	8601
715.544	7368
715.661	7680
715.778	8464
715.895	8629
716.011	8053
716.128	7723
716.245	8111
716.362	8344
716.479	8328
716.596	8590
716.713	7729
716.829	7478
716.946	8148
717.063	7456
717.180	6747
717.296	6424
717.413	7188
717.530	7053
717.646	6892
717.763	7585
717.880	6350
717.996	7125
718.113	6550
718.229	8029
718.346	6876
718.462	7115
718.579	7346
718.695	10313
718.812	9741
718.928	9461
719.045	6896
719.161	5997
719.277	5990
719.394	6446
719.510	6917
719.626	5801
719.743	7220
719.859	6892
719.975	7509
720.092	11858
720.208	22769
720.324	8699
720.440	6400
720.557	7043
720.673	8710
720.789	12953
720.905	24730
721.021	11553
721.137	6540
721.253	6279
721.369	5977
721.486	7091
721.602	9320
721.718	6014
721.834	5760
721.950	6024
722.066	5925
722.181	4791
722.297	6385
722.413	5879
722.529	5231
722.645	5742
722.761	5758
722.877	5532
722.993	4499
723.108	6050
723.224	5880
723.340	5099
723.456	4808
723.571	5265
723.687	5094
723.803	5217
723.918	4603
724.034	5707
724.150	5014
724.265	5673
724.381	10018
724.497	13876
724.612	4684
724.728	4697
724.843	4766
724.959	5702
725.074	9149
725.190	11649
725.305	5094
725.421	5799
725.536	4690
725.651	4954
725.767	4469
725.882	4858
725.997	4223
726.113	4445
726.228	4364
726.343	4549
726.459	4447
726.574	5113
726.689	4158
726.804	4424
726.920	3624
727.035	3928
727.150	4538
727.265	3855
727.380	4559
727.495	4662
727.610	3719
727.725	4093
727.841	5099
727.956	7754
728.071	7282
728.186	4422
728.301	3561
728.416	4004
728.531	4302
728.645	3512
728.760	4757
728.875	4330
728.990	4243
729.105	4873
729.220	4108
729.335	3867
729.449	4160
729.564	4194
729.679	4317
729.794	4141
729.908	3526
730.023	3666
730.138	3569
730.253	3984
730.367	3314
730.482	3053
730.596	3450
730.711	4071
730.826	3656
730.940	3120
731.055	3659
731.169	3677
731.284	3504
731.398	3390
731.513	3638
731.627	3692
731.742	4111
731.856	4170
731.970	2404
732.085	3290
732.199	3109
732.313	4243
732.428	4909
732.542	9571
732.656	6595
732.771	3524
732.885	3341
732.999	3962
733.113	3135
733.227	3153
733.342	2264
733.456	2904
733.570	3035
733.684	2917
733.798	2979
733.912	2963
734.026	2176
734.140	2782
734.254	3206
734.368	6526
734.482	6877
734.596	2889
734.710	3260
734.824	2767
734.938	2554
735.052	3166
735.166	3471
735.280	3427
735.393	2511
735.507	2695
735.621	4084
735.735	6962
735.849	4115
735.962	2991
736.076	3383
736.190	3105
736.303	3542
736.417	5576
736.531	3646
736.644	3699
736.758	2950
736.872	2630
736.985	2284
737.099	2403
737.212	2343
737.326	3008
737.439	2616
737.553	2288
737.666	2659
737.780	2989
737.893	2808
738.007	3534
738.120	1946
738.233	2593
738.347	2655
738.460	2337
738.573	2258
738.687	3078
738.800	2626
738.913	3525
739.026	3038
739.140	2865
739.253	2543
739.366	2792
739.479	1860
739.592	1959
739.705	2556
739.818	2624
739.932	2754
740.045	2487
740.158	2070
740.271	3131
740.384	2641
740.497	3293
740.610	2950
740.723	2925
740.836	2112
740.949	2549
741.062	2814
741.174	3145
741.287	2416
741.400	2747
741.513	3139
741.626	2737
741.739	3163
741.851	2302
741.964	2600
742.077	2746
742.189	2873
742.302	4994
742.415	3858
742.527	2345
742.640	2499
742.753	2623
742.865	2101
742.978	2093
743.090	2082
743.203	1396
743.316	1850
743.428	2083
743.541	1860
743.653	2039
743.766	1706
743.878	3057
743.990	3305
744.103	5117
744.215	6441
744.327	2977
744.440	2412
744.552	3677
744.664	2034
744.777	2160
744.889	1205
745.001	3154
745.113	1468
745.226	2907
745.338	2449
745.450	1938
745.562	2248
745.674	2473
745.786	1928
745.898	1277
746.010	2031
746.122	1371
746.234	1778
746.347	1655
746.459	1681
746.570	2635
746.682	4533
746.794	10064
746.906	3536
747.018	2726
747.130	1264
747.242	2916
747.354	2089
747.466	1918
747.577	2497
747.689	2516
747.801	1156
747.913	2092
748.024	1296
748.136	1884
748.248	1943
748.359	1553
748.471	1551
748.583	2373
748.694	1746
748.806	4098
748.918	2193
749.029	3055
749.141	1337
749.252	2407
749.364	2382
749.475	3135
749.587	2233
749.698	1826
749.809	2272
749.921	2258
750.032	1106
750.144	2491
750.255	2247
750.366	1719
750.478	1215
750.589	2238
750.700	1704
750.811	1755
750.923	2214
751.034	3520
751.145	3712
751.256	2469
751.367	2013
751.479	2421
751.590	1048
751.701	2080
751.812	2098
751.923	2658
752.034	1881
752.145	2486
752.256	1800
752.367	1969
752.478	2071
752.589	2413
752.700	2082
752.811	1709
752.922	1211
753.032	2075
753.143	1890
753.254	608
753.365	2189
753.476	1746
753.586	1456
753.697	1909
753.808	2124
753.919	2043
754.029	1294
754.140	2207
754.251	1478
754.361	1492
754.472	2120
754.582	1722
754.693	1969
754.804	1576
754.914	890
755.025	1837
755.135	1850
755.246	1628
755.356	1127
755.466	1735
755.577	2014
755.687	1285
755.798	1429
755.908	1878
756.018	1643
756.129	1562
756.239	2237
756.349	1827
756.460	1468
756.570	1961
756.680	702
756.790	1682
756.900	2064
757.011	2596
757.121	2650
757.231	2666
757.341	1487
757.451	1486
757.561	1703
757.671	1462
757.781	1033
757.891	1831
758.001	2255
758.111	3024
758.221	1685
758.331	2706
758.441	1991
758.551	2205
758.661	2870
758.771	2920
758.880	2073
758.990	1892
759.100	2046
759.210	1994
759.320	2608
759.429	2856
759.539	2025
759.649	1844
759.758	3058
759.868	2690
759.978	1912
760.087	3163
760.197	2890
760.307	2936
760.416	2842
760.526	2605
760.635	2173
760.745	3135
760.854	2316
760.964	2598
761.073	2225
761.182	2377
761.292	2783
761.401	4008
761.511	2699
761.620	2835
761.729	3243
761.839	2640
761.948	2576
762.057	3720
762.166	3031
762.276	2099
762.385	3803
762.494	3615
762.603	3051
762.712	3742
762.822	4084
762.931	3727
763.040	4256
763.149	4653
763.258	4722
763.367	5497
763.476	4835
763.585	5351
763.694	5676
763.803	5841
763.912	6169
764.021	6782
764.130	5686
764.238	6575
764.347	7156
764.456	7109
764.565	8644
764.674	8597
764.783	8760
764.891	9934
765.000	11529
765.109	13671
765.217	14930
765.326	18314
765.435	21929
765.543	26267
765.652	31912
765.761	43025
765.869	57475
765.978	84711
766.086	134862
766.195	231462
766.303	417573
766.412	601604
766.520	524060
766.629	400784
766.737	216979
766.846	128111
766.954	84004
767.062	60827
767.171	45114
767.279	35216
767.387	26767
767.496	22351
767.604	19451
767.712	17481
767.820	15893
767.928	14261
768.037	13287
768.145	13122
768.253	12101
768.361	11969
768.469	11690
768.577	10549
768.685	12635
768.793	12526
768.901	13907
769.009	16835
769.117	19666
769.225	25671
769.333	35387
769.441	54270
769.549	92090
769.657	182162
769.765	384745
769.873	510401
769.981	371658
770.088	174256
770.196	88057
770.304	54434
770.412	38339
770.519	27333
770.627	22503
770.735	16936
770.842	14827
770.950	13320
771.058	11615
771.165	9622
771.273	8735
771.380	8286
771.488	7339
771.595	6776
771.703	6841
771.810	6516
771.918	5320
772.025	5731
772.133	4904
772.240	5005
772.348	4947
772.455	4305
772.562	4215
772.670	4298
772.777	3602
772.884	4534
772.991	3750
773.099	3563
773.206	3225
773.313	3611
773.420	2938
773.528	2821
773.635	3130
773.742	3957
773.849	3516
773.956	3099
774.063	2524
774.170	2383
774.277	2959
774.384	2404
774.491	2419
774.598	2673
774.705	2135
774.812	2523
774.919	2173
775.026	2613
775.133	2458
775.239	2755
775.346	2055
775.453	2403
775.560	3214
775.667	2103
775.773	2204
775.880	3032
775.987	1738
776.093	2167
776.200	2024
776.307	2183
776.413	2108
776.520	2363
776.627	2435
776.733	2492
776.840	1171
776.946	4382
777.053	7812
777.159	15232
777.266	7895
777.372	12778
777.478	11570
777.585	5438
777.691	1901
777.798	1855
777.904	2470
778.010	3130
778.117	2162
778.223	2638
778.329	1340
778.435	2077
778.542	2265
778.648	2169
778.754	898
778.860	1837
778.966	707
779.072	1780
779.178	1581
779.284	1719
779.391	1629
779.497	985
779.603	4206
779.708	2604
779.815	7791
779.920	24861
780.026	61964
780.132	11703
780.238	2179
780.344	1729
780.450	2508
780.556	2356
780.661	1379
780.767	1867
780.873	620
780.979	1317
781.085	770
781.190	2054
781.296	1303
781.402	1514
781.507	251
781.613	908
781.719	952
781.824	1950
781.930	1048
782.035	1389
782.141	889
782.246	1205
782.352	539
782.457	1314
782.563	1261
782.668	653
782.773	510
782.879	1095
782.984	1245
783.090	1411
783.195	1793
783.300	1752
783.405	1034
783.511	1422
783.616	1947
783.721	684
783.826	1598
783.932	1349
784.037	1513
784.142	929
784.247	613
784.352	1713
784.457	1330
784.562	1141
784.667	721
784.772	1607
784.877	569
784.982	1092
785.087	-135
785.192	1202
785.297	795
785.402	317
785.507	1121
785.611	693
785.716	908
785.821	935
785.926	320
786.031	714
786.135	721
786.240	1134
786.345	448
786.450	575
786.554	423
786.659	474
786.763	132
786.868	752
786.973	1309
787.077	1397
787.182	785
787.286	543
787.391	137
787.495	1433
787.600	234
787.704	-82
787.809	614
787.913	798
788.017	458
788.122	810
788.226	176
788.330	1192
788.435	-145
788.539	966
788.643	111
788.747	412
788.852	814
788.956	690
789.060	614
789.164	693
789.268	220
789.372	2209
789.476	538
789.580	168
789.684	345
789.788	732
789.892	-422
789.996	1167
790.100	634
790.204	422
790.308	223
790.412	172
790.516	761
790.620	562
790.724	1084
790.828	126
790.931	226
791.035	1519
791.139	313
791.242	-177
791.346	1189
791.450	631
791.554	307
791.657	-297
791.761	258
791.864	1060
791.968	99
792.072	896
792.175	243
792.279	182
792.382	267
792.486	780
792.589	477
792.693	1652
792.796	4
792.899	979
793.003	323
793.106	273
793.209	-335
793.313	2025
793.416	-672
793.519	2203
793.623	741
793.726	438
793.829	69
793.932	890
794.035	50
794.138	1081
794.242	849
794.345	774
794.448	2442
794.551	4367
794.654	13368
794.757	32159
794.860	8104
794.963	2041
795.066	223
795.169	880
795.272	-568
795.375	649
795.477	-237
795.580	568
795.683	-1248
795.786	394
795.889	-745
795.991	1760
796.094	661
796.197	-35
796.300	193
796.402	640
796.505	-840
796.608	322
796.710	530
796.813	58
796.915	153
797.018	841
797.120	626
797.223	-765
797.326	1231
797.428	-528
797.530	-100
797.633	786
797.735	138
797.838	1320
797.940	1672
798.042	337
798.145	-604
798.247	806
798.349	-686
798.452	60
798.554	-152
798.656	-197
798.758	734
798.860	-89
798.962	43
799.065	-326
799.167	-570
799.269	1277
799.371	723
799.473	1124
799.575	-411
799.677	932
799.779	966
799.881	193
799.983	375
800.085	-292
800.187	-249
800.289	-529
800.390	173
800.492	1142
800.594	-46
800.696	-230
800.798	307
800.899	301
801.001	219
801.103	275
801.205	-775
801.306	-286
801.408	-756
801.509	496
801.611	-364
801.713	220
801.814	-753
801.916	805
802.017	-117
802.119	-436
802.220	-622
802.322	-698
802.423	1029
802.525	-620
802.626	380
802.727	299
802.829	190
802.930	-1367
803.031	700
803.133	-65
803.234	-12
803.335	26
803.436	-575
803.538	-377
803.639	-60
803.740	1221
803.841	-409
803.942	-34
804.043	-896
804.144	-465
804.245	648
804.346	-1147
804.447	-332
804.548	3
804.649	732
804.750	-668
804.851	65
804.952	224
805.053	-319
805.154	-1285
805.255	170
805.355	-561
805.456	-526
805.557	572
805.658	-1831
805.758	343
805.859	331
805.960	234
806.061	-41
806.161	-16
806.262	302
806.362	164
806.463	97
806.564	563
806.664	142
806.765	-223
806.865	122
806.966	850
807.066	-287
807.166	72
807.267	228
807.367	184
807.468	675
807.568	-562
807.668	444
807.769	476
807.869	47
807.969	-15
808.069	276
808.170	723
808.270	-421
808.370	417
808.470	-529
808.570	-23
808.670	-526
808.770	-519
808.870	-225
808.970	312
809.070	-726
809.170	-1290
809.271	-185
809.370	140
809.470	685
809.570	-275
809.670	-1260
809.770	-6
809.870	-33
809.970	787
810.070	-490
810.169	287
810.269	-1735
810.369	68
810.469	-975
810.568	-471
810.668	-399
810.768	-786
810.867	14
810.967	316
811.066	239
811.166	-918
811.265	-170
811.365	-39
811.464	-1048
811.564	-352
811.663	-156
811.763	-664
811.862	85
811.962	839
812.061	-571
812.160	-841
812.260	-921
812.359	6
812.458	-185
812.557	778
812.657	415
812.756	1134
812.855	-518
812.954	-363
813.053	-44
813.153	-89
813.252	-2
813.351	692
813.450	-1025
813.549	-210
813.648	-9
813.747	-264
813.846	272
813.945	-554
814.044	338
814.143	589
814.242	242
814.341	-18
814.439	313
814.538	719
814.637	-179
814.736	345
814.835	410
814.933	893
815.032	-115
815.131	462
815.229	401
815.328	817
815.427	12
815.525	1706
815.624	541
815.722	922
815.821	844
815.919	195
816.018	287
816.116	2563
816.215	715
816.313	1195
816.412	953
816.510	1644
816.609	2013
816.707	2291
816.805	1966
816.904	1990
817.002	2534
817.100	3988
817.198	3895
817.296	4358
817.395	4935
817.493	6806
817.591	7333
817.689	11199
817.787	14783
817.885	23786
817.983	40409
818.081	80634
818.179	170682
818.277	363105
818.375	377211
818.473	161320
818.571	69761
818.669	43263
818.767	35321
818.865	34234
818.963	37653
819.061	50627
819.158	79980
819.256	147628
819.354	289690
819.452	506240
819.549	421766
819.647	203117
819.745	95374
819.842	56338
819.940	37078
820.038	26533
820.135	20297
820.233	16773
820.330	12003
820.428	8318
820.525	8994
820.623	7834
820.720	5801
820.818	6304
820.915	4810
821.012	5455
821.110	3407
821.207	3368
821.304	2947
821.402	3357
821.499	4752
821.596	6706
821.693	3145
821.791	2941
821.888	1149
821.985	3606
822.082	2508
822.179	3103
822.276	2650
822.373	1679
822.470	1149
822.567	877
822.664	256
822.761	1917
822.858	-632
822.955	422
823.052	125
823.149	702
823.246	958
823.343	640
823.440	1021
823.536	136
823.633	-87
823.730	-197
823.827	-339
823.923	359
824.020	1950
824.117	1607
824.213	878
824.310	1582
824.407	-169
824.503	853
824.600	7
824.696	-397
824.793	1050
824.889	-102
824.986	364
825.082	782
825.179	43
825.275	-256
825.371	-775
825.468	497
825.564	-1550
825.660	282
825.757	-466
825.853	228
825.949	-752
826.045	88
826.142	-532
826.238	822
826.334	618
826.430	-722
826.526	-903
826.622	-283
826.718	-88
826.814	-718
826.910	-228
827.006	-901
827.102	-880
827.198	462
827.294	-510
827.390	-54
827.486	650
827.582	-862
827.678	-1219
827.774	589
827.869	-1952
827.965	504
828.061	-1469
828.157	-120
828.252	-135
828.348	-1294
828.444	261
828.539	-12
828.635	-642
828.731	487
828.826	-1459
828.922	-33
829.017	96
829.113	-67
829.208	-561
829.304	-904
829.399	172
829.495	-242
829.590	155
829.685	-336
829.781	-812
829.876	-279
829.971	-1765
830.066	-195
830.162	-557
830.257	-578
830.352	-1416
830.447	645
830.543	-1020
830.638	-999
830.733	-491
830.828	-664
830.923	-86
831.018	-1041
831.113	-1054
831.208	-1082
831.303	-1189
831.398	-510
831.493	-746
831.588	-383
831.683	-856
831.778	-90
831.873	-569
831.967	-6
832.062	-1586
832.157	-1507
832.252	139
832.346	-443
832.441	-140
832.536	52
832.631	197
832.725	601
832.820	-729
832.914	-766
833.009	-642
833.104	-728
833.198	261
833.293	-430
833.387	-385
833.482	-1068
833.576	-1747
833.670	352
833.765	-353
833.859	-718
833.954	-713
834.048	544
834.142	-207
834.237	-224
834.331	-366
834.425	-549
834.519	-1622
834.613	59
834.708	-607
834.802	-633
834.896	-878
834.990	-1363
835.084	-906
835.178	-645
835.272	-1322
835.366	-1516
835.460	-434
835.554	-873
835.648	-1180
835.742	-749
835.836	-1492
835.930	-1441
836.024	-1096
836.117	-403
836.211	-1610
836.305	-331
836.399	-369
836.493	-1192
836.586	-465
836.680	-1417
836.774	-1179
836.867	109
836.961	-1502
837.055	-660
837.148	-686
837.242	-193
837.335	-486
837.429	-768
837.522	-1194
837.616	59
837.709	919
837.803	503
837.896	-236
837.989	117
838.083	154
838.176	515
838.269	216
838.363	-85
838.456	-1403
838.549	-676
838.642	-987
838.735	1344
838.829	136
838.922	-966
839.015	-640
839.108	-1035
839.201	-974
839.294	-843
839.387	-753
839.480	-1122
839.573	-220
839.666	1051
839.759	-1204
839.852	-1629
839.945	-1770
840.038	-248
840.131	-724
840.223	-887
840.316	-242
840.409	-969
840.502	-1281
840.594	208
840.687	-1629
840.780	-865
840.873	-1117
840.965	-607
841.058	-455
841.150	1131
841.243	-561
841.336	-265
841.428	-875
841.521	-668
841.613	-1290
841.706	342
841.798	-731
841.890	-209
841.983	-778
842.075	-242
842.167	-484
842.260	-813
842.352	557
842.444	99
842.537	1155
842.629	2206
842.721	-773
842.813	482
842.905	-1196
842.997	-264
843.090	-1627
843.182	312
843.274	559
843.366	4268
843.458	7907
843.550	5251
843.642	-1062
843.734	-37
843.826	-432
843.918	495
844.009	-359
844.101	-889
844.193	-568
844.285	-267
844.377	62
844.469	995
844.560	1077
844.652	611
844.744	-935
844.835	-501
844.927	-645
845.019	-441
845.110	-420
845.202	30
845.293	-1260
845.385	-567
845.476	-204
845.568	450
845.659	-239
845.751	232
845.842	-1060
845.934	-1579
846.025	-1789
846.116	-715
846.208	-1470
846.299	-1004
846.390	-974
846.482	-677
846.573	-847
846.664	-237
846.755	-139
846.846	710
846.937	-1895
847.029	42
847.120	-1222
847.211	-1495
847.302	-28
847.393	-1463
847.484	113
847.575	-1170
847.666	-1423
847.757	-598
847.847	-875
847.938	-590
848.029	-1036
848.120	-1117
848.211	-1214
848.302	-627
848.392	-1094
848.483	-483
848.574	-986
848.664	-1479
848.755	-783
848.846	-707
848.936	-1427
849.027	-627
849.118	-1157
849.208	-800
849.299	-1191
849.389	-387
849.480	-655
849.570	-336
849.661	115
849.751	1055
849.841	-314
849.932	-179
850.022	-1079
850.112	118
850.203	-1697
850.293	-209
850.383	-466
850.474	-723
850.564	-1024
850.654	-259
850.744	-665
850.834	-1343
850.924	-1187
851.014	-616
851.104	-1867
851.194	-693
851.284	-893
851.374	-818
851.464	-1136
851.554	-563
851.644	-973
851.734	32
851.824	-599
851.914	-594
852.004	405
852.094	32
852.183	61
852.273	-208
852.363	-655
852.452	-994
852.542	-850
852.632	-663
852.721	-1113
852.811	-965
852.901	-1361
852.990	-1269
853.080	-1093
853.169	-844
853.259	-1102
853.348	-1417
853.438	-1152
853.527	-504
853.617	-886
853.706	362
853.795	465
853.885	3027
853.974	4986
854.063	10611
854.152	16082
854.242	6845
854.331	2
854.420	-487
854.509	-1693
854.598	-318
854.687	-484
854.777	-391
854.866	-1709
854.955	-26
855.044	-1563
855.133	-1559
855.222	-1244
855.311	-1058
855.400	-613
855.488	-1146
855.577	-1706
855.666	-48
855.755	-130
855.844	17
855.933	-1353
856.021	-132
856.110	-828
856.199	-1139
856.288	-1016
856.376	-1241
856.465	-1689
856.554	-762
856.642	-1164
856.731	-854
856.819	-1322
856.908	-634
856.996	-1881
857.085	-994
857.173	-2265
857.262	-743
857.350	-1171
857.438	-510
857.527	-1027
857.615	-1703
857.703	1
857.792	-985
857.880	-1306
857.968	-1086
858.056	-914
858.145	-436
858.233	-1355
858.321	-971
858.409	-1145
858.497	-1850
858.585	-1226
858.673	-1135
858.761	-1049
858.849	-1034
858.937	-1430
859.025	-1008
859.113	-398
859.201	-1178
859.289	-428
859.377	-801
859.465	-1527
859.552	-698
859.640	-1546
859.728	-920
859.816	-1362
859.903	-557
859.991	-1632
860.079	-710
860.166	-1586
860.254	-1527
860.342	-1136
860.429	-1305
860.517	-1686
860.604	-1038
860.692	-1340
860.779	-1080
860.867	-1354
860.954	-599
861.042	-1387
861.129	-638
861.216	-1183
861.304	-777
861.391	-1828
861.478	-680
861.565	-304
861.653	-241
861.740	-1309
861.827	-1223
861.914	-1129
862.001	-880
862.089	-1946
862.176	-349
862.263	-1099
862.350	-877
862.437	-1284
862.524	-1234
862.611	-966
862.698	-684
862.785	-27
862.871	3
862.958	-1982
863.045	-1014
863.132	-925
863.219	-964
863.306	-1991
863.392	-417
863.479	-1256
863.566	-1305
863.652	-1292
863.739	-975
863.826	-1321
863.912	-1137
863.999	-1158
864.086	-652
864.172	-1416
864.259	-1177
864.345	-1078
864.432	-413
864.518	-1434
864.604	-634
864.691	-1728
864.777	-715
864.863	-563
864.950	-1355
865.036	-1629
865.122	-1132
865.209	-1586
865.295	-764
865.381	-2039
865.467	-252
865.553	-566
865.639	-1229
865.726	-1297
865.812	725
865.898	1250
865.984	2329
866.070	6098
866.156	9197
866.242	25
866.328	-1061
866.414	-1870
866.499	-884
866.585	-624
866.671	-523
866.757	-1218
866.843	-549
866.928	-2107
867.014	-1201
867.100	-578
867.186	-887
867.271	-1374
867.357	-124
867.442	-897
867.528	-912
867.614	-518
867.699	109
867.785	430
867.870	1118
867.956	1730
868.041	1607
868.127	-445
868.212	777
868.297	856
868.383	-755
868.468	-180
868.553	169
868.639	51
868.724	801
868.809	1021
868.894	-399
868.979	-1090
869.065	-1020
869.150	-1208
869.235	-960
869.320	-1323
869.405	-582
869.490	-1379
869.575	-1550
869.660	-865
869.745	-1396
869.830	-1316
869.915	-901
870.000	-1422
870.085	-537
870.169	-684
870.254	-180
870.339	-1042
870.424	-1593
870.509	-1561
870.593	-981
870.678	-737
870.763	-1328
870.847	-728
870.932	-569
871.016	-444
871.101	-404
871.186	-1250
871.270	-268
871.355	-1374
871.439	-1033
871.523	-1040
871.608	-771
871.692	-2009
871.777	-442
871.861	-555
871.945	-1395
872.030	-1632
872.114	-946
872.198	-1892
872.282	-1455
872.367	-942
872.451	-1017
872.535	-1517
872.619	-845
872.703	-1890
872.787	-1248
872.871	-1805
872.955	-1670
873.039	-1360
873.123	-1722
873.207	-507
873.291	-1339
873.375	-1207
873.459	-903
873.543	-1723
873.627	-1124
873.711	-95
873.794	-378
873.878	-1583
873.962	-1643
874.045	-1250
874.129	-285
874.137	-377
874.213	-1303
874.245	-1276
874.296	-1228
874.352	-1588
874.380	-1769
874.460	-1050
874.464	-1022
874.547	-1730
874.568	-1507
874.631	-848
874.676	-718
874.714	-615
874.784	-440
874.798	-404
874.881	-1037
874.892	-1082
874.965	-1406
874.999	-1551
875.048	-1733
875.107	-1185
875.131	-973
875.215	-757
875.215	-757
875.298	-888
875.323	-898
875.381	-886
875.430	-556
875.465	-329
875.538	-1604
875.548	-1782
875.631	-1339
875.646	-1235
875.714	-819
875.753	-798
875.798	-666
875.861	-740
875.881	-814
875.964	-684
875.968	-713
876.047	-1013
876.076	-972
876.130	-1037
876.183	-1085
876.213	-1032
876.291	-868
876.296	-871
876.379	-1242
876.398	-1154
876.462	-758
876.506	-1234
876.545	-1672
876.613	-1063
876.628	-916
876.711	-1003
876.721	-966
876.794	-810
876.828	-1080
876.877	-1435
876.935	-910
876.960	-671
877.043	-459
877.043	-461
877.125	-781
877.150	-762
877.208	-730
877.258	-858
877.291	-915
877.365	-604
877.374	-564
877.456	-940
877.472	-910
877.539	-557
877.579	-360
877.622	-392
877.687	-415
877.704	-370
877.787	-99
877.794	-108
877.869	-268
877.901	-351
877.952	-522
878.008	-797
878.034	-926
878.115	-1011
878.117	-1006
878.199	-705
878.222	-572
878.282	-334
878.329	-201
878.364	-102
878.437	-143
878.447	-142
878.529	-654
878.544	-546
878.611	28
878.651	-87
878.694	-322
878.758	-430
878.776	-408
878.858	-90
878.865	-76
878.941	-218
878.972	-410
879.023	-361
879.078	87
879.105	191
879.185	-45
879.187	-47
879.269	-135
879.292	-315
879.351	-782
879.399	-589
879.433	-364
879.506	165
879.516	206
879.598	-114
879.613	-246
879.680	-499
879.720	4
879.762	181
879.827	-857
879.844	-964
879.926	22
879.933	34
880.007	-328
880.040	-629
880.089	-949
880.147	-658
880.171	-545
880.253	-374
880.254	-375
880.335	93
880.360	121
880.417	178
880.467	334
880.499	664
880.574	2032
880.580	2032
880.662	378
880.680	192
880.744	225
880.787	80
880.825	-183
880.893	-159
880.907	-93
880.989	-222
881.000	-120
881.070	314
881.106	80
881.152	204
881.213	666
881.233	531
881.315	-331
881.319	-343
881.396	471
881.426	495
881.478	-45
881.532	-403
881.559	-294
881.639	-182
881.641	-186
881.722	77
881.745	-60
881.803	28
881.852	342
881.885	248
881.958	-62
881.966	-8
882.047	602
882.064	652
882.129	293
882.171	495
882.210	1205
882.277	1757
882.291	1640
882.372	546
882.383	521
882.454	619
882.489	416
882.535	135
882.596	-571
882.616	-572
882.697	226
882.702	251
882.778	-83
882.808	-229
882.859	-148
882.914	82
882.940	163
883.020	574
883.021	580
883.102	230
883.127	195
883.183	-139
883.233	-382
883.264	-425
883.339	-110
883.345	-51
883.426	-33
883.445	119
883.507	633
883.551	519
883.587	255
883.657	519
883.668	590
883.749	612
883.763	618
883.830	484
883.869	336
883.910	408
883.975	913
883.991	899
884.072	182
884.081	146
884.152	437
884.187	290
884.233	122
884.292	454
884.314	532
884.394	268
884.398	266
884.475	73
884.504	-5
884.555	396
884.610	651
884.636	592
884.716	304
884.716	311
884.797	586
884.821	681
884.877	822
884.927	617
884.958	531
885.033	727
885.038	729
885.118	219
885.139	168
885.199	348
885.244	488
885.279	504
885.350	449
885.359	459
885.439	559
885.456	536
885.520	593
885.561	714
885.600	837
885.667	901
885.680	861
885.760	601
885.773	575
885.840	1038
885.878	1237
885.920	996
885.984	505
886.000	504
886.080	805
886.089	774
886.160	915
886.195	1262
886.240	1425
886.300	1146
886.320	1050
886.400	998
886.406	988
886.480	1142
886.511	1135
886.560	1053
886.616	841
886.640	1048
886.720	1951
886.722	1961
886.800	676
886.827	187
886.879	620
886.932	888
886.959	902
887.038	1305
887.039	1310
887.119	825
887.143	741
887.198	866
887.248	831
887.278	966
887.354	1397
887.358	1377
887.437	661
887.459	517
887.517	1050
887.564	1288
887.596	1146
887.669	1058
887.676	1110
887.755	1531
887.774	1621
887.835	1041
887.880	582
887.914	751
887.985	1309
887.994	1357
888.073	1274
888.090	1312
888.153	1169
888.195	998
888.232	939
888.300	902
888.311	939
888.391	1045
888.405	1070
888.470	1198
888.510	1204
888.549	1339
888.615	1735
888.628	1788
888.708	1838
888.720	1858
888.787	1507
888.825	1237
888.866	1036
888.930	794
888.945	884
889.024	1251
889.035	1304
889.103	1550
889.140	1645
889.182	1812
889.245	2018
889.261	1899
889.340	1334
889.349	1259
889.419	1286
889.454	1295
889.498	1295
889.559	1279
889.577	1350
889.656	1640
889.664	1663
889.735	699
889.768	234
889.814	982
889.873	1970
889.978	547
890.083	1806
890.187	1434
890.292	1780
890.397	890
890.501	1586
890.606	1271
890.710	1924
890.815	1573
890.919	1568
891.024	905
891.128	1966
891.233	1716
891.337	1618
891.442	1357
891.546	1709
891.650	1670
891.755	2572
891.859	1302
891.963	1597
892.068	1200
892.172	1267
892.276	1195
892.380	968
892.484	1228
892.589	2230
892.693	1120
892.797	1439
892.901	1555
893.005	2003
893.109	1261
893.213	1360
893.317	1113
893.421	1260
893.525	908
893.629	1688
893.733	1607
893.837	1458
893.941	698
894.045	2146
894.148	1019
894.252	2318
894.356	1856
894.460	1928
894.564	904
894.667	1455
894.771	2127
894.875	1302
894.978	1108
895.082	558
895.186	1191
895.289	1648
895.393	1286
895.496	1446
895.600	930
895.703	1350
895.807	850
895.910	1448
896.014	909
896.117	1571
896.221	1576
896.324	2160
896.427	889
896.531	921
896.634	1500
896.737	866
896.840	1486
896.944	1238
897.047	861
897.150	913
897.253	475
897.356	2394
897.460	1265
897.563	1927
897.666	660
897.769	1750
897.872	1310
897.975	1979
898.078	1018
898.181	1651
898.284	1123
898.387	1950
898.490	806
898.593	1270
898.695	806
898.798	1178
898.901	2178
899.004	1434
899.107	1145
899.209	1589
899.312	1415
899.415	1486
899.518	447
899.620	1630
899.723	1418
899.826	1211
899.928	2026
900.031	2320
900.133	467
900.236	1104
900.338	798
900.441	1502
900.543	1212
900.646	2017
900.748	223
900.851	1180
900.953	1312
901.055	987
901.158	1138
901.260	1871
901.362	1433
901.465	1306
901.567	1161
901.669	1526
901.771	1104
901.873	1314
901.976	500
902.078	2095
902.180	860
902.282	1059
902.384	578
902.486	1205
902.588	1202
902.690	2818
902.792	1638
902.894	1832
902.996	1317
903.098	2139
903.200	367
903.302	1425
903.404	486
903.505	2078
903.607	1184
903.709	1843
903.811	1232
903.913	726
904.014	814
904.116	1528
904.218	798
904.319	1210
904.421	1430
904.523	3608
904.624	2079
904.726	2540
904.827	1583
904.929	2207
905.030	1859
905.132	1885
905.233	603
905.335	950
905.436	1063
905.537	1099
905.639	963
905.740	840
905.841	1025
905.943	1302
906.044	1448
906.145	2227
906.247	367
906.348	1349
906.449	730
906.550	1461
906.651	852
906.752	1277
906.854	759
906.955	601
907.056	1633
907.157	1565
907.258	1421
907.359	905
907.460	-304
907.561	1006
907.662	632
907.762	1069
907.863	957
907.964	732
908.065	548
908.166	1286
908.267	1072
908.367	551
908.468	691
908.569	2144
908.670	1075
908.770	1839
908.871	1275
908.971	1458
909.072	2572
909.173	904
909.273	678
909.374	1479
909.474	1052
909.575	911
909.675	383
909.776	2108
909.876	777
909.977	568
910.077	1395
910.177	961
910.278	761
910.378	946
910.478	222
910.579	808
910.679	577
910.779	1371
910.879	784
910.980	941
911.080	-59
911.180	874
911.280	629
911.380	482
911.480	1130
911.580	1328
911.680	984
911.780	1446
911.880	1324
911.980	1883
912.080	1276
912.180	736
912.280	673
912.380	1395
912.480	1063
912.580	1126
912.679	271
912.779	1382
912.879	869
912.979	1446
913.078	844
913.178	657
913.278	352
913.377	1069
913.477	1160
913.577	1656
913.676	804
913.776	1586
913.875	626
913.975	1609
914.074	566
914.174	472
914.273	-494
914.373	1357
914.472	1072
914.572	246
914.671	665
914.770	224
914.870	516
914.969	266
915.068	1187
915.167	956
915.267	-6
915.366	457
915.465	1292
915.564	1118
915.663	1255
915.763	1027
915.862	693
915.961	679
916.060	-168
916.159	1128
916.258	652
916.357	619
916.456	509
916.555	2120
916.654	690
916.752	951
916.851	998
916.950	413
917.049	748
917.148	1806
917.247	725
917.345	1431
917.444	522
917.543	1201
917.642	736
917.740	1637
917.839	1212
917.937	1164
918.036	1085
918.135	415
918.233	1005
918.332	1842
918.430	285
918.529	1296
918.627	465
918.726	1069
918.824	925
918.923	691
919.021	284
919.119	1320
919.218	617
919.316	979
919.414	874
919.512	1900
919.611	1218
919.709	485
919.807	-125
919.905	1684
920.003	639
920.102	991
920.200	1182
920.298	1034
920.396	375
920.494	926
920.592	800
920.690	1146
920.788	705
920.886	1319
920.984	723
921.082	1173
921.180	2075
921.277	1126
921.375	1242
921.473	1318
921.571	968
921.669	1768
921.766	433
921.864	1442
921.962	877
922.060	395
922.157	282
922.255	1389
922.352	1022
922.450	1858
922.548	980
922.645	1117
922.743	274
922.840	2400
922.938	1723
923.035	1668
923.133	491
923.230	1607
923.327	1358
923.425	1790
923.522	995
923.619	1630
923.717	758
923.814	1837
923.911	705
924.008	1549
924.106	399
924.203	1943
924.300	1472
924.397	1887
924.494	1221
924.591	1241
924.688	1719
924.786	1810
924.883	1442
924.979	1225
925.077	1004
925.173	1499
925.270	639
925.367	1047
925.464	1188
925.561	1742
925.658	1530
925.755	1775
925.852	1254
925.948	2317
926.045	2651
926.142	2960
926.239	3056
926.335	2943
926.432	2801
926.529	4137
926.625	3652
926.722	3416
926.818	1380
926.915	1808
927.011	871
927.108	597
927.204	608
927.301	1580
927.397	804
927.494	1798
927.590	1073
927.687	1160
927.783	1589
927.879	1182
927.976	680
928.072	1020
928.168	68
928.264	1989
928.361	1065
928.457	1543
928.553	795
928.649	1396
928.745	939
928.841	1074
928.937	851
929.033	2019
929.129	1005
929.225	1228
929.321	558
929.417	1386
929.513	603
929.609	1587
929.705	559
929.801	1981
929.897	957
929.993	704
930.089	1714
930.184	2320
930.280	1170
930.376	2050
930.471	1321
930.567	1100
930.663	2076
930.758	1402
930.854	726
930.950	1054
931.045	1021
931.141	1183
931.236	1267
931.332	1364
931.427	313
931.523	1286
931.618	1403
931.714	718
931.809	1617
931.905	1271
932.000	796
932.095	606
932.191	1209
932.286	1672
932.381	650
932.476	1129
932.572	597
932.667	1167
932.762	782
932.857	1572
932.952	1084
933.047	1369
933.142	1059
933.237	974
933.332	-179
933.427	1428
933.522	1188
933.617	1156
933.712	1777
933.807	962
933.902	319
933.997	1699
934.092	-10
934.187	1708
934.282	632
934.376	1397
934.471	1492
934.566	919
934.661	1383
934.755	2008
934.850	611
934.945	1966
935.039	1049
935.134	1628
935.228	637
935.323	2003
935.417	1428
935.512	1566
935.606	476
935.701	522
935.795	575
935.890	1773
935.984	1029
936.079	1691
936.173	696
936.267	872
936.362	763
936.456	1414
936.550	892
936.644	1064
936.738	874
936.833	917
936.927	1490
937.021	1574
937.115	921
937.209	684
937.303	1307
937.397	1211
937.491	258
937.585	1262
937.679	379
937.773	1263
937.867	1323
937.961	1014
938.055	681
938.149	1395
938.243	449
938.337	932
938.430	806
938.524	2281
938.618	4212
938.712	4008
938.805	2060
938.899	1976
938.993	1458
939.086	2337
939.180	4690
939.274	6347
939.367	2423
939.461	1661
939.554	1010
939.648	2306
939.741	590
939.835	1124
939.928	1171
940.022	1560
940.115	640
940.208	821
940.302	1181
940.395	1726
940.488	879
940.582	1557
940.675	1050
940.768	1781
940.861	517
940.954	2031
941.048	532
941.141	1306
941.234	744
941.327	1232
941.420	1968
941.513	2494
941.606	663
941.699	1530
941.792	399
941.885	1205
941.978	445
942.071	1021
942.164	386
942.257	1213
942.349	1603
942.442	1457
942.535	944
942.628	1607
942.721	1434
942.813	575
942.906	636
942.999	1460
943.091	181
943.184	584
943.277	409
943.369	1211
943.462	-18
943.554	1347
943.647	171
943.739	1739
943.832	543
943.924	1535
944.017	893
944.109	569
944.201	245
944.294	983
944.386	168
944.478	814
944.571	393
944.663	1257
944.755	1011
944.847	1472
944.940	443
945.032	1067
945.124	-8
945.216	1859
945.308	397
945.400	2087
945.492	1244
945.584	1267
945.676	900
945.768	1086
945.860	880
945.952	699
946.044	1350
946.136	801
946.228	546
946.320	1861
946.412	1133
946.503	952
946.595	942
946.687	1082
946.779	863
946.870	828
946.962	350
947.054	1051
947.145	1184
947.237	849
947.329	474
947.420	770
947.512	261
947.603	947
947.695	-65
947.786	603
947.878	575
947.969	1604
948.061	938
948.152	390
948.243	589
948.335	888
948.426	-92
948.517	489
948.609	1257
948.700	658
948.791	483
948.882	411
948.973	372
949.065	1805
949.156	590
949.247	714
949.338	-41
949.429	845
949.520	342
949.611	546
949.702	495
949.793	757
949.884	312
949.975	1036
950.066	669
950.157	904
950.247	-57
950.338	867
950.429	320
950.520	1065
950.611	387
950.701	1723
950.792	464
950.883	1591
950.973	860
951.064	1169
951.155	571
951.245	1441
951.336	538
951.427	290
951.517	1220
951.608	496
951.698	-106
951.788	1206
951.879	1102
951.969	824
952.060	646
952.150	809
952.240	285
952.331	69
952.421	1044
952.511	707
952.602	1028
952.692	1028
952.782	95
952.872	345
952.962	9
953.052	1370
953.143	292
953.233	1488
953.323	1453
953.413	118
953.503	209
953.593	943
953.683	606
953.773	-403
953.863	390
953.953	413
954.042	610
954.132	314
954.222	1173
954.312	596
954.402	751
954.492	1647
954.581	1607
954.671	1703
954.761	-488
954.850	618
954.940	69
955.030	602
955.119	-235
955.209	626
955.298	301
955.388	305
955.477	511
955.567	989
955.656	484
955.746	1245
955.835	-375
955.925	146
956.014	-81
956.103	533
956.193	-34
956.282	599
956.371	727
956.461	579
956.550	497
956.639	977
956.728	689
956.817	1048
956.906	-246
956.995	695
957.085	399
957.174	864
957.263	665
957.352	835
957.441	507
957.530	837
957.619	735
957.708	-137
957.796	574
957.885	565
957.974	-192
958.063	527
958.152	114
958.241	1149
958.329	522
958.418	206
958.507	578
958.596	1257
958.684	214
958.773	1380
958.861	1099
958.950	1227
959.039	405
959.127	1661
959.216	1532
959.304	1227
959.393	441
959.481	837
959.570	1282
959.658	1029
959.746	825
959.835	2461
959.923	3419
960.011	2242
960.100	951
960.188	1290
960.276	539
960.365	841
960.453	359
960.541	536
960.629	834
960.717	437
960.805	456
960.893	1426
960.981	355
961.069	1007
961.158	401
961.245	1551
961.333	654
961.421	-38
961.509	53
961.597	287
961.685	-398
961.773	-60
961.861	-32
961.949	848
962.036	-688
962.124	508
962.212	317
962.299	265
962.387	-83
962.475	1002
962.562	-115
962.650	801
962.738	716
962.825	853
962.913	-180
963.000	506
963.088	-301
963.175	459
963.263	115
963.350	948
963.438	112
963.525	1178
963.612	2758
963.700	5596
963.787	14789
963.874	9633
963.962	972
964.049	531
964.136	-1145
964.223	214
964.310	625
964.398	688
964.485	-114
964.572	1049
964.659	1420
964.746	3107
964.833	301
964.920	533
965.007	-584
965.094	-58
965.181	-257
965.268	182
965.355	321
965.441	512
965.528	-478
965.615	879
965.702	-13
965.789	-496
965.875	156
965.962	351
966.049	-1088
966.136	513
966.222	206
966.309	596
966.395	364
966.482	639
966.569	-594
966.655	148
966.742	-74
966.828	846
966.915	-467
967.001	602
967.087	-308
967.174	817
967.260	673
967.347	1832
967.433	3770
967.519	10161
967.605	4185
967.692	17
967.778	73
967.864	541
967.950	-818
968.036	162
968.123	-719
968.209	-479
968.295	-967
968.381	778
968.467	-150
968.553	-71
968.639	713
968.725	-181
968.811	-149
968.897	2573
968.983	48
969.069	309
969.154	325
969.240	581
969.326	-757
969.412	-51
969.497	-795
969.583	-424
969.669	26
969.755	-199
969.840	-519
969.926	504
970.012	-1082
970.097	184
970.183	-931
970.268	718
970.354	827
970.439	2069
970.525	6399
970.610	2902
970.696	1026
970.781	437
970.866	-691
970.952	743
971.037	-400
971.122	-458
971.208	-356
971.293	-293
971.378	-1902
971.463	-602
971.549	-969
971.634	663
971.719	57
971.804	-155
971.889	893
971.974	-222
972.059	-961
972.144	401
972.229	-265
972.314	-301
972.399	61
972.484	12
972.569	-387
972.654	369
972.739	2575
972.824	2742
972.908	1147
972.993	102
973.078	-17
973.163	-540
973.247	-148
973.332	-753
973.417	262
973.501	-1102
973.586	-79
973.671	-129
973.755	-710
973.840	540
973.924	-204
974.009	891
974.093	-335
974.178	819
974.262	1460
974.346	2366
974.431	888
974.515	-23
974.600	-425
974.684	614
974.768	-1404
974.852	1074
974.937	-1125
975.021	-12
975.105	170
975.189	935
975.273	-606
975.358	-55
975.442	-230
975.526	412
975.610	-1724
975.694	-862
975.778	-365
975.862	452
975.946	-1193
976.030	1464
976.114	-645
976.198	-432
976.281	-177
976.365	102
976.449	85
976.533	119
976.617	-615
976.700	976
976.784	-337
976.868	-59
976.951	52
977.035	597
977.119	-1138
977.202	-146
977.286	-401
977.369	93
977.453	-259
977.536	-811
977.620	-1097
977.703	-461
977.787	-941
977.870	1384
977.953	869
978.037	-330
978.120	167
978.203	1246
978.287	2587
978.370	2529
978.453	-591
978.536	-344
978.620	198
978.703	2269
978.786	700
978.869	-107
978.952	-881
979.035	-1
979.118	-242
979.201	-544
979.284	-307
979.367	-31
979.450	358
979.533	-797
979.616	-1168
979.699	-130
979.782	-504
979.865	184
979.948	-741
980.030	-414
980.113	-233
980.196	-1529
980.279	-1079
980.361	50
980.444	-877
980.526	-405
980.609	-802
980.692	482
980.774	20
980.857	-1446
980.939	5
981.022	-288
981.104	-522
981.187	-512
981.269	406
981.352	-539
981.434	-1511
981.516	-1061
981.599	-293
981.681	127
981.763	-199
981.846	227
981.928	-619
982.010	509
982.092	-1173
982.174	-490
982.256	-1130
982.339	-183
982.421	-1182
982.503	-32
982.585	-1383
982.667	55
982.749	-873
982.831	483
982.913	-1388
982.995	410
983.077	-1372
983.158	392
983.240	-905
983.322	-220
983.404	-850
983.486	-85
983.568	-2
983.649	-455
983.731	-684
983.813	-945
983.894	-1128
983.976	-562
984.058	-991
984.139	623
984.221	-1734
984.302	27
984.384	-376
984.465	-1060
984.547	-113
984.628	-383
984.710	-271
984.791	-602
984.872	-831
984.954	-5
985.035	-657
985.116	-821
985.198	-1156
985.279	423
985.360	-1282
985.441	-816
985.522	-379
985.604	6
985.685	-2007
985.766	419
985.847	524
985.928	-212
986.009	-256
986.090	-599
986.171	-81
986.252	-1011
986.333	-458
986.414	-948
986.495	-619
986.576	-360
986.656	-300
986.737	-743
986.818	-1419
986.899	-739
986.980	-779
987.060	267
987.141	-1793
987.222	7
987.302	-316
987.383	-1219
987.464	-1199
987.544	61
987.625	-1256
987.705	-26
987.786	-1021
987.866	-314
987.947	117
988.027	-660
988.108	-1159
988.188	184
988.268	-1022
988.349	-247
988.429	-1026
988.509	-537
988.589	-949
988.670	-1808
988.750	-28
988.830	-983
988.910	-832
988.990	-455
989.070	-1563
989.151	-197
989.231	-1362
989.311	-462
989.391	-923
989.471	-1062
989.551	-1410
989.631	-903
989.711	-1019
989.791	-1476
989.870	-2087
989.950	118
990.030	-1398
990.110	-659
990.190	-460
990.269	-864
990.349	-1468
990.429	-17
990.509	-571
990.588	-733
990.668	-276
990.747	-480
990.827	-958
990.907	68
990.986	-921
991.066	-340
991.145	-652
991.225	-391
991.304	-1134
991.383	579
991.463	-1181
991.542	-77
991.622	-788
991.701	-70
991.780	-496
991.859	-1013
991.939	-1218
992.018	-567
992.097	-563
992.176	332
992.256	-1479
992.335	-742
992.414	-403
992.493	106
992.572	-837
992.651	697
992.730	-843
992.809	-399
992.888	-922
992.967	-1179
993.046	-488
993.125	-1078
993.203	-598
993.282	-380
993.361	-1241
993.440	-702
993.519	-1065
993.597	-978
993.676	-1510
993.755	24
993.834	-1070
993.912	-1455
993.991	-348
994.069	-464
994.148	-797
994.226	-922
994.305	-1347
994.384	-893
994.462	-1009
994.540	-1113
994.619	-1661
994.697	-227
994.776	-1515
994.854	141
994.932	-887
995.011	31
995.089	-353
995.167	-541
995.245	-1413
995.324	-2018
995.402	86
995.480	-710
995.558	-1094
995.636	-1412
995.714	-1594
995.792	-213
995.870	-1716
995.948	-267
996.026	-441
996.104	-813
996.182	-513
996.260	-683
996.338	-1934
996.416	-1219
996.494	-1440
996.572	109
996.649	-1584
996.727	-1037
996.805	-1002
996.883	-251
996.960	-1102
997.038	-286
997.116	-307
997.193	-714
997.271	-158
997.348	-1069
997.426	-1454
997.504	-1170
997.581	-1252
997.658	-212
997.736	-1994
997.813	-974
997.891	-1036
997.968	-1517
998.046	-1363
998.123	-691
998.200	-689
998.277	-844
998.355	-869
998.432	-1234
998.509	-1551
998.586	-462
998.663	-847
998.741	-613
998.818	-1158
998.895	-865
998.972	-666
999.049	-1107
999.126	-1706
999.203	95
999.280	-1523
999.357	-1113
999.434	-1296
999.511	231
999.587	234
999.664	-652
999.741	-839
999.818	-246
999.895	-914
999.971	-462
1000.048	-1500
1000.125	26
1000.202	-1493
1000.278	-460
1000.355	-1003
1000.431	-663
1000.508	-1436
1000.584	-1199
1000.661	-1031
1000.738	-1178
1000.814	-1013
1000.890	100
1000.967	-2064
1001.043	-840
1001.120	-2063
1001.196	-699
1001.272	-1443
1001.349	-641
1001.425	-208
1001.501	-1559
1001.577	-2056
1001.654	-486
1001.730	-2172
1001.806	-783
1001.882	-1361
1001.958	-1005
1002.034	-231
1002.110	-1125
1002.186	-1494
1002.262	-1421
1002.338	-2126
1002.414	-489
1002.490	-1008
1002.566	-1334
1002.642	-1234
1002.718	-558
1002.794	-829
1002.870	-1266
1002.945	-1173
1003.021	-107
1003.097	-1943
1003.173	475
1003.248	-1515
1003.324	-1219
1003.400	-1285
1003.475	-1114
1003.551	-935
1003.626	-1140
1003.702	-1434
1003.777	-395
1003.853	-1109
1003.928	-1425
1004.004	-1019
1004.079	-1046
1004.155	-1617
1004.230	-1541
1004.305	-801
1004.381	-897
1004.456	-1193
1004.531	-447
1004.607	-1051
1004.682	-1613
1004.757	-1745
1004.832	-1189
1004.907	-1436
1004.982	-171
1005.057	-746
1005.133	-686
1005.208	-1710
1005.283	-1384
1005.358	-666
1005.433	-1011
1005.508	-833
1005.583	-1236
1005.657	-1612
1005.732	-22
1005.807	-1172
1005.882	-1743
1005.957	-1363
1006.032	-619
1006.106	-1574
1006.181	-845
1006.256	-1372
1006.331	-2029
1006.405	-2238
1006.480	-891
1006.554	-2059
1006.629	-477
1006.704	-1507
1006.778	-591
1006.853	-1217
1006.927	-527
1007.002	-2370
1007.076	-954
1007.150	-1565
1007.225	-1121
1007.299	-1787
1007.373	-1458
1007.448	-1322
1007.522	-242
1007.596	-1941
1007.671	-1436
1007.745	-1605
1007.819	-1421
1007.893	-1583
1007.967	-876
1008.041	-2351
1008.115	-384
1008.190	-2128
1008.264	-1012
1008.338	-2614
1008.412	-1017
1008.486	-1552
1008.560	-809
1008.633	-2225
1008.707	-628
1008.781	-1534
1008.855	-1150
1008.929	-1507
1009.003	-1358
1009.076	-1229
1009.150	-1308
1009.224	-1535
1009.298	-1357
1009.371	-2423
1009.445	-529
1009.519	-589
1009.592	-1392
1009.666	-1220
1009.739	-304
1009.813	-2004
1009.886	-654
1009.960	-2328
1010.033	-568
1010.107	-1640
1010.180	-1468
1010.253	-1808
1010.327	-1251
1010.400	-905
1010.473	-1064
1010.547	-359
1010.620	-1295
1010.693	-985
1010.766	-1202
1010.840	-1439
1010.913	-931
1010.986	-1897
1011.059	-871
1011.132	-1760
1011.205	-300
1011.278	-1691
1011.351	-956
1011.424	-1434
1011.497	-279
1011.570	-1468
1011.643	-1093
1011.716	-1852
1011.789	-847
1011.862	-1758
1011.934	-912
1012.007	-2277
1012.080	-829
1012.153	-1696
1012.225	-913
1012.298	-1721
1012.371	-1750
1012.443	-1416
1012.516	-1471
1012.588	-2147
1012.661	-695
1012.733	-1675
1012.806	130
1012.879	-2232
1012.951	-1311
1013.023	-2262
1013.096	-1181
1013.168	-2204
1013.241	-780
1013.313	-1533
1013.385	-1400
1013.458	-1115
1013.530	-671
1013.602	-2100
1013.674	-904
1013.746	-2072
1013.819	-1539
1013.891	-1436
1013.963	-1493
1014.035	-1539
1014.107	-813
1014.179	-1357
1014.251	-2204
1014.323	-1180
1014.395	-1332
1014.467	-1551
1014.539	-507
1014.611	-2276
1014.683	-1746
1014.754	-1307
1014.826	-1797
1014.898	-474
1014.970	-1593
1015.042	-779
1015.113	-739
1015.185	-2458
1015.257	-1540
1015.328	-1331
1015.400	-1460
1015.471	-2384
1015.543	-1900
1015.615	-1934
1015.686	-2138
1015.757	-1742
1015.829	-718
1015.901	-843
1015.972	-922
1016.043	-1835
1016.115	-1586
1016.186	-1580
1016.257	-2324
1016.328	-1962
1016.400	-1308
1016.471	-2222
1016.542	-1155
1016.613	-1574
1016.685	-1696
1016.756	-1189
1016.827	-2122
1016.898	-2246
1016.969	-1711
1017.040	-2160
1017.111	-1656
1017.182	-2102
1017.253	-2047
1017.324	-2408
1017.395	-1107
1017.466	-1715
1017.537	-1891
1017.608	-2333
1017.678	-2028
1017.749	-1642
1017.820	-1816
1017.891	-1584
1017.961	-1617
1018.032	-2386
1018.103	-1026
1018.173	-2170
1018.244	-1315
1018.315	-2314
1018.385	-1503
1018.456	-2578
1018.526	-1745
1018.597	-2252
1018.667	-1491
1018.738	-2161
1018.808	-1886
1018.878	-1726
1018.949	-1398
1019.019	-920
1019.089	-780
1019.160	-1640
1019.230	-1464
1019.300	-1725
1019.371	-1944
1019.441	-1536
1019.511	-1240
1019.581	-1998
1019.651	-1833
1019.721	-1699
1019.791	-2294
1019.861	-2216
1019.931	-1980
1020.001	-1965
1020.071	-1042
1020.141	-2279
1020.211	-1744
1020.281	-2338
1020.351	-1677
1020.421	-1703
1020.491	-1214
1020.560	-3004
1020.630	-1901
1020.700	-2050
1020.770	-1849
1020.839	-1857
1020.909	-2111
1020.979	-2594
1021.048	-2176
1021.118	-1836
1021.187	-940
1021.257	-1957
1021.326	-971
1021.396	-2581
1021.465	-1764
1021.535	-1905
1021.604	-2433
1021.674	-2017
1021.743	-1594
1021.812	-2400
1021.882	-1567
1021.951	-2093
1022.020	-2117
1022.089	-2091
1022.159	-1587
1022.228	-1436
1022.297	-2292
1022.366	-2016
1022.435	-1984
1022.504	-1793
1022.573	-2308
1022.642	-2221
1022.711	-2117
1022.781	-2021
1022.849	-1676
1022.918	-2177
1022.987	-1712
1023.056	-2096
1023.125	-1499
1023.194	-2057
1023.263	-1650
1023.331	-1319
1023.400	-2269
1023.469	-1825
1023.538	-1594
1023.606	-2514
1023.675	-1957
1023.744	-1907
1023.812	-2414
1023.881	-2017
1023.949	-1609
1024.018	-2309
1024.086	-2591
1024.155	-2133
1024.223	-1203
1024.292	-2323
1024.360	-1414
1024.429	-1736
1024.497	-1632
1024.565	-2886
1024.634	-1879
1024.702	-1741
1024.770	-1789
1024.838	-2548
1024.907	-1343
1024.975	-2585
1025.043	-1294
1025.111	-2661
1025.179	-2115
1025.247	-2803
1025.315	-2035
1025.383	-2274
1025.451	-1567
1025.519	-2449
1025.587	-919
1025.655	-2138
1025.723	-1777
1025.791	-2100
1025.859	-1326
1025.927	-1597
1025.995	-2860
1026.062	-2258
1026.130	-2234
1026.198	-2677
1026.266	-1980
1026.333	-1461
1026.401	-1049
1026.469	-2006
1026.536	-1909
1026.604	-2228
1026.671	-1511
1026.739	-2265
1026.806	-2219
1026.874	-2987
1026.941	-1091
1027.009	-2244
1027.076	-2326
1027.144	-2371
1027.211	-2337
1027.278	-2203
1027.345	-1811
1027.413	-2138
1027.480	-2299
1027.547	-1924
1027.614	-674
1027.682	-2271
1027.749	-1249
1027.816	-2075
1027.883	-1329
1027.950	-2210
1028.017	-1435
1028.084	-2839
1028.151	-2314
1028.218	-3044
1028.285	-1128
1028.352	-2478
1028.419	-1987
1028.486	-2173
1028.553	-1310
1028.619	-2472
1028.686	-2284
1028.753	-2895
1028.820	-2453
1028.886	-2651
1028.953	-2085
1029.020	-1813
1029.086	-1663
1029.153	-1950
1029.220	-2208
1029.286	-3053
1029.353	-1963
1029.419	-1839
1029.486	-1593
1029.552	-2636
1029.619	-2431
1029.685	-3051
1029.751	-2550
1029.818	-1612
1029.884	-2404
1029.951	-1523
1030.017	-1509
1030.083	-2599
1030.149	-2110
1030.216	-2787
1030.282	-1358
1030.348	-2179
1030.414	-1795
1030.480	-2622
1030.546	-3139
1030.612	-1613
1030.678	-1404
1030.744	-2524
1030.810	-2090
1030.876	-1879
1030.942	-3021
1031.008	-2049
1031.074	-1381
1031.140	-2430
1031.206	-2013
1031.272	-2247
1031.337	-1792
1031.403	-2511
1031.469	-2318
1031.534	-2293
1031.600	-1212
1031.666	-2696
1031.731	-1710
1031.797	-2539
1031.863	-1913
1031.928	-2250
1031.994	-2515
1032.059	-1752
1032.125	-1713
1032.190	-3281
1032.256	-2402
1032.321	-2127
1032.386	-1662
1032.452	-1915
1032.517	-2031
1032.582	-2167
1032.647	-2037
1032.713	-2244
1032.778	-1807
1032.843	-2298
1032.908	-1952
1032.974	-2393
1033.039	-1918
1033.104	-1944
1033.169	-2076
1033.234	-1599
1033.299	-1116
1033.364	-2142
1033.429	-2151
1033.494	-1639
1033.559	-2314
1033.624	-2224
1033.688	-1479
1033.753	-2390
1033.818	-966
1033.883	-2163
1033.948	-1543
1034.013	-2367
1034.077	-1563
1034.142	-2375
1034.207	-1155
1034.271	-1771
1034.336	-1739
1034.400	-1982
1034.465	-1441
1034.530	-2342
1034.594	-2280
1034.658	-1881
1034.723	-2951
1034.787	-2078
1034.852	-2169
1034.916	-2651
1034.981	-1867
1035.045	-2409
1035.109	-1495
1035.173	-1716
1035.238	-1991
1035.302	-1854
1035.366	-1890
1035.430	-2339
1035.495	-1715
1035.559	-1966
1035.623	-1855
1035.687	-3278
1035.751	-1921
1035.815	-1851
1035.879	-2451
1035.943	-2119
1036.007	-2403
1036.071	-2656
1036.135	-1960
1036.198	-2230
1036.262	-2425
1036.326	-2246
1036.390	-1490
1036.454	-1988
1036.517	-1699
1036.581	-2693
1036.645	-1797
1036.709	-3295
1036.772	-1897
1036.836	-2246
1036.900	-1452
1036.963	-2058
1037.026	-847
1037.090	-2667
1037.154	-1930
1037.217	-2120
1037.280	-1818
1037.344	-1868
1037.407	-2101
1037.471	-2655
1037.534	-1986
1037.597	-2379
1037.661	-1370
1037.724	-2034
1037.787	-1963
1037.850	-2065
1037.913	-2294
1037.977	-2685
1038.040	-1066
1038.103	-2580
1038.166	-1799
1038.229	-2393
1038.292	-964
1038.355	-1841
1038.418	-1874
1038.481	-2105
1038.544	-1513
1038.607	-1593
1038.670	-2280
1038.732	-3264
1038.795	-1632
1038.858	-1977
1038.921	-1397
1038.984	-1804
1039.046	-2264
1039.109	-2586
1039.172	-1683
1039.234	-1563
1039.297	-1515
1039.360	-2062
1039.422	-1206
1039.485	-2414
1039.547	-1981
1039.610	-2205
1039.672	-2347
1039.734	-2288
1039.797	-1060
1039.859	-2105
1039.922	-2173
1039.984	-2489
1040.046	-1590
1040.109	-1939
1040.171	-1834
1040.233	-2733
1040.295	-2322
1040.358	-2568
1040.420	-1396
1040.482	-2225
1040.544	-2456
1040.606	-2225
1040.668	-1594
1040.730	-2133
1040.792	-1856
1040.854	-2617
1040.916	-1944
1040.978	-1861
1041.040	-1192
1041.102	-1831
1041.164	-2270
1041.225	-2754
1041.287	-2356
1041.349	-2805
1041.411	-1256
1041.472	-1652
1041.534	-2262
1041.596	-2967
1041.657	-1146
1041.719	-2216
1041.781	-1690
1041.842	-2335
1041.904	-1805
1041.965	-2233
1042.027	-1108
1042.088	-2639
1042.150	-1672
1042.211	-2331
1042.272	-1864
1042.334	-3007
1042.395	-1768
1042.456	-1951
1042.518	-1938
1042.579	-1428
1042.640	-1628
1042.701	-1815
1042.763	-1461
1042.824	-2204
1042.885	-2340
1042.946	-2425
1043.007	-1911
1043.068	-1630
1043.129	-2256
1043.190	-2875
1043.251	-2012
1043.312	-2835
1043.373	-1940
1043.434	-1902
1043.495	-2406
1043.556	-2049
1043.616	-1462
1043.677	-2551
1043.738	-2382
1043.799	-2293
1043.859	-2602
1043.920	-2586
1043.981	-1186
1044.041	-2165
1044.102	-1944
1044.162	-2002
1044.223	-1594
1044.284	-2660
1044.344	-2138
1044.405	-2966
1044.465	-1168
1044.525	-2238
1044.586	-1283
1044.646	-2087
1044.707	-1668
1044.767	-1732
1044.827	-2558
1044.887	-1917
1044.948	-1245
1045.008	-1743
1045.068	-2230
1045.128	-2231
1045.188	-1768
1045.249	-2182
1045.309	-2454
1045.369	-2337
1045.429	-2301
1045.489	-2042
1045.549	-2328
1045.609	-2568
1045.669	-2141
1045.729	-2920
1045.789	-1407
1045.848	-1890
1045.908	-1266
1045.968	-2055
1046.028	-1453
1046.088	-1535
1046.147	-1828
1046.207	-1975
1046.267	-1490
1046.326	-1757
1046.386	-1016
1046.446	-686
1046.505	-1282
1046.565	-1170
1046.624	-1228
1046.684	-1479
1046.743	-614
1046.803	-1876
1046.862	188
1046.922	0
