'Start Wavelength	183.907
'End Wavelength	1046.922
'Gate Delay	5.000
'Gate Width (ms)	1.050
'Laser Output Level	0.000
'X Position	0.000
'Y Position	0.000
'Z Position	0.000
'Grid Point Number	1.000
'Shot Number	100.000
183.907	-236.000
183.977	-320.000
184.047	85
184.116	15
184.186	-463
184.256	-148
184.325	64
184.395	-1010
184.465	938
184.534	504
184.604	-102
184.674	-270
184.743	323
184.813	989
184.883	239
184.952	79
185.022	375
185.092	383
185.161	-9
185.231	259
185.301	18
185.370	-216
185.440	-357
185.509	-601
185.579	-45
185.649	41
185.718	666
185.788	411
185.857	-590
185.927	-477
185.996	251
186.066	206
186.136	-223
186.205	-380
186.275	-110
186.344	83
186.414	326
186.483	-1008
186.553	851
186.622	696
186.692	-255
186.761	-306
186.831	388
186.900	-587
186.970	-679
187.039	623
187.109	372
187.178	530
187.248	-92
187.317	-28
187.387	-252
187.456	601
187.526	141
187.595	128
187.664	-153
187.734	483
187.803	709
187.873	150
187.942	-325
188.012	558
188.081	609
188.150	-506
188.220	-486
188.289	933
188.358	181
188.428	610
188.497	-384
188.567	537
188.636	-616
188.705	457
188.775	-222
188.844	-42
188.913	647
188.983	767
189.052	454
189.121	192
189.191	-723
189.260	992
189.329	-64
189.399	-31
189.468	-457
189.537	-69
189.606	342
189.676	393
189.745	-255
189.814	498
189.883	-238
189.953	540
190.022	544
190.091	268
190.161	69
190.230	155
190.299	430
190.368	104
190.437	-1143
190.507	389
190.576	-525
190.645	943
190.714	397
190.783	-84
190.853	199
190.922	288
190.991	-134
191.060	115
191.129	-574
191.198	208
191.268	179
191.337	774
191.406	-354
191.475	57
191.544	-31
191.613	988
191.682	136
191.752	289
191.821	13
191.890	27
191.959	735
192.028	847
192.097	690
192.166	380
192.235	-529
192.304	1017
192.373	169
192.442	15
192.511	-35
192.580	540
192.650	475
192.719	202
192.788	151
192.857	340
192.926	-247
192.995	268
193.064	-294
193.133	98
193.202	-416
193.271	762
193.340	622
193.409	433
193.478	-97
193.547	700
193.615	238
193.684	803
193.753	-125
193.822	603
193.891	604
193.960	828
194.029	-679
194.098	93
194.167	-677
194.236	113
194.305	178
194.374	1051
194.443	-434
194.512	365
194.580	-105
194.649	-183
194.718	113
194.787	1008
194.856	-289
194.925	909
194.994	-188
195.062	506
195.131	308
195.200	800
195.269	-464
195.338	529
195.407	538
195.475	5
195.544	725
195.613	101
195.682	-332
195.751	-48
195.819	-322
195.888	94
195.957	588
196.026	115
196.094	103
196.163	863
196.232	629
196.301	-195
196.369	209
196.438	-232
196.507	391
196.576	-519
196.644	-126
196.713	280
196.782	145
196.850	623
196.919	77
196.988	393
197.056	-195
197.125	507
197.194	322
197.262	205
197.331	-236
197.400	604
197.468	691
197.537	-21
197.606	-218
197.674	805
197.743	155
197.812	544
197.880	-403
197.949	-49
198.017	221
198.086	136
198.155	-143
198.223	419
198.292	245
198.360	91
198.429	400
198.497	640
198.566	-53
198.635	398
198.703	928
198.772	1402
198.840	-590
198.909	-370
198.977	231
199.046	-535
199.114	455
199.183	652
199.251	217
199.320	782
199.388	243
199.457	80
199.525	514
199.594	531
199.662	215
199.731	-408
199.799	-78
199.867	290
199.936	296
200.004	579
200.073	539
200.141	214
200.210	-395
200.278	553
200.346	141
200.415	194
200.483	482
200.552	303
200.620	262
200.688	259
200.757	235
200.825	785
200.893	-130
200.962	811
201.030	53
201.098	548
201.167	548
201.235	374
201.303	394
201.372	1019
201.440	85
201.508	915
201.577	490
201.645	422
201.713	601
201.781	336
201.850	1416
201.918	545
201.986	-574
202.055	732
202.123	-247
202.191	-59
202.259	-277
202.327	217
202.396	536
202.464	846
202.532	159
202.600	1676
202.669	768
202.737	371
202.805	-461
202.873	235
202.941	896
203.009	649
203.078	-96
203.146	479
203.214	-409
203.282	-1216
203.350	645
203.418	22
203.487	161
203.555	120
203.623	9
203.691	909
203.759	-390
203.827	884
203.895	-276
203.963	195
204.031	145
204.099	-230
204.168	-209
204.236	360
204.304	-224
204.372	463
204.440	-428
204.508	-244
204.576	58
204.644	403
204.712	-211
204.780	374
204.848	65
204.916	-315
204.984	430
205.052	781
205.120	-32
205.188	530
205.256	-91
205.324	-65
205.392	-60
205.460	219
205.528	-206
205.596	46
205.664	-749
205.732	-51
205.799	-505
205.867	432
205.935	-995
206.003	1246
206.071	-1098
206.139	87
206.207	288
206.275	-662
206.343	569
206.411	718
206.478	89
206.546	264
206.614	372
206.682	-74
206.750	-471
206.818	491
206.885	419
206.953	12
207.021	338
207.089	734
207.157	-205
207.225	1301
207.292	104
207.360	-449
207.428	-861
207.496	187
207.563	-239
207.631	284
207.699	89
207.767	-538
207.834	-297
207.902	640
207.970	-1372
208.038	47
208.105	319
208.173	-317
208.241	-232
208.309	213
208.376	-164
208.444	855
208.512	-240
208.579	-819
208.647	-38
208.715	1147
208.782	-281
208.850	90
208.918	-889
208.985	-111
209.053	-155
209.120	547
209.188	-543
209.256	451
209.323	-840
209.391	317
209.459	1175
209.526	118
209.594	-192
209.661	-39
209.729	70
209.796	548
209.864	-854
209.932	-951
209.999	1358
210.067	335
210.134	-530
210.202	17
210.269	433
210.337	1532
210.404	-71
210.472	350
210.539	762
210.607	146
210.674	15
210.742	602
210.809	-224
210.877	460
210.944	33
211.012	-1168
211.079	1222
211.146	590
211.214	315
211.281	536
211.349	908
211.416	467
211.484	-5
211.551	-221
211.618	224
211.686	367
211.753	-365
211.821	850
211.888	-403
211.955	-1093
212.023	331
212.090	-59
212.157	302
212.225	-164
212.292	-193
212.359	629
212.427	640
212.494	692
212.561	-111
212.629	991
212.696	-332
212.763	736
212.831	-699
212.898	-288
212.965	-586
213.032	245
213.100	-512
213.167	-724
213.234	843
213.301	-36
213.369	-403
213.436	-298
213.503	-222
213.570	236
213.638	-286
213.705	-1035
213.772	-955
213.839	-673
213.906	-203
213.973	407
214.041	-751
214.108	27
214.175	-557
214.242	-749
214.309	177
214.376	-552
214.444	307
214.511	-80
214.578	-161
214.645	264
214.712	-147
214.779	-336
214.846	-176
214.913	523
214.980	139
215.048	861
215.115	563
215.182	23
215.249	652
215.316	-129
215.383	1267
215.450	108
215.517	-409
215.584	-424
215.651	-811
215.718	-90
215.785	-283
215.852	-977
215.919	429
215.986	-139
216.053	-946
216.120	-1315
216.187	282
216.254	-259
216.321	-697
216.388	-660
216.455	-894
216.522	169
216.589	9
216.656	300
216.722	-1090
216.789	96
216.856	-325
216.923	-668
216.990	-193
217.057	-363
217.124	-850
217.191	-833
217.258	12
217.324	-306
217.391	90
217.458	-140
217.525	-520
217.592	-398
217.659	-1330
217.725	981
217.792	-1241
217.859	256
217.926	-910
217.993	56
218.059	440
218.126	112
218.193	-842
218.260	-231
218.327	-310
218.393	-140
218.460	-638
218.527	42
218.594	-139
218.660	-578
218.727	344
218.794	-1738
218.860	360
218.927	-424
218.994	-373
219.061	366
219.127	-817
219.194	-187
219.261	-910
219.327	-290
219.394	270
219.461	-543
219.527	-347
219.594	-416
219.661	-937
219.727	-867
219.794	281
219.860	-864
219.927	-54
219.994	686
220.060	1024
220.127	1546
220.193	201
220.260	-921
220.326	41
220.393	-136
220.460	-1274
220.526	-40
220.593	-820
220.659	562
220.726	-591
220.792	303
220.859	-730
220.925	-485
220.992	-260
221.058	192
221.125	395
221.191	-760
221.258	-900
221.324	-325
221.391	-808
221.457	-415
221.524	-517
221.590	-176
221.657	-772
221.723	-507
221.789	-720
221.856	495
221.922	-968
221.989	-5
222.055	-649
222.121	-1530
222.188	1214
222.254	-45
222.321	-1229
222.387	-708
222.453	-1044
222.520	-270
222.586	-1303
222.652	412
222.719	-581
222.785	-78
222.851	-913
222.918	-329
222.984	-937
223.050	-684
223.116	-2238
223.183	356
223.249	-1287
223.315	-877
223.382	-506
223.448	-651
223.514	-457
223.580	-472
223.647	-574
223.713	-1100
223.779	-1346
223.845	-1070
223.911	-678
223.978	-891
224.044	-496
224.110	-1326
224.176	-968
224.242	-641
224.309	-1604
224.375	-74
224.441	-1008
224.507	-559
224.573	-1136
224.639	267
224.705	-882
224.772	-365
224.838	-527
224.904	-218
224.970	-1233
225.036	-574
225.102	-1246
225.168	-535
225.234	11
225.300	-1602
225.366	-749
225.432	331
225.499	-1353
225.565	-512
225.631	-568
225.697	-329
225.763	-467
225.829	-630
225.895	-328
225.961	-419
226.027	-1293
226.093	-1281
226.159	-282
226.225	-153
226.291	-367
226.357	-690
226.423	-989
226.489	-35
226.554	-549
226.620	-554
226.686	-954
226.752	-882
226.818	-745
226.884	66
226.950	234
227.016	-573
227.082	-162
227.148	-670
227.214	-256
227.279	-824
227.345	-1014
227.411	836
227.477	406
227.543	2727
227.609	4094
227.674	1540
227.740	-529
227.806	-110
227.872	-103
227.938	-128
228.003	-602
228.069	-671
228.135	-1632
228.201	85
228.267	-1076
228.332	-748
228.398	-2527
228.464	570
228.530	-803
228.595	-454
228.661	-1850
228.727	-1492
228.792	395
228.858	-610
228.924	-2095
228.990	1151
229.055	-2319
229.121	-108
229.187	-1123
229.252	-1916
229.318	-1320
229.384	-1191
229.449	-1257
229.515	-2230
229.581	-1761
229.646	869
229.712	-1000
229.777	-1074
229.843	-1335
229.909	-856
229.974	-786
230.040	-175
230.105	-1765
230.171	-1435
230.236	-758
230.302	-936
230.368	-1426
230.433	-1338
230.499	-1082
230.564	-161
230.630	-1903
230.695	-1027
230.761	-735
230.826	-2934
230.892	20
230.957	-1358
231.023	-1817
231.088	-1354
231.154	-1359
231.219	-147
231.284	-1559
231.350	104
231.415	-2743
231.481	-776
231.546	-1178
231.612	-665
231.677	-1048
231.742	-2455
231.808	764
231.873	-1492
231.939	-3029
232.004	25
232.069	-950
232.135	-1385
232.200	-1535
232.265	-441
232.331	-1584
232.396	-1231
232.461	-1744
232.527	-1046
232.592	-2632
232.657	-794
232.723	-1450
232.788	-829
232.853	-349
232.918	-465
232.984	-1607
233.049	-1474
233.114	-1385
233.179	579
233.245	-644
233.310	-1064
233.375	-2261
233.440	-897
233.506	-1615
233.571	-500
233.636	-735
233.701	-905
233.766	-1288
233.832	-1548
233.897	-2040
233.962	-2720
234.027	-828
234.092	-890
234.157	-573
234.222	-681
234.288	-1104
234.353	-1565
234.418	-935
234.483	-899
234.548	-1347
234.613	-1750
234.678	-1491
234.743	-2109
234.808	-1417
234.873	-2401
234.938	-186
235.004	-1501
235.069	-1057
235.134	-1912
235.199	-1505
235.264	-1101
235.329	-2262
235.394	-760
235.459	-1167
235.524	-1690
235.589	-966
235.654	-1067
235.719	-2811
235.784	-614
235.849	-1705
235.913	-1519
235.978	-1157
236.043	-885
236.108	-1479
236.173	-2474
236.238	22
236.303	-1438
236.368	-1842
236.433	-702
236.498	-1973
236.563	-720
236.627	-1929
236.692	98
236.757	-437
236.822	-985
236.887	-2549
236.952	-648
237.017	-3157
237.081	-702
237.146	-2056
237.211	-1242
237.276	-403
237.341	1696
237.405	-1184
237.470	-1548
237.535	-1399
237.600	-1139
237.664	-816
237.729	-2121
237.794	-3077
237.859	-848
237.923	-1348
237.988	-1572
238.053	-1172
238.118	-1701
238.182	-1504
238.247	298
238.312	-2784
238.376	-1289
238.441	-2957
238.506	-923
238.570	-2365
238.635	-145
238.700	-262
238.764	-1974
238.829	-1041
238.893	-1543
238.958	-1450
239.023	-1993
239.087	-1987
239.152	-1326
239.216	-1535
239.281	-546
239.346	-808
239.410	-1335
239.475	-1353
239.539	-345
239.604	-2143
239.668	-752
239.733	-500
239.797	1735
239.862	6124
239.926	2915
239.991	389
240.055	-40
240.120	-1298
240.184	-871
240.249	-1551
240.313	-1089
240.378	-817
240.442	-748
240.507	-2093
240.571	-1270
240.635	-2125
240.700	-1471
240.764	-1443
240.829	-1076
240.893	-2034
240.957	-793
241.022	-981
241.086	-343
241.151	-2570
241.215	-1544
241.279	-699
241.344	-2105
241.408	-1507
241.472	-1562
241.537	-1104
241.601	-1928
241.665	-3068
241.730	-1485
241.794	163
241.858	-2877
241.922	-2239
241.987	-1649
242.051	-1664
242.115	-2410
242.179	-594
242.244	-2457
242.308	-466
242.372	-1078
242.436	-2148
242.501	-1591
242.565	-2502
242.629	-2259
242.693	-1477
242.757	-2591
242.822	-1930
242.886	-387
242.950	-1846
243.014	-2137
243.078	-913
243.142	-1283
243.206	-2116
243.271	-1329
243.335	-2581
243.399	-306
243.463	-1548
243.527	921
243.591	-1892
243.655	-639
243.719	-1985
243.783	-782
243.847	-1266
243.911	-1007
243.975	-2235
244.040	-2481
244.104	-579
244.168	-1837
244.232	-1542
244.296	-1966
244.360	-984
244.424	-2589
244.488	-1141
244.552	-911
244.615	-3066
244.679	-666
244.743	-2759
244.807	-2216
244.871	-730
244.935	-1444
244.999	-1837
245.063	-1633
245.127	-1259
245.191	-1474
245.255	-2706
245.319	-1808
245.383	-3070
245.446	-1169
245.510	-2559
245.574	-1166
245.638	-1104
245.702	-2767
245.766	-592
245.829	505
245.893	-2648
245.957	-1717
246.021	-1028
246.085	-1425
246.149	-1401
246.212	32
246.276	-1493
246.340	-1187
246.404	-1836
246.467	-35
246.531	-3020
246.595	-467
246.659	-342
246.722	-1691
246.786	-1149
246.850	-1469
246.913	-2092
246.977	-2484
247.041	-1696
247.104	-1170
247.168	-1331
247.232	-707
247.295	-348
247.359	-1043
247.423	-1728
247.486	-1129
247.550	-1173
247.614	-1906
247.677	-1669
247.741	-1406
247.804	-1893
247.868	-1362
247.932	-1796
247.995	333
248.059	-1654
248.122	-2623
248.186	-935
248.249	-1349
248.313	192
248.376	827
248.440	-202
248.503	-2566
248.567	482
248.630	-2459
248.694	-1189
248.757	-178
248.821	936
248.884	421
248.948	-1125
249.011	914
249.075	-133
249.138	1909
249.202	-1540
249.265	-2479
249.328	-623
249.392	-2010
249.455	-1133
249.519	-935
249.582	-1961
249.645	-1729
249.709	-2272
249.772	-1660
249.835	-1812
249.899	-1354
249.962	-904
250.025	-1295
250.089	-1100
250.152	200
250.215	-1880
250.279	-2654
250.342	-880
250.405	-888
250.468	-2435
250.532	-1356
250.595	-947
250.658	234
250.721	4923
250.785	-856
250.848	-511
250.911	-1258
250.974	-824
251.038	-1490
251.101	254
251.164	-821
251.227	-1012
251.290	-1246
251.354	-537
251.417	3277
251.480	2517
251.543	556
251.606	6674
251.669	5242
251.732	309
251.795	520
251.859	774
251.922	3456
251.985	1904
252.048	-241
252.111	-678
252.174	-1751
252.237	-526
252.300	2387
252.363	583
252.426	6655
252.489	-647
252.552	-583
252.615	-1755
252.678	-506
252.741	817
252.804	467
252.867	6576
252.930	2457
252.993	-470
253.056	-787
253.119	-1406
253.182	-1172
253.245	-1267
253.308	-883
253.371	-1759
253.434	-815
253.497	-185
253.559	-235
253.622	-1532
253.685	-1493
253.748	-939
253.811	-1579
253.874	-1017
253.937	-1520
254.000	-1523
254.062	-783
254.125	-567
254.188	60
254.251	-883
254.314	-1640
254.376	-1760
254.439	-493
254.502	-1038
254.565	-598
254.628	1191
254.690	-1607
254.753	-1630
254.816	-1488
254.878	-1399
254.941	-984
255.004	-954
255.067	-648
255.129	-1971
255.192	-1117
255.255	-1893
255.317	-1071
255.380	-559
255.443	-1188
255.505	-2296
255.568	-1613
255.631	-1449
255.693	-781
255.756	-1531
255.819	116
255.881	-1293
255.944	-920
256.006	-1617
256.069	-1439
256.132	-2091
256.194	-1291
256.257	-1027
256.319	-1314
256.382	-1337
256.444	49
256.507	-840
256.569	-1301
256.632	-1334
256.694	-832
256.757	-689
256.819	1029
256.882	-1536
256.944	-1546
257.007	-134
257.069	-1585
257.132	-2195
257.194	-649
257.257	-1029
257.319	-2145
257.381	-2496
257.444	-342
257.506	906
257.569	2372
257.631	-583
257.693	-547
257.756	-757
257.818	-1566
257.880	-1711
257.943	-768
258.005	-2242
258.067	-1396
258.130	-767
258.192	-2113
258.254	-663
258.317	-1373
258.379	-1182
258.441	-677
258.503	-886
258.566	-1463
258.628	-1055
258.690	-1286
258.753	-988
258.815	-1283
258.877	-1996
258.939	-1612
259.001	-1262
259.064	-895
259.126	-1288
259.188	-1063
259.250	61
259.312	-845
259.375	-1769
259.437	-631
259.499	-858
259.561	-1615
259.623	-1388
259.685	-1690
259.747	-1480
259.809	-864
259.872	-484
259.934	-167
259.996	-167
260.058	-1016
260.120	-1860
260.182	-1070
260.244	-1175
260.306	-1384
260.368	-974
260.430	-1917
260.492	-913
260.554	-95
260.616	-945
260.678	-535
260.740	-261
260.802	-1058
260.864	-1128
260.926	-2110
260.988	-740
261.050	-1910
261.112	-1754
261.174	-312
261.236	-355
261.298	-1065
261.359	-260
261.421	524
261.483	-1852
261.545	49
261.607	-1874
261.669	-422
261.731	-1213
261.793	-958
261.854	-2760
261.916	-737
261.978	-1635
262.040	-732
262.102	-739
262.164	-1561
262.225	-862
262.287	-43
262.349	-1377
262.411	-788
262.472	-997
262.534	-832
262.596	-1350
262.658	-49
262.719	-1353
262.781	183
262.843	-1558
262.904	-837
262.966	-461
263.028	-234
263.090	-119
263.151	36
263.213	-243
263.275	-1104
263.336	-912
263.398	-86
263.459	-1925
263.521	-1256
263.583	-661
263.644	-1496
263.706	-905
263.767	-1446
263.829	-87
263.891	-1077
263.952	-1441
264.014	-756
264.075	-1698
264.137	-701
264.198	-686
264.260	-1242
264.321	-1723
264.383	-1230
264.444	-51
264.506	-985
264.567	-790
264.629	-541
264.690	-2237
264.752	-455
264.813	-830
264.875	-1656
264.936	-650
264.998	-1445
265.059	-682
265.120	-419
265.182	-1388
265.243	-162
265.305	92
265.366	-875
265.427	-1058
265.489	684
265.550	-2617
265.611	-940
265.673	-943
265.734	-634
265.795	-886
265.857	-1034
265.918	-1967
265.979	-762
266.040	-349
266.102	507
266.163	-816
266.224	-929
266.286	-1274
266.347	-1619
266.408	-1545
266.469	-687
266.530	-284
266.592	-988
266.653	-740
266.714	-395
266.775	-519
266.836	-562
266.898	-1081
266.959	-254
267.020	-838
267.081	1211
267.142	-225
267.203	303
267.264	-746
267.326	348
267.387	-152
267.448	-1244
267.509	-217
267.570	-250
267.631	-690
267.692	-1335
267.753	-927
267.814	-1557
267.875	-216
267.936	-93
267.997	-1536
268.058	-1135
268.119	-1206
268.180	-728
268.241	-1213
268.302	-383
268.363	-1057
268.424	-1152
268.485	-788
268.546	-1963
268.607	-1190
268.668	-1519
268.729	-1040
268.790	-1116
268.851	-980
268.912	-1058
268.972	-1415
269.033	-266
269.094	-868
269.155	-845
269.216	-1454
269.277	-666
269.338	-926
269.398	-231
269.459	-736
269.520	-612
269.581	-1131
269.642	-563
269.702	-1602
269.763	-361
269.824	-614
269.885	-870
269.945	-671
270.006	-709
270.067	-1494
270.128	-976
270.188	-282
270.249	-954
270.310	-1674
270.370	-900
270.431	-525
270.492	-2020
270.553	-881
270.613	-802
270.674	-724
270.734	-1433
270.795	-881
270.856	-350
270.916	-1127
270.977	-305
271.038	-779
271.098	-918
271.159	-1314
271.219	-750
271.280	-509
271.340	-105
271.401	-1081
271.462	-181
271.522	-916
271.583	-604
271.643	-739
271.704	48
271.764	-864
271.825	-686
271.885	1026
271.946	3345
272.006	135
272.066	950
272.127	3298
272.187	3110
272.248	919
272.308	-598
272.369	1540
272.429	937
272.489	-188
272.550	-273
272.610	536
272.671	127
272.731	-204
272.791	-328
272.852	-750
272.912	-3
272.972	675
273.033	98
273.093	-923
273.153	681
273.214	-445
273.274	827
273.334	1044
273.394	3056
273.455	1750
273.515	2197
273.575	1802
273.635	2344
273.696	3035
273.756	4160
273.816	2615
273.876	2675
273.936	1406
273.997	1485
274.057	-526
274.117	-54
274.177	166
274.237	2203
274.297	2062
274.358	1090
274.418	721
274.478	1076
274.538	-664
274.598	-80
274.658	-254
274.718	273
274.778	-624
274.838	-301
274.898	-325
274.958	408
275.018	1511
275.078	1906
275.138	-670
275.198	-28
275.258	107
275.318	-470
275.378	-802
275.438	-362
275.498	-478
275.558	-97
275.618	825
275.678	168
275.738	221
275.798	432
275.858	-119
275.918	97
275.978	-537
276.038	109
276.098	-127
276.157	-669
276.217	115
276.277	174
276.337	183
276.397	-475
276.457	-305
276.517	189
276.576	-182
276.636	-1050
276.696	-221
276.756	289
276.815	367
276.875	1205
276.935	-156
276.995	-106
277.055	603
277.114	-545
277.174	390
277.234	134
277.293	598
277.353	456
277.413	151
277.472	870
277.532	419
277.592	2375
277.651	7793
277.711	20520
277.771	7044
277.830	16590
277.890	17836
277.950	11345
278.009	33823
278.069	16779
278.128	12950
278.188	22846
278.248	9406
278.307	22199
278.367	15753
278.426	4119
278.486	2491
278.545	1167
278.605	1592
278.664	1492
278.724	790
278.783	2536
278.843	3792
278.902	1578
278.962	1324
279.021	2307
279.081	4660
279.140	5267
279.199	2531
279.259	4195
279.318	5278
279.378	7395
279.437	10838
279.496	26739
279.556	81718
279.615	81027
279.675	28480
279.734	15785
279.793	13749
279.853	15708
279.912	7626
279.971	5539
280.031	5446
280.090	6476
280.149	10587
280.208	15320
280.268	55861
280.327	70995
280.386	21497
280.445	10337
280.505	7043
280.564	4961
280.623	3544
280.682	3322
280.742	3414
280.801	2157
280.860	998
280.919	1707
280.978	2336
281.037	1435
281.097	1051
281.156	2472
281.215	1376
281.274	1482
281.333	2591
281.392	1928
281.451	1631
281.510	1254
281.569	710
281.628	860
281.688	1336
281.747	1106
281.806	859
281.865	1052
281.924	448
281.983	313
282.042	644
282.101	-11
282.160	1005
282.219	1237
282.278	430
282.337	1317
282.396	733
282.454	1468
282.513	916
282.572	1889
282.631	788
282.690	972
282.749	360
282.808	577
282.867	631
282.926	1913
282.985	683
283.043	962
283.102	1114
283.161	936
283.220	1681
283.279	2670
283.338	1459
283.396	1517
283.455	1475
283.514	2609
283.573	2240
283.631	2936
283.690	2241
283.749	1732
283.808	2266
283.866	2352
283.925	2151
283.984	3752
284.043	2948
284.101	3179
284.160	3354
284.219	5227
284.277	4193
284.336	5105
284.395	7006
284.453	7483
284.512	7144
284.570	9070
284.629	8946
284.688	12666
284.746	15722
284.805	18862
284.863	23220
284.922	29255
284.981	36035
285.039	46026
285.098	61893
285.156	70537
285.215	49596
285.273	44010
285.332	69315
285.390	67724
285.449	53503
285.507	41193
285.566	31803
285.624	25033
285.683	20282
285.741	16598
285.799	13524
285.858	12476
285.916	9916
285.975	9040
286.033	7279
286.091	6670
286.150	6345
286.208	5385
286.267	5048
286.325	5090
286.383	4211
286.442	3918
286.500	2911
286.558	3635
286.616	3449
286.675	3458
286.733	2638
286.791	2502
286.850	2268
286.908	2198
286.966	2262
287.024	2699
287.083	1382
287.141	2246
287.199	1929
287.257	3080
287.315	2240
287.374	1094
287.432	614
287.490	1732
287.548	531
287.606	1743
287.664	1363
287.723	1274
287.781	910
287.839	1394
287.897	616
287.955	831
288.013	698
288.071	2831
288.129	5661
288.187	23206
288.245	10985
288.303	3343
288.361	1979
288.419	1710
288.477	1137
288.535	1150
288.593	1041
288.651	909
288.709	85
288.767	1034
288.825	210
288.883	701
288.941	346
288.999	1001
289.057	180
289.115	213
289.173	987
289.231	1335
289.289	385
289.346	811
289.404	1611
289.462	914
289.520	761
289.578	404
289.636	-158
289.694	499
289.751	-7
289.809	359
289.867	372
289.925	1140
289.983	400
290.040	345
290.098	24
290.156	282
290.214	221
290.271	37
290.329	1350
290.387	857
290.444	277
290.502	233
290.560	459
290.617	138
290.675	103
290.733	47
290.790	205
290.848	671
290.906	-315
290.963	800
291.021	42
291.078	183
291.136	-262
291.194	673
291.251	560
291.309	-259
291.366	163
291.424	850
291.481	741
291.539	1711
291.596	2065
291.654	728
291.711	-95
291.769	-23
291.826	767
291.884	1725
291.941	-95
291.999	292
292.056	834
292.114	434
292.171	41
292.228	761
292.286	400
292.343	884
292.401	773
292.458	429
292.515	232
292.573	799
292.630	895
292.687	1124
292.745	157
292.802	106
292.859	1746
292.917	3077
292.974	1487
293.031	872
293.089	678
293.146	648
293.203	401
293.260	537
293.318	42
293.375	233
293.432	640
293.489	1195
293.546	27
293.604	1267
293.661	2029
293.718	5955
293.775	3245
293.832	2988
293.889	4459
293.947	3694
294.004	527
294.061	1197
294.118	1699
294.175	2886
294.232	4934
294.289	3934
294.346	1514
294.403	937
294.460	820
294.517	895
294.574	801
294.631	926
294.688	122
294.745	1617
294.802	3947
294.859	3427
294.916	961
294.973	612
295.030	701
295.087	63
295.144	-55
295.201	269
295.258	100
295.315	386
295.372	822
295.429	2255
295.486	1816
295.542	327
295.599	1077
295.656	1545
295.713	297
295.770	2009
295.827	-389
295.883	-180
295.940	-46
295.997	34
296.054	368
296.111	653
296.167	53
296.224	281
296.281	-91
296.338	478
296.394	202
296.451	500
296.508	-30
296.564	1365
296.621	1098
296.678	2789
296.734	5567
296.791	2143
296.848	781
296.904	1455
296.961	793
297.018	2696
297.074	1735
297.131	367
297.187	330
297.244	1463
297.301	1783
297.357	6855
297.414	2666
297.470	1029
297.527	1153
297.583	687
297.640	-16
297.696	155
297.753	319
297.809	539
297.866	83
297.922	1141
297.979	471
298.035	673
298.092	247
298.148	986
298.204	1035
298.261	777
298.317	1569
298.374	4626
298.430	2681
298.486	1364
298.543	221
298.599	91
298.656	80
298.712	766
298.768	1309
298.824	1551
298.881	630
298.937	202
298.993	497
299.050	1065
299.106	359
299.162	582
299.218	873
299.275	654
299.331	829
299.387	2359
299.443	5837
299.500	14168
299.556	13088
299.612	5271
299.668	4411
299.724	10531
299.780	15846
299.837	6826
299.893	3507
299.949	9157
300.005	15629
300.061	11043
300.117	18145
300.173	10503
300.229	4095
300.285	2329
300.341	2224
300.397	2377
300.453	1291
300.510	2131
300.566	2634
300.622	5574
300.678	16228
300.734	26243
300.790	12844
300.845	9480
300.901	9906
300.957	16787
301.013	9006
301.069	4285
301.125	2689
301.181	2377
301.237	2136
301.293	1038
301.349	795
301.405	368
301.461	563
301.516	910
301.572	652
301.628	1288
301.684	1083
301.740	1009
301.796	1452
301.851	1719
301.907	1362
301.963	2469
302.019	3871
302.074	11436
302.130	14016
302.186	6339
302.242	2619
302.297	1547
302.353	937
302.409	1753
302.464	1654
302.520	1597
302.576	3121
302.631	4868
302.687	1890
302.743	937
302.798	1269
302.854	803
302.910	1474
302.965	909
303.021	1133
303.076	274
303.132	754
303.187	1497
303.243	835
303.299	512
303.354	828
303.410	766
303.465	-282
303.521	433
303.576	477
303.632	508
303.687	1338
303.743	3738
303.798	3699
303.853	1888
303.909	732
303.964	870
304.020	-218
304.075	679
304.130	790
304.186	818
304.241	1755
304.297	1920
304.352	-212
304.358	-81
304.407	978
304.449	1234
304.463	1324
304.518	801
304.539	916
304.573	1069
304.629	874
304.630	877
304.684	1092
304.720	1858
304.739	2243
304.794	5325
304.811	4699
304.850	3220
304.902	1920
304.905	1832
304.960	692
304.992	812
305.015	936
305.071	1726
305.083	1523
305.126	811
305.173	761
305.181	745
305.236	376
305.264	586
305.292	769
305.347	603
305.354	626
305.402	853
305.445	494
305.457	384
305.512	870
305.535	867
305.567	874
305.622	526
305.626	532
305.678	596
305.716	1643
305.733	2108
305.788	2548
305.807	2488
305.843	2346
305.897	2981
305.898	2991
305.953	4334
305.988	3112
306.008	2348
306.063	1067
306.078	1002
306.118	912
306.168	50
306.173	-35
306.228	698
306.259	518
306.283	384
306.338	59
306.349	203
306.393	893
306.440	1194
306.448	1211
306.503	1140
306.530	877
306.558	681
306.613	911
306.620	856
306.668	585
306.711	1598
306.723	1813
306.778	1424
306.801	1359
306.833	1458
306.888	380
306.892	424
306.943	786
306.982	629
306.997	602
307.052	572
307.072	615
307.107	710
307.162	1057
307.163	1059
307.217	1180
307.253	942
307.272	788
307.327	518
307.343	570
307.381	999
307.434	1230
307.436	1229
307.491	1124
307.524	1381
307.546	1457
307.600	1330
307.614	1191
307.655	890
307.704	900
307.710	940
307.765	1006
307.795	1359
307.819	1326
307.874	1224
307.885	1074
307.929	983
307.975	1992
307.984	2158
308.038	2565
308.065	2748
308.093	3599
308.148	6823
308.156	7700
308.202	11411
308.246	14666
308.257	15059
308.312	8539
308.336	6382
308.366	4587
308.421	2925
308.426	2877
308.475	2877
308.517	3142
308.530	3103
308.585	2733
308.607	2624
308.639	2675
308.694	3205
308.697	3247
308.748	3562
308.787	3440
308.803	3336
308.857	3176
308.877	3254
308.912	3800
308.967	4772
308.967	4827
309.021	8972
309.058	12072
309.076	13351
309.130	19560
309.148	21196
309.185	27786
309.238	37831
309.239	37838
309.293	48128
309.328	49197
309.348	47048
309.402	31967
309.418	27892
309.457	22142
309.508	17199
309.511	17032
309.566	19628
309.598	22661
309.620	26577
309.674	41942
309.688	46362
309.729	47390
309.778	39137
309.783	38278
309.837	25769
309.868	19556
309.892	16262
309.946	11301
309.959	10664
310.001	8356
310.049	6467
310.055	6256
310.109	5280
310.139	4772
310.163	4000
310.218	2864
310.229	2653
310.272	2720
310.319	3043
310.326	2900
310.381	1862
310.409	1564
310.435	1615
310.489	1604
310.499	1596
310.543	1313
310.589	1219
310.598	1203
310.652	1073
310.679	945
310.706	962
310.760	1453
310.769	1508
310.814	1557
310.859	1524
310.868	1407
310.923	728
310.948	506
310.977	776
311.031	1379
311.038	1452
311.085	1137
311.128	731
311.139	733
311.193	1034
311.218	1110
311.247	951
311.301	753
311.308	722
311.356	948
311.398	1249
311.410	1147
311.464	594
311.488	378
311.518	477
311.572	675
311.578	701
311.626	536
311.668	426
311.680	541
311.734	1094
311.758	1323
311.788	981
311.842	385
311.847	330
311.896	944
311.937	1518
311.950	1315
312.004	408
312.027	35
312.058	363
312.112	967
312.117	1033
312.165	725
312.207	476
312.297	1049
312.386	557
312.476	1461
312.566	889
312.656	1418
312.745	985
312.835	1385
312.925	652
313.015	1375
313.104	829
313.194	1439
313.284	983
313.374	769
313.463	1412
313.553	1109
313.643	1006
313.732	1599
313.822	489
313.912	1511
314.001	1723
314.091	1812
314.180	860
314.270	2151
314.360	1438
314.449	1127
314.539	289
314.628	1305
314.718	689
314.808	1730
314.897	1619
314.987	2712
315.076	1547
315.166	1993
315.255	1631
315.345	1864
315.434	774
315.524	2306
315.613	1308
315.703	3237
315.792	9239
315.881	23381
315.971	5481
316.060	2935
316.150	1930
316.239	1452
316.328	1641
316.418	2353
316.507	1669
316.597	2299
316.686	2401
316.775	2149
316.865	1321
316.954	1845
317.043	1450
317.133	1546
317.222	892
317.311	1497
317.400	444
317.490	2849
317.579	1831
317.668	3223
317.757	3922
317.847	16293
317.936	34859
318.025	10900
318.114	8826
318.203	3083
318.293	1847
318.382	2091
318.471	2290
318.560	2656
318.649	1951
318.738	924
318.828	1129
318.917	486
319.006	638
319.095	1319
319.184	1748
319.273	1477
319.362	321
319.451	391
319.540	1247
319.629	821
319.718	1774
319.807	1246
319.896	1309
319.985	2552
320.074	1588
320.163	1882
320.252	626
320.341	1171
320.430	1088
320.519	1547
320.608	1261
320.697	2018
320.786	1314
320.875	2389
320.964	2285
321.053	1964
321.142	2613
321.230	3577
321.319	3075
321.408	4463
321.497	4697
321.586	3872
321.675	2286
321.764	2785
321.852	2245
321.941	2800
322.030	2019
322.119	2797
322.207	3089
322.296	4337
322.385	4363
322.474	5979
322.562	6257
322.651	4844
322.740	2384
322.829	2770
322.917	1098
323.006	2342
323.095	2533
323.183	2134
323.272	1532
323.361	1384
323.449	1939
323.538	1695
323.626	1070
323.715	894
323.804	106
323.892	894
323.981	835
324.069	1198
324.158	1068
324.246	1316
324.335	1137
324.424	2092
324.512	1017
324.601	487
324.689	1106
324.778	843
324.866	1115
324.954	890
325.043	268
325.131	696
325.220	1889
325.308	1201
325.397	1648
325.485	817
325.574	-15
325.662	1057
325.750	192
325.839	1660
325.927	882
326.015	346
326.104	773
326.192	1415
326.280	588
326.369	1298
326.457	138
326.545	926
326.634	159
326.722	952
326.810	491
326.898	1856
326.987	576
327.075	1189
327.163	1742
327.251	1057
327.340	671
327.428	2268
327.516	1533
327.604	2351
327.692	1032
327.781	1273
327.869	608
327.957	992
328.045	262
328.133	1537
328.221	731
328.309	851
328.397	1106
328.485	1528
328.574	2224
328.662	3126
328.750	606
328.838	1049
328.926	563
329.014	1040
329.102	301
329.190	1859
329.278	661
329.366	548
329.454	431
329.542	786
329.630	835
329.718	1338
329.806	512
329.893	1160
329.981	-20
330.069	671
330.157	1198
330.245	2163
330.333	810
330.421	933
330.509	660
330.597	1692
330.684	307
330.772	1515
330.860	590
330.948	1088
331.036	761
331.123	608
331.211	934
331.299	871
331.387	-119
331.475	929
331.562	316
331.650	1005
331.738	475
331.825	493
331.913	1105
332.001	953
332.089	81
332.176	1433
332.264	754
332.352	859
332.439	474
332.527	-112
332.614	551
332.702	1043
332.790	1293
332.877	1787
332.965	3653
333.052	2880
333.140	4431
333.228	9458
333.315	2110
333.403	1099
333.490	1684
333.578	5288
333.665	13673
333.753	5665
333.840	773
333.928	2052
334.015	2373
334.103	2232
334.190	2558
334.278	4012
334.365	5708
334.452	6842
334.540	3389
334.627	3073
334.715	4374
334.802	7292
334.889	11613
334.977	17091
335.064	11153
335.151	4263
335.239	3087
335.326	3102
335.413	2659
335.501	2552
335.588	2307
335.675	2909
335.762	3036
335.850	5357
335.937	6889
336.024	13553
336.111	24035
336.199	23535
336.286	8307
336.373	4818
336.460	2088
336.547	2571
336.635	1699
336.722	1997
336.809	1415
336.896	2017
336.983	1398
337.070	2286
337.157	1413
337.245	921
337.332	1613
337.419	1859
337.506	1094
337.593	1344
337.680	621
337.767	1400
337.854	505
337.941	1863
338.028	897
338.115	286
338.202	2341
338.289	1469
338.376	484
338.463	1896
338.550	38
338.637	1681
338.724	797
338.811	1626
338.898	730
338.984	1263
339.071	315
339.158	1515
339.245	1058
339.332	1730
339.419	332
339.506	1119
339.593	-121
339.679	1074
339.766	632
339.853	1086
339.940	186
340.027	1289
340.113	1209
340.200	1238
340.287	633
340.374	997
340.460	494
340.547	259
340.634	1116
340.720	1918
340.807	1230
340.894	1054
340.980	1278
341.067	909
341.154	1298
341.240	959
341.327	528
341.414	1321
341.500	-858
341.587	1362
341.674	702
341.760	1143
341.847	145
341.933	849
342.020	-594
342.106	1320
342.193	1155
342.279	1250
342.366	973
342.452	1376
342.539	956
342.625	1044
342.712	216
342.798	1058
342.885	407
342.971	777
343.058	1059
343.144	655
343.230	1496
343.317	1431
343.403	476
343.490	820
343.576	450
343.662	1161
343.749	620
343.835	709
343.921	1992
344.008	4859
344.094	5971
344.180	2360
344.267	778
344.353	1499
344.439	947
344.525	1115
344.612	1375
344.698	1118
344.784	142
344.870	1415
344.957	-340
345.043	1136
345.129	936
345.215	1468
345.301	382
345.387	1116
345.474	98
345.560	955
345.646	93
345.732	1167
345.818	1212
345.904	613
345.990	819
346.076	444
346.162	214
346.249	2176
346.335	312
346.421	1251
346.507	1509
346.593	2341
346.679	14
346.765	2370
346.851	1673
346.937	1416
347.023	1090
347.108	724
347.194	537
347.280	1076
347.366	1351
347.452	5609
347.538	3670
347.624	3751
347.710	1226
347.796	1292
347.882	1277
347.967	1374
348.053	1080
348.139	1339
348.225	857
348.311	187
348.397	862
348.482	1543
348.568	1456
348.654	2113
348.740	6677
348.825	3316
348.911	2239
348.997	2761
349.083	2904
349.168	1376
349.254	998
349.340	1308
349.425	791
349.511	1006
349.597	290
349.682	726
349.768	2053
349.854	618
349.939	825
350.025	268
350.110	476
350.196	1207
350.282	-452
350.367	1674
350.453	934
350.538	1379
350.624	241
350.709	1654
350.795	-443
350.880	992
350.966	2271
351.051	859
351.137	674
351.222	970
351.308	752
351.393	1672
351.479	83
351.564	433
351.649	1602
351.735	1496
351.820	810
351.906	691
351.991	829
352.076	500
352.162	1347
352.247	1518
352.332	628
352.418	393
352.503	608
352.588	2042
352.673	1229
352.759	501
352.844	24
352.929	230
353.014	-131
353.100	1263
353.185	310
353.270	240
353.355	1156
353.441	963
353.526	205
353.611	563
353.696	-44
353.781	1867
353.866	-418
353.952	1920
354.037	1027
354.122	1475
354.207	601
354.292	1100
354.377	1267
354.462	630
354.547	375
354.632	1463
354.717	237
354.802	-157
354.887	-207
354.972	871
355.057	719
355.142	533
355.227	724
355.312	809
355.397	264
355.482	1467
355.567	-260
355.652	1858
355.737	998
355.822	1800
355.907	515
355.991	1973
356.076	192
356.161	809
356.246	713
356.331	761
356.416	528
356.501	4812
356.585	1288
356.670	-6
356.755	2421
356.840	1818
356.924	3357
357.009	6384
357.094	2040
357.179	1022
357.263	704
357.348	2109
357.433	1104
357.517	776
357.602	678
357.687	468
357.771	906
357.856	1435
357.941	2181
358.025	3818
358.110	10761
358.195	4595
358.279	432
358.364	965
358.448	1350
358.533	2782
358.617	1236
358.702	2550
358.787	862
358.871	1463
358.956	437
359.040	1067
359.125	933
359.209	1689
359.294	905
359.378	1746
359.462	852
359.547	858
359.631	633
359.716	265
359.800	128
359.885	1308
359.969	149
360.053	2414
360.138	1923
360.222	1322
360.306	708
360.391	1320
360.475	816
360.559	674
360.644	827
360.728	465
360.812	2822
360.896	4013
360.981	1343
361.065	1048
361.149	813
361.233	1485
361.318	494
361.402	641
361.486	2480
361.570	1397
361.654	1409
361.739	1433
361.823	3671
361.907	5406
361.991	2044
362.075	2343
362.159	2777
362.243	7565
362.327	18019
362.411	25816
362.495	7540
362.580	3371
362.664	2893
362.748	3202
362.832	6759
362.916	14854
363.000	48011
363.084	62796
363.168	20939
363.252	6120
363.336	4100
363.420	3427
363.503	2109
363.587	1995
363.671	2045
363.755	1961
363.839	2918
363.923	2090
364.007	3074
364.091	4483
364.175	5813
364.258	20205
364.342	52324
364.426	97758
364.510	42456
364.594	11894
364.677	6265
364.761	5397
364.845	4012
364.929	1521
365.013	1648
365.096	1389
365.180	735
365.264	1230
365.347	3218
365.431	1411
365.515	-197
365.598	772
365.682	3068
365.766	447
365.849	1378
365.933	1579
366.017	2522
366.100	1451
366.184	262
366.267	2561
366.351	1810
366.435	1524
366.518	282
366.602	1223
366.685	959
366.769	1342
366.852	1376
366.936	1517
367.019	1049
367.103	1180
367.186	2082
367.270	1576
367.353	498
367.436	2564
367.520	1036
367.603	2378
367.687	645
367.770	1891
367.853	2240
367.937	3297
368.020	2254
368.104	845
368.187	1954
368.270	1322
368.353	686
368.437	1229
368.520	1436
368.603	1572
368.687	494
368.770	2352
368.853	1168
368.936	2156
369.020	2004
369.103	1987
369.186	405
369.269	648
369.352	1235
369.436	574
369.519	976
369.602	-183
369.685	2857
369.768	1226
369.851	1344
369.934	533
370.018	706
370.101	262
370.184	3374
370.267	2401
370.350	1569
370.433	2264
370.516	6726
370.599	14640
370.682	3101
370.765	3204
370.848	3419
370.931	2271
371.014	3324
371.097	1144
371.180	1887
371.263	2227
371.346	81
371.429	3392
371.511	1288
371.594	1956
371.677	2944
371.760	4066
371.843	2661
371.926	8360
372.009	10692
372.091	8437
372.174	2620
372.257	5372
372.340	3414
372.423	3409
372.505	4088
372.588	1888
372.671	3770
372.754	2460
372.836	2783
372.919	3455
373.002	3409
373.085	2293
373.167	2458
373.250	3273
373.332	4274
373.415	8911
373.498	10421
373.580	10354
373.663	25190
373.746	18176
373.828	4131
373.911	3982
373.993	1495
374.076	2220
374.159	1278
374.241	2215
374.324	3007
374.406	3756
374.489	3832
374.571	8518
374.654	3036
374.736	3667
374.819	5110
374.901	9572
374.983	6824
375.066	3706
375.148	2284
375.231	2393
375.313	3179
375.395	3112
375.478	2924
375.560	3129
375.643	1854
375.725	3562
375.807	5172
375.890	5151
375.972	495
376.054	2486
376.136	1500
376.219	2006
376.301	2590
376.383	3821
376.465	1905
376.548	2027
376.630	1961
376.712	4602
376.794	1412
376.877	2006
376.959	245
377.041	2091
377.123	94
377.205	2214
377.287	566
377.369	1964
377.452	1437
377.534	2194
377.616	1460
377.698	1191
377.780	1052
377.862	2204
377.944	1906
378.026	1119
378.108	1761
378.190	1277
378.272	2032
378.354	1651
378.436	567
378.518	1255
378.600	1446
378.682	2025
378.764	1110
378.846	2343
378.928	897
379.010	607
379.091	1722
379.173	1798
379.255	46
379.337	1498
379.419	1801
379.501	2886
379.583	1299
379.664	2058
379.746	682
379.828	3139
379.910	1180
379.991	3533
380.073	1256
380.155	1218
380.237	1499
380.318	1871
380.400	1624
380.482	1824
380.564	1704
380.645	1865
380.727	981
380.809	2749
380.890	954
380.972	1647
381.053	1400
381.135	3048
381.217	1038
381.298	3140
381.380	2088
381.461	3449
381.543	4407
381.624	3468
381.706	2739
381.787	3455
381.869	3224
381.951	4626
382.032	7433
382.113	7555
382.195	1109
382.276	4811
382.358	3778
382.439	5869
382.521	8940
382.602	10389
382.684	9394
382.765	18588
382.846	54888
382.928	108710
383.009	52372
383.090	54958
383.172	158263
383.253	166539
383.334	46652
383.416	19732
383.497	15513
383.578	19838
383.659	44945
383.741	143085
383.822	243057
383.903	101485
383.984	25520
384.066	16122
384.147	8444
384.228	8162
384.309	5652
384.390	5073
384.471	5338
384.553	4454
384.634	4102
384.715	5346
384.796	3989
384.877	3242
384.958	4846
385.039	3233
385.120	2895
385.201	4303
385.282	3153
385.363	5328
385.444	3538
385.525	4718
385.606	4484
385.687	4602
385.768	3480
385.849	3527
385.930	7516
386.011	9906
386.092	3139
386.173	3641
386.254	2641
386.335	3152
386.416	2138
386.496	4132
386.577	2992
386.658	3036
386.739	1701
386.820	3650
386.901	2058
386.981	3675
387.062	4475
387.143	4321
387.224	5256
387.304	6221
387.385	5393
387.466	4018
387.547	5289
387.627	5413
387.708	5817
387.789	6612
387.869	4527
387.950	4687
388.031	3392
388.111	1299
388.192	3332
388.273	4493
388.353	2245
388.434	2274
388.514	3218
388.595	5920
388.676	3555
388.756	3870
388.837	2738
388.917	1913
388.998	162
389.078	2978
389.159	1621
389.239	952
389.320	3819
389.400	476
389.480	2924
389.561	2207
389.641	2241
389.722	2370
389.802	1331
389.883	3422
389.963	4000
390.043	2029
390.124	869
390.204	2278
390.284	2676
390.365	1267
390.445	2306
390.525	2064
390.605	2509
390.686	1278
390.766	3265
390.846	3656
390.927	1955
391.007	1192
391.087	2500
391.167	1873
391.247	747
391.328	3472
391.408	2626
391.488	3674
391.568	597
391.648	2401
391.728	3335
391.808	4052
391.888	3262
391.969	3716
392.049	3168
392.129	4244
392.209	4293
392.289	6072
392.369	4463
392.449	5232
392.529	4264
392.609	6881
392.689	7278
392.769	8847
392.849	10651
392.929	15820
393.009	20004
393.089	30938
393.169	64536
393.248	165877
393.328	334044
393.408	285311
393.488	114816
393.568	45893
393.648	24316
393.728	15501
393.807	9995
393.887	10584
393.967	7058
394.047	6556
394.127	5496
394.206	6127
394.286	8451
394.366	22868
394.446	18367
394.525	6443
394.605	3603
394.685	4036
394.764	4898
394.844	8275
394.924	7661
395.003	2971
395.083	3001
395.163	2983
395.242	2286
395.322	3601
395.402	1286
395.481	4913
395.561	4019
395.640	14390
395.720	21760
395.799	8293
395.879	4125
395.958	4631
396.038	11286
396.117	33278
396.197	26343
396.276	9744
396.356	5860
396.435	8667
396.515	12298
396.594	20818
396.673	51426
396.753	159401
396.832	285153
396.912	172262
396.991	51840
397.070	22506
397.150	12512
397.229	13097
397.308	24335
397.388	33862
397.467	14398
397.546	5598
397.625	3250
397.705	5939
397.784	3516
397.863	2559
397.942	2553
398.022	2586
398.101	1699
398.180	3206
398.259	2317
398.338	2902
398.417	1376
398.497	1541
398.576	2262
398.655	794
398.734	1736
398.813	2257
398.892	1681
398.971	2909
399.050	1238
399.129	1204
399.208	1876
399.287	2745
399.366	265
399.445	1563
399.524	2123
399.603	453
399.682	959
399.761	1416
399.840	1555
399.919	2025
399.998	1086
400.077	343
400.156	-113
400.235	3444
400.313	463
400.392	322
400.471	1538
400.550	2099
400.629	720
400.708	1661
400.786	-70
400.865	1035
400.944	20
401.023	2471
401.102	398
401.180	1083
401.259	625
401.338	942
401.416	931
401.495	325
401.574	975
401.652	86
401.731	1047
401.810	-310
401.888	177
401.967	500
402.046	491
402.124	873
402.203	-661
402.281	1960
402.360	-663
402.438	1683
402.517	-758
402.596	1065
402.674	56
402.753	437
402.831	262
402.910	1425
402.988	345
403.066	1742
403.145	2391
403.223	1886
403.302	1368
403.380	2583
403.459	1137
403.537	1177
403.615	1032
403.694	-23
403.772	1922
403.850	1494
403.929	532
404.007	-97
404.085	1531
404.164	118
404.242	179
404.320	1712
404.398	1696
404.477	1067
404.555	3846
404.633	2617
404.711	1569
404.789	1372
404.868	73
404.946	221
405.024	343
405.102	590
405.180	-534
405.258	-273
405.336	982
405.415	-266
405.493	720
405.571	1560
405.649	284
405.727	-429
405.805	1698
405.883	1944
405.961	1111
406.039	83
406.117	-701
406.195	726
406.273	-753
406.351	3277
406.429	1975
406.507	74
406.585	-195
406.663	1332
406.740	304
406.818	-439
406.896	74
406.974	1292
407.052	-929
407.130	2774
407.208	1390
407.285	1210
407.363	-935
407.441	475
407.519	-477
407.596	666
407.674	949
407.752	3369
407.830	1864
407.907	759
407.985	-509
408.063	868
408.141	-26
408.218	1565
408.296	-905
408.373	385
408.451	1129
408.529	886
408.606	595
408.684	946
408.762	1009
408.839	1384
408.917	895
408.994	1157
409.072	704
409.149	2359
409.227	5406
409.304	7557
409.382	6713
409.459	8752
409.537	11219
409.614	7522
409.692	4897
409.769	7046
409.846	12566
409.924	13114
410.001	6052
410.079	4407
410.156	3913
410.233	2185
410.311	1245
410.388	1391
410.465	2188
410.543	1515
410.620	2322
410.697	1990
410.775	1411
410.852	1188
410.929	2398
411.006	3193
411.083	1119
411.161	1318
411.238	1915
411.315	1493
411.392	692
411.469	2597
411.547	1599
411.624	-753
411.701	-75
411.778	1043
411.855	278
411.932	635
412.009	87
412.086	1780
412.163	566
412.240	-54
412.317	1664
412.394	734
412.471	1285
412.548	840
412.625	231
412.702	1144
412.779	478
412.856	1176
412.933	-509
413.010	952
413.087	579
413.164	-238
413.241	1123
413.318	233
413.395	303
413.471	1128
413.548	128
413.625	1238
413.702	-835
413.779	1290
413.855	430
413.932	459
414.009	-521
414.086	616
414.162	648
414.239	960
414.316	962
414.393	1873
414.469	-357
414.546	227
414.623	112
414.699	320
414.776	68
414.853	-93
414.929	-38
415.006	362
415.082	586
415.159	409
415.236	-160
415.312	957
415.389	18
415.465	24
415.542	507
415.618	-104
415.695	182
415.771	618
415.848	-46
415.924	159
416.000	853
416.077	779
416.153	-676
416.230	-147
416.306	-462
416.383	613
416.459	640
416.535	259
416.612	291
416.688	406
416.764	198
416.841	349
416.917	495
416.993	701
417.069	86
417.146	170
417.222	325
417.298	352
417.374	-251
417.451	537
417.527	-583
417.603	-461
417.679	-314
417.755	295
417.831	-304
417.908	482
417.984	-58
418.060	-35
418.136	524
418.212	-391
418.288	351
418.364	460
418.440	230
418.516	652
418.592	698
418.668	551
418.744	-154
418.820	525
418.896	367
418.972	-434
419.048	-696
419.124	1174
419.200	-456
419.276	1114
419.352	-336
419.428	1084
419.504	-534
419.579	998
419.655	-546
419.731	633
419.807	-19
419.883	449
419.959	-71
420.034	1462
420.110	834
420.186	1551
420.262	1569
420.337	1081
420.413	1051
420.489	1547
420.565	2073
420.640	1026
420.716	1574
420.792	681
420.867	1805
420.943	1788
421.019	2047
421.094	1808
421.170	2083
421.245	2356
421.321	2543
421.397	2827
421.472	3894
421.548	5309
421.623	4245
421.699	5021
421.774	5320
421.850	5830
421.925	6872
422.001	9001
422.076	10637
422.152	13618
422.227	17807
422.302	25713
422.378	40028
422.453	69648
422.529	124924
422.604	170942
422.679	165561
422.755	159167
422.830	108170
422.905	62871
422.981	39554
423.056	27426
423.131	20675
423.207	15204
423.282	11103
423.357	10727
423.432	7876
423.508	7011
423.583	5806
423.658	5749
423.733	3988
423.808	4966
423.883	4555
423.959	5742
424.034	5799
424.109	5775
424.184	3670
424.259	2660
424.334	2730
424.409	2539
424.484	1465
424.559	2566
424.634	1156
424.709	2288
424.784	1699
424.859	750
424.934	484
425.009	1646
425.084	1233
425.159	978
425.234	976
425.309	1035
425.384	248
425.459	518
425.534	713
425.609	854
425.683	454
425.758	1446
425.833	513
425.908	1441
425.983	-360
426.058	1209
426.132	870
426.207	902
426.282	1890
426.357	177
426.431	776
426.506	528
426.581	3
426.655	951
426.730	298
426.805	584
426.879	669
426.954	344
427.029	-207
427.103	1922
427.178	2111
427.253	812
427.327	679
427.402	85
427.476	792
427.551	115
427.625	-87
427.700	986
427.774	2
427.849	1002
427.923	-14
427.998	1541
428.072	793
428.147	4444
428.221	23687
428.296	57255
428.370	23341
428.444	3569
428.519	917
428.593	716
428.667	946
428.742	2373
428.816	8860
428.890	41785
428.965	47048
429.039	10058
429.113	1711
429.188	1272
429.262	-377
429.336	1138
429.410	16
429.485	1503
429.559	499
429.633	761
429.707	1530
429.781	7854
429.855	37379
429.930	40888
430.004	9324
430.078	6726
430.152	27175
430.226	83893
430.300	62664
430.374	12630
430.448	3465
430.522	1981
430.596	2488
430.670	14408
430.744	49399
430.818	39264
430.892	6284
430.966	1501
431.040	1185
431.114	766
431.188	-248
431.262	-41
431.336	-790
431.410	695
431.484	-333
431.557	1048
431.631	695
431.705	3365
431.779	20026
431.853	58687
431.927	30247
432.000	4627
432.074	899
432.148	609
432.222	-171
432.295	153
432.369	-85
432.443	-130
432.516	177
432.590	1832
432.664	994
432.737	-450
432.811	-1126
432.885	-604
432.958	585
433.032	-439
433.106	-619
433.179	-16
433.253	49
433.326	-570
433.400	-615
433.473	-298
433.547	-1063
433.620	357
433.694	-1225
433.767	-92
433.841	-903
433.914	64
433.988	123
434.061	427
434.134	-623
434.208	225
434.281	-821
434.355	-445
434.428	-103
434.501	244
434.575	-342
434.648	-73
434.721	-1240
434.795	-505
434.868	-345
434.941	367
435.014	-682
435.088	531
435.161	1170
435.234	2046
435.307	1430
435.381	2705
435.454	4579
435.527	7709
435.600	6414
435.673	5088
435.746	2922
435.819	2154
435.892	1257
435.966	1346
436.039	411
436.112	939
436.185	-530
436.258	-32
436.331	117
436.404	391
436.477	-765
436.550	91
436.623	84
436.696	488
436.769	-250
436.842	246
436.915	-718
436.987	-137
437.060	-260
437.133	445
437.206	-1268
437.279	727
437.352	-154
437.425	-222
437.498	-994
437.570	148
437.643	-292
437.716	-242
437.789	-323
437.861	-183
437.934	-367
438.007	381
438.080	-684
438.152	74
438.225	218
438.298	1909
438.370	3202
438.443	1886
438.516	-1041
438.588	177
438.661	-1225
438.734	467
438.806	492
438.879	593
438.951	-824
439.024	154
439.096	-816
439.169	638
439.241	-579
439.314	-476
439.386	-902
439.459	369
439.531	-530
439.604	-410
439.676	324
439.749	191
439.821	-146
439.893	-87
439.966	1
440.038	72
440.110	-121
440.183	-523
440.255	-1380
440.327	256
440.400	770
440.472	2258
440.544	862
440.617	242
440.689	982
440.761	332
440.833	-788
440.905	554
440.978	-439
441.050	116
441.122	301
441.194	-252
441.266	-260
441.338	229
441.411	-183
441.483	781
441.555	99
441.627	316
441.699	603
441.771	-204
441.843	93
441.915	461
441.987	-538
442.059	1352
442.131	823
442.203	2174
442.275	1805
442.347	4708
442.419	10979
442.491	55866
442.563	93012
442.635	36616
442.706	7754
442.778	3169
442.850	2263
442.922	1606
442.994	2312
443.066	2295
443.137	2537
443.209	3709
443.281	6715
443.353	16149
443.425	65244
443.496	160202
443.568	147431
443.640	58497
443.711	14971
443.783	6274
443.855	3646
443.926	3235
443.998	1068
444.070	1957
444.141	723
444.213	2193
444.285	611
444.356	889
444.428	1310
444.499	918
444.571	426
444.642	1768
444.714	1610
444.785	1565
444.857	1805
444.928	2428
445.000	2028
445.071	3841
445.143	4829
445.214	6203
445.285	12794
445.357	36397
445.428	120048
445.500	187132
445.571	141755
445.642	91683
445.714	32473
445.785	12043
445.856	4435
445.928	4150
445.999	2040
446.070	1567
446.141	1236
446.213	1566
446.284	451
446.355	1297
446.426	228
446.497	1220
446.569	-102
446.640	1124
446.711	-564
446.782	1009
446.853	-82
446.924	858
446.995	-132
447.066	318
447.138	-199
447.209	711
447.280	-320
447.351	124
447.422	-893
447.493	-53
447.564	134
447.635	-122
447.706	141
447.777	306
447.847	-189
447.918	-635
447.989	-517
448.060	443
448.131	110
448.202	-216
448.273	-65
448.344	693
448.414	-709
448.485	66
448.556	508
448.627	-674
448.698	878
448.768	63
448.839	-483
448.910	101
448.981	285
449.051	-9
449.122	-1031
449.193	-109
449.263	-397
449.334	28
449.405	-410
449.475	32
449.546	-158
449.616	656
449.687	496
449.758	-47
449.828	-517
449.899	-219
449.969	-680
450.040	19
450.110	-594
450.181	319
450.251	-749
450.322	193
450.392	-162
450.463	449
450.533	-797
450.604	438
450.674	-277
450.744	810
450.815	393
450.885	1061
450.955	482
451.026	565
451.096	609
451.166	208
451.237	1289
451.307	1953
451.377	882
451.447	223
451.518	-386
451.588	268
451.658	192
451.728	-279
451.799	-701
451.869	821
451.939	-102
452.009	526
452.079	-775
452.149	190
452.219	-285
452.289	505
452.360	340
452.430	820
452.500	671
452.570	3106
452.640	8809
452.710	19536
452.780	19693
452.850	10830
452.920	3543
452.990	2596
453.060	1460
453.129	578
453.199	86
453.269	997
453.339	785
453.409	567
453.479	986
453.549	1575
453.619	1273
453.688	126
453.758	950
453.828	202
453.898	-379
453.968	579
454.037	-107
454.087	369
454.107	542
454.168	-248
454.177	-397
454.247	-489
454.249	-465
454.316	-662
454.330	-472
454.386	151
454.411	85
454.456	-104
454.492	67
454.525	167
454.574	590
454.595	750
454.655	-52
454.665	-226
454.734	266
454.736	295
454.804	-141
454.817	61
454.873	756
454.898	788
454.943	769
454.979	240
455.013	-299
455.060	650
455.082	1062
455.141	273
455.152	85
455.221	1781
455.222	1805
455.291	1231
455.303	1264
455.360	1200
455.384	1452
455.430	1665
455.465	1485
455.499	1285
455.546	1004
455.569	819
455.627	1641
455.638	1789
455.707	1293
455.708	1325
455.777	1507
455.789	1453
455.846	1154
455.869	1277
455.916	1317
455.950	1390
455.985	1370
456.031	1377
456.054	1385
456.112	1450
456.124	1457
456.193	2258
456.193	2229
456.262	1502
456.274	1769
456.332	3058
456.355	2742
456.401	1872
456.436	2108
456.470	2373
456.516	1875
456.540	1509
456.597	2286
456.609	2442
456.678	2309
456.678	2273
456.747	3275
456.759	3245
456.817	3365
456.840	3310
456.886	2748
456.920	2854
456.955	3239
457.001	4364
457.024	4744
457.082	4284
457.093	4082
457.162	5104
457.163	5143
457.232	4587
457.243	4530
457.301	4683
457.324	4872
457.370	5112
457.405	5606
457.439	6272
457.485	6624
457.508	6909
457.566	9201
457.577	10060
457.646	15144
457.647	15293
457.715	41164
457.727	46551
457.784	87424
457.808	109416
457.853	127316
457.889	140465
457.922	120942
457.969	79617
457.991	90390
458.050	127658
458.060	136122
458.129	219653
458.130	222297
458.198	173281
458.211	158214
458.267	84835
458.292	53360
458.336	42919
458.372	41137
458.405	63730
458.453	100964
458.474	132946
458.533	236491
458.543	243213
458.611	319051
458.614	321613
458.680	160462
458.694	122730
458.749	62866
458.775	39932
458.818	27144
458.855	20894
458.887	18044
458.936	14517
458.955	13597
459.016	11276
459.024	11044
459.093	10532
459.097	10448
459.162	8510
459.177	8502
459.230	8721
459.257	8490
459.299	7993
459.338	7863
459.368	7813
459.418	7561
459.437	7462
459.499	7527
459.505	7519
459.574	7454
459.579	7460
459.643	6875
459.659	6748
459.711	6986
459.740	7295
459.780	7330
459.820	7309
459.849	7249
459.900	6775
459.917	6603
459.981	6524
459.986	6523
460.054	7064
460.061	7072
460.123	6854
460.141	6913
460.191	7356
460.222	7355
460.260	6973
460.302	7241
460.328	7507
460.382	7152
460.397	7172
460.462	7927
460.465	8003
460.534	9839
460.543	10087
460.602	19757
460.623	23602
460.671	34074
460.703	41812
460.739	35864
460.783	26836
460.808	21987
460.864	8917
460.876	8480
460.944	7946
460.945	7924
461.013	7165
461.024	6971
461.081	6639
461.104	7067
461.150	7884
461.184	7536
461.218	7543
461.264	8328
461.286	8195
461.345	7307
461.355	7219
461.423	7602
461.425	7590
461.491	6578
461.505	6576
461.559	7410
461.585	7575
461.628	7552
461.665	7659
461.696	7797
461.745	7695
461.764	7670
461.825	7610
461.832	7581
461.901	7589
461.905	7610
461.969	7447
461.985	7360
462.037	8184
462.065	8671
462.105	8088
462.145	7309
462.173	7406
462.225	7458
462.241	7469
462.305	8209
462.310	8257
462.378	8217
462.385	8260
462.446	8724
462.465	8961
462.514	9244
462.545	9042
462.582	8224
462.625	7674
462.650	7742
462.705	7410
462.718	7479
462.785	8608
462.786	8607
462.854	7245
462.865	7168
462.922	7737
462.945	7867
462.990	7943
463.025	8004
463.058	7776
463.104	7418
463.126	7459
463.184	7745
463.194	7847
463.262	7826
463.264	7847
463.330	8777
463.344	8886
463.398	8779
463.424	8746
463.466	8227
463.504	7795
463.533	8397
463.583	9259
463.601	9123
463.663	8398
463.669	8355
463.737	8485
463.743	8418
463.805	8531
463.823	8685
463.873	8946
463.903	9046
463.940	8870
463.982	8539
464.008	8682
464.062	9036
464.076	8929
464.142	8372
464.144	8398
464.211	8957
464.221	9050
464.279	8501
464.301	8162
464.347	8441
464.381	8822
464.414	8760
464.461	8579
464.482	8642
464.540	8754
464.550	8780
464.617	8622
464.620	8618
464.685	8685
464.699	8611
464.753	8649
464.779	8696
464.820	8917
464.859	9108
464.888	8703
464.938	7988
464.956	8330
465.018	9444
465.023	9442
465.091	9444
465.098	9395
465.158	8784
465.177	8635
465.226	8698
465.257	8649
465.293	8878
465.336	9202
465.361	9417
465.416	9671
465.428	9674
465.495	9896
465.496	9909
465.563	8972
465.575	8863
465.631	9665
465.654	9939
465.698	9471
465.734	8951
465.765	9123
465.813	9393
465.833	9267
465.893	8992
465.900	9125
465.968	10023
465.972	10059
466.035	9669
466.052	9566
466.102	9965
466.131	10185
466.170	9648
466.210	8959
466.237	9294
466.290	9950
466.304	9936
466.369	9701
466.372	9734
466.439	10194
466.449	10223
466.506	9707
466.528	9501
466.573	9907
466.607	10152
466.641	10607
466.687	11257
466.708	11668
466.766	12626
466.775	12424
466.842	10807
466.845	10705
466.909	10248
466.925	10129
466.977	11319
467.004	11913
467.044	11855
467.083	11748
467.111	11815
467.163	11861
467.178	12172
467.242	13364
467.245	13373
467.312	13020
467.321	12950
467.379	13446
467.400	13584
467.446	13663
467.480	13671
467.559	13554
467.638	13112
467.717	14011
467.796	15453
467.875	16302
467.955	18366
468.034	19645
468.113	24344
468.192	30488
468.271	38368
468.350	54804
468.429	76397
468.508	79149
468.588	49413
468.667	30238
468.746	23243
468.825	19850
468.904	17174
468.983	16233
469.062	15379
469.141	15163
469.220	13313
469.299	13249
469.378	12163
469.456	14280
469.535	13701
469.614	13796
469.693	13587
469.772	14958
469.851	16000
469.930	17024
470.009	19691
470.088	23772
470.166	37679
470.245	69011
470.324	94059
470.403	62797
470.482	33724
470.560	23003
470.639	18346
470.718	17732
470.797	15109
470.875	13339
470.954	12814
471.033	13300
471.111	12830
471.190	12765
471.269	12014
471.347	11361
471.426	11723
471.505	11983
471.583	12232
471.662	12391
471.740	12317
471.819	12014
471.898	11479
471.976	11852
472.055	11917
472.133	11696
472.212	12319
472.290	10850
472.369	10051
472.447	11562
472.526	11336
472.604	12227
472.683	11360
472.761	12301
472.839	11985
472.918	13061
472.996	12588
473.075	13687
473.153	13476
473.231	12153
473.310	12817
473.388	13146
473.466	12750
473.545	13306
473.623	12692
473.701	14041
473.780	14051
473.858	12019
473.936	14435
474.014	13909
474.093	13401
474.171	13757
474.249	13762
474.327	13860
474.405	12318
474.484	13159
474.562	12840
474.640	12651
474.718	12565
474.796	12676
474.874	12461
474.952	11601
475.030	11646
475.108	11756
475.187	12737
475.265	12349
475.343	13008
475.421	13479
475.499	11891
475.577	11735
475.655	12380
475.733	11414
475.811	12098
475.889	12154
475.966	12697
476.044	11201
476.122	11483
476.200	13185
476.278	11234
476.356	11101
476.434	10564
476.512	11632
476.590	12104
476.667	13088
476.745	11642
476.823	11945
476.901	11260
476.979	11591
477.056	11652
477.134	10282
477.212	10384
477.290	11299
477.367	11301
477.445	11265
477.523	10049
477.601	10340
477.678	10875
477.756	10681
477.834	10459
477.911	10000
477.989	11259
478.066	11438
478.144	12221
478.222	10848
478.299	13393
478.377	13374
478.454	11812
478.532	11727
478.609	9882
478.687	11585
478.764	10689
478.842	10766
478.919	11175
478.997	10385
479.074	10241
479.152	11935
479.229	10712
479.307	11205
479.384	10832
479.461	12502
479.539	9915
479.616	11063
479.694	11150
479.771	10807
479.848	10415
479.926	9995
480.003	12841
480.080	11187
480.157	11864
480.235	12530
480.312	11756
480.389	13091
480.467	12654
480.544	14896
480.621	14770
480.698	16674
480.775	15153
480.853	13092
480.930	12865
481.007	13220
481.084	13517
481.161	14028
481.238	13480
481.315	12633
481.392	12684
481.470	13950
481.547	13748
481.624	13365
481.701	14074
481.778	14422
481.855	15163
481.932	16903
482.009	18633
482.086	20495
482.163	23332
482.240	27958
482.317	27493
482.393	23360
482.470	21399
482.547	19914
482.624	18027
482.701	18981
482.778	17837
482.855	18091
482.932	18926
483.009	20288
483.085	22626
483.162	25424
483.239	28465
483.316	28877
483.393	28256
483.469	23334
483.546	21138
483.623	19487
483.699	16541
483.776	15040
483.853	14527
483.930	14523
484.006	15724
484.083	17720
484.160	16051
484.236	17349
484.313	17039
484.389	18276
484.466	23319
484.543	28784
484.619	37249
484.696	40303
484.772	26329
484.849	19986
484.925	17515
485.002	16357
485.078	14388
485.155	13865
485.231	12875
485.308	12157
485.384	12825
485.461	13294
485.537	12104
485.614	13126
485.690	12024
485.766	11795
485.843	13408
485.919	12939
485.995	12993
486.072	12651
486.148	11682
486.224	11919
486.301	12591
486.377	12736
486.453	11559
486.530	13065
486.606	14366
486.682	14002
486.758	13852
486.835	15240
486.911	14790
486.987	18157
487.063	19800
487.139	24069
487.215	27137
487.292	32885
487.368	39508
487.444	54471
487.520	77764
487.596	119227
487.672	265328
487.748	816697
487.824	1243675
487.900	438828
487.976	122606
488.052	61818
488.128	41528
488.204	29456
488.280	25624
488.356	22301
488.432	20721
488.508	19342
488.584	16986
488.660	17395
488.736	15210
488.812	13941
488.888	13812
488.964	14781
489.039	16131
489.115	18772
489.191	15697
489.267	12665
489.343	12339
489.418	12895
489.494	13394
489.570	11626
489.646	14355
489.722	13157
489.797	12340
489.873	14124
489.949	15204
490.024	13229
490.100	13399
490.176	13562
490.251	13683
490.327	14534
490.403	13730
490.478	14195
490.554	12965
490.629	12159
490.705	12988
490.781	12952
490.856	12590
490.932	13042
491.007	13051
491.083	11242
491.158	12229
491.234	12651
491.309	13258
491.385	11959
491.460	9940
491.536	12183
491.611	10635
491.686	11899
491.762	11583
491.837	12334
491.913	14976
491.988	16435
492.063	17380
492.139	12212
492.214	10489
492.289	12199
492.365	10227
492.440	10697
492.515	10423
492.590	10564
492.666	10589
492.741	11104
492.816	12471
492.891	10120
492.967	11232
493.042	11744
493.117	10501
493.192	11691
493.267	12718
493.342	16093
493.418	17188
493.493	11163
493.568	10851
493.643	11234
493.718	11218
493.793	10198
493.868	11436
493.943	11697
494.018	11149
494.093	11306
494.168	11736
494.243	10453
494.318	10828
494.393	12089
494.468	10547
494.543	12195
494.618	12226
494.693	12353
494.768	13337
494.842	12937
494.917	13510
494.992	12148
495.067	11749
495.142	12151
495.217	12086
495.292	12256
495.366	12025
495.441	12369
495.516	13976
495.591	12851
495.665	18801
495.740	26252
495.815	16489
495.890	12920
495.964	11648
496.039	15589
496.114	13936
496.188	16223
496.263	14441
496.338	14470
496.412	11786
496.487	12635
496.561	12623
496.636	13325
496.710	12094
496.785	12609
496.860	12752
496.934	10977
497.009	13242
497.083	13249
497.158	13872
497.232	14960
497.307	15212
497.381	16878
497.455	17264
497.530	13309
497.604	13034
497.679	12472
497.753	13188
497.827	11917
497.902	12054
497.976	13374
498.050	16017
498.125	25084
498.199	23987
498.273	16083
498.348	15459
498.422	16368
498.496	18809
498.570	20821
498.645	12275
498.719	9781
498.793	11737
498.867	11808
498.941	12467
499.016	15072
499.090	22692
499.164	15637
499.238	14118
499.312	14340
499.386	15149
499.460	16647
499.534	19446
499.609	23578
499.683	16574
499.757	11646
499.831	9885
499.905	16188
499.979	15023
500.053	11355
500.127	11896
500.201	12182
500.275	13697
500.349	15142
500.422	15716
500.496	18647
500.570	22670
500.644	31361
500.718	30088
500.792	12720
500.866	10932
500.940	9324
501.013	9902
501.087	10119
501.161	10730
501.235	9279
501.309	13333
501.382	14310
501.456	14263
501.530	10202
501.603	9657
501.677	8452
501.751	6500
501.825	10507
501.898	9514
501.972	11856
502.046	9036
502.119	7964
502.193	10084
502.266	10213
502.340	8661
502.413	9810
502.487	10601
502.561	8762
502.634	10056
502.708	9941
502.781	8790
502.855	10127
502.928	7882
503.002	9344
503.075	8970
503.149	8933
503.222	10105
503.295	9803
503.369	11216
503.442	13734
503.516	16212
503.589	20338
503.662	23257
503.736	28600
503.809	38592
503.882	51403
503.956	79829
504.029	159230
504.102	448362
504.175	638485
504.249	249904
504.322	91660
504.395	47332
504.468	32129
504.542	22941
504.615	17202
504.688	15293
504.761	12721
504.834	13143
504.907	11695
504.980	11693
505.053	9325
505.127	7483
505.200	11442
505.273	8095
505.346	7706
505.419	7392
505.492	9190
505.565	7941
505.638	8242
505.711	7173
505.784	6622
505.857	6820
505.930	8420
506.003	4671
506.076	8221
506.149	6269
506.221	4938
506.294	7284
506.367	5300
506.440	7789
506.513	7422
506.586	6664
506.659	5302
506.731	6350
506.804	5477
506.877	5112
506.950	6695
507.022	6664
507.095	5279
507.168	6611
507.241	6864
507.313	4383
507.386	4827
507.459	6118
507.531	5717
507.604	4463
507.677	6179
507.749	4701
507.822	5845
507.894	5685
507.967	6821
508.040	4769
508.112	6570
508.185	5146
508.257	3993
508.330	6372
508.402	5115
508.475	4850
508.547	5477
508.620	6533
508.692	6361
508.765	5754
508.837	5822
508.909	5614
508.982	4890
509.054	5166
509.127	4930
509.199	4914
509.271	4195
509.344	4300
509.416	6484
509.488	5050
509.560	6072
509.633	5320
509.705	5605
509.777	5033
509.849	5576
509.922	4280
509.994	5427
510.066	5727
510.138	3363
510.210	7396
510.283	5583
510.355	5271
510.427	6745
510.499	5259
510.571	5874
510.643	4630
510.715	8208
510.787	3428
510.859	7531
510.931	5454
511.003	5644
511.076	7131
511.148	4652
511.219	4196
511.291	5971
511.363	6331
511.435	4522
511.507	4703
511.579	6080
511.651	6193
511.723	5231
511.795	5879
511.867	5378
511.939	5172
512.010	5223
512.082	5994
512.154	4767
512.226	5843
512.298	5839
512.369	6120
512.441	6909
512.513	6916
512.585	4742
512.656	7104
512.728	4756
512.800	5190
512.871	6932
512.943	5905
513.015	4710
513.086	6182
513.158	6835
513.230	5245
513.301	5264
513.373	8789
513.444	6559
513.516	5637
513.588	5610
513.659	7334
513.731	5943
513.802	5776
513.874	9247
513.945	8333
514.016	5980
514.088	6455
514.159	5324
514.231	7675
514.302	6150
514.374	6600
514.445	5274
514.516	9059
514.588	6766
514.659	6310
514.730	5860
514.802	8315
514.873	4472
514.944	8976
515.016	8730
515.087	7415
515.158	7033
515.229	7959
515.301	6448
515.372	8670
515.443	7631
515.514	8130
515.585	6530
515.656	8904
515.728	9515
515.799	7735
515.870	10779
515.941	10650
516.012	10409
516.083	14839
516.154	14804
516.225	19976
516.296	26155
516.367	31511
516.438	41160
516.509	56180
516.580	85587
516.651	311513
516.722	1006623
516.793	333823
516.864	76777
516.935	70633
517.006	87386
517.077	113666
517.148	251372
517.219	1079635
517.289	1418383
517.360	240795
517.431	72083
517.502	41327
517.573	36066
517.643	31858
517.714	30930
517.785	35663
517.856	40176
517.926	54423
517.997	72546
518.068	96709
518.138	135110
518.209	218985
518.280	731705
518.350	2010920
518.421	824842
518.492	189322
518.562	120723
518.633	123771
518.703	163701
518.774	334683
518.845	800277
518.915	681411
518.986	206678
519.056	89364
519.127	56051
519.197	42797
519.268	32949
519.338	25585
519.408	18958
519.479	17223
519.549	15117
519.620	15785
519.690	13001
519.760	11111
519.831	11116
519.901	9920
519.971	10207
520.042	9535
520.112	7899
520.182	9939
520.253	9529
520.323	7910
520.393	7624
520.463	9680
520.534	5237
520.604	9745
520.674	8948
520.744	7315
520.814	6989
520.885	8740
520.955	7345
521.025	9352
521.095	7080
521.165	7175
521.235	5690
521.305	5976
521.375	7825
521.445	6869
521.515	6674
521.585	7869
521.655	5559
521.725	8194
521.795	8164
521.865	4867
521.935	8023
522.005	5837
522.075	6529
522.145	7687
522.215	6016
522.285	7736
522.355	7540
522.424	8256
522.494	6176
522.564	6955
522.634	8410
522.704	12874
522.774	7418
522.843	8352
522.913	7672
522.983	5815
523.053	5914
523.122	8208
523.192	7122
523.262	9080
523.331	8465
523.401	9058
523.471	6763
523.540	8215
523.610	7430
523.680	7900
523.749	8479
523.819	8717
523.888	8731
523.958	8600
524.027	8616
524.097	8007
524.166	8618
524.236	7002
524.305	10207
524.375	7908
524.444	8236
524.514	10459
524.583	7918
524.653	7488
524.722	9403
524.791	7898
524.861	10759
524.930	8182
524.999	9643
525.069	11344
525.138	11106
525.207	9935
525.277	13214
525.346	12911
525.415	15397
525.484	16693
525.554	20293
525.623	25648
525.692	33242
525.761	43402
525.830	56376
525.900	80178
525.969	127262
526.038	235806
526.107	482364
526.176	1285816
526.245	917452
526.314	293154
526.383	668389
526.452	811623
526.522	1126299
526.591	918419
526.660	181458
526.729	117716
526.797	125596
526.867	171711
526.935	468442
527.004	1519835
527.073	895756
527.142	153787
527.211	66717
527.280	42775
527.349	31498
527.418	22318
527.487	20440
527.555	15710
527.624	14840
527.693	13230
527.762	14330
527.831	11606
527.899	12841
527.968	10233
528.037	8973
528.106	10672
528.174	11439
528.243	10445
528.312	9817
528.380	9123
528.449	7354
528.518	10315
528.586	7127
528.655	9843
528.723	8138
528.792	8327
528.861	7995
528.929	6911
528.998	8605
529.066	6630
529.135	8390
529.203	6574
529.272	7538
529.340	7912
529.409	8973
529.477	6413
529.545	6539
529.614	9923
529.682	5738
529.751	8146
529.819	11209
529.887	7536
529.956	6819
530.024	8452
530.092	6834
530.161	8857
530.229	8135
530.297	7604
530.365	9478
530.434	8345
530.502	7048
530.570	8311
530.638	6577
530.707	8381
530.775	9166
530.843	7304
530.911	8291
530.979	8785
531.047	7627
531.115	8406
531.183	7783
531.252	8707
531.320	8232
531.388	8168
531.456	9331
531.524	6669
531.592	9602
531.660	10134
531.728	8313
531.796	7774
531.864	9583
531.932	7902
532.000	7628
532.067	8325
532.135	9566
532.203	10291
532.271	9859
532.339	12661
532.407	13372
532.475	11671
532.542	11451
532.610	11015
532.678	11380
532.746	16924
532.814	23032
532.881	11881
532.949	11638
533.017	10471
533.084	11108
533.152	10029
533.220	9696
533.287	9006
533.355	10499
533.423	10607
533.490	10110
533.558	11272
533.625	12090
533.693	11115
533.761	11532
533.828	11617
533.896	10275
533.963	13088
534.031	14454
534.098	18317
534.166	20879
534.233	18687
534.300	23361
534.368	23733
534.435	22876
534.503	26973
534.570	30517
534.637	37009
534.705	45057
534.772	56248
534.840	114852
534.907	543771
534.974	570454
535.041	71515
535.109	33377
535.176	23931
535.243	22520
535.310	21671
535.378	18540
535.445	19420
535.512	20787
535.579	19354
535.646	18633
535.714	20801
535.781	21494
535.848	21644
535.915	20765
535.982	18528
536.049	18226
536.116	20207
536.183	19054
536.250	17461
536.317	18577
536.384	20866
536.451	20374
536.518	21729
536.585	19522
536.652	21327
536.719	21621
536.786	18382
536.853	19855
536.920	20782
536.987	20978
537.053	19422
537.120	25887
537.187	25496
537.254	22778
537.321	22325
537.388	23576
537.454	21304
537.521	21632
537.588	21522
537.654	23188
537.721	24175
537.788	23182
537.855	20624
537.921	22135
537.988	21478
538.055	21212
538.121	18943
538.188	18898
538.254	18238
538.321	20178
538.388	21771
538.454	24150
538.521	24693
538.587	23301
538.654	22672
538.720	22410
538.787	22824
538.853	22992
538.920	21236
538.986	18741
539.053	18414
539.119	21246
539.185	20005
539.252	22480
539.318	21910
539.385	25674
539.451	21790
539.517	23444
539.583	23998
539.650	22728
539.716	23870
539.782	21423
539.849	19351
539.915	21956
539.981	20203
540.047	20502
540.114	20218
540.180	22627
540.246	22779
540.312	24754
540.378	23322
540.444	24741
540.510	23934
540.576	26312
540.643	21828
540.709	20438
540.775	21732
540.841	20891
540.907	21282
540.973	20740
541.039	21850
541.105	23004
541.171	23770
541.237	23873
541.303	23737
541.369	25478
541.435	22590
541.500	22715
541.566	20660
541.632	21218
541.698	20949
541.764	23494
541.830	22025
541.896	21794
541.961	22112
542.027	20734
542.093	24117
542.159	24884
542.224	21272
542.290	23197
542.356	21362
542.421	21998
542.487	20489
542.553	20282
542.618	21016
542.684	21837
542.750	21427
542.815	21946
542.881	21757
542.947	26136
543.012	25218
543.078	20958
543.143	20638
543.209	21730
543.274	20099
543.340	20537
543.405	22882
543.471	23839
543.536	22483
543.602	23844
543.667	21182
543.732	22896
543.798	21672
543.863	23360
543.928	21438
543.994	21326
544.059	23580
544.124	23896
544.190	23077
544.255	25596
544.320	24946
544.386	23419
544.451	25384
544.516	24457
544.581	25334
544.646	26966
544.712	28443
544.777	25517
544.842	25354
544.907	24836
544.972	25644
545.037	27928
545.102	27471
545.168	27067
545.233	28560
545.298	28986
545.363	28586
545.428	29178
545.493	32258
545.558	31388
545.623	30707
545.688	29774
545.753	31284
545.818	33296
545.883	35974
545.947	35739
546.012	36827
546.077	37300
546.142	41562
546.207	41449
546.272	44268
546.337	45643
546.401	46475
546.466	49208
546.531	49323
546.596	54425
546.661	57668
546.725	61635
546.790	64843
546.855	70100
546.919	77782
546.984	87516
547.049	92699
547.113	107150
547.178	118144
547.243	132237
547.307	154938
547.372	169047
547.436	166597
547.501	178810
547.565	190319
547.630	173012
547.695	168858
547.759	170949
547.823	171948
547.888	175038
547.952	179570
548.017	187814
548.081	189292
548.146	187998
548.210	194920
548.274	210880
548.339	202715
548.403	186453
548.468	174753
548.532	177642
548.596	177916
548.660	178066
548.725	196160
548.789	210697
548.853	200564
548.917	196376
548.982	188926
549.046	170267
549.110	155078
549.174	160236
549.238	188856
549.303	204412
549.367	208099
549.431	198204
549.495	185556
549.559	186206
549.623	221850
549.687	235522
549.751	230487
549.815	278043
549.879	275273
549.943	265389
550.007	276733
550.071	274343
550.135	246734
550.199	236169
550.263	229254
550.327	217904
550.391	224197
550.455	250095
550.519	262568
550.582	278866
550.646	316307
550.710	318688
550.774	312979
550.838	322064
550.901	332312
550.965	353457
551.029	369648
551.093	397944
551.156	437719
551.220	502111
551.284	536775
551.347	409732
551.411	344184
551.475	327154
551.538	333995
551.602	312320
551.666	297749
551.729	277826
551.793	272226
551.856	265991
551.920	261816
551.983	261149
552.047	259012
552.110	260008
552.174	261663
552.237	267599
552.301	247824
552.364	238374
552.428	231376
552.491	243862
552.554	245760
552.618	245321
552.681	254125
552.745	254805
552.808	297693
552.871	341029
552.934	282635
552.998	252804
553.061	240977
553.124	230345
553.187	228786
553.251	235678
553.314	233418
553.377	234435
553.440	252357
553.503	254638
553.567	251844
553.630	252195
553.693	250034
553.756	250537
553.819	244855
553.882	234848
553.945	238636
554.008	236249
554.071	240595
554.134	240373
554.197	227194
554.260	221504
554.323	228218
554.386	228725
554.449	240668
554.512	238250
554.575	228388
554.638	224943
554.701	223539
554.764	220533
554.827	212763
554.889	206038
554.952	193071
555.015	189518
555.078	193442
555.141	195691
555.203	190900
555.266	190342
555.329	188503
555.391	182714
555.454	180371
555.517	173217
555.580	170515
555.642	160763
555.705	157061
555.768	157239
555.830	154102
555.893	145658
555.955	142849
556.018	137501
556.080	142465
556.143	145069
556.206	142388
556.268	139569
556.330	135228
556.393	130239
556.455	126534
556.518	124754
556.580	120352
556.643	115658
556.705	113506
556.767	113726
556.830	110737
556.892	108174
556.955	106383
557.017	101978
557.079	104238
557.142	100786
557.204	100103
557.266	102347
557.328	92908
557.391	87141
557.453	86607
557.515	85540
557.577	86907
557.639	89272
557.701	91079
557.764	90643
557.826	94091
557.888	99208
557.950	103011
558.012	111598
558.074	145414
558.136	337570
558.198	693709
558.260	215660
558.322	108345
558.384	106845
558.446	112804
558.508	125671
558.570	143487
558.632	163755
558.694	206740
558.756	338294
558.818	880486
558.880	1519636
558.942	696610
559.003	767017
559.065	324493
559.127	153756
559.189	143475
559.251	155267
559.312	217594
559.374	504253
559.436	1230306
559.498	576875
559.559	176053
559.621	146186
559.683	160825
559.744	258238
559.806	754792
559.868	911064
559.929	222904
559.991	162489
560.052	269307
560.114	697251
560.176	381021
560.237	429396
560.299	578010
560.360	118197
560.422	59125
560.483	48822
560.545	45026
560.606	41806
560.667	39466
560.729	37472
560.790	35429
560.852	35659
560.913	33104
560.974	32968
561.036	32896
561.097	33063
561.158	31144
561.220	31675
561.281	29600
561.342	29085
561.403	29545
561.465	28703
561.526	30770
561.587	30499
561.648	26915
561.709	26248
561.771	27719
561.832	25566
561.893	24971
561.954	25369
562.015	24344
562.076	24194
562.137	24493
562.198	24599
562.259	24696
562.320	25063
562.381	25071
562.442	23961
562.503	22536
562.564	23003
562.625	22905
562.686	23161
562.747	21788
562.808	22311
562.869	21565
562.930	21488
562.991	20738
563.051	20568
563.112	20586
563.173	21015
563.234	19309
563.294	19996
563.355	19970
563.416	19547
563.477	19674
563.537	18953
563.598	19920
563.659	19594
563.720	18474
563.780	19275
563.841	18985
563.901	19502
563.962	18954
564.023	18481
564.083	18499
564.144	18256
564.204	18054
564.265	18272
564.325	17709
564.386	17495
564.446	17838
564.507	17237
564.567	17143
564.628	17158
564.688	17471
564.749	16730
564.809	17332
564.869	18363
564.930	17485
564.990	17804
565.050	16745
565.111	17351
565.171	17095
565.231	16976
565.292	17999
565.352	16974
565.412	17205
565.472	16056
565.532	16377
565.593	16247
565.653	15869
565.713	16533
565.773	16208
565.833	17446
565.893	18728
565.953	16578
566.013	16370
566.074	16209
566.134	15946
566.194	14762
566.254	16069
566.314	16256
566.374	15114
566.434	14868
566.494	15449
566.554	15291
566.614	16228
566.673	16199
566.733	17085
566.793	16461
566.853	16053
566.913	17030
566.973	15787
567.033	17200
567.092	16419
567.152	15755
567.212	17629
567.272	16868
567.331	17802
567.391	17281
567.451	18038
567.511	18128
567.570	17448
567.630	17702
567.690	16840
567.749	16413
567.809	16935
567.868	17345
567.928	16168
567.988	16000
568.047	17430
568.107	17217
568.166	17264
568.226	17295
568.285	18362
568.345	17593
568.404	17791
568.464	16482
568.523	16753
568.582	17777
568.642	17191
568.701	17558
568.761	16536
568.820	16850
568.879	17189
568.939	17720
568.998	17076
569.057	15565
569.116	17191
569.176	16367
569.235	16465
569.294	16919
569.353	15997
569.413	15979
569.472	15940
569.531	14683
569.590	14479
569.649	16431
569.708	14878
569.767	15904
569.827	15768
569.886	15256
569.945	15377
570.004	17077
570.063	16525
570.122	16907
570.181	15965
570.240	17076
570.299	16636
570.358	16812
570.417	17747
570.475	18647
570.534	17888
570.593	16288
570.652	17840
570.711	17558
570.770	15551
570.829	16814
570.887	17206
570.946	18331
571.005	17379
571.064	20605
571.122	22959
571.181	19718
571.240	18273
571.299	17133
571.357	16195
571.416	15578
571.475	17000
571.533	17991
571.592	18949
571.650	17943
571.709	19097
571.768	23283
571.826	23806
571.885	21359
571.943	18675
572.002	17664
572.060	16279
572.119	16584
572.177	17092
572.236	16868
572.294	17073
572.352	19565
572.411	19130
572.469	17833
572.528	15960
572.586	16494
572.644	16227
572.703	16261
572.761	15247
572.819	15956
572.877	14593
572.936	13023
572.994	14516
573.052	15400
573.110	14711
573.169	17394
573.227	17342
573.285	16942
573.343	17098
573.401	15303
573.459	15722
573.517	17063
573.576	19169
573.634	18055
573.692	17410
573.750	18722
573.808	15959
573.866	14544
573.924	14974
573.982	15385
574.040	14931
574.098	14785
574.155	15998
574.213	15372
574.271	15464
574.329	18591
574.387	16604
574.445	14002
574.503	13912
574.560	14803
574.618	13976
574.676	14751
574.734	14834
574.792	13969
574.849	13418
574.907	12089
574.965	11191
575.022	10943
575.080	11600
575.138	11756
575.195	11062
575.253	10990
575.311	11421
575.368	10997
575.426	11589
575.483	12625
575.541	12757
575.598	12177
575.656	12038
575.713	13710
575.771	14249
575.828	12577
575.886	11878
575.943	11515
576.001	10395
576.058	10463
576.115	10687
576.173	11629
576.230	10866
576.287	11829
576.345	11675
576.402	12697
576.459	13307
576.517	11082
576.574	11007
576.631	10835
576.688	10843
576.746	10204
576.803	10308
576.860	10070
576.917	9931
576.974	9903
577.031	11248
577.089	10641
577.146	9540
577.203	9906
577.260	10286
577.317	8811
577.374	8884
577.431	9234
577.488	9245
577.545	10052
577.602	9582
577.659	9725
577.716	10508
577.773	10293
577.830	9456
577.886	10718
577.943	9137
578.000	8655
578.057	8707
578.114	10539
578.171	9663
578.227	9851
578.284	9892
578.341	10118
578.398	9511
578.454	9604
578.511	9671
578.568	10439
578.625	9358
578.681	10098
578.738	9222
578.794	9626
578.851	10390
578.908	10080
578.964	9698
579.021	10189
579.077	10157
579.134	10144
579.190	10706
579.247	10835
579.303	10135
579.360	9272
579.416	10210
579.473	9908
579.529	9111
579.586	10419
579.642	10922
579.698	10710
579.755	10459
579.811	10404
579.867	9932
579.924	9625
579.980	9297
580.036	10478
580.093	10352
580.149	10484
580.205	10948
580.261	10765
580.317	11867
580.374	12076
580.430	11569
580.486	11454
580.542	10411
580.598	11256
580.619	11428
580.654	11742
580.692	11607
580.710	11565
580.765	11637
580.767	11654
580.823	11840
580.838	12033
580.879	12594
580.911	12545
580.935	12552
580.984	12062
580.991	12010
581.047	11979
581.057	11938
581.103	11848
581.130	11854
581.159	11864
581.203	10988
581.215	10779
581.270	11223
581.276	11124
581.326	10217
581.349	10234
581.382	10347
581.422	10311
581.438	10272
581.494	10406
581.494	10389
581.550	9729
581.567	10058
581.606	10641
581.640	10603
581.661	10691
581.713	11585
581.717	11653
581.773	10476
581.786	10398
581.829	10246
581.859	10642
581.885	10991
581.932	11278
581.940	11342
581.996	11755
582.004	11698
582.052	11290
582.077	11050
582.107	10910
582.150	11175
582.163	11189
582.219	9986
582.223	9936
582.274	9683
582.296	9480
582.330	9132
582.368	9734
582.386	10068
582.441	10270
582.441	10273
582.497	10375
582.514	10124
582.552	9927
582.587	10016
582.608	9967
582.659	10113
582.663	10138
582.719	10736
582.732	10650
582.774	10242
582.805	10334
582.830	10582
582.877	10646
582.885	10609
582.941	10090
582.950	9984
582.996	9552
583.023	9740
583.052	10045
583.095	10065
583.107	10068
583.162	9945
583.168	10014
583.218	10228
583.240	9639
583.273	9057
583.313	9153
583.328	9167
583.384	10227
583.385	10195
583.439	9253
583.458	9353
583.494	9545
583.531	9147
583.549	8995
583.603	9822
583.605	9837
583.660	9440
583.676	9505
583.715	9920
583.748	9558
583.770	9212
583.820	9461
583.825	9486
583.881	9553
583.893	9404
583.936	8922
583.965	9066
583.991	9128
584.038	9578
584.046	9686
584.101	9330
584.110	9474
584.156	10069
584.183	9739
584.211	9331
584.255	10037
584.266	10279
584.321	9727
584.328	9819
584.376	10413
584.400	10473
584.431	10470
584.472	10529
584.486	10503
584.541	10813
584.545	10839
584.596	11412
584.617	11402
584.651	11513
584.689	12059
584.706	12188
584.761	12361
584.762	12373
584.816	12851
584.834	13187
584.871	14061
584.906	14470
584.926	14550
584.978	15897
584.980	15961
585.035	18612
585.051	19226
585.090	20522
585.123	22759
585.145	24248
585.195	27749
585.200	28098
585.254	33812
585.267	35745
585.309	41947
585.340	46182
585.364	49283
585.412	56486
585.419	57611
585.473	70391
585.484	74661
585.528	94360
585.556	118921
585.583	152975
585.628	252471
585.637	279159
585.692	570184
585.700	612273
585.747	775906
585.772	614204
585.801	379974
585.845	152418
585.856	112149
585.910	58508
585.917	55031
585.965	39314
585.989	33954
586.019	28410
586.061	25382
586.074	24486
586.128	22215
586.133	22101
586.183	20927
586.205	20300
586.237	19119
586.277	18708
586.292	18750
586.346	18599
586.349	18623
586.401	18393
586.421	18554
586.455	18412
586.493	18028
586.509	18120
586.564	18528
586.565	18584
586.618	20081
586.637	21483
586.672	24713
586.709	28252
586.727	29720
586.781	33056
586.781	33005
586.835	23864
586.853	21813
586.889	18583
586.925	17331
586.944	16919
586.996	17445
586.998	17444
587.052	17385
587.068	17472
587.106	17244
587.140	17023
587.161	17109
587.212	17659
587.215	17626
587.269	17541
587.284	17471
587.323	17840
587.356	18303
587.377	18418
587.427	18886
587.431	18912
587.485	19825
587.499	19980
587.539	19852
587.571	19969
587.593	20539
587.643	22403
587.648	22398
587.702	21291
587.715	21238
587.755	21834
587.786	22156
587.810	22008
587.858	21724
587.864	21695
587.917	21739
587.930	21856
587.971	21951
588.001	22067
588.025	21966
588.073	21410
588.079	21377
588.133	21600
588.145	21769
588.187	21983
588.217	22236
588.241	22677
588.288	23745
588.295	23809
588.348	23968
588.360	24284
588.402	24909
588.431	24983
588.456	25289
588.503	26651
588.510	26858
588.564	29601
588.575	30268
588.617	32154
588.646	33134
588.671	33944
588.718	36468
588.725	37107
588.778	44560
588.789	47075
588.832	69219
588.861	89390
588.886	127982
588.932	220888
588.939	229431
588.993	283408
589.004	276322
589.047	141651
589.075	71028
589.100	51957
589.147	35312
589.154	34610
589.207	32141
589.218	31833
589.261	31289
589.290	31414
589.314	32346
589.361	35518
589.368	36666
589.421	49161
589.433	53052
589.475	90840
589.504	123553
589.528	163393
589.576	249736
589.582	243070
589.635	115901
589.647	92392
589.689	49363
589.718	29007
589.742	27073
589.790	24739
589.795	24519
589.849	23355
589.861	23245
589.902	22546
589.932	21956
589.955	21920
590.004	22229
590.009	22175
590.062	21971
590.075	22003
590.115	21574
590.146	21287
590.168	21335
590.218	21857
590.222	21790
590.275	21566
590.289	21421
590.328	21879
590.360	22725
590.381	22647
590.431	22240
590.435	22224
590.488	22744
590.503	23088
590.541	22879
590.574	22558
590.594	22805
590.645	24113
590.647	24084
590.700	24438
590.716	24607
590.753	24520
590.787	24932
590.806	25530
590.859	27118
590.859	27065
590.912	27631
590.930	27943
590.965	27435
591.001	27127
591.018	27002
591.071	26586
591.072	26649
591.124	25762
591.143	25703
591.177	26434
591.214	27381
591.230	27213
591.283	26764
591.285	26810
591.336	26546
591.356	26577
591.389	26490
591.427	26531
591.442	26348
591.495	25980
591.498	26019
591.547	25982
591.569	26133
591.600	26655
591.640	27354
591.653	27259
591.706	27250
591.711	27331
591.759	28237
591.782	28806
591.811	28822
591.853	28983
591.864	29137
591.917	30306
591.924	30540
591.969	29798
591.995	29525
592.022	29521
592.066	29766
592.075	29848
592.127	30937
592.137	31213
592.180	30970
592.208	30961
592.233	31147
592.279	31793
592.285	31852
592.338	33164
592.350	33571
592.390	32789
592.421	32331
592.443	32843
592.491	34372
592.495	34202
592.548	33277
592.562	33133
592.600	33252
592.633	33571
592.653	33316
592.704	32760
592.705	32972
592.775	34493
592.846	34112
592.916	35872
592.987	35897
593.058	36616
593.128	35969
593.199	38103
593.270	38119
593.341	39365
593.411	40584
593.482	41958
593.553	43142
593.623	42836
593.694	44844
593.764	46038
593.835	44344
593.906	44762
593.976	46271
594.047	47580
594.117	50643
594.188	50812
594.258	49991
594.329	51152
594.399	52724
594.470	54430
594.540	54777
594.611	57459
594.681	56716
594.751	56955
594.822	59960
594.892	60559
594.963	62790
595.033	65580
595.103	66548
595.174	67805
595.244	68983
595.314	71737
595.384	73337
595.455	76337
595.525	78540
595.595	81511
595.665	81018
595.736	78962
595.806	81456
595.876	80694
595.946	82091
596.016	86050
596.087	88564
596.157	89698
596.227	89545
596.297	95129
596.367	101266
596.437	108740
596.507	106518
596.577	105813
596.647	111128
596.717	116600
596.787	118398
596.857	118652
596.927	118979
596.997	119163
597.067	119058
597.137	123193
597.207	123574
597.277	123187
597.347	119794
597.417	115263
597.487	115082
597.557	117879
597.626	121367
597.696	122716
597.766	121976
597.836	113940
597.906	109179
597.975	106882
598.045	108874
598.115	114380
598.185	123045
598.254	140059
598.324	150448
598.394	153935
598.464	146424
598.533	145020
598.603	133417
598.672	129175
598.742	132310
598.812	133160
598.881	136928
598.951	135078
599.020	138340
599.090	145136
599.159	147329
599.229	140327
599.299	137388
599.368	142900
599.437	137548
599.507	126433
599.576	122609
599.646	120834
599.715	118950
599.785	118194
599.854	113167
599.924	112827
599.993	110734
600.062	114287
600.132	116285
600.201	126528
600.270	146609
600.340	154062
600.409	149598
600.478	150325
600.547	153325
600.617	137519
600.686	106490
600.755	97792
600.824	89939
600.894	90622
600.963	90078
601.032	87690
601.101	82912
601.170	80941
601.239	76864
601.308	76628
601.378	77198
601.447	77520
601.516	77973
601.585	79231
601.654	79385
601.723	80777
601.792	81257
601.861	84598
601.930	87293
601.999	89295
602.068	88444
602.137	88518
602.206	89842
602.275	92652
602.343	92467
602.412	94377
602.481	95055
602.550	95906
602.619	97149
602.688	100518
602.756	99361
602.825	102519
602.894	105398
602.963	107135
603.032	109048
603.100	109964
603.169	108992
603.238	111413
603.307	111511
603.375	113266
603.444	115251
603.513	117579
603.581	118941
603.650	119914
603.719	118508
603.787	122669
603.856	125422
603.924	129496
603.993	134212
604.061	140896
604.130	146475
604.198	150042
604.267	153664
604.335	154123
604.404	156359
604.472	160753
604.541	160702
604.609	163075
604.678	162754
604.746	164160
604.815	167646
604.883	170549
604.951	171009
605.020	175441
605.088	179378
605.156	184766
605.225	186794
605.293	187073
605.361	186659
605.429	189531
605.498	192574
605.566	198755
605.634	208906
605.702	217477
605.771	224833
605.839	225323
605.907	219734
605.975	210346
606.043	208896
606.111	208351
606.180	206714
606.248	205401
606.316	203690
606.384	202108
606.452	206564
606.520	213584
606.588	221302
606.656	222728
606.724	218172
606.792	205050
606.860	182732
606.928	168028
606.996	159362
607.064	156241
607.132	162740
607.200	173700
607.267	178775
607.335	181506
607.403	186828
607.471	179784
607.539	174546
607.607	174718
607.674	151753
607.742	152946
607.810	148380
607.878	150739
607.946	155288
608.013	163191
608.081	166179
608.149	167177
608.216	173215
608.284	179377
608.352	179161
608.419	177875
608.487	173461
608.555	170674
608.622	175889
608.690	189079
608.757	210063
608.825	212883
608.893	207643
608.960	194066
609.028	184083
609.095	187515
609.163	185448
609.230	164427
609.298	150493
609.365	160807
609.432	175107
609.500	190270
609.567	219977
609.635	251476
609.702	261599
609.769	247451
609.837	187777
609.904	163811
609.971	165275
610.039	179922
610.106	217203
610.173	357529
610.241	687630
610.308	383677
610.375	195189
610.442	175548
610.509	168395
610.577	169937
610.644	172679
610.711	180621
610.778	183201
610.845	193224
610.912	204835
610.980	212004
611.047	210759
611.114	208044
611.181	201836
611.248	201453
611.315	215298
611.382	218587
611.449	227909
611.516	230186
611.583	226559
611.650	228375
611.717	230237
611.784	234245
611.851	241913
611.918	249849
611.984	279071
612.051	351595
612.118	567764
612.185	1075509
612.252	682165
612.319	322828
612.386	290131
612.452	270660
612.519	258062
612.586	253486
612.653	261389
612.719	269413
612.786	258337
612.853	242468
612.919	239025
612.986	241993
613.053	227063
613.120	213057
613.186	204266
613.253	209433
613.319	205807
613.386	209203
613.453	211413
613.519	213395
613.586	207300
613.652	212239
613.719	208473
613.785	213743
613.852	215121
613.918	213908
613.985	217325
614.051	224512
614.118	221260
614.184	213860
614.250	212560
614.317	218870
614.383	215293
614.449	220019
614.516	218612
614.582	221423
614.648	214800
614.715	214523
614.781	209051
614.847	210906
614.914	207639
614.980	203669
615.046	202878
615.112	209313
615.179	210575
615.245	215350
615.311	210277
615.377	213444
615.443	214835
615.509	218840
615.575	225081
615.642	222198
615.708	226453
615.774	236079
615.840	243588
615.906	252056
615.972	285403
616.038	376771
616.104	654176
616.170	1181054
616.236	918625
616.302	402579
616.368	342139
616.434	267473
616.500	255041
616.565	277905
616.631	328719
616.697	279063
616.763	288427
616.829	400740
616.895	643966
616.961	563234
617.026	284884
617.092	232968
617.158	224670
617.224	220815
617.289	202943
617.355	196020
617.421	193677
617.487	194206
617.552	184781
617.618	182976
617.684	183275
617.749	186724
617.815	177526
617.880	173861
617.946	173997
618.012	178739
618.077	180633
618.143	173037
618.208	175601
618.274	189684
618.339	188982
618.405	156082
618.470	157557
618.536	157239
618.601	152907
618.667	141724
618.732	135552
618.798	134143
618.863	134559
618.928	133868
618.994	135130
619.059	133798
619.124	134494
619.190	131954
619.255	133151
619.320	133529
619.386	134026
619.451	130804
619.516	128659
619.581	131557
619.647	134681
619.712	136572
619.777	129512
619.842	130654
619.907	134754
619.972	135544
620.038	133036
620.103	130308
620.168	130656
620.233	133049
620.298	132930
620.363	135089
620.428	138230
620.493	143022
620.558	142685
620.623	146447
620.688	144822
620.753	144926
620.818	146491
620.883	149014
620.948	148259
621.013	143884
621.078	141252
621.143	143540
621.207	146366
621.272	143226
621.337	136539
621.402	138457
621.467	135887
621.532	137729
621.596	137057
621.661	133318
621.726	131867
621.791	133500
621.855	133216
621.920	131781
621.985	134599
622.049	138082
622.114	136049
622.179	140982
622.243	141761
622.308	147103
622.373	153672
622.437	148796
622.502	140313
622.566	140550
622.631	138731
622.695	144325
622.760	140324
622.824	141500
622.889	142016
622.953	141501
623.018	151593
623.082	152930
623.147	149909
623.211	147528
623.276	144595
623.340	141711
623.404	137386
623.469	138255
623.533	138575
623.597	135944
623.662	135992
623.726	124911
623.790	116885
623.854	115580
623.919	116627
623.983	120161
624.047	120244
624.111	122869
624.176	123491
624.240	123926
624.304	128066
624.368	124292
624.432	124772
624.496	126059
624.560	134117
624.625	133628
624.689	131976
624.753	141385
624.817	133095
624.881	130191
624.945	117377
625.009	113849
625.073	116658
625.137	121039
625.201	125114
625.265	126027
625.329	121907
625.393	123249
625.456	122241
625.520	127273
625.584	127237
625.648	132599
625.712	134624
625.776	131580
625.839	123029
625.903	104184
625.967	97022
626.031	107549
626.095	127040
626.158	115531
626.222	89826
626.286	85534
626.349	83105
626.413	76585
626.477	76604
626.540	78261
626.604	76482
626.668	74994
626.731	73059
626.795	73888
626.858	73997
626.922	72951
626.986	72839
627.049	72203
627.113	75962
627.176	72724
627.240	71137
627.303	70689
627.366	68737
627.430	71213
627.493	69775
627.557	67188
627.620	69396
627.684	71541
627.747	73447
627.810	64916
627.874	58857
627.937	56555
628.000	60664
628.064	57811
628.127	51705
628.190	51381
628.253	48968
628.317	48151
628.380	44482
628.443	43677
628.506	43632
628.569	41896
628.632	39333
628.696	40318
628.759	39342
628.822	37509
628.885	36141
628.948	37492
629.011	35878
629.074	34833
629.137	32868
629.200	32295
629.263	32777
629.326	30627
629.389	31301
629.452	32353
629.515	30613
629.578	30996
629.641	31720
629.704	30429
629.767	29728
629.830	29698
629.892	28960
629.955	28305
630.018	31481
630.081	27345
630.144	29347
630.207	27275
630.269	28482
630.332	27265
630.395	27742
630.458	26181
630.520	23787
630.583	26512
630.646	26067
630.708	26732
630.771	26241
630.834	29581
630.896	26807
630.959	27634
631.021	26904
631.084	27765
631.146	27159
631.209	28297
631.272	26252
631.334	28376
631.397	27968
631.459	27548
631.522	28997
631.584	29027
631.646	30928
631.709	32627
631.771	31646
631.834	31102
631.896	29129
631.958	27927
632.021	27619
632.083	25578
632.145	26526
632.208	25115
632.270	26968
632.332	24888
632.395	24530
632.457	27123
632.519	23854
632.581	27406
632.643	24146
632.706	25356
632.768	23516
632.830	25673
632.892	25192
632.954	24854
633.016	26655
633.078	26087
633.141	25842
633.203	25265
633.265	24437
633.327	25582
633.389	24152
633.451	26226
633.513	23688
633.575	26071
633.637	24451
633.698	25617
633.760	27348
633.822	28918
633.884	28439
633.946	29553
634.008	29136
634.070	30221
634.132	31045
634.193	34608
634.255	37087
634.317	38717
634.379	37229
634.441	32690
634.502	29781
634.564	27511
634.626	26155
634.687	25635
634.749	23458
634.811	24288
634.873	23025
634.934	23648
634.996	24626
635.057	23344
635.119	24432
635.181	25846
635.242	25437
635.304	23684
635.365	27157
635.427	24019
635.488	24447
635.550	24101
635.611	24493
635.673	22761
635.734	27420
635.796	27216
635.857	29675
635.918	31445
635.980	34664
636.041	36613
636.102	39134
636.164	39310
636.225	38293
636.286	31119
636.348	29087
636.409	26912
636.470	23981
636.531	25751
636.593	22826
636.654	24335
636.715	22126
636.776	22539
636.838	21404
636.899	22113
636.960	20757
637.021	21689
637.082	20142
637.143	20960
637.204	19211
637.265	20150
637.326	21099
637.387	21399
637.448	18854
637.509	21545
637.570	20141
637.631	21294
637.692	19032
637.753	19100
637.814	19573
637.875	20319
637.936	19933
637.997	18231
638.058	18346
638.119	19540
638.179	19788
638.240	19410
638.301	18403
638.362	18954
638.423	18206
638.483	19430
638.544	15987
638.605	18869
638.666	16892
638.726	18407
638.787	17437
638.848	17617
638.908	17517
638.969	17707
639.030	16076
639.090	16678
639.151	16124
639.211	18190
639.272	17444
639.332	17635
639.393	18290
639.453	18218
639.514	18366
639.574	17455
639.635	15758
639.695	17445
639.756	15039
639.816	16896
639.877	15924
639.937	16676
639.997	16397
640.058	15455
640.118	14767
640.178	17606
640.239	14999
640.299	16157
640.359	15044
640.420	17380
640.480	18310
640.540	21685
640.600	20639
640.661	19462
640.721	16193
640.781	18429
640.841	13570
640.901	17502
640.961	16259
641.021	17512
641.082	16735
641.142	15989
641.202	16310
641.262	14292
641.322	16104
641.382	14352
641.442	15364
641.502	15480
641.562	15735
641.622	15393
641.682	17193
641.742	19464
641.802	16928
641.861	16046
641.921	13990
641.981	15477
642.041	14161
642.101	13639
642.161	12641
642.221	13912
642.280	13269
642.340	13891
642.400	13802
642.460	15069
642.519	13735
642.579	14472
642.639	14834
642.698	12707
642.758	16619
642.818	14805
642.877	13132
642.937	15374
642.997	14278
643.056	15452
643.116	12376
643.175	16456
643.235	14423
643.294	15882
643.354	16630
643.414	18774
643.473	19329
643.532	22654
643.592	28603
643.651	46823
643.711	76501
643.770	147489
643.830	347743
643.889	598861
643.948	150674
644.008	40697
644.067	25038
644.126	20028
644.186	17192
644.245	17424
644.304	14094
644.363	17099
644.423	13185
644.482	15235
644.541	16068
644.600	14819
644.659	19095
644.719	23868
644.778	35102
644.837	61233
644.896	124386
644.955	260923
645.014	73218
645.073	21985
645.132	16563
645.191	16883
645.250	14988
645.309	18295
645.368	17840
645.427	25675
645.486	41568
645.545	67471
645.604	19635
645.663	14834
645.722	14010
645.781	16042
645.840	17712
645.898	21139
645.957	29029
646.016	41757
646.075	72300
646.134	140265
646.192	370435
646.251	444918
646.310	77070
646.369	29396
646.427	25237
646.486	18534
646.545	14872
646.603	14595
646.662	13952
646.721	14898
646.779	12248
646.838	13230
646.896	17455
646.955	23065
647.014	37136
647.072	72024
647.131	185297
647.189	73666
647.248	15478
647.306	12632
647.365	11486
647.423	9401
647.481	11419
647.540	9737
647.598	10988
647.657	10860
647.715	10364
647.773	8031
647.832	10273
647.890	8115
647.948	8379
648.007	9861
648.065	6932
648.123	8015
648.181	8976
648.240	8590
648.298	6749
648.356	8748
648.414	7957
648.472	7681
648.531	7665
648.589	7504
648.647	6183
648.705	7458
648.763	7406
648.821	7236
648.879	8108
648.937	9450
648.995	11008
649.053	12844
649.111	21016
649.169	34172
649.227	62017
649.285	134153
649.343	349510
649.401	138189
649.459	20846
649.516	14765
649.574	10421
649.632	11643
649.690	12478
649.748	16935
649.806	23360
649.863	48308
649.921	136885
649.979	74082
650.037	11539
650.094	6654
650.152	7699
650.210	6039
650.268	6947
650.325	6205
650.383	3837
650.440	4425
650.498	5262
650.556	4556
650.613	5049
650.671	6035
650.728	4846
650.786	5598
650.843	8289
650.901	5242
650.958	4448
651.016	4069
651.073	4184
651.131	4363
651.188	4111
651.246	4749
651.303	2638
651.360	4930
651.418	2976
651.475	4667
651.532	3080
651.590	4791
651.647	3293
651.704	4051
651.762	3576
651.819	4138
651.876	3045
651.933	3952
651.990	4141
652.048	2776
652.105	1727
652.162	3875
652.219	3131
652.276	4287
652.333	2597
652.390	2694
652.448	3197
652.505	3356
652.562	2308
652.619	3402
652.676	2728
652.733	3978
652.790	2361
652.847	2418
652.904	3337
652.961	1424
653.017	2614
653.074	3336
653.131	2815
653.188	1939
653.245	1856
653.302	2786
653.359	2392
653.415	4351
653.472	1892
653.529	3389
653.586	1329
653.642	3316
653.699	3377
653.756	2286
653.813	2869
653.869	4122
653.926	2739
653.983	2641
654.039	3586
654.096	2833
654.152	3618
654.209	1580
654.266	2449
654.322	1956
654.379	2032
654.435	3286
654.492	1769
654.548	2282
654.605	2246
654.661	3504
654.717	1731
654.774	2728
654.830	2899
654.887	3085
654.943	1475
655.000	2870
655.056	2522
655.112	3332
655.168	2792
655.225	3901
655.281	2781
655.337	2267
655.394	2084
655.450	3405
655.506	1829
655.562	1609
655.618	2923
655.675	1692
655.731	2806
655.787	2523
655.843	2163
655.899	2340
655.955	3002
656.011	3071
656.067	1526
656.123	2787
656.179	1944
656.235	3804
656.291	670
656.347	4016
656.403	1173
656.459	1774
656.515	1932
656.571	2546
656.627	2220
656.683	2507
656.739	2659
656.795	2720
656.850	2421
656.906	3066
656.962	2898
657.018	2671
657.074	4268
657.129	6231
657.185	9682
657.241	24417
657.297	9689
657.352	3394
657.408	2238
657.464	2479
657.519	1240
657.575	2357
657.630	930
657.686	2119
657.742	797
657.797	1278
657.853	1215
657.908	3388
657.964	942
658.019	2021
658.075	2149
658.130	2498
658.186	881
658.241	2573
658.297	313
658.352	1254
658.407	1420
658.463	1572
658.518	2055
658.573	1243
658.629	1304
658.684	785
658.739	1905
658.795	1454
658.850	1972
658.905	1118
658.960	1769
659.016	1995
659.071	997
659.126	1872
659.181	507
659.236	3205
659.291	2538
659.346	1063
659.401	859
659.457	1707
659.512	30
659.567	2518
659.622	1200
659.677	1918
659.732	170
659.787	1590
659.842	731
659.897	389
659.952	1395
660.007	1857
660.061	1388
660.116	22
660.171	674
660.226	1986
660.281	1426
660.336	750
660.391	2243
660.445	141
660.500	1177
660.555	1487
660.610	459
660.664	1740
660.719	62
660.774	1818
660.828	1278
660.883	901
660.938	401
660.992	599
661.047	740
661.101	832
661.156	776
661.211	649
661.265	526
661.320	1024
661.374	948
661.429	821
661.483	1121
661.538	35
661.592	336
661.647	1976
661.701	260
661.755	1457
661.810	757
661.864	754
661.919	562
661.973	1828
662.027	779
662.081	478
662.136	988
662.190	524
662.244	1000
662.299	724
662.353	474
662.407	134
662.461	161
662.515	387
662.569	268
662.624	1166
662.678	-492
662.732	646
662.786	-212
662.840	934
662.894	-16
662.948	1304
663.002	772
663.056	335
663.110	66
663.164	876
663.218	654
663.272	519
663.326	591
663.380	404
663.434	547
663.488	255
663.542	621
663.595	1921
663.649	-114
663.703	686
663.757	673
663.811	1236
663.864	414
663.918	729
663.972	301
664.026	1079
664.079	-285
664.133	1139
664.187	847
664.240	1316
664.294	35
664.348	225
664.401	-466
664.455	1702
664.508	798
664.562	903
664.615	-65
664.669	535
664.722	826
664.776	1047
664.829	212
664.883	596
664.936	135
664.990	521
665.043	1105
665.097	1055
665.150	336
665.203	2036
665.257	149
665.310	593
665.363	1351
665.417	2088
665.470	859
665.523	989
665.576	1395
665.630	526
665.683	598
665.736	1260
665.789	614
665.842	282
665.895	568
665.949	1749
666.002	1284
666.055	887
666.108	1085
666.161	1498
666.214	980
666.267	1093
666.320	1610
666.373	1156
666.426	369
666.479	1938
666.532	298
666.585	1980
666.638	1529
666.691	1343
666.744	1338
666.796	854
666.849	432
666.902	1468
666.955	665
667.008	773
667.060	887
667.113	1634
667.166	1507
667.219	2212
667.271	1703
667.324	1465
667.377	1448
667.430	1827
667.482	1077
667.535	1281
667.587	1521
667.640	1323
667.693	1043
667.745	1110
667.798	1548
667.850	618
667.903	2325
667.955	1746
668.008	786
668.060	1045
668.113	942
668.165	1306
668.218	708
668.270	914
668.322	2077
668.375	1744
668.427	1022
668.479	1421
668.532	1757
668.584	1215
668.636	867
668.689	2134
668.741	465
668.793	1863
668.845	1015
668.898	1848
668.950	676
669.002	856
669.054	342
669.106	1017
669.158	1021
669.211	1127
669.263	1351
669.315	1291
669.367	1530
669.419	1841
669.471	1802
669.523	1369
669.575	691
669.627	691
669.679	512
669.731	1940
669.783	1017
669.835	1690
669.886	585
669.938	1663
669.990	1564
670.042	1604
670.094	1146
670.146	1280
670.197	413
670.249	1810
670.301	528
670.353	2332
670.404	1939
670.456	1873
670.508	2298
670.560	5469
670.611	6784
670.663	12536
670.715	34033
670.766	48138
670.818	11020
670.869	4792
670.921	1767
670.972	2789
671.024	1670
671.075	1805
671.127	1053
671.178	1052
671.230	2030
671.281	2613
671.333	2280
671.384	4179
671.436	4277
671.487	7010
671.538	10678
671.590	18610
671.641	30679
671.692	63127
671.744	120096
671.795	71387
671.846	22385
671.897	9227
671.949	6041
672.000	4950
672.051	2874
672.102	3530
672.153	1679
672.204	2247
672.256	1565
672.307	1987
672.358	1386
672.409	863
672.460	807
672.511	558
672.562	209
672.613	765
672.664	524
672.715	1510
672.766	602
672.817	828
672.868	351
672.919	1605
672.970	-283
673.021	936
673.071	-99
673.122	1064
673.173	882
673.224	680
673.275	194
673.326	1416
673.376	1162
673.427	719
673.478	-86
673.528	1317
673.579	1063
673.630	1153
673.680	1315
673.731	1361
673.782	131
673.832	842
673.883	404
673.934	875
673.984	658
674.035	1546
674.085	-288
674.136	1466
674.186	677
674.237	952
674.287	239
674.338	1362
674.388	361
674.438	635
674.489	299
674.539	1742
674.589	751
674.640	1226
674.690	1087
674.740	1442
674.791	3
674.841	181
674.891	185
674.942	832
674.992	200
675.042	307
675.092	333
675.142	-167
675.193	-344
675.243	29
675.293	246
675.343	335
675.393	480
675.443	516
675.493	-200
675.543	667
675.593	-218
675.643	160
675.693	-21
675.743	382
675.793	-314
675.843	346
675.893	-426
675.943	975
675.993	-1312
676.043	-616
676.093	-212
676.142	279
676.192	-354
676.242	472
676.292	-386
676.341	889
676.391	-188
676.441	-374
676.491	-488
676.540	85
676.590	54
676.640	226
676.689	41
676.739	-1075
676.789	-1103
676.838	467
676.888	-613
676.937	-660
676.987	-231
677.037	84
677.086	-1135
677.136	33
677.185	-260
677.235	-152
677.284	-521
677.333	-507
677.383	-660
677.432	-1144
677.482	-527
677.531	-385
677.580	-22
677.630	348
677.679	-1455
677.728	-247
677.778	-545
677.827	-272
677.876	-912
677.925	143
677.975	-197
678.024	-362
678.073	-147
678.122	582
678.171	-6
678.220	427
678.269	495
678.319	396
678.368	457
678.417	2
678.466	249
678.515	664
678.564	-803
678.613	-662
678.662	-691
678.711	404
678.760	-985
678.809	-246
678.857	-714
678.906	326
678.955	44
679.004	387
679.053	-778
679.102	-891
679.151	-1313
679.199	-500
679.248	-1163
679.297	-51
679.346	-1090
679.394	-409
679.443	-1421
679.492	642
679.540	-524
679.589	-936
679.638	-1784
679.686	300
679.735	-218
679.784	-80
679.832	314
679.881	-90
679.929	-843
679.978	-778
680.026	-365
680.075	322
680.123	-867
680.172	-694
680.220	-759
680.268	139
680.317	-797
680.365	-707
680.414	-871
680.462	-899
680.510	-895
680.559	-423
680.607	-1594
680.655	-194
680.703	-429
680.752	-849
680.800	-1045
680.848	-315
680.896	-807
680.945	-293
680.993	-1080
681.041	-617
681.089	-770
681.137	282
681.185	-828
681.233	-888
681.258	-658
681.281	-467
681.329	-306
681.377	-715
681.380	-670
681.425	-295
681.473	-46
681.502	-176
681.521	-321
681.569	118
681.617	359
681.624	171
681.665	-1244
681.713	69
681.745	-83
681.761	-193
681.809	280
681.857	282
681.867	278
681.904	127
681.952	138
681.989	343
682.000	376
682.048	205
682.096	536
682.111	314
682.143	-243
682.191	80
682.233	653
682.239	707
682.286	845
682.334	670
682.354	646
682.382	581
682.430	1015
682.476	1084
682.477	1062
682.525	671
682.572	347
682.598	155
682.620	-50
682.667	1301
682.715	1491
682.720	1517
682.763	1454
682.810	10
682.841	1159
682.857	1748
682.905	754
682.952	2413
682.963	2293
683.000	1741
683.047	1949
683.085	1411
683.095	1246
683.142	1591
683.190	765
683.206	1266
683.237	2114
683.284	1819
683.328	1455
683.332	1399
683.379	1557
683.426	1759
683.449	1770
683.473	1811
683.521	1968
683.568	1865
683.571	1917
683.615	2268
683.662	2138
683.693	2111
683.709	2023
683.757	1779
683.804	2409
683.814	2310
683.851	1959
683.898	2789
683.936	2030
683.945	1838
683.992	2823
684.039	2083
684.057	2436
684.086	2934
684.133	2231
684.179	2992
684.180	2999
684.227	2608
684.274	2962
684.300	2813
684.321	2696
684.368	2933
684.415	2861
684.422	2899
684.462	3027
684.509	2532
684.543	3131
684.556	3308
684.603	2690
684.649	3961
684.665	3860
684.696	3656
684.743	3412
684.786	3430
684.790	3417
684.837	3551
684.883	3535
684.908	3845
684.930	4130
684.977	3652
685.023	3958
685.029	3891
685.070	3278
685.117	3949
685.150	3833
685.164	3739
685.210	4526
685.257	4166
685.272	4149
685.303	4156
685.350	4086
685.393	4450
685.396	4458
685.443	3802
685.490	4375
685.514	4006
685.536	3746
685.583	4362
685.629	3965
685.636	4005
685.675	4159
685.722	4081
685.757	4234
685.768	4275
685.815	3919
685.861	4364
685.878	4383
685.908	4477
685.954	4437
686.000	4234
686.000	4222
686.047	5172
686.093	4936
686.121	5156
686.139	5295
686.185	4764
686.232	5661
686.242	5450
686.278	4694
686.324	5406
686.363	4889
686.370	4796
686.416	4969
686.463	4997
686.484	5187
686.509	5407
686.555	4761
686.601	5254
686.606	5289
686.647	5493
686.693	5360
686.727	5275
686.739	5264
686.785	5464
686.831	5236
686.848	5239
686.877	5246
686.923	4889
686.969	6248
686.969	6255
687.015	5647
687.061	5950
687.090	6154
687.107	6149
687.153	6590
687.199	6321
687.211	6201
687.245	5975
687.291	5584
687.332	5776
687.336	5819
687.382	5879
687.428	6471
687.453	6748
687.474	6802
687.520	6668
687.565	6293
687.574	6224
687.611	6173
687.657	6373
687.695	7196
687.702	7331
687.748	6660
687.794	7163
687.816	6977
687.839	6722
687.885	7026
687.931	6806
687.937	6770
687.976	6710
688.022	6574
688.058	7150
688.067	7291
688.113	6590
688.158	6986
688.179	6807
688.204	6691
688.249	6960
688.295	7458
688.300	7535
688.340	7935
688.386	7268
688.421	7127
688.431	7106
688.477	6916
688.522	7740
688.542	7681
688.567	7747
688.613	8165
688.658	7936
688.663	7981
688.703	8161
688.749	7795
688.784	8165
688.794	8274
688.839	7533
688.884	8534
688.905	8033
688.930	7392
688.975	7584
689.020	7752
689.026	7668
689.065	7453
689.110	7890
689.146	8016
689.155	8025
689.201	7677
689.246	8287
689.267	8091
689.291	7895
689.336	8084
689.381	7898
689.388	7937
689.426	8329
689.471	8660
689.509	8600
689.516	8551
689.561	8209
689.606	8067
689.630	7986
689.651	8065
689.696	8247
689.741	8370
689.750	8458
689.785	8918
689.830	8576
689.871	8921
689.875	8917
689.920	8677
689.965	8409
689.992	7973
690.010	7857
690.054	8033
690.099	8047
690.112	8087
690.144	8242
690.189	8196
690.233	8132
690.233	8145
690.278	7997
690.323	8655
690.354	8737
690.367	8775
690.412	9044
690.457	8604
690.474	8926
690.501	9179
690.546	8143
690.590	8155
690.595	8029
690.635	7642
690.680	8085
690.716	8430
690.724	8484
690.769	8663
690.813	8790
690.836	8727
690.857	8855
690.902	8936
690.946	9512
690.957	9575
690.991	9895
691.035	10302
691.077	10767
691.080	10782
691.124	10434
691.168	10285
691.198	10537
691.213	10619
691.257	9744
691.301	9477
691.318	9255
691.346	9253
691.390	9315
691.434	9127
691.439	9149
691.478	9428
691.522	9451
691.559	9609
691.567	9698
691.611	9568
691.655	10190
691.680	10093
691.699	9888
691.743	10047
691.787	9806
691.800	9744
691.831	9772
691.875	10020
691.919	10000
691.921	9965
691.964	9517
692.008	10138
692.041	9652
692.052	9541
692.096	9581
692.139	10018
692.162	9840
692.183	9662
692.227	9631
692.271	9973
692.282	9904
692.315	9824
692.359	9776
692.402	9664
692.403	9686
692.447	9927
692.490	9970
692.523	10343
692.534	10427
692.578	10038
692.622	9849
692.643	9778
692.666	9831
692.709	10012
692.753	10216
692.763	10134
692.797	9929
692.840	9708
692.884	9971
692.884	9996
692.928	9830
692.971	10020
693.004	9778
693.015	9726
693.059	9753
693.102	10019
693.124	10013
693.146	10199
693.189	10018
693.233	10440
693.245	10508
693.276	10298
693.320	10006
693.363	9411
693.365	9375
693.407	9820
693.450	10205
693.485	10557
693.493	10640
693.537	10823
693.580	11141
693.605	11056
693.624	11010
693.667	11393
693.710	11587
693.725	11609
693.753	12087
693.797	12562
693.840	13346
693.845	13419
693.883	13035
693.926	12324
693.966	11666
693.970	11676
694.013	11602
694.056	11387
694.086	11333
694.099	11321
694.142	10817
694.185	10848
694.206	10654
694.229	10811
694.272	11433
694.315	11746
694.326	11752
694.358	11398
694.401	11239
694.444	11196
694.446	11133
694.487	10750
694.530	11036
694.566	10857
694.573	10936
694.616	11638
694.659	11885
694.686	12340
694.702	12432
694.745	12250
694.787	12342
694.806	12162
694.830	11970
694.873	11983
694.916	11708
694.926	11697
694.959	11996
695.002	11942
695.044	12091
695.046	12067
695.087	12391
695.130	12842
695.166	12839
695.172	12912
695.215	13212
695.258	13684
695.286	14074
695.301	14250
695.343	14437
695.386	14634
695.406	14758
695.428	15287
695.471	16170
695.514	16972
695.526	17212
695.556	18332
695.599	19566
695.641	21087
695.646	21174
695.684	20035
695.726	18931
695.766	17567
695.769	17575
695.811	17412
695.854	16887
695.886	16715
695.896	16800
695.938	16703
695.981	16610
696.005	16487
696.023	16967
696.065	18332
696.108	19503
696.125	19971
696.150	20370
696.192	20761
696.235	21298
696.245	21361
696.277	21468
696.319	21719
696.361	21886
696.365	21831
696.404	21165
696.446	20545
696.485	19937
696.488	20019
696.530	20216
696.572	20480
696.604	20701
696.614	20729
696.656	20624
696.698	20451
696.724	20392
696.740	20574
696.783	20656
696.825	21013
696.844	20999
696.867	21068
696.909	21203
696.951	21328
696.964	21331
696.992	21664
697.034	21986
697.076	22378
697.083	22372
697.118	22687
697.160	23042
697.202	23348
697.203	23296
697.244	23283
697.286	23180
697.323	22940
697.327	23014
697.369	23211
697.411	23286
697.442	23390
697.453	23460
697.494	23482
697.536	23443
697.562	23375
697.578	23391
697.620	23269
697.661	23139
697.682	22983
697.703	23387
697.744	24147
697.786	24944
697.801	25146
697.828	25166
697.869	24987
697.911	24904
697.921	24819
697.952	24849
697.994	24858
698.035	24730
698.040	24658
698.077	24701
698.118	24632
698.160	24585
698.160	24518
698.201	25548
698.243	26553
698.279	27333
698.284	27489
698.325	28282
698.367	29064
698.399	29597
698.408	29706
698.449	29838
698.491	29986
698.518	29978
698.532	30015
698.573	29923
698.614	29783
698.638	29654
698.656	29773
698.697	29825
698.738	29905
698.757	29844
698.779	29813
698.820	29633
698.862	29438
698.877	29292
698.903	29572
698.944	29881
698.985	30198
698.996	30205
699.026	29809
699.067	29152
699.116	28291
699.235	29906
699.354	27891
699.474	27299
699.593	26418
699.713	27571
699.832	27066
699.951	28671
700.070	28810
700.190	26815
700.309	25357
700.428	24802
700.547	23995
700.667	23671
700.786	25258
700.905	23779
701.024	23751
701.143	23741
701.262	25979
701.381	24797
701.500	25365
701.619	24491
701.738	24455
701.857	24998
701.976	22597
702.095	25005
702.214	24504
702.333	23257
702.452	25065
702.571	25168
702.690	24431
702.809	25478
702.928	23778
703.047	22063
703.165	22706
703.284	21781
703.403	22374
703.522	21097
703.640	21670
703.759	20870
703.878	20582
703.997	22063
704.115	21842
704.234	20583
704.353	22000
704.471	20312
704.590	19052
704.708	20141
704.827	19510
704.946	19495
705.064	19210
705.183	19289
705.301	19908
705.420	19056
705.538	18540
705.656	17075
705.775	17198
705.893	17826
706.012	16909
706.130	18080
706.249	18477
706.367	17253
706.485	17285
706.604	17266
706.722	16356
706.840	17950
706.958	18253
707.077	15981
707.195	16465
707.313	16752
707.431	15106
707.549	15874
707.668	15007
707.786	17278
707.904	15373
708.022	16509
708.140	14875
708.258	15468
708.376	16136
708.494	14493
708.612	16390
708.730	17323
708.848	15589
708.966	15865
709.084	15939
709.202	15154
709.320	14309
709.438	14592
709.556	14739
709.674	13604
709.791	14213
709.909	12812
710.027	13955
710.145	13588
710.263	13577
710.380	13143
710.498	13501
710.616	13643
710.733	12187
710.851	12892
710.969	13277
711.086	11851
711.204	13676
711.322	12572
711.439	12388
711.557	11320
711.674	12426
711.792	12560
711.909	12550
712.027	12212
712.144	11597
712.262	12304
712.379	10965
712.497	12730
712.614	11693
712.732	12634
712.849	11427
712.966	12575
713.084	12411
713.201	11059
713.318	11036
713.436	12336
713.553	12114
713.670	14435
713.787	12636
713.905	12092
714.022	12795
714.139	13563
714.256	18596
714.373	27859
714.490	54844
714.608	159025
714.725	627999
714.842	471875
714.959	48367
715.076	21278
715.193	17889
715.310	15366
715.427	10903
715.544	12635
715.661	11411
715.778	10921
715.895	10983
716.011	10910
716.128	11405
716.245	11592
716.362	12052
716.479	8605
716.596	10118
716.713	9524
716.829	9400
716.946	8547
717.063	9223
717.180	8812
717.296	9002
717.413	10004
717.530	8758
717.646	8434
717.763	8952
717.880	9252
717.996	8383
718.113	8199
718.229	8597
718.346	7445
718.462	8610
718.579	9086
718.695	8762
718.812	7994
718.928	8014
719.045	7981
719.161	8512
719.277	8979
719.394	9791
719.510	9348
719.626	11263
719.743	13429
719.859	23657
719.975	54544
720.092	232946
720.208	421377
720.324	43030
720.440	13435
720.557	10391
720.673	10134
720.789	8947
720.905	7839
721.021	7693
721.137	7844
721.253	7023
721.369	7457
721.486	7994
721.602	7234
721.718	7074
721.834	7358
721.950	6876
722.066	6831
722.181	6208
722.297	6915
722.413	6747
722.529	7042
722.645	6811
722.761	6169
722.877	6924
722.993	8680
723.108	11332
723.224	8399
723.340	7714
723.456	6879
723.571	6005
723.687	6216
723.803	6968
723.918	6523
724.034	6146
724.150	6920
724.265	6797
724.381	5709
724.497	6040
724.612	5602
724.728	6444
724.843	6110
724.959	6462
725.074	6895
725.190	6378
725.305	6027
725.421	5608
725.536	6444
725.651	6893
725.767	5424
725.882	5730
725.997	5628
726.113	5976
726.228	5933
726.343	5611
726.459	5523
726.574	5984
726.689	5477
726.804	6324
726.920	5900
727.035	5422
727.150	6098
727.265	5053
727.380	6213
727.495	6836
727.610	5254
727.725	5640
727.841	4922
727.956	5829
728.071	6135
728.186	5704
728.301	4705
728.416	6232
728.531	6382
728.645	4478
728.760	5222
728.875	5683
728.990	5288
729.105	5645
729.220	5989
729.335	5567
729.449	5447
729.564	5255
729.679	4921
729.794	5937
729.908	5356
730.023	6190
730.138	5400
730.253	6483
730.367	4543
730.482	5529
730.596	5066
730.711	7686
730.826	9897
730.940	7861
731.055	7049
731.169	7723
731.284	8429
731.398	7739
731.513	8095
731.627	9107
731.742	12975
731.856	15633
731.970	14339
732.085	20494
732.199	28847
732.313	54804
732.428	150370
732.542	426863
732.656	199398
732.771	38941
732.885	23672
732.999	20807
733.113	21610
733.227	20721
733.342	19061
733.456	18873
733.570	17068
733.684	17374
733.798	16273
733.912	16620
734.026	15947
734.140	15754
734.254	16051
734.368	15788
734.482	15971
734.596	15673
734.710	15465
734.824	14305
734.938	14785
735.052	15134
735.166	14395
735.280	14187
735.393	13822
735.507	14281
735.621	13494
735.735	13745
735.849	13993
735.962	13057
736.076	14278
736.190	13825
736.303	13247
736.417	13896
736.531	12146
736.644	12563
736.758	12598
736.872	12835
736.985	12706
737.099	12228
737.212	12066
737.326	12028
737.439	13407
737.553	10969
737.666	12307
737.780	11374
737.893	12573
738.007	11202
738.120	13052
738.233	10869
738.347	11773
738.460	10941
738.573	12856
738.687	11114
738.800	11193
738.913	12304
739.026	12400
739.140	10974
739.253	12115
739.366	11219
739.479	10220
739.592	10420
739.705	9456
739.818	11744
739.932	9566
740.045	12001
740.158	9892
740.271	10971
740.384	9733
740.497	9379
740.610	11091
740.723	9218
740.836	9490
740.949	10779
741.062	11212
741.174	9465
741.287	9283
741.400	10272
741.513	8899
741.626	10823
741.739	10056
741.851	9097
741.964	9965
742.077	9285
742.189	9004
742.302	9472
742.415	8971
742.527	8199
742.640	9423
742.753	7691
742.865	9861
742.978	8863
743.090	8447
743.203	8971
743.316	8318
743.428	9200
743.541	8925
743.653	7163
743.766	8101
743.878	8154
743.990	7275
744.103	9334
744.215	7619
744.327	7706
744.440	10127
744.552	7609
744.664	7112
744.777	8255
744.889	7363
745.001	8381
745.113	8526
745.226	6960
745.338	7411
745.450	9222
745.562	7265
745.674	6784
745.786	8198
745.898	7587
746.010	6541
746.122	7675
746.234	7356
746.347	7635
746.459	7325
746.570	6243
746.682	8194
746.794	7585
746.906	6948
747.018	7438
747.130	7515
747.242	6364
747.354	7141
747.466	6677
747.577	5712
747.689	7109
747.801	7439
747.913	5658
748.024	6358
748.136	6011
748.248	5877
748.359	7288
748.471	7124
748.583	5503
748.694	5656
748.806	6456
748.918	5685
749.029	5549
749.141	8038
749.252	6774
749.364	5374
749.475	6438
749.587	5571
749.698	5512
749.809	6748
749.921	6108
750.032	6281
750.144	4914
750.255	4933
750.366	6330
750.478	5850
750.589	5714
750.700	4822
750.811	5828
750.923	5490
751.034	5034
751.145	6403
751.256	4530
751.367	5249
751.479	5467
751.590	5191
751.701	5155
751.812	4732
751.923	5456
752.034	5706
752.145	5770
752.256	5289
752.367	5495
752.478	4934
752.589	6000
752.700	5566
752.811	5451
752.922	5819
753.032	5653
753.143	5555
753.254	4786
753.365	7049
753.476	6146
753.586	4884
753.697	5912
753.808	4790
753.919	4012
754.029	4716
754.140	4694
754.251	4802
754.361	4861
754.472	5040
754.582	4244
754.693	5692
754.804	6015
754.914	4879
755.025	4065
755.135	4838
755.246	5237
755.356	4264
755.466	4619
755.577	4891
755.687	4345
755.798	3937
755.908	4211
756.018	5029
756.129	4411
756.239	5379
756.349	6100
756.460	5137
756.570	6188
756.680	4235
756.790	5591
756.900	4427
757.011	4934
757.121	3000
757.231	4191
757.341	4926
757.451	3437
757.561	3944
757.671	4758
757.781	4036
757.891	3955
758.001	3689
758.111	4999
758.221	5395
758.331	6164
758.441	4911
758.551	4548
758.661	5335
758.771	4911
758.880	4415
758.990	4913
759.100	4372
759.210	5502
759.320	5806
759.429	5489
759.539	5346
759.649	5190
759.758	7057
759.868	7491
759.978	7280
760.087	8812
760.197	8050
760.307	7469
760.416	6496
760.526	6283
760.635	7181
760.745	7399
760.854	8477
760.964	9455
761.073	8518
761.182	7938
761.292	6354
761.401	5808
761.511	5694
761.620	4909
761.729	5178
761.839	3751
761.948	5133
762.057	4048
762.166	4159
762.276	3907
762.385	5707
762.494	4059
762.603	4258
762.712	4445
762.822	4549
762.931	4255
763.040	2633
763.149	3191
763.258	3837
763.367	4004
763.476	3682
763.585	3415
763.694	2834
763.803	3376
763.912	4343
764.021	3243
764.130	3807
764.238	4081
764.347	4915
764.456	4316
764.565	3911
764.674	3246
764.783	4040
764.891	3876
765.000	4448
765.109	3780
765.217	4069
765.326	4987
765.435	5797
765.543	5290
765.652	6371
765.761	6851
765.869	9470
765.978	11932
766.086	19469
766.195	39844
766.303	112669
766.412	297087
766.520	200942
766.629	49976
766.737	20467
766.846	12945
766.954	8255
767.062	7981
767.171	5395
767.279	6037
767.387	5059
767.496	4602
767.604	3800
767.712	4535
767.820	4282
767.928	4471
768.037	3995
768.145	4322
768.253	4417
768.361	3399
768.469	4231
768.577	3382
768.685	4596
768.793	4180
768.901	3955
769.009	4759
769.117	4267
769.225	5193
769.333	7380
769.441	10836
769.549	17833
769.657	41024
769.765	136293
769.873	231359
769.981	64576
770.088	16276
770.196	9607
770.304	7927
770.412	7299
770.519	6348
770.627	6853
770.735	5586
770.842	5568
770.950	4713
771.058	5854
771.165	6013
771.273	7740
771.380	7365
771.488	10896
771.595	11738
771.703	9806
771.810	9621
771.918	9823
772.025	12234
772.133	13050
772.240	12094
772.348	15175
772.455	13633
772.562	12179
772.670	11859
772.777	12740
772.884	12481
772.991	10831
773.099	11871
773.206	10847
773.313	11024
773.420	11903
773.528	11387
773.635	9834
773.742	10703
773.849	10942
773.956	11230
774.063	10392
774.170	10579
774.277	10590
774.384	10238
774.491	9580
774.598	10921
774.705	10464
774.812	9407
774.919	10960
775.026	10286
775.133	10950
775.239	10296
775.346	9367
775.453	9759
775.560	8841
775.667	10883
775.773	9695
775.880	11104
775.987	8937
776.093	9900
776.200	10958
776.307	7360
776.413	9150
776.520	11123
776.627	9139
776.733	8188
776.840	8180
776.946	12101
777.053	8781
777.159	8401
777.266	7800
777.372	8962
777.478	9134
777.585	9332
777.691	7814
777.798	9611
777.904	8316
778.010	8488
778.117	8773
778.223	7435
778.329	7741
778.435	7303
778.542	8763
778.648	7195
778.754	7183
778.860	7767
778.966	7680
779.072	7050
779.178	7294
779.284	6142
779.391	7278
779.497	7323
779.603	8514
779.708	6501
779.815	6826
779.920	8862
780.026	7865
780.132	7409
780.238	6709
780.344	5868
780.450	9377
780.556	5003
780.661	6006
780.767	8430
780.873	5667
780.979	5858
781.085	7035
781.190	6232
781.296	5898
781.402	5827
781.507	6284
781.613	5390
781.719	6499
781.824	7449
781.930	6525
782.035	7233
782.141	7496
782.246	4532
782.352	6639
782.457	5733
782.563	6010
782.668	5861
782.773	4577
782.879	4762
782.984	6181
783.090	5921
783.195	6197
783.300	6894
783.405	5624
783.511	4863
783.616	5259
783.721	5834
783.826	4491
783.932	5170
784.037	5709
784.142	6149
784.247	5032
784.352	5308
784.457	3688
784.562	5571
784.667	5883
784.772	4067
784.877	3677
784.982	6178
785.087	5611
785.192	4674
785.297	4305
785.402	4640
785.507	4710
785.611	4827
785.716	4166
785.821	5110
785.926	4254
786.031	4764
786.135	4273
786.240	4699
786.345	3122
786.450	4858
786.554	4225
786.659	3501
786.763	4402
786.868	4469
786.973	5092
787.077	4439
787.182	4527
787.286	5099
787.391	4595
787.495	2593
787.600	4254
787.704	3641
787.809	4519
787.913	3562
788.017	4961
788.122	4738
788.226	3318
788.330	1972
788.435	5556
788.539	5003
788.643	3769
788.747	2913
788.852	4353
788.956	3159
789.060	4927
789.164	4480
789.268	3068
789.372	4967
789.476	3701
789.580	2883
789.684	3391
789.788	4288
789.892	3660
789.996	2196
790.100	2947
790.204	4212
790.308	3817
790.412	3045
790.516	3243
790.620	2459
790.724	4783
790.828	3269
790.931	1560
791.035	4791
791.139	2701
791.242	2482
791.346	4223
791.450	4117
791.554	3116
791.657	1088
791.761	3806
791.864	3311
791.968	3997
792.072	3421
792.175	2570
792.279	2385
792.382	2590
792.486	3288
792.589	2772
792.693	3480
792.796	2686
792.899	3580
793.003	3821
793.106	1700
793.209	2876
793.313	3634
793.416	767
793.519	3592
793.623	4003
793.726	3094
793.829	2579
793.932	1663
794.035	2078
794.138	3641
794.242	4802
794.345	809
794.448	2308
794.551	1180
794.654	4338
794.757	4672
794.860	1966
794.963	3782
795.066	2237
795.169	3340
795.272	2838
795.375	4264
795.477	1729
795.580	2069
795.683	1410
795.786	3308
795.889	702
795.991	2957
796.094	2346
796.197	1202
796.300	4663
796.402	2404
796.505	2058
796.608	1381
796.710	2726
796.813	3760
796.915	2952
797.018	2404
797.120	2641
797.223	1852
797.326	3800
797.428	1340
797.530	2181
797.633	2317
797.735	3346
797.838	2579
797.940	3689
798.042	2255
798.145	2276
798.247	2615
798.349	1351
798.452	3640
798.554	2663
798.656	2114
798.758	3831
798.860	1846
798.962	2813
799.065	1720
799.167	1142
799.269	3266
799.371	3836
799.473	4586
799.575	2375
799.677	1845
799.779	3816
799.881	681
799.983	3783
800.085	2368
800.187	2435
800.289	563
800.390	2026
800.492	3620
800.594	3185
800.696	1782
800.798	2031
800.899	2427
801.001	2042
801.103	2601
801.205	2126
801.306	2239
801.408	1451
801.509	2603
801.611	1733
801.713	2348
801.814	878
801.916	969
802.017	993
802.119	294
802.220	2733
802.322	690
802.423	2359
802.525	442
802.626	1193
802.727	2211
802.829	2203
802.930	-360
803.031	2276
803.133	1322
803.234	1725
803.335	2142
803.436	650
803.538	2067
803.639	935
803.740	1981
803.841	1481
803.942	1913
804.043	1836
804.144	1356
804.245	1512
804.346	1176
804.447	1745
804.548	1867
804.649	2228
804.750	965
804.851	432
804.952	1372
805.053	1992
805.154	743
805.255	2440
805.355	2519
805.456	1360
805.557	1020
805.658	1217
805.758	2396
805.859	1540
805.960	2555
806.061	771
806.161	1190
806.262	1262
806.362	405
806.463	1332
806.564	2868
806.664	1806
806.765	361
806.865	1785
806.966	1302
807.066	992
807.166	2548
807.267	1456
807.367	1263
807.468	2107
807.568	515
807.668	1692
807.769	2358
807.869	1379
807.969	1586
808.069	1837
808.170	1710
808.270	798
808.370	2038
808.470	2006
808.570	488
808.670	1185
808.770	1810
808.870	1246
808.970	1621
809.070	1590
809.170	1778
809.271	1928
809.370	1253
809.470	2013
809.570	977
809.670	1002
809.770	1515
809.870	1842
809.970	709
810.070	1067
810.169	1738
810.269	430
810.369	2085
810.469	1419
810.568	1103
810.668	941
810.768	1426
810.867	2186
810.967	952
811.066	1889
811.166	1246
811.265	2125
811.365	828
811.464	882
811.564	1615
811.663	1118
811.763	-241
811.862	1816
811.962	2002
812.061	1802
812.160	155
812.260	1621
812.359	1414
812.458	1522
812.557	2978
812.657	852
812.756	2055
812.855	797
812.954	411
813.053	1214
813.153	1705
813.252	558
813.351	1192
813.450	1266
813.549	961
813.648	1743
813.747	-158
813.846	1707
813.945	1559
814.044	1438
814.143	2044
814.242	1384
814.341	915
814.439	1720
814.538	2270
814.637	2166
814.736	1555
814.835	2825
814.933	2335
815.032	3340
815.131	4321
815.229	8170
815.328	11408
815.427	7600
815.525	7104
815.624	6648
815.722	7043
815.821	7314
815.919	7048
816.018	6921
816.116	7562
816.215	6191
816.313	8043
816.412	9856
816.510	9781
816.609	11083
816.707	11852
816.805	9196
816.904	9127
817.002	10184
817.100	10473
817.198	11052
817.296	8826
817.395	9416
817.493	9534
817.591	8576
817.689	8108
817.787	8939
817.885	8767
817.983	8405
818.081	9690
818.179	9637
818.277	13802
818.375	10806
818.473	8768
818.571	7797
818.669	8260
818.767	10043
818.865	7460
818.963	7246
819.061	8646
819.158	8227
819.256	11561
819.354	11366
819.452	17604
819.549	10926
819.647	9702
819.745	6697
819.842	7706
819.940	7592
820.038	7103
820.135	6216
820.233	8491
820.330	6221
820.428	7013
820.525	8049
820.623	6541
820.720	6214
820.818	7506
820.915	7266
821.012	6407
821.110	5395
821.207	7831
821.304	6150
821.402	8163
821.499	7417
821.596	5999
821.693	6380
821.791	7426
821.888	7366
821.985	7934
822.082	5235
822.179	6886
822.276	6429
822.373	4935
822.470	5925
822.567	6679
822.664	4909
822.761	6924
822.858	5936
822.955	5043
823.052	5230
823.149	6909
823.246	6596
823.343	4499
823.440	5952
823.536	6748
823.633	5441
823.730	5327
823.827	6484
823.923	5573
824.020	5510
824.117	6240
824.213	6154
824.310	4290
824.407	4542
824.503	6828
824.600	4954
824.696	4602
824.793	7425
824.889	5587
824.986	4100
825.082	2848
825.179	4735
825.275	5893
825.371	6578
825.468	3437
825.564	2266
825.660	5990
825.757	6559
825.853	5225
825.949	2981
826.045	4274
826.142	5420
826.238	5252
826.334	5344
826.430	4652
826.526	3221
826.622	3648
826.718	5637
826.814	6280
826.910	4852
827.006	2135
827.102	2259
827.198	5275
827.294	5369
827.390	4779
827.486	3731
827.582	2518
827.678	2410
827.774	6374
827.869	2523
827.965	4113
828.061	3138
828.157	5411
828.252	4896
828.348	2951
828.444	4033
828.539	3576
828.635	4144
828.731	4368
828.826	3072
828.922	3667
829.017	4843
829.113	4518
829.208	2796
829.304	3631
829.399	6243
829.495	3858
829.590	4497
829.685	4095
829.781	4116
829.876	4043
829.971	1310
830.066	1999
830.162	3629
830.257	5946
830.352	3162
830.447	3583
830.543	3727
830.638	3986
830.733	5244
830.828	3243
830.923	4371
831.018	4505
831.113	4526
831.208	2100
831.303	2942
831.398	2952
831.493	3464
831.588	5242
831.683	2487
831.778	2610
831.873	2511
831.967	4806
832.062	4144
832.157	3169
832.252	2961
832.346	2916
832.441	4714
832.536	3338
832.631	3566
832.725	2994
832.820	3086
832.914	3848
833.009	2484
833.104	1961
833.198	2668
833.293	2423
833.387	4446
833.482	3562
833.576	2369
833.670	2308
833.765	3390
833.859	3596
833.954	4452
834.048	3759
834.142	2255
834.237	1502
834.331	3126
834.425	3162
834.519	2464
834.613	2239
834.708	1915
834.802	2372
834.896	2725
834.990	3360
835.084	1747
835.178	1463
835.272	2777
835.366	3401
835.460	4072
835.554	2078
835.648	1815
835.742	798
835.836	2241
835.930	2155
836.024	3447
836.117	2749
836.211	1826
836.305	2176
836.399	1808
836.493	2117
836.586	3123
836.680	2451
836.774	1728
836.867	2196
836.961	1229
837.055	2259
837.148	1244
837.242	3056
837.335	2116
837.429	2162
837.522	2420
837.616	1787
837.709	2263
837.803	1908
837.896	4134
837.989	2568
838.083	2224
838.176	1824
838.269	1136
838.363	3095
838.456	1686
838.549	3079
838.642	1458
838.735	1461
838.829	1854
838.922	1385
839.015	1607
839.108	1083
839.201	2065
839.294	2653
839.387	1178
839.480	556
839.573	1641
839.666	1555
839.759	1456
839.852	1292
839.945	1806
840.038	1371
840.131	727
840.223	1130
840.316	2045
840.409	1721
840.502	2973
840.594	2853
840.687	-290
840.780	1265
840.873	228
840.965	1071
841.058	2127
841.150	2061
841.243	41
841.336	1902
841.428	1376
841.521	921
841.613	1799
841.706	1737
841.798	1423
841.890	1309
841.983	1428
842.075	1265
842.167	1380
842.260	2472
842.352	2235
842.444	796
842.537	300
842.629	1602
842.721	1096
842.813	1594
842.905	1152
842.997	1809
843.090	1399
843.182	2047
843.274	559
843.366	1091
843.458	1586
843.550	1378
843.642	770
843.734	2079
843.826	375
843.918	1480
844.009	1836
844.101	1306
844.193	1588
844.285	1558
844.377	2107
844.469	1280
844.560	413
844.652	1485
844.744	1281
844.835	1258
844.927	1295
845.019	1071
845.110	1082
845.202	1509
845.293	979
845.385	744
845.476	1194
845.568	2767
845.659	388
845.751	1721
845.842	654
845.934	1274
846.025	910
846.116	1175
846.208	1365
846.299	902
846.390	1708
846.482	1280
846.573	1848
846.664	1006
846.755	1108
846.846	737
846.937	131
847.029	1242
847.120	873
847.211	1198
847.302	2351
847.393	356
847.484	1584
847.575	400
847.666	-25
847.757	527
847.847	398
847.938	1134
848.029	1288
848.120	1071
848.211	462
848.302	186
848.392	238
848.483	2203
848.574	935
848.664	1178
848.755	723
848.846	867
848.936	522
849.027	2170
849.118	1601
849.208	403
849.299	3476
849.389	6413
849.480	12283
849.570	23931
849.661	49334
849.751	70781
849.841	21139
849.932	3273
850.022	1716
850.112	1843
850.203	637
850.293	1366
850.383	902
850.474	825
850.564	316
850.654	-18
850.744	331
850.834	806
850.924	1201
851.014	1489
851.104	807
851.194	1
851.284	1113
851.374	658
851.464	1317
851.554	849
851.644	484
851.734	782
851.824	611
851.914	1011
852.004	1814
852.094	710
852.183	1275
852.273	942
852.363	582
852.452	1616
852.542	1275
852.632	1182
852.721	999
852.811	526
852.901	2578
852.990	2024
853.080	1268
853.169	1924
853.259	1971
853.348	3313
853.438	3363
853.527	5326
853.617	7153
853.706	14607
853.795	25085
853.885	51633
853.974	91117
854.063	166905
854.152	199875
854.242	77432
854.331	21689
854.420	10053
854.509	6856
854.598	5412
854.687	4754
854.777	4107
854.866	2023
854.955	3203
855.044	1171
855.133	2002
855.222	1108
855.311	1265
855.400	1416
855.488	1837
855.577	787
855.666	1288
855.755	1390
855.844	1880
855.933	1757
856.021	1274
856.110	1345
856.199	229
856.288	743
856.376	776
856.465	833
856.554	1325
856.642	1232
856.731	1313
856.819	1690
856.908	989
856.996	1131
857.085	849
857.173	332
857.262	372
857.350	533
857.438	379
857.527	881
857.615	1122
857.703	1596
857.792	233
857.880	460
857.968	374
858.056	1064
858.145	980
858.233	350
858.321	195
858.409	853
858.497	230
858.585	463
858.673	798
858.761	106
858.849	337
858.937	1001
859.025	1599
859.113	1600
859.201	1135
859.289	1391
859.377	261
859.465	1068
859.552	443
859.640	222
859.728	1068
859.816	993
859.903	600
859.991	-162
860.079	254
860.166	709
860.254	497
860.342	922
860.429	976
860.517	615
860.604	627
860.692	465
860.779	-482
860.867	566
860.954	99
861.042	1066
861.129	2056
861.216	1015
861.304	1175
861.391	260
861.478	976
861.565	1076
861.653	1598
861.740	41
861.827	388
861.914	643
862.001	941
862.089	1392
862.176	821
862.263	691
862.350	1145
862.437	675
862.524	333
862.611	178
862.698	1347
862.785	1092
862.871	1964
862.958	1579
863.045	460
863.132	1749
863.219	1163
863.306	-49
863.392	1075
863.479	994
863.566	966
863.652	2038
863.739	1608
863.826	1134
863.912	1518
863.999	597
864.086	1672
864.172	1721
864.259	1691
864.345	2405
864.432	2410
864.518	1800
864.604	2650
864.691	2322
864.777	2382
864.863	3709
864.950	5268
865.036	8204
865.122	13444
865.209	13206
865.295	11474
865.381	10866
865.467	10921
865.553	13068
865.639	15252
865.726	20543
865.812	35912
865.898	58396
865.984	83846
866.070	148100
866.156	125774
866.242	40866
866.328	16749
866.414	13128
866.499	11275
866.585	10861
866.671	10186
866.757	10654
866.843	9212
866.928	8401
867.014	8225
867.100	8787
867.186	8638
867.271	8707
867.357	7801
867.442	7313
867.528	8148
867.614	7773
867.699	7988
867.785	8269
867.870	6671
867.956	7435
868.041	8058
868.127	6941
868.212	7593
868.297	7797
868.383	8049
868.468	6653
868.553	7832
868.639	7506
868.724	7761
868.809	6566
868.894	7509
868.979	7218
869.065	6135
869.150	5505
869.235	6802
869.320	7588
869.405	6249
869.490	7683
869.575	6843
869.660	5826
869.745	7570
869.830	8496
869.915	6485
870.000	5809
870.085	6172
870.169	8238
870.254	7644
870.339	4897
870.424	5143
870.509	6532
870.593	7770
870.678	7043
870.763	5791
870.847	5400
870.932	6623
871.016	6925
871.101	5002
871.186	6662
871.270	7996
871.355	4222
871.439	5811
871.523	6448
871.608	3815
871.692	5062
871.777	7493
871.861	6666
871.945	5228
872.030	6602
872.114	5267
872.198	4678
872.282	5137
872.367	5525
872.451	5263
872.535	4543
872.619	5815
872.703	4593
872.787	6348
872.871	5381
872.955	4180
873.039	4426
873.123	5535
873.207	5665
873.291	3479
873.375	4217
873.459	5807
873.543	4860
873.627	4533
873.711	4822
873.794	6596
873.878	4202
873.962	3903
874.045	4507
874.129	4603
874.137	4663
874.213	5264
874.245	4885
874.296	4275
874.352	3545
874.380	3190
874.460	4203
874.464	4244
874.547	3575
874.568	3903
874.631	4880
874.676	4794
874.714	4711
874.784	4831
874.798	4858
874.881	3928
874.892	3857
874.965	3425
874.999	4171
875.048	5129
875.107	4447
875.131	4188
875.215	3336
875.215	3335
875.298	2205
875.323	2862
875.381	4522
875.430	5447
875.465	6048
875.538	4186
875.548	3928
875.631	2642
875.646	2597
875.714	2385
875.753	2762
875.798	3298
875.861	4575
875.881	4918
875.964	3284
875.968	3274
876.047	3321
876.076	3603
876.130	3996
876.183	4484
876.213	4827
876.291	4827
876.296	4810
876.379	3668
876.398	3670
876.462	3686
876.506	3285
876.545	2977
876.613	3529
876.628	3683
876.711	3632
876.721	3749
876.794	4491
876.828	4430
876.877	4218
876.935	3393
876.960	3110
877.043	3242
877.043	3243
877.125	3778
877.150	4284
877.208	5075
877.258	3968
877.291	3275
877.365	2984
877.374	2939
877.456	3109
877.472	3067
877.539	3297
877.579	3849
877.622	4134
877.687	4080
877.704	4161
877.787	3340
877.794	3431
877.869	4371
877.901	4076
877.952	3339
878.008	2277
878.034	1849
878.115	2853
878.117	2877
878.199	2779
878.222	3052
878.282	3844
878.329	4401
878.364	4757
878.437	4599
878.447	4504
878.529	2004
878.544	1955
878.611	2261
878.651	2699
878.694	3289
878.758	3732
878.776	3750
878.858	3406
878.865	3386
878.941	3048
878.972	2791
879.023	2486
879.078	2857
879.105	3247
879.185	3932
879.187	3937
879.269	3720
879.292	3821
879.351	3870
879.399	3345
879.433	3018
879.506	3438
879.516	3516
879.598	3431
879.613	3293
879.680	2591
879.720	3253
879.762	4128
879.827	3863
879.844	3703
879.926	3833
879.933	3819
880.007	3891
880.040	3869
880.089	3758
880.147	5056
880.171	5802
880.253	8379
880.254	8388
880.335	9781
880.360	10822
880.417	14674
880.467	20556
880.499	24664
880.574	27362
880.580	26698
880.662	11154
880.680	8792
880.744	4567
880.787	3617
880.825	3648
880.893	3689
880.907	3629
880.989	2926
881.000	2904
881.070	3679
881.106	3747
881.152	3291
881.213	2443
881.233	2243
881.315	2925
881.319	2912
881.396	3226
881.426	3223
881.478	3107
881.532	3780
881.559	4073
881.639	3359
881.641	3331
881.722	3229
881.745	3062
881.803	3410
881.852	3530
881.885	3152
881.958	2184
881.966	2179
882.047	3350
882.064	3295
882.129	2396
882.171	2004
882.210	1907
882.277	2120
882.291	2205
882.372	2873
882.383	2937
882.454	3784
882.489	4038
882.535	3873
882.596	3925
882.616	3986
882.697	3367
882.702	3357
882.778	2574
882.808	2230
882.859	2231
882.914	2426
882.940	2562
883.020	2895
883.021	2902
883.102	3585
883.127	3666
883.183	4077
883.233	4197
883.264	3600
883.339	2441
883.345	2396
883.426	1512
883.445	1477
883.507	2338
883.551	2814
883.587	3144
883.657	4145
883.668	4257
883.749	4162
883.763	4104
883.830	2622
883.869	1879
883.910	1771
883.975	1902
883.991	2058
884.072	2929
884.081	3034
884.152	4327
884.187	4706
884.233	4659
884.292	4476
884.314	3960
884.394	1779
884.398	1696
884.475	1453
884.504	1380
884.555	1617
884.610	1895
884.636	2241
884.716	3286
884.716	3297
884.797	4577
884.821	4776
884.877	3981
884.927	3386
884.958	3098
885.033	2322
885.038	2279
885.118	1687
885.139	1580
885.199	2304
885.244	2783
885.279	2759
885.350	2962
885.359	3220
885.439	5462
885.456	5663
885.520	3356
885.561	2307
885.600	2128
885.667	2036
885.680	2215
885.760	2893
885.773	2996
885.840	2323
885.878	2178
885.920	2644
885.984	3111
886.000	3193
886.080	3283
886.089	3329
886.160	3788
886.195	3846
886.240	3627
886.300	3477
886.320	3514
886.400	3528
886.406	3528
886.480	2819
886.511	2531
886.560	2380
886.616	2021
886.640	2139
886.720	2812
886.722	2821
886.800	2497
886.827	2447
886.879	2901
886.932	3162
886.959	3338
887.038	3877
887.039	3881
887.119	3709
887.143	3680
887.198	3417
887.248	3100
887.278	3067
887.354	3091
887.358	3085
887.437	2740
887.459	2660
887.517	3548
887.564	4148
887.596	3257
887.669	1399
887.676	1371
887.755	920
887.774	830
887.835	1469
887.880	2048
887.914	2545
887.985	3252
887.994	3357
888.073	4495
888.090	4681
888.153	4798
888.195	4834
888.232	3895
888.300	2190
888.311	2226
888.391	2515
888.405	2558
888.470	1847
888.510	1378
888.549	1928
888.615	3037
888.628	3085
888.708	3139
888.720	3146
888.787	3407
888.825	3536
888.866	2774
888.930	1644
888.945	1923
889.024	3380
889.035	3566
889.103	3647
889.140	3687
889.182	2980
889.245	1932
889.261	2133
889.340	3091
889.349	3199
889.419	2443
889.454	2046
889.498	2178
889.559	2386
889.577	2614
889.656	3598
889.664	3693
889.735	3349
889.768	3172
889.814	3396
889.873	3680
889.978	2746
890.083	2476
890.187	3091
890.292	3923
890.397	2638
890.501	2586
890.606	1859
890.710	3006
890.815	4030
890.919	2644
891.024	2725
891.128	2336
891.233	1707
891.337	3483
891.442	2996
891.546	2724
891.650	1695
891.755	1463
891.859	3403
891.963	4547
892.068	2683
892.172	2470
892.276	828
892.380	3004
892.484	3830
892.589	4452
892.693	2277
892.797	1638
892.901	1793
893.005	2113
893.109	3827
893.213	3550
893.317	2252
893.421	2419
893.525	878
893.629	1623
893.733	3379
893.837	2184
893.941	2007
894.045	2442
894.148	672
894.252	2395
894.356	2841
894.460	4658
894.564	2152
894.667	1988
894.771	1493
894.875	2063
894.978	1768
895.082	3489
895.186	3916
895.289	2271
895.393	1232
895.496	3736
895.600	2904
895.703	1395
895.807	2153
895.910	2142
896.014	2101
896.117	1833
896.221	1649
896.324	2832
896.427	1517
896.531	1253
896.634	1366
896.737	2537
896.840	2520
896.944	3132
897.047	3186
897.150	1898
897.253	1539
897.356	817
897.460	1132
897.563	1592
897.666	2608
897.769	3411
897.872	1226
897.975	1756
898.078	1624
898.181	1001
898.284	1505
898.387	3551
898.490	3236
898.593	2506
898.695	1111
898.798	2233
898.901	953
899.004	2213
899.107	1912
899.209	2323
899.312	3502
899.415	2027
899.518	866
899.620	706
899.723	985
899.826	1694
899.928	1688
900.031	2154
900.133	2903
900.236	1753
900.338	1374
900.441	1756
900.543	1508
900.646	2784
900.748	1440
900.851	2784
900.953	1467
901.055	1818
901.158	1544
901.260	1261
901.362	1384
901.465	1263
901.567	2156
901.669	3160
901.771	1004
901.873	1569
901.976	1275
902.078	2363
902.180	1043
902.282	1184
902.384	1676
902.486	3134
902.588	2467
902.690	918
902.792	1300
902.894	1401
902.996	2855
903.098	3029
903.200	1256
903.302	2109
903.404	969
903.505	1259
903.607	1263
903.709	3068
903.811	3402
903.913	2003
904.014	730
904.116	900
904.218	1320
904.319	2042
904.421	3115
904.523	2874
904.624	2022
904.726	880
904.827	506
904.929	1357
905.030	1237
905.132	3737
905.233	2282
905.335	716
905.436	596
905.537	1641
905.639	1351
905.740	1514
905.841	1877
905.943	2140
906.044	1242
906.145	579
906.247	575
906.348	1381
906.449	546
906.550	2333
906.651	1654
906.752	1325
906.854	729
906.955	1616
907.056	2085
907.157	2944
907.258	2670
907.359	1444
907.460	620
907.561	1384
907.662	132
907.762	1670
907.863	1978
907.964	2779
908.065	1947
908.166	1572
908.267	949
908.367	1099
908.468	114
908.569	2332
908.670	2592
908.770	2121
908.871	1476
908.971	2526
909.072	1375
909.173	1553
909.273	1259
909.374	2170
909.474	1287
909.575	1400
909.675	837
909.776	2363
909.876	1197
909.977	1531
910.077	1635
910.177	2720
910.278	2066
910.378	1609
910.478	885
910.579	3303
910.679	1971
910.779	2684
910.879	2792
910.980	2062
911.080	1931
911.180	1323
911.280	1453
911.380	1194
911.480	1062
911.580	1162
911.680	1959
911.780	2660
911.880	2330
911.980	1115
912.080	1542
912.180	3413
912.280	783
912.380	1548
912.480	258
912.580	1455
912.679	858
912.779	2566
912.879	1555
912.979	684
913.078	394
913.178	1302
913.278	196
913.377	1460
913.477	992
913.577	784
913.676	1890
913.776	2212
913.875	1852
913.975	2079
914.074	1721
914.174	2453
914.273	-277
914.373	2180
914.472	1627
914.572	567
914.671	584
914.770	1323
914.870	1053
914.969	1003
915.068	1589
915.167	2181
915.267	843
915.366	2308
915.465	867
915.564	1685
915.663	2185
915.763	2189
915.862	2463
915.961	2857
916.060	537
916.159	1998
916.258	1538
916.357	1066
916.456	1347
916.555	1592
916.654	1709
916.752	2411
916.851	1121
916.950	1509
917.049	205
917.148	1098
917.247	1555
917.345	1947
917.444	265
917.543	2050
917.642	2533
917.740	1759
917.839	2920
917.937	3219
918.036	2981
918.135	1903
918.233	1171
918.332	1562
918.430	1426
918.529	2138
918.627	1676
918.726	3197
918.824	2646
918.923	2151
919.021	1406
919.119	1409
919.218	1319
919.316	2340
919.414	1907
919.512	2421
919.611	2078
919.709	2438
919.807	1423
919.905	3871
920.003	2155
920.102	2925
920.200	2757
920.298	3480
920.396	2983
920.494	3012
920.592	1684
920.690	2912
920.788	2613
920.886	3088
920.984	3127
921.082	4030
921.180	4016
921.277	4370
921.375	4467
921.473	6991
921.571	6263
921.669	5565
921.766	4341
921.864	6116
921.962	5065
922.060	5436
922.157	5320
922.255	6267
922.352	5247
922.450	6924
922.548	5917
922.645	8058
922.743	9995
922.840	16558
922.938	18954
923.035	15827
923.133	15914
923.230	17678
923.327	21473
923.425	20748
923.522	18772
923.619	18990
923.717	15286
923.814	16389
923.911	15347
924.008	16232
924.106	14169
924.203	15012
924.300	15419
924.397	15759
924.494	15654
924.591	15793
924.688	13577
924.786	15530
924.883	15492
924.979	15164
925.077	15105
925.173	14221
925.270	14137
925.367	15473
925.464	16239
925.561	16473
925.658	17727
925.755	14022
925.852	15801
925.948	14818
926.045	14596
926.142	15489
926.239	15547
926.335	12864
926.432	14622
926.529	15351
926.625	15291
926.722	12907
926.818	12459
926.915	14801
927.011	14702
927.108	13470
927.204	14742
927.301	12662
927.397	12832
927.494	16613
927.590	10183
927.687	10889
927.783	16037
927.879	15338
927.976	12289
928.072	12080
928.168	13565
928.264	14763
928.361	12144
928.457	14803
928.553	11806
928.649	12777
928.745	13346
928.841	11076
928.937	13089
929.033	12913
929.129	12084
929.225	14380
929.321	11894
929.417	10173
929.513	13185
929.609	10882
929.705	10038
929.801	13946
929.897	10523
929.993	10860
930.089	12241
930.184	11706
930.280	12104
930.376	15955
930.471	10981
930.567	9927
930.663	11580
930.758	10088
930.854	10830
930.950	10455
931.045	9933
931.141	9894
931.236	14379
931.332	12032
931.427	7978
931.523	13572
931.618	11136
931.714	7751
931.809	9446
931.905	12586
932.000	8502
932.095	7001
932.191	12644
932.286	14170
932.381	10271
932.476	8201
932.572	10306
932.667	8808
932.762	8706
932.857	10936
932.952	12290
933.047	10300
933.142	7996
933.237	10717
933.332	11081
933.427	11870
933.522	9469
933.617	8380
933.712	8603
933.807	12232
933.902	12313
933.997	12473
934.092	7912
934.187	8650
934.282	10341
934.376	9991
934.471	10017
934.566	8620
934.661	8609
934.755	10546
934.850	11466
934.945	8567
935.039	8077
935.134	7679
935.228	8749
935.323	14310
935.417	8526
935.512	6181
935.606	6023
935.701	10132
935.795	9656
935.890	9870
935.984	6574
936.079	5907
936.173	7485
936.267	8400
936.362	5993
936.456	8490
936.550	11250
936.644	9216
936.738	6369
936.833	7014
936.927	4673
937.021	7901
937.115	9170
937.209	9974
937.303	7697
937.397	6204
937.491	6806
937.585	10211
937.679	8344
937.773	6055
937.867	5964
937.961	6140
938.055	9987
938.149	9852
938.243	5258
938.337	4683
938.430	5493
938.524	9630
938.618	6577
938.712	5566
938.805	6142
938.899	8781
938.993	9964
939.086	6405
939.180	3299
939.274	5212
939.367	8897
939.461	9387
939.554	6921
939.648	5975
939.741	5259
939.835	6870
939.928	10278
940.022	8833
940.115	6657
940.208	8339
940.302	9321
940.395	10611
940.488	5720
940.582	6491
940.675	4925
940.768	5542
940.861	8123
940.954	9405
941.048	5481
941.141	4706
941.234	5497
941.327	5951
941.420	7339
941.513	7369
941.606	5710
941.699	6325
941.792	9001
941.885	6642
941.978	6990
942.071	7835
942.164	4294
942.257	4616
942.349	5645
942.442	7309
942.535	4296
942.628	5345
942.721	6253
942.813	6565
942.906	6497
942.999	6297
943.091	3638
943.184	6004
943.277	5733
943.369	4645
943.462	4010
943.554	5201
943.647	5842
943.739	7381
943.832	7345
943.924	3541
944.017	2950
944.109	3927
944.201	5617
944.294	5555
944.386	5527
944.478	5352
944.571	4165
944.663	6063
944.755	5463
944.847	6980
944.940	4881
945.032	3547
945.124	3710
945.216	5418
945.308	4853
945.400	5366
945.492	4353
945.584	6561
945.676	6902
945.768	5352
945.860	6307
945.952	6850
946.044	5364
946.136	4047
946.228	4151
946.320	4360
946.412	5861
946.503	6336
946.595	6571
946.687	3801
946.779	2410
946.870	4268
946.962	3733
947.054	4003
947.145	5863
947.237	4560
947.329	4641
947.420	5499
947.512	5680
947.603	2737
947.695	3049
947.786	3840
947.878	3843
947.969	5979
948.061	5053
948.152	5397
948.243	2498
948.335	2655
948.426	2483
948.517	3668
948.609	4900
948.700	4841
948.791	4881
948.882	2864
948.973	2577
949.065	4772
949.156	4354
949.247	2940
949.338	3941
949.429	2271
949.520	2755
949.611	3919
949.702	6169
949.793	4211
949.884	4429
949.975	4359
950.066	1754
950.157	3525
950.247	3032
950.338	2877
950.429	2767
950.520	3479
950.611	2416
950.701	4745
950.792	5658
950.883	5017
950.973	4029
951.064	4954
951.155	4711
951.245	5214
951.336	4352
951.427	6042
951.517	5590
951.608	4867
951.698	3385
951.788	2789
951.879	2323
951.969	2809
952.060	3100
952.150	4811
952.240	5416
952.331	4390
952.421	4773
952.511	2186
952.602	1704
952.692	2387
952.782	3010
952.872	3478
952.962	2761
953.052	3029
953.143	2147
953.233	4298
953.323	3039
953.413	4054
953.503	4637
953.593	3776
953.683	3110
953.773	2516
953.863	1821
953.953	1687
954.042	2940
954.132	4465
954.222	3910
954.312	2719
954.402	2627
954.492	3379
954.581	3459
954.671	3641
954.761	3005
954.850	4473
954.940	1953
955.030	2048
955.119	2294
955.209	2492
955.298	2789
955.388	3942
955.477	5066
955.567	2604
955.656	2255
955.746	2770
955.835	1724
955.925	2352
956.014	3443
956.103	4069
956.193	5638
956.282	5252
956.371	2891
956.461	3258
956.550	2989
956.639	4047
956.728	2107
956.817	2863
956.906	1839
956.995	4178
957.085	1524
957.174	2400
957.263	3130
957.352	2787
957.441	2345
957.530	2632
957.619	1844
957.708	2689
957.796	2751
957.885	2902
957.974	2026
958.063	3708
958.152	1007
958.241	2842
958.329	1525
958.418	2643
958.507	2198
958.596	4153
958.684	2062
958.773	3731
958.861	2117
958.950	1926
959.039	1940
959.127	2670
959.216	2743
959.304	2952
959.393	2214
959.481	3287
959.570	1548
959.658	2167
959.746	738
959.835	2515
959.923	3010
960.011	2394
960.100	2008
960.188	2791
960.276	2878
960.365	2553
960.453	1095
960.541	1373
960.629	2350
960.717	1700
960.805	1435
960.893	2663
960.981	1912
961.069	3648
961.158	3998
961.245	5603
961.333	4243
961.421	2813
961.509	2675
961.597	3450
961.685	2856
961.773	2522
961.861	2642
961.949	3625
962.036	1828
962.124	3052
962.212	1441
962.299	1936
962.387	1287
962.475	3046
962.562	1098
962.650	3374
962.738	2901
962.825	1716
962.913	2333
963.000	1820
963.088	2940
963.175	3598
963.263	1828
963.350	2496
963.438	1855
963.525	1228
963.612	1838
963.700	2156
963.787	2525
963.874	2164
963.962	1507
964.049	1253
964.136	1041
964.223	2073
964.310	1206
964.398	1368
964.485	1369
964.572	2294
964.659	1996
964.746	1183
964.833	1298
964.920	2074
965.007	1725
965.094	1342
965.181	1533
965.268	3355
965.355	2392
965.441	1783
965.528	723
965.615	3108
965.702	2006
965.789	1873
965.875	2130
965.962	3267
966.049	2520
966.136	3235
966.222	3752
966.309	4162
966.395	2739
966.482	3349
966.569	2025
966.655	2967
966.742	2365
966.828	2015
966.915	983
967.001	2641
967.087	782
967.174	1697
967.260	2437
967.347	2565
967.433	1651
967.519	2443
967.605	2166
967.692	2329
967.778	2455
967.864	2198
967.950	1792
968.036	2286
968.123	1330
968.209	2397
968.295	755
968.381	3566
968.467	2576
968.553	1291
968.639	3127
968.725	2315
968.811	3637
968.897	4699
968.983	1980
969.069	1669
969.154	1549
969.240	2210
969.326	927
969.412	2369
969.497	2312
969.583	927
969.669	2489
969.755	2665
969.840	2488
969.926	5062
970.012	5661
970.097	8466
970.183	6840
970.268	3825
970.354	2906
970.439	2241
970.525	2634
970.610	1766
970.696	3757
970.781	2347
970.866	304
970.952	2617
971.037	1305
971.122	2763
971.208	2091
971.293	2109
971.378	1653
971.463	2719
971.549	1631
971.634	1974
971.719	1958
971.804	1808
971.889	1653
971.974	2261
972.059	1795
972.144	2275
972.229	2151
972.314	2180
972.399	1728
972.484	2289
972.569	1713
972.654	928
972.739	1665
972.824	1617
972.908	1337
972.993	1438
973.078	1255
973.163	2979
973.247	1979
973.332	821
973.417	3299
973.501	2132
973.586	1996
973.671	2478
973.755	1392
973.840	2270
973.924	3042
974.009	4093
974.093	3955
974.178	3942
974.262	2692
974.346	2277
974.431	2334
974.515	2823
974.600	1873
974.684	3579
974.768	1378
974.852	3504
974.937	1373
975.021	2961
975.105	2390
975.189	2099
975.273	2511
975.358	1460
975.442	-228
975.526	2668
975.610	1465
975.694	1367
975.778	2715
975.862	2156
975.946	-108
976.030	4241
976.114	1330
976.198	2447
976.281	1489
976.365	3310
976.449	1307
976.533	2402
976.617	1074
976.700	2146
976.784	1271
976.868	1338
976.951	1665
977.035	2165
977.119	2277
977.202	2085
977.286	2872
977.369	2992
977.453	5614
977.536	4926
977.620	3020
977.703	4210
977.787	2226
977.870	3937
977.953	4041
978.037	1392
978.120	3027
978.203	1929
978.287	2323
978.370	2904
978.453	971
978.536	2146
978.620	3070
978.703	3453
978.786	2094
978.869	2075
978.952	1772
979.035	3845
979.118	2696
979.201	1592
979.284	2362
979.367	2021
979.450	2803
979.533	1689
979.616	1759
979.699	2798
979.782	2736
979.865	2945
979.948	2157
980.030	1335
980.113	2254
980.196	972
980.279	2741
980.361	2096
980.444	2147
980.526	3379
980.609	4293
980.692	6848
980.774	5820
980.857	3186
980.939	4488
981.022	3929
981.104	2512
981.187	3190
981.269	3546
981.352	2914
981.434	2525
981.516	2702
981.599	3794
981.681	4005
981.763	2844
981.846	3482
981.928	3306
982.010	2940
982.092	2017
982.174	3591
982.256	3110
982.339	2879
982.421	2190
982.503	3298
982.585	1626
982.667	2576
982.749	3363
982.831	3958
982.913	2035
982.995	3737
983.077	2990
983.158	4893
983.240	2176
983.322	4271
983.404	6307
983.486	5847
983.568	5185
983.649	4903
983.731	3896
983.813	4829
983.894	4050
983.976	4162
984.058	3575
984.139	4547
984.221	1914
984.302	4845
984.384	3780
984.465	3693
984.547	3418
984.628	3257
984.710	3926
984.791	3715
984.872	4255
984.954	4009
985.035	3296
985.116	3750
985.198	2703
985.279	5432
985.360	3373
985.441	4099
985.522	4166
985.604	3901
985.685	2576
985.766	4451
985.847	5211
985.928	3220
986.009	3279
986.090	3661
986.171	4018
986.252	3774
986.333	4156
986.414	3652
986.495	4058
986.576	4502
986.656	4323
986.737	4886
986.818	4324
986.899	4510
986.980	3223
987.060	4915
987.141	3736
987.222	5817
987.302	5825
987.383	6473
987.464	5780
987.544	6556
987.625	4693
987.705	6339
987.786	6229
987.866	5717
987.947	5573
988.027	5798
988.108	4588
988.188	4947
988.268	3627
988.349	6353
988.429	5168
988.509	5671
988.589	5007
988.670	4330
988.750	5454
988.830	5000
988.910	5689
988.990	5067
989.070	4787
989.151	4338
989.231	3834
989.311	5052
989.391	4179
989.471	4756
989.551	4778
989.631	4899
989.711	5185
989.791	4786
989.870	4250
989.950	5141
990.030	4682
990.110	4362
990.190	3520
990.269	3743
990.349	3689
990.429	5487
990.509	3758
990.588	2556
990.668	4116
990.747	4546
990.827	3904
990.907	3706
990.986	3696
991.066	4232
991.145	2886
991.225	4661
991.304	3237
991.383	3485
991.463	3010
991.542	4945
991.622	2402
991.701	3031
991.780	2725
991.859	3297
991.939	2686
992.018	3850
992.097	3904
992.176	2446
992.256	3304
992.335	3060
992.414	4442
992.493	2609
992.572	2195
992.651	3449
992.730	2909
992.809	3005
992.888	2059
992.967	3642
993.046	3326
993.125	2106
993.203	2542
993.282	4621
993.361	3488
993.440	3308
993.519	2163
993.597	2580
993.676	2760
993.755	3780
993.834	2760
993.912	1749
993.991	2773
994.069	2683
994.148	3191
994.226	3028
994.305	2734
994.384	2458
994.462	4635
994.540	973
994.619	1149
994.697	2446
994.776	2584
994.854	3116
994.932	1415
995.011	2570
995.089	2581
995.167	1385
995.245	2359
995.324	1745
995.402	3035
995.480	1936
995.558	1553
995.636	1078
995.714	1096
995.792	3720
995.870	771
995.948	1984
996.026	1572
996.104	2018
996.182	1942
996.260	1846
996.338	1322
996.416	898
996.494	1638
996.572	2922
996.649	1528
996.727	1219
996.805	1314
996.883	2831
996.960	1354
997.038	2399
997.116	1307
997.193	1722
997.271	1295
997.348	856
997.426	1499
997.504	2336
997.581	2474
997.658	2179
997.736	-777
997.813	318
997.891	2043
997.968	903
998.046	1205
998.123	1725
998.200	1991
998.277	1205
998.355	1301
998.432	174
998.509	1277
998.586	2406
998.663	1844
998.741	1640
998.818	201
998.895	1415
998.972	1053
999.049	1994
999.126	1430
999.203	1820
999.280	1019
999.357	1763
999.434	580
999.511	1749
999.587	1213
999.664	-83
999.741	424
999.818	1503
999.895	863
999.971	875
1000.048	245
1000.125	2328
1000.202	417
1000.278	584
1000.355	1385
1000.431	538
1000.508	-584
1000.584	618
1000.661	1134
1000.738	738
1000.814	692
1000.890	186
1000.967	796
1001.043	398
1001.120	-357
1001.196	787
1001.272	-313
1001.349	788
1001.425	1524
1001.501	1575
1001.577	-35
1001.654	1176
1001.730	1181
1001.806	652
1001.882	199
1001.958	1862
1002.034	1046
1002.110	1672
1002.186	-95
1002.262	190
1002.338	-1495
1002.414	797
1002.490	1637
1002.566	-199
1002.642	-417
1002.718	1173
1002.794	154
1002.870	1050
1002.945	26
1003.021	-380
1003.097	-222
1003.173	859
1003.248	-56
1003.324	625
1003.400	377
1003.475	-926
1003.551	-100
1003.626	720
1003.702	-897
1003.777	444
1003.853	-150
1003.928	575
1004.004	-76
1004.079	305
1004.155	812
1004.230	-853
1004.305	547
1004.381	537
1004.456	-924
1004.531	80
1004.607	-36
1004.682	-203
1004.757	693
1004.832	110
1004.907	-665
1004.982	4
1005.057	-629
1005.133	-451
1005.208	120
1005.283	-84
1005.358	144
1005.433	-905
1005.508	341
1005.583	103
1005.657	-157
1005.732	972
1005.807	-516
1005.882	-132
1005.957	-677
1006.032	174
1006.106	-630
1006.181	-26
1006.256	834
1006.331	598
1006.405	-1588
1006.480	501
1006.554	-897
1006.629	-256
1006.704	-768
1006.778	-1005
1006.853	437
1006.927	-278
1007.002	-532
1007.076	-212
1007.150	-636
1007.225	-438
1007.299	-285
1007.373	-1020
1007.448	-800
1007.522	-28
1007.596	-528
1007.671	-433
1007.745	-191
1007.819	-922
1007.893	-1507
1007.967	9
1008.041	-1173
1008.115	-212
1008.190	-390
1008.264	37
1008.338	-1314
1008.412	-863
1008.486	-480
1008.560	-1013
1008.633	-484
1008.707	-14
1008.781	627
1008.855	417
1008.929	222
1009.003	-933
1009.076	-723
1009.150	-364
1009.224	-747
1009.298	578
1009.371	-1092
1009.445	117
1009.519	-1481
1009.592	-1823
1009.666	-594
1009.739	-184
1009.813	-1188
1009.886	737
1009.960	-1545
1010.033	-236
1010.107	-270
1010.180	-1488
1010.253	-274
1010.327	-923
1010.400	-1471
1010.473	-1224
1010.547	-673
1010.620	-223
1010.693	-81
1010.766	-1071
1010.840	-401
1010.913	-794
1010.986	-1785
1011.059	-701
1011.132	-532
1011.205	-434
1011.278	-1382
1011.351	-342
1011.424	-1132
1011.497	-238
1011.570	-676
1011.643	-739
1011.716	-1670
1011.789	-336
1011.862	-1509
1011.934	158
1012.007	-1324
1012.080	-145
1012.153	-943
1012.225	77
1012.298	-1048
1012.371	-1157
1012.443	-523
1012.516	-1144
1012.588	-701
1012.661	-315
1012.733	-1337
1012.806	126
1012.879	-1040
1012.951	-117
1013.023	-1961
1013.096	-127
1013.168	-1275
1013.241	-422
1013.313	-1103
1013.385	-1027
1013.458	-1881
1013.530	-493
1013.602	-1647
1013.674	-165
1013.746	-1460
1013.819	-1518
1013.891	-944
1013.963	-853
1014.035	-789
1014.107	-11
1014.179	-1449
1014.251	-887
1014.323	-1540
1014.395	-924
1014.467	-1164
1014.539	-913
1014.611	-1644
1014.683	-1258
1014.754	-701
1014.826	-1134
1014.898	-911
1014.970	-1685
1015.042	676
1015.113	-583
1015.185	-1323
1015.257	-1621
1015.328	-1156
1015.400	-584
1015.471	-416
1015.543	-1152
1015.615	-138
1015.686	-944
1015.757	-447
1015.829	-595
1015.901	-1668
1015.972	-576
1016.043	-1614
1016.115	-1014
1016.186	-1035
1016.257	-1045
1016.328	-887
1016.400	-303
1016.471	-2242
1016.542	-741
1016.613	-747
1016.685	-361
1016.756	-1677
1016.827	-400
1016.898	-1748
1016.969	-854
1017.040	-748
1017.111	-707
1017.182	-1801
1017.253	-1351
1017.324	-1492
1017.395	-1260
1017.466	-169
1017.537	-1024
1017.608	-2142
1017.678	-1195
1017.749	-2094
1017.820	-868
1017.891	-1782
1017.961	-955
1018.032	-1708
1018.103	-401
1018.173	-1589
1018.244	-1230
1018.315	-1269
1018.385	-786
1018.456	-1070
1018.526	-1344
1018.597	-217
1018.667	-1668
1018.738	-1130
1018.808	-486
1018.878	-538
1018.949	-302
1019.019	-477
1019.089	-1067
1019.160	-1113
1019.230	-921
1019.300	-1057
1019.371	-1619
1019.441	-1548
1019.511	-1596
1019.581	-1639
1019.651	-612
1019.721	-1375
1019.791	-901
1019.861	-1203
1019.931	-686
1020.001	-767
1020.071	-838
1020.141	-1602
1020.211	-1115
1020.281	-1591
1020.351	-1748
1020.421	-863
1020.491	-861
1020.560	-2224
1020.630	-826
1020.700	-1274
1020.770	-1843
1020.839	-1435
1020.909	-1125
1020.979	-1498
1021.048	-852
1021.118	-1915
1021.187	-1443
1021.257	-1210
1021.326	-453
1021.396	-2122
1021.465	-1314
1021.535	-2169
1021.604	-1440
1021.674	-1259
1021.743	-1397
1021.812	-2002
1021.882	-709
1021.951	-1929
1022.020	-1539
1022.089	-1107
1022.159	-1304
1022.228	-1146
1022.297	-580
1022.366	-2002
1022.435	-1168
1022.504	-1678
1022.573	-1438
1022.642	-1301
1022.711	-492
1022.781	-1569
1022.849	-61
1022.918	-2006
1022.987	-1429
1023.056	-1869
1023.125	-1719
1023.194	-866
1023.263	-987
1023.331	-1089
1023.400	-1343
1023.469	-1253
1023.538	-786
1023.606	-1687
1023.675	-912
1023.744	-866
1023.812	-1652
1023.881	-1169
1023.949	-907
1024.018	-1689
1024.086	-1183
1024.155	-1552
1024.223	-1963
1024.292	-1074
1024.360	-851
1024.429	-953
1024.497	-1465
1024.565	-1845
1024.634	-860
1024.702	-1146
1024.770	-1613
1024.838	-1755
1024.907	-322
1024.975	-2009
1025.043	-1326
1025.111	-2543
1025.179	-1046
1025.247	-1333
1025.315	-1422
1025.383	-1324
1025.451	-1692
1025.519	-2140
1025.587	-1633
1025.655	-1272
1025.723	-1633
1025.791	-920
1025.859	-1102
1025.927	-1519
1025.995	-1312
1026.062	-1507
1026.130	-1108
1026.198	-2402
1026.266	-1547
1026.333	-1064
1026.401	-1621
1026.469	-2055
1026.536	-1474
1026.604	-1474
1026.671	-1440
1026.739	-1386
1026.806	-1180
1026.874	-1893
1026.941	-252
1027.009	-1905
1027.076	-1858
1027.144	-557
1027.211	-1964
1027.278	-1312
1027.345	-1067
1027.413	-1397
1027.480	-1209
1027.547	-1636
1027.614	-1422
1027.682	-1501
1027.749	-1387
1027.816	-1519
1027.883	-2358
1027.950	-821
1028.017	-1171
1028.084	-1922
1028.151	-1762
1028.218	-1571
1028.285	-943
1028.352	-2116
1028.419	-1677
1028.486	-1944
1028.553	-1658
1028.619	-2092
1028.686	-1526
1028.753	-1695
1028.820	-555
1028.886	-1744
1028.953	-1684
1029.020	-1542
1029.086	-620
1029.153	-1405
1029.220	-1166
1029.286	-1628
1029.353	-1042
1029.419	-1463
1029.486	-735
1029.552	-1813
1029.619	-1948
1029.685	-2121
1029.751	-1308
1029.818	-703
1029.884	-1213
1029.951	-1232
1030.017	-1713
1030.083	-1072
1030.149	-635
1030.216	-2102
1030.282	-1126
1030.348	-1063
1030.414	-1604
1030.480	-1844
1030.546	-2019
1030.612	-2454
1030.678	-1569
1030.744	-1581
1030.810	-1350
1030.876	-1268
1030.942	-1104
1031.008	-1784
1031.074	-1434
1031.140	-2281
1031.206	-936
1031.272	-2494
1031.337	-1185
1031.403	-1505
1031.469	-1625
1031.534	-1474
1031.600	-1072
1031.666	-1422
1031.731	-1579
1031.797	-1671
1031.863	-1251
1031.928	-863
1031.994	-1159
1032.059	-1489
1032.125	-914
1032.190	-2311
1032.256	-1681
1032.321	-2542
1032.386	-1946
1032.452	-2005
1032.517	-1755
1032.582	-1606
1032.647	-1097
1032.713	-1863
1032.778	-659
1032.843	-1634
1032.908	-1724
1032.974	-1930
1033.039	-1618
1033.104	-1456
1033.169	-1400
1033.234	-618
1033.299	-576
1033.364	-1045
1033.429	-1213
1033.494	-733
1033.559	-1404
1033.624	-1879
1033.688	-733
1033.753	-1645
1033.818	270
1033.883	-999
1033.948	-808
1034.013	-915
1034.077	973
1034.142	565
1034.207	2206
1034.271	4674
1034.336	5872
1034.400	2924
1034.465	1809
1034.530	-441
1034.594	-679
1034.658	-1461
1034.723	-1039
1034.787	-2122
1034.852	-1080
1034.916	-1202
1034.981	-1784
1035.045	-1111
1035.109	-1299
1035.173	-1800
1035.238	-1964
1035.302	-915
1035.366	-1348
1035.430	-2076
1035.495	-1291
1035.559	-1794
1035.623	-878
1035.687	-1406
1035.751	-1486
1035.815	-2491
1035.879	-1242
1035.943	-1036
1036.007	-1896
1036.071	-1679
1036.135	-1665
1036.198	-1364
1036.262	-1796
1036.326	-1622
1036.390	-1687
1036.454	-1460
1036.517	-500
1036.581	-945
1036.645	-1104
1036.709	-481
1036.772	-1239
1036.836	-1523
1036.900	-1175
1036.963	-2111
1037.026	-1911
1037.090	-2652
1037.154	-1161
1037.217	-1060
1037.280	-1335
1037.344	-1161
1037.407	-1748
1037.471	-1456
1037.534	-1524
1037.597	-1813
1037.661	-1330
1037.724	-684
1037.787	-1318
1037.850	-985
1037.913	-1493
1037.977	-1219
1038.040	-1239
1038.103	-1776
1038.166	-1017
1038.229	-1772
1038.292	-2925
1038.355	-1933
1038.418	-1443
1038.481	-1132
1038.544	-1275
1038.607	-2154
1038.670	-2004
1038.732	-1903
1038.795	-1343
1038.858	-2582
1038.921	-1426
1038.984	-1358
1039.046	-1605
1039.109	-2077
1039.172	-1948
1039.234	-1188
1039.297	-1802
1039.360	-2384
1039.422	-2131
1039.485	-2162
1039.547	-1591
1039.610	-1992
1039.672	-1914
1039.734	-1579
1039.797	-1556
1039.859	-1578
1039.922	-1693
1039.984	-1570
1040.046	-2297
1040.109	-2199
1040.171	-2286
1040.233	-1545
1040.295	-1066
1040.358	-1684
1040.420	-1956
1040.482	-1802
1040.544	-2045
1040.606	-2704
1040.668	-1848
1040.730	-2543
1040.792	-2484
1040.854	-2335
1040.916	-1950
1040.978	-1710
1041.040	-563
1041.102	-2549
1041.164	-2063
1041.225	-1959
1041.287	-1477
1041.349	-1749
1041.411	-1462
1041.472	-1841
1041.534	-2133
1041.596	-2183
1041.657	-1406
1041.719	-1769
1041.781	-1678
1041.842	-2055
1041.904	-2046
1041.965	-1963
1042.027	-2169
1042.088	-1927
1042.150	-1707
1042.211	-1856
1042.272	-1568
1042.334	-1923
1042.395	-923
1042.456	-2708
1042.518	-1672
1042.579	-1831
1042.640	-1123
1042.701	-1409
1042.763	-1578
1042.824	-2677
1042.885	-1753
1042.946	-2390
1043.007	-1630
1043.068	-2333
1043.129	-1750
1043.190	-2054
1043.251	-1450
1043.312	-2704
1043.373	-1135
1043.434	-1892
1043.495	-2035
1043.556	-1608
1043.616	-1472
1043.677	-2257
1043.738	-1446
1043.799	-2025
1043.859	-1654
1043.920	-2255
1043.981	-1420
1044.041	-1680
1044.102	-2468
1044.162	-2459
1044.223	-2055
1044.284	-1937
1044.344	-1406
1044.405	-2223
1044.465	-1551
1044.525	-2045
1044.586	-1710
1044.646	-1565
1044.707	-1952
1044.767	-1829
1044.827	-1310
1044.887	-1378
1044.948	-2485
1045.008	-2413
1045.068	-1539
1045.128	-1026
1045.188	-1110
1045.249	-1780
1045.309	-1710
1045.369	-2385
1045.429	-1770
1045.489	-1988
1045.549	-2074
1045.609	-2000
1045.669	-1784
1045.729	-2583
1045.789	-1787
1045.848	-1386
1045.908	-1390
1045.968	-1723
1046.028	-1158
1046.088	-1358
1046.147	-1414
1046.207	-1093
1046.267	-2387
1046.326	-2114
1046.386	-2258
1046.446	-1306
1046.505	-642
1046.565	-1604
1046.624	-1353
1046.684	-1568
1046.743	-1213
1046.803	-991
1046.862	452
1046.922	0
