'Start Wavelength	183.907
'End Wavelength	1046.922
'Gate Delay	5.000
'Gate Width (ms)	1.050
'Laser Output Level	0.000
'X Position	0.000
'Y Position	0.000
'Z Position	0.000
'Grid Point Number	1.000
'Shot Number	100.000
183.907	155.000
183.977	1079.000
184.047	-163
184.116	658
184.186	-409
184.256	-239
184.325	164
184.395	-935
184.465	-120
184.534	322
184.604	207
184.674	288
184.743	-367
184.813	-192
184.883	120
184.952	903
185.022	121
185.092	431
185.161	138
185.231	527
185.301	-676
185.370	511
185.440	183
185.509	-52
185.579	-525
185.649	425
185.718	231
185.788	-58
185.857	-287
185.927	-320
185.996	-320
186.066	-36
186.136	11
186.205	350
186.275	122
186.344	-429
186.414	229
186.483	-346
186.553	168
186.622	463
186.692	-94
186.761	576
186.831	230
186.900	211
186.970	517
187.039	436
187.109	577
187.178	272
187.248	366
187.317	-237
187.387	-779
187.456	125
187.526	-81
187.595	545
187.664	-500
187.734	-146
187.803	455
187.873	-254
187.942	264
188.012	248
188.081	522
188.150	430
188.220	457
188.289	228
188.358	-912
188.428	497
188.497	184
188.567	218
188.636	355
188.705	-261
188.775	107
188.844	138
188.913	1104
188.983	373
189.052	21
189.121	236
189.191	46
189.260	215
189.329	475
189.399	-72
189.468	-5
189.537	769
189.606	-101
189.676	1128
189.745	-508
189.814	-388
189.883	-445
189.953	152
190.022	327
190.091	614
190.161	689
190.230	-185
190.299	-608
190.368	443
190.437	-122
190.507	106
190.576	-168
190.645	226
190.714	-320
190.783	-90
190.853	-456
190.922	-402
190.991	25
191.060	454
191.129	130
191.198	33
191.268	-198
191.337	243
191.406	-34
191.475	430
191.544	306
191.613	401
191.682	360
191.752	390
191.821	205
191.890	372
191.959	134
192.028	608
192.097	-50
192.166	258
192.235	-245
192.304	158
192.373	137
192.442	-318
192.511	-36
192.580	322
192.650	51
192.719	372
192.788	-225
192.857	437
192.926	-342
192.995	40
193.064	636
193.133	141
193.202	-223
193.271	1160
193.340	-135
193.409	326
193.478	737
193.547	637
193.615	1373
193.684	1220
193.753	90
193.822	-194
193.891	256
193.960	749
194.029	-213
194.098	603
194.167	442
194.236	-326
194.305	-24
194.374	678
194.443	-31
194.512	169
194.580	112
194.649	965
194.718	476
194.787	-46
194.856	-237
194.925	203
194.994	204
195.062	-222
195.131	82
195.200	-537
195.269	-492
195.338	-535
195.407	-535
195.475	219
195.544	256
195.613	455
195.682	104
195.751	331
195.819	-312
195.888	-252
195.957	138
196.026	307
196.094	151
196.163	730
196.232	-254
196.301	782
196.369	179
196.438	-175
196.507	463
196.576	-1
196.644	-386
196.713	675
196.782	-623
196.850	1107
196.919	51
196.988	-371
197.056	-704
197.125	-166
197.194	298
197.262	153
197.331	-1238
197.400	88
197.468	-314
197.537	-69
197.606	-220
197.674	120
197.743	882
197.812	-141
197.880	580
197.949	551
198.017	930
198.086	-336
198.155	-192
198.223	906
198.292	567
198.360	-129
198.429	323
198.497	-238
198.566	78
198.635	825
198.703	-236
198.772	181
198.840	373
198.909	36
198.977	118
199.046	-163
199.114	815
199.183	180
199.251	184
199.320	-29
199.388	-69
199.457	19
199.525	228
199.594	128
199.662	316
199.731	-318
199.799	206
199.867	-197
199.936	66
200.004	-227
200.073	216
200.141	20
200.210	25
200.278	101
200.346	297
200.415	118
200.483	652
200.552	-340
200.620	158
200.688	-160
200.757	14
200.825	16
200.893	874
200.962	-289
201.030	134
201.098	107
201.167	822
201.235	396
201.303	489
201.372	601
201.440	-199
201.508	-95
201.577	262
201.645	806
201.713	-227
201.781	573
201.850	326
201.918	117
201.986	-64
202.055	961
202.123	-207
202.191	670
202.259	-407
202.327	112
202.396	107
202.464	-73
202.532	499
202.600	223
202.669	120
202.737	-114
202.805	-557
202.873	375
202.941	154
203.009	-426
203.078	416
203.146	621
203.214	581
203.282	-425
203.350	-91
203.418	230
203.487	228
203.555	245
203.623	161
203.691	356
203.759	-573
203.827	-217
203.895	-360
203.963	234
204.031	-160
204.099	48
204.168	-612
204.236	141
204.304	545
204.372	61
204.440	675
204.508	731
204.576	-104
204.644	179
204.712	-34
204.780	585
204.848	-89
204.916	-9
204.984	-44
205.052	-30
205.120	238
205.188	200
205.256	-159
205.324	304
205.392	-195
205.460	203
205.528	24
205.596	2
205.664	-43
205.732	87
205.799	1598
205.867	1301
205.935	13
206.003	594
206.071	22
206.139	680
206.207	-32
206.275	-91
206.343	281
206.411	61
206.478	470
206.546	651
206.614	-34
206.682	118
206.750	-222
206.818	1306
206.885	560
206.953	-412
207.021	511
207.089	247
207.157	827
207.225	511
207.292	291
207.360	296
207.428	409
207.496	-130
207.563	-548
207.631	-31
207.699	163
207.767	-25
207.834	38
207.902	411
207.970	14
208.038	-186
208.105	6
208.173	886
208.241	532
208.309	684
208.376	503
208.444	770
208.512	-356
208.579	39
208.647	-562
208.715	1096
208.782	-23
208.850	685
208.918	-169
208.985	-9
209.053	-17
209.120	654
209.188	-174
209.256	-187
209.323	222
209.391	762
209.459	248
209.526	124
209.594	130
209.661	838
209.729	187
209.796	676
209.864	70
209.932	-300
209.999	441
210.067	404
210.134	841
210.202	740
210.269	253
210.337	659
210.404	10
210.472	-568
210.539	749
210.607	551
210.674	652
210.742	392
210.809	-303
210.877	532
210.944	418
211.012	220
211.079	-55
211.146	534
211.214	616
211.281	494
211.349	341
211.416	471
211.484	-194
211.551	192
211.618	128
211.686	895
211.753	228
211.821	196
211.888	345
211.955	199
212.023	673
212.090	-439
212.157	561
212.225	385
212.292	1275
212.359	2528
212.427	4187
212.494	1899
212.561	670
212.629	272
212.696	459
212.763	557
212.831	500
212.898	273
212.965	845
213.032	193
213.100	576
213.167	283
213.234	221
213.301	858
213.369	309
213.436	335
213.503	70
213.570	708
213.638	349
213.705	758
213.772	-797
213.839	837
213.906	261
213.973	378
214.041	619
214.108	265
214.175	721
214.242	811
214.309	133
214.376	496
214.444	1711
214.511	223
214.578	132
214.645	712
214.712	1717
214.779	1074
214.846	1179
214.913	534
214.980	447
215.048	1207
215.115	483
215.182	802
215.249	510
215.316	502
215.383	680
215.450	1297
215.517	735
215.584	478
215.651	344
215.718	618
215.785	1021
215.852	439
215.919	383
215.986	714
216.053	367
216.120	535
216.187	499
216.254	676
216.321	554
216.388	-193
216.455	1198
216.522	1572
216.589	240
216.656	1139
216.722	912
216.789	1507
216.856	1561
216.923	723
216.990	1052
217.057	1130
217.124	912
217.191	1401
217.258	1148
217.324	2073
217.391	2322
217.458	1379
217.525	919
217.592	1132
217.659	558
217.725	1175
217.792	1476
217.859	890
217.926	325
217.993	552
218.059	916
218.126	641
218.193	535
218.260	-311
218.327	929
218.393	-395
218.460	-146
218.527	669
218.594	166
218.660	1431
218.727	817
218.794	73
218.860	80
218.927	629
218.994	-113
219.061	612
219.127	24
219.194	234
219.261	135
219.327	192
219.394	-131
219.461	674
219.527	141
219.594	2
219.661	276
219.727	261
219.794	371
219.860	-180
219.927	588
219.994	848
220.060	692
220.127	831
220.193	373
220.260	519
220.326	2064
220.393	3162
220.460	3331
220.526	2236
220.593	1142
220.659	1589
220.726	1598
220.792	2976
220.859	2278
220.925	4597
220.992	5256
221.058	4811
221.125	3431
221.191	2596
221.258	1480
221.324	526
221.391	498
221.457	65
221.524	715
221.590	1311
221.657	2328
221.723	1539
221.789	1906
221.856	1047
221.922	103
221.989	116
222.055	459
222.121	534
222.188	747
222.254	462
222.321	678
222.387	-639
222.453	-561
222.520	247
222.586	463
222.652	-252
222.719	578
222.785	157
222.851	-561
222.918	237
222.984	294
223.050	465
223.116	-536
223.183	40
223.249	-526
223.315	237
223.382	-349
223.448	134
223.514	-1
223.580	-115
223.647	168
223.713	-487
223.779	-85
223.845	-136
223.911	-116
223.978	-267
224.044	-635
224.110	675
224.176	-194
224.242	422
224.309	0
224.375	-481
224.441	-300
224.507	-356
224.573	428
224.639	406
224.705	-102
224.772	163
224.838	-146
224.904	342
224.970	-123
225.036	208
225.102	29
225.168	314
225.234	-359
225.300	882
225.366	-212
225.432	-62
225.499	508
225.565	549
225.631	-18
225.697	165
225.763	358
225.829	883
225.895	359
225.961	1444
226.027	624
226.093	1584
226.159	1553
226.225	2999
226.291	6601
226.357	8142
226.423	2695
226.489	2052
226.554	1418
226.620	1727
226.686	2244
226.752	2529
226.818	5733
226.884	9851
226.950	6341
227.016	3307
227.082	2281
227.148	1437
227.214	798
227.279	789
227.345	771
227.411	966
227.477	556
227.543	977
227.609	632
227.674	1047
227.740	718
227.806	469
227.872	-13
227.938	1347
228.003	1235
228.069	48
228.135	603
228.201	455
228.267	135
228.332	107
228.398	291
228.464	-48
228.530	363
228.595	106
228.661	-456
228.727	926
228.792	173
228.858	582
228.924	-614
228.990	586
229.055	109
229.121	1105
229.187	-570
229.252	143
229.318	115
229.384	71
229.449	399
229.515	319
229.581	-513
229.646	1250
229.712	-280
229.777	786
229.843	1049
229.909	741
229.974	1201
230.040	1455
230.105	799
230.171	443
230.236	1322
230.302	1532
230.368	899
230.433	281
230.499	268
230.564	1727
230.630	71
230.695	624
230.761	473
230.826	279
230.892	787
230.957	414
231.023	-73
231.088	-83
231.154	116
231.219	857
231.284	952
231.350	679
231.415	106
231.481	-112
231.546	-157
231.612	196
231.677	-78
231.742	-409
231.808	247
231.873	109
231.939	-411
232.004	384
232.069	683
232.135	714
232.200	-177
232.265	-172
232.331	-70
232.396	733
232.461	255
232.527	240
232.592	-901
232.657	-106
232.723	-10
232.788	259
232.853	96
232.918	-170
232.984	-407
233.049	98
233.114	-1
233.179	486
233.245	684
233.310	1235
233.375	-279
233.440	209
233.506	317
233.571	19
233.636	378
233.701	111
233.766	515
233.832	1086
233.897	826
233.962	-420
234.027	101
234.092	429
234.157	545
234.222	536
234.288	1185
234.353	2978
234.418	2569
234.483	1838
234.548	970
234.613	609
234.678	501
234.743	1462
234.808	3366
234.873	1415
234.938	277
235.004	1102
235.069	628
235.134	696
235.199	615
235.264	780
235.329	-754
235.394	103
235.459	906
235.524	-211
235.589	96
235.654	1313
235.719	-297
235.784	-601
235.849	386
235.913	1289
235.978	1689
236.043	1640
236.108	192
236.173	214
236.238	772
236.303	116
236.368	450
236.433	1478
236.498	1976
236.563	1431
236.627	5514
236.692	12092
236.757	8253
236.822	4302
236.887	2787
236.952	2309
237.017	1758
237.081	2429
237.146	3535
237.211	8277
237.276	13850
237.341	14358
237.405	7833
237.470	3470
237.535	3100
237.600	1787
237.664	1149
237.729	612
237.794	2679
237.859	5004
237.923	2011
237.988	653
238.053	1847
238.118	1628
238.182	4537
238.247	3172
238.312	968
238.376	1060
238.441	293
238.506	1322
238.570	371
238.635	947
238.700	-96
238.764	21
238.829	2157
238.893	2242
238.958	389
239.023	824
239.087	74
239.152	468
239.216	-231
239.281	739
239.346	60
239.410	170
239.475	530
239.539	4399
239.604	1727
239.668	1177
239.733	165
239.797	539
239.862	1982
239.926	3076
239.991	744
240.055	206
240.120	563
240.184	506
240.249	55
240.313	548
240.378	351
240.442	3397
240.507	2597
240.571	541
240.635	1466
240.700	1399
240.764	393
240.829	657
240.893	-542
240.957	767
241.022	3098
241.086	3573
241.151	1129
241.215	262
241.279	1014
241.344	319
241.408	1048
241.472	614
241.537	1096
241.601	686
241.665	358
241.730	931
241.794	620
241.858	618
241.922	870
241.987	174
242.051	848
242.115	420
242.179	357
242.244	333
242.308	554
242.372	1086
242.436	124
242.501	767
242.565	-57
242.629	16
242.693	1000
242.757	120
242.822	527
242.886	1078
242.950	370
243.014	62
243.078	1509
243.142	1155
243.206	-137
243.271	1122
243.335	874
243.399	1494
243.463	8371
243.527	12702
243.591	3724
243.655	1837
243.719	483
243.783	1211
243.847	2636
243.911	2383
243.975	3872
244.040	1798
244.104	1222
244.168	2419
244.232	1316
244.296	2014
244.360	2511
244.424	987
244.488	252
244.552	717
244.615	-472
244.679	1129
244.743	1008
244.807	513
244.871	26
244.935	68
244.999	759
245.063	630
245.127	1298
245.191	2065
245.255	826
245.319	1454
245.383	352
245.446	920
245.510	122
245.574	639
245.638	673
245.702	796
245.766	2351
245.829	1027
245.893	1091
245.957	130
246.021	764
246.085	1273
246.149	1564
246.212	3533
246.276	3778
246.340	2448
246.404	1537
246.467	2042
246.531	1831
246.595	1214
246.659	1393
246.722	1700
246.786	966
246.850	1288
246.913	1041
246.977	701
247.041	1022
247.104	608
247.168	1411
247.232	4248
247.295	5876
247.359	1991
247.423	1778
247.486	3140
247.550	1283
247.614	1645
247.677	1962
247.741	394
247.804	687
247.868	836
247.932	3162
247.995	5583
248.059	1350
248.122	1061
248.186	1453
248.249	4153
248.313	10150
248.376	9201
248.440	5283
248.503	1493
248.567	2089
248.630	3602
248.694	4787
248.757	6338
248.821	9527
248.884	6106
248.948	6663
249.011	8697
249.075	12123
249.138	8157
249.202	3487
249.265	2656
249.328	3115
249.392	1680
249.455	2039
249.519	1277
249.582	2401
249.645	4247
249.709	2884
249.772	2436
249.835	1683
249.899	1463
249.962	1945
250.025	609
250.089	4689
250.152	4907
250.215	2184
250.279	1859
250.342	1836
250.405	2734
250.468	2402
250.532	2178
250.595	5175
250.658	18901
250.721	18059
250.785	6293
250.848	3960
250.911	2164
250.974	3142
251.038	3758
251.101	5568
251.164	3097
251.227	3749
251.290	3119
251.354	6360
251.417	23318
251.480	15249
251.543	17146
251.606	37258
251.669	21016
251.732	9432
251.795	10516
251.859	12222
251.922	23818
251.985	8956
252.048	5729
252.111	3890
252.174	3388
252.237	8254
252.300	12175
252.363	19216
252.426	24462
252.489	9341
252.552	6189
252.615	3958
252.678	5631
252.741	10576
252.804	17197
252.867	27877
252.930	14980
252.993	7291
253.056	6589
253.119	4173
253.182	3430
253.245	4803
253.308	3612
253.371	3313
253.434	3529
253.497	4385
253.559	5998
253.622	4392
253.685	6827
253.748	5209
253.811	2418
253.874	3919
253.937	3601
254.000	2475
254.062	5042
254.125	4940
254.188	7815
254.251	4641
254.314	2608
254.376	5245
254.439	5200
254.502	4606
254.565	4689
254.628	7801
254.690	4937
254.753	2266
254.816	1656
254.878	2850
254.941	5665
255.004	3564
255.067	2514
255.129	2026
255.192	666
255.255	341
255.317	1384
255.380	570
255.443	293
255.505	212
255.568	300
255.631	226
255.693	774
255.756	75
255.819	1297
255.881	121
255.944	-506
256.006	136
256.069	467
256.132	480
256.194	1861
256.257	3320
256.319	2155
256.382	977
256.444	1318
256.507	878
256.569	460
256.632	1718
256.694	2572
256.757	11249
256.819	19640
256.882	6577
256.944	2878
257.007	2446
257.069	2006
257.132	1524
257.194	2135
257.257	884
257.319	1101
257.381	1828
257.444	9266
257.506	27515
257.569	21727
257.631	9300
257.693	4707
257.756	2319
257.818	1802
257.880	914
257.943	1329
258.005	669
258.067	658
258.130	1474
258.192	1842
258.254	2736
258.317	1037
258.379	1405
258.441	3781
258.503	3333
258.566	5235
258.628	4703
258.690	497
258.753	1628
258.815	3074
258.877	297
258.939	649
259.001	591
259.064	1096
259.126	1833
259.188	1472
259.250	946
259.312	1380
259.375	3564
259.437	1808
259.499	826
259.561	477
259.623	1139
259.685	1887
259.747	1220
259.809	5949
259.872	6571
259.934	14860
259.996	9037
260.058	2578
260.120	824
260.182	1083
260.244	173
260.306	399
260.368	228
260.430	173
260.492	4373
260.554	4423
260.616	1843
260.678	7819
260.740	5591
260.802	1184
260.864	1551
260.926	617
260.988	1610
261.050	967
261.112	6542
261.174	11640
261.236	4155
261.298	2004
261.359	3579
261.421	4029
261.483	731
261.545	1084
261.607	-182
261.669	553
261.731	2508
261.793	5020
261.854	769
261.916	1293
261.978	1257
262.040	1028
262.102	1347
262.164	2025
262.225	1555
262.287	476
262.349	3265
262.411	1336
262.472	-168
262.534	2890
262.596	3103
262.658	1122
262.719	658
262.781	1682
262.843	3460
262.904	1087
262.966	688
263.028	1510
263.090	15019
263.151	21638
263.213	6487
263.275	4057
263.336	1024
263.398	1337
263.459	-151
263.521	1006
263.583	2776
263.644	1303
263.706	71
263.767	-667
263.829	-237
263.891	95
263.952	-318
264.014	128
264.075	2695
264.137	4659
264.198	391
264.260	-3
264.321	285
264.383	4346
264.444	8423
264.506	1768
264.567	856
264.629	4412
264.690	6305
264.752	2160
264.813	657
264.875	-208
264.936	592
264.998	218
265.059	96
265.120	1061
265.182	2461
265.243	16096
265.305	8150
265.366	1719
265.427	963
265.489	421
265.550	-660
265.611	516
265.673	1245
265.734	265
265.795	187
265.857	593
265.918	783
265.979	4031
266.040	22284
266.102	10608
266.163	3278
266.224	3501
266.286	1359
266.347	11
266.408	659
266.469	483
266.530	344
266.592	-56
266.653	1586
266.714	2196
266.775	286
266.836	21
266.898	228
266.959	1205
267.020	-207
267.081	281
267.142	-290
267.203	202
267.264	-1389
267.326	524
267.387	-444
267.448	-231
267.509	-52
267.570	155
267.631	-176
267.692	-595
267.753	487
267.814	66
267.875	3474
267.936	4367
267.997	2368
268.058	1910
268.119	503
268.180	659
268.241	19
268.302	357
268.363	-919
268.424	565
268.485	92
268.546	-619
268.607	-535
268.668	-116
268.729	-1065
268.790	-316
268.851	1217
268.912	3319
268.972	2240
269.033	771
269.094	-565
269.155	26
269.216	-58
269.277	-748
269.338	313
269.398	210
269.459	-253
269.520	859
269.581	1524
269.642	1894
269.702	631
269.763	712
269.824	-14
269.885	606
269.945	1779
270.006	282
270.067	-747
270.128	-865
270.188	-258
270.249	-354
270.310	-907
270.370	322
270.431	-211
270.492	-704
270.553	328
270.613	2213
270.674	3962
270.734	492
270.795	104
270.856	1548
270.916	-313
270.977	411
271.038	871
271.098	302
271.159	1789
271.219	853
271.280	-110
271.340	-730
271.401	314
271.462	1938
271.522	611
271.583	-281
271.643	561
271.704	560
271.764	840
271.825	4413
271.885	12501
271.946	10230
272.006	3285
272.066	7378
272.127	7760
272.187	1170
272.248	1134
272.308	1587
272.369	6670
272.429	2327
272.489	3753
272.550	2858
272.610	3331
272.671	1739
272.731	2014
272.791	2682
272.852	132
272.912	1543
272.972	58
273.033	719
273.093	654
273.153	842
273.214	160
273.274	1472
273.334	8191
273.394	8739
273.455	3081
273.515	5659
273.575	8283
273.635	2199
273.696	6283
273.756	6925
273.816	2105
273.876	1172
273.936	5377
273.997	6592
274.057	1537
274.117	683
274.177	3818
274.237	14641
274.297	7775
274.358	6047
274.418	8170
274.478	4140
274.538	1634
274.598	1524
274.658	7804
274.718	6835
274.778	2108
274.838	494
274.898	5127
274.958	10408
275.018	9393
275.078	4582
275.138	1353
275.198	737
275.258	491
275.318	1479
275.378	4006
275.438	2508
275.498	1599
275.558	6276
275.618	9867
275.678	4513
275.738	4908
275.798	2673
275.858	1318
275.918	110
275.978	737
276.038	-181
276.098	435
276.157	3520
276.217	7577
276.277	2394
276.337	1714
276.397	519
276.457	848
276.517	504
276.576	342
276.636	-312
276.696	1336
276.756	4711
276.815	1533
276.875	890
276.935	868
276.995	186
277.055	5
277.114	364
277.174	1728
277.234	4730
277.293	1355
277.353	367
277.413	300
277.472	587
277.532	231
277.592	1467
277.651	6491
277.711	7050
277.771	2597
277.830	14076
277.890	5914
277.950	8410
278.009	15899
278.069	3329
278.128	8204
278.188	7100
278.248	3872
278.307	10527
278.367	3508
278.426	532
278.486	-55
278.545	159
278.605	720
278.664	-435
278.724	237
278.783	5368
278.843	7893
278.902	1081
278.962	861
279.021	1587
279.081	1729
279.140	1581
279.199	1211
279.259	1579
279.318	622
279.378	2281
279.437	4929
279.496	18331
279.556	51980
279.615	23947
279.675	6933
279.734	5238
279.793	8537
279.853	8829
279.912	3009
279.971	2088
280.031	1605
280.090	4266
280.149	5663
280.208	8432
280.268	41562
280.327	22988
280.386	5437
280.445	6246
280.505	3251
280.564	2440
280.623	1922
280.682	4758
280.742	4147
280.801	713
280.860	220
280.919	664
280.978	-155
281.037	-82
281.097	-1237
281.156	418
281.215	126
281.274	1177
281.333	7403
281.392	1773
281.451	-406
281.510	351
281.569	-477
281.628	-575
281.688	-144
281.747	180
281.806	560
281.865	-249
281.924	-853
281.983	153
282.042	-658
282.101	-477
282.160	-589
282.219	-207
282.278	399
282.337	3878
282.396	1174
282.454	-365
282.513	1469
282.572	6986
282.631	2102
282.690	-969
282.749	-190
282.808	208
282.867	-331
282.926	371
282.985	-256
283.043	-1033
283.102	-56
283.161	197
283.220	2706
283.279	5483
283.338	332
283.396	140
283.455	263
283.514	1571
283.573	1759
283.631	-41
283.690	-162
283.749	-120
283.808	2198
283.866	1574
283.925	-32
283.984	636
284.043	795
284.101	992
284.160	-497
284.219	1201
284.277	217
284.336	2376
284.395	8934
284.453	3815
284.512	1126
284.570	3135
284.629	1664
284.688	1704
284.746	1273
284.805	1771
284.863	3702
284.922	4536
284.981	5344
285.039	8893
285.098	17516
285.156	38360
285.215	47049
285.273	45300
285.332	29008
285.390	15696
285.449	10158
285.507	7122
285.566	4850
285.624	3997
285.683	2326
285.741	1732
285.799	1357
285.858	1365
285.916	928
285.975	364
286.033	347
286.091	433
286.150	-1
286.208	177
286.267	860
286.325	639
286.383	1879
286.442	692
286.500	241
286.558	-254
286.616	123
286.675	717
286.733	-219
286.791	360
286.850	773
286.908	1835
286.966	2639
287.024	118
287.083	-889
287.141	-461
287.199	159
287.257	923
287.315	551
287.374	943
287.432	2960
287.490	418
287.548	-304
287.606	-416
287.664	-209
287.723	1088
287.781	1031
287.839	385
287.897	634
287.955	1182
288.013	2610
288.071	9665
288.129	43469
288.187	71926
288.245	25120
288.303	8981
288.361	5417
288.419	3376
288.477	2146
288.535	1662
288.593	215
288.651	794
288.709	-278
288.767	225
288.825	-458
288.883	-134
288.941	492
288.999	296
289.057	-738
289.115	-1112
289.173	-175
289.231	-477
289.289	-54
289.346	277
289.404	16
289.462	1214
289.520	720
289.578	-566
289.636	-588
289.694	-658
289.751	-826
289.809	-747
289.867	-184
289.925	1198
289.983	-347
290.040	-428
290.098	-677
290.156	6
290.214	354
290.271	-522
290.329	-663
290.387	-454
290.444	-746
290.502	-1119
290.560	-211
290.617	200
290.675	-234
290.733	-316
290.790	-426
290.848	-678
290.906	35
290.963	-280
291.021	559
291.078	-141
291.136	-205
291.194	4918
291.251	6505
291.309	532
291.366	-238
291.424	-593
291.481	-337
291.539	373
291.596	-260
291.654	-862
291.711	-593
291.769	-442
291.826	1234
291.884	-18
291.941	-1282
291.999	-491
292.056	-209
292.114	178
292.171	-872
292.228	-168
292.286	680
292.343	1444
292.401	1708
292.458	607
292.515	-207
292.573	-163
292.630	69
292.687	182
292.745	-204
292.802	1361
292.859	4992
292.917	7125
292.974	2035
293.031	136
293.089	-867
293.146	-443
293.203	-141
293.260	-433
293.318	398
293.375	1546
293.432	-968
293.489	-99
293.546	-357
293.604	586
293.661	5343
293.718	10709
293.775	4260
293.832	1439
293.889	907
293.947	1491
294.004	-314
294.061	726
294.118	3725
294.175	9053
294.232	10195
294.289	3762
294.346	869
294.403	2024
294.460	846
294.517	-2
294.574	-106
294.631	-539
294.688	888
294.745	4467
294.802	16270
294.859	14598
294.916	4397
294.973	2030
295.030	2455
295.087	1284
295.144	477
295.201	523
295.258	372
295.315	1565
295.372	5575
295.429	6753
295.486	3014
295.542	2589
295.599	11559
295.656	13253
295.713	8207
295.770	7187
295.827	2195
295.883	1295
295.940	1095
295.997	2289
296.054	2312
296.111	310
296.167	357
296.224	-56
296.281	-326
296.338	-19
296.394	602
296.451	1066
296.508	4929
296.564	7286
296.621	4973
296.678	12081
296.734	12390
296.791	3874
296.848	1915
296.904	3073
296.961	6837
297.018	10570
297.074	5313
297.131	1484
297.187	1501
297.244	2992
297.301	11492
297.357	12589
297.414	3669
297.470	1078
297.527	683
297.583	532
297.640	1089
297.696	402
297.753	-37
297.809	-226
297.866	-64
297.922	-430
297.979	153
298.035	-49
298.092	1921
298.148	5927
298.204	3750
298.261	1947
298.317	6067
298.374	11437
298.430	4768
298.486	2655
298.543	1315
298.599	2000
298.656	2550
298.712	6126
298.768	12447
298.824	6179
298.881	1446
298.937	485
298.993	644
299.050	953
299.106	1015
299.162	627
299.218	608
299.275	681
299.331	944
299.387	2508
299.443	10738
299.500	8068
299.556	2229
299.612	1263
299.668	730
299.724	442
299.780	469
299.837	1004
299.893	2616
299.949	10537
300.005	9006
300.061	11007
300.117	13303
300.173	5226
300.229	2352
300.285	4353
300.341	3599
300.397	1491
300.453	794
300.510	752
300.566	234
300.622	516
300.678	3288
300.734	7696
300.790	7804
300.845	7707
300.901	5185
300.957	9415
301.013	5485
301.069	1204
301.125	1453
301.181	1874
301.237	115
301.293	81
301.349	-125
301.405	76
301.461	354
301.516	850
301.572	1054
301.628	2423
301.684	2376
301.740	5423
301.796	5724
301.851	4604
301.907	7385
301.963	7930
302.019	14351
302.074	29687
302.130	24240
302.186	10727
302.242	4481
302.297	3293
302.353	3391
302.409	6197
302.464	5356
302.520	5510
302.576	12492
302.631	12477
302.687	5674
302.743	2033
302.798	961
302.854	981
302.910	631
302.965	2205
303.021	4712
303.076	4498
303.132	5261
303.187	5558
303.243	1656
303.299	1280
303.354	319
303.410	1168
303.465	1221
303.521	789
303.576	-83
303.632	1778
303.687	4028
303.743	10035
303.798	5802
303.853	2433
303.909	1017
303.964	1445
304.020	2909
304.075	4637
304.130	4669
304.186	8004
304.241	7356
304.297	5091
304.352	2143
304.358	2027
304.407	1078
304.449	961
304.463	921
304.518	1607
304.539	1400
304.573	1058
304.629	1674
304.630	1687
304.684	2395
304.720	6394
304.739	8458
304.794	9158
304.811	8090
304.850	5216
304.902	1648
304.905	1426
304.960	1271
304.992	1742
305.015	2108
305.071	1715
305.083	1487
305.126	614
305.173	235
305.181	177
305.236	517
305.264	727
305.292	986
305.347	1223
305.354	1266
305.402	1523
305.445	1909
305.457	2044
305.512	2792
305.535	2678
305.567	2324
305.622	2296
305.626	2437
305.678	5848
305.716	11687
305.733	13932
305.788	13360
305.807	12003
305.843	8954
305.897	11001
305.898	11033
305.953	9383
305.988	6620
306.008	4954
306.063	3504
306.078	3026
306.118	2049
306.168	1332
306.173	1285
306.228	957
306.259	928
306.283	955
306.338	968
306.349	1037
306.393	1489
306.440	1753
306.448	1754
306.503	1804
306.530	2357
306.558	3808
306.613	8650
306.620	9121
306.668	11876
306.711	14293
306.723	14352
306.778	10475
306.801	8666
306.833	6193
306.888	2761
306.892	2616
306.943	2157
306.982	1520
306.997	1341
307.052	1501
307.072	1480
307.107	1820
307.162	3159
307.163	3179
307.217	5816
307.253	6913
307.272	7168
307.327	7021
307.343	6584
307.381	4970
307.434	4265
307.436	4437
307.491	10459
307.524	14407
307.546	15459
307.600	14368
307.614	13296
307.655	8147
307.704	4303
307.710	4264
307.765	4685
307.795	5977
307.819	8279
307.874	14767
307.885	14975
307.929	11225
307.975	8393
307.984	8548
308.038	11641
308.065	14592
308.093	23653
308.148	47967
308.156	52507
308.202	84107
308.246	101522
308.257	97175
308.312	58962
308.336	44513
308.366	35293
308.421	21326
308.426	20064
308.475	13405
308.517	8931
308.530	8383
308.585	6688
308.607	6089
308.639	6028
308.694	7128
308.697	7191
308.748	12445
308.787	18015
308.803	18461
308.857	15016
308.877	13811
308.912	11506
308.967	9471
308.967	9436
309.021	13373
309.058	16622
309.076	20809
309.130	36534
309.148	42538
309.185	68043
309.238	109587
309.239	110233
309.293	126905
309.328	128450
309.348	112493
309.402	64674
309.418	52032
309.457	38045
309.508	21944
309.511	21629
309.566	17459
309.598	15519
309.620	16986
309.674	21433
309.688	22565
309.729	22664
309.778	20795
309.783	20311
309.837	15043
309.868	12080
309.892	13305
309.946	17361
309.959	18734
310.001	28566
310.049	37582
310.055	36271
310.109	21852
310.139	14190
310.163	11442
310.218	6468
310.229	5470
310.272	4315
310.319	3498
310.326	3514
310.381	3370
310.409	3440
310.435	3474
310.489	3300
310.499	3286
310.543	3537
310.589	3829
310.598	3838
310.652	3700
310.679	3642
310.706	3437
310.760	3086
310.769	3009
310.814	2687
310.859	2413
310.868	2465
310.923	2505
310.948	2604
310.977	3019
311.031	3835
311.038	3923
311.085	3294
311.128	2727
311.139	2793
311.193	3096
311.218	3146
311.247	3023
311.301	2920
311.308	2885
311.356	2751
311.398	2691
311.410	2729
311.464	2801
311.488	2828
311.518	2626
311.572	2204
311.578	2155
311.626	3127
311.668	3943
311.680	4125
311.734	4888
311.758	5193
311.788	5151
311.842	5075
311.847	5048
311.896	5580
311.937	6076
311.950	6349
312.004	7417
312.027	7854
312.058	6416
312.112	3831
312.117	3563
312.165	3327
312.207	3110
312.297	5000
312.386	4981
312.476	3866
312.566	8363
312.656	5035
312.745	3018
312.835	3201
312.925	4767
313.015	3407
313.104	4639
313.194	3028
313.284	3110
313.374	4297
313.463	3970
313.553	2630
313.643	2350
313.732	2907
313.822	1990
313.912	2990
314.001	4226
314.091	3764
314.180	7356
314.270	4525
314.360	5242
314.449	4570
314.539	3014
314.628	2620
314.718	3307
314.808	4464
314.897	3053
314.987	2833
315.076	3687
315.166	5247
315.255	5514
315.345	4636
315.434	4761
315.524	4192
315.613	4482
315.703	5793
315.792	6037
315.881	5198
315.971	4752
316.060	7820
316.150	13139
316.239	14229
316.328	7021
316.418	3492
316.507	3346
316.597	4494
316.686	4138
316.775	4570
316.865	14902
316.954	5026
317.043	3018
317.133	2886
317.222	3542
317.311	2335
317.400	2513
317.490	3672
317.579	4993
317.668	3176
317.757	3330
317.847	5296
317.936	8498
318.025	10799
318.114	6150
318.203	5925
318.293	6538
318.382	15055
318.471	12460
318.560	16233
318.649	35277
318.738	12396
318.828	5393
318.917	6332
319.006	6431
319.095	15132
319.184	39067
319.273	30049
319.362	15256
319.451	5030
319.540	4669
319.629	8397
319.718	18409
319.807	8137
319.896	12251
319.985	48841
320.074	29151
320.163	7399
320.252	8858
320.341	8487
320.430	8982
320.519	7317
320.608	6955
320.697	3418
320.786	3771
320.875	5107
320.964	6464
321.053	10273
321.142	13952
321.230	19160
321.319	11023
321.408	27829
321.497	16689
321.586	11193
321.675	12728
321.764	16250
321.852	9589
321.941	15268
322.030	13913
322.119	11012
322.207	28804
322.296	24122
322.385	11460
322.474	10745
322.562	30929
322.651	24450
322.740	11665
322.829	17248
322.917	18993
323.006	13004
323.095	8920
323.183	7280
323.272	10111
323.361	14959
323.449	49248
323.538	24808
323.626	31662
323.715	31909
323.804	9423
323.892	28798
323.981	26386
324.069	6791
324.158	14831
324.246	23335
324.335	6245
324.424	10827
324.512	5432
324.601	6198
324.689	9117
324.778	19657
324.866	14092
324.954	4989
325.043	4689
325.131	6917
325.220	14424
325.308	17441
325.397	11913
325.485	10711
325.574	3742
325.662	2883
325.750	3218
325.839	2708
325.927	2390
326.015	4400
326.104	4610
326.192	10115
326.280	3661
326.369	2530
326.457	4668
326.545	8101
326.634	5303
326.722	1351
326.810	2361
326.898	2364
326.987	3203
327.075	6967
327.163	9218
327.251	5084
327.340	6611
327.428	11983
327.516	2532
327.604	2842
327.692	3782
327.781	3192
327.869	6666
327.957	4716
328.045	5001
328.133	2293
328.221	3390
328.309	2774
328.397	3404
328.485	3686
328.574	4860
328.662	15129
328.750	13559
328.838	5347
328.926	2747
329.014	2126
329.102	3777
329.190	10621
329.278	9841
329.366	2351
329.454	1909
329.542	2403
329.630	2274
329.718	2458
329.806	3315
329.893	3932
329.981	4864
330.069	6757
330.157	18439
330.245	55267
330.333	42394
330.421	10152
330.509	5917
330.597	19545
330.684	19112
330.772	6439
330.860	8073
330.948	10747
331.036	6247
331.123	1876
331.211	2542
331.299	3518
331.387	6563
331.475	18050
331.562	5934
331.650	2745
331.738	2717
331.825	4518
331.913	3043
332.001	1940
332.089	2734
332.176	7453
332.264	15256
332.352	18175
332.439	5293
332.527	2963
332.614	2951
332.702	4620
332.790	3323
332.877	6219
332.965	17813
333.052	5905
333.140	3838
333.228	9735
333.315	3608
333.403	3412
333.490	9103
333.578	10538
333.665	9694
333.753	7384
333.840	2651
333.928	4121
334.015	9635
334.103	15326
334.190	49169
334.278	21425
334.365	5061
334.452	3931
334.540	2163
334.627	2535
334.715	5575
334.802	9402
334.889	44222
334.977	71008
335.064	9110
335.151	3490
335.239	3516
335.326	5584
335.413	17583
335.501	43120
335.588	7415
335.675	2889
335.762	4382
335.850	9431
335.937	4960
336.024	10229
336.111	54809
336.199	35824
336.286	5010
336.373	2270
336.460	1963
336.547	1888
336.635	3315
336.722	3431
336.809	2932
336.896	4039
336.983	13233
337.070	39938
337.157	57119
337.245	37736
337.332	38526
337.419	4970
337.506	3468
337.593	3302
337.680	9735
337.767	44412
337.854	15744
337.941	13499
338.028	15319
338.115	7522
338.202	5888
338.289	9531
338.376	38378
338.463	19850
338.550	18376
338.637	33332
338.724	7103
338.811	14454
338.898	3669
338.984	1996
339.071	3185
339.158	3627
339.245	10471
339.332	9045
339.419	6593
339.506	11400
339.593	1330
339.679	1902
339.766	1715
339.853	2866
339.940	7986
340.027	2932
340.113	2210
340.200	3946
340.287	2705
340.374	2942
340.460	7470
340.547	3652
340.634	4112
340.720	16624
340.807	15784
340.894	2581
340.980	1874
341.067	2110
341.154	3020
341.240	3122
341.327	10509
341.414	4099
341.500	4100
341.587	3133
341.674	1786
341.760	5052
341.847	8767
341.933	3561
342.020	599
342.106	1090
342.193	660
342.279	6004
342.366	3975
342.452	7125
342.539	4357
342.625	7164
342.712	21899
342.798	11993
342.885	4793
342.971	1132
343.058	1688
343.144	938
343.230	1814
343.317	1851
343.403	2123
343.490	1016
343.576	1338
343.662	1672
343.749	2163
343.835	3443
343.921	5340
344.008	19639
344.094	65244
344.180	21735
344.267	6578
344.353	15003
344.439	25662
344.525	11893
344.612	6867
344.698	6214
344.784	4334
344.870	2071
344.957	1510
345.043	4545
345.129	2355
345.215	6559
345.301	3832
345.387	2126
345.474	1438
345.560	1523
345.646	2364
345.732	1921
345.818	2825
345.904	2052
345.990	2220
346.076	2401
346.162	6288
346.249	3409
346.335	1092
346.421	1957
346.507	4443
346.593	25126
346.679	10324
346.765	2834
346.851	1623
346.937	2909
347.023	1693
347.108	2113
347.194	2594
347.280	1799
347.366	2260
347.452	5265
347.538	26283
347.624	25037
347.710	24947
347.796	5900
347.882	2282
347.967	2138
348.053	3453
348.139	3417
348.225	1274
348.311	1895
348.397	1083
348.482	1666
348.568	2834
348.654	1785
348.740	1090
348.825	907
348.911	2456
348.997	10138
349.083	29404
349.168	7874
349.254	1938
349.340	2263
349.425	1291
349.511	2405
349.597	3945
349.682	5199
349.768	18760
349.854	13041
349.939	3014
350.025	1433
350.110	2735
350.196	1378
350.282	1493
350.367	1118
350.453	2568
350.538	4898
350.624	2801
350.709	3691
350.795	1404
350.880	2446
350.966	2604
351.051	3072
351.137	3285
351.222	1417
351.308	4606
351.393	21585
351.479	8099
351.564	1596
351.649	1892
351.735	1660
351.820	844
351.906	1317
351.991	2951
352.076	8868
352.162	23667
352.247	6003
352.332	2535
352.418	5261
352.503	6600
352.588	23067
352.673	33203
352.759	7331
352.844	2894
352.929	2660
353.014	4982
353.100	2905
353.185	3295
353.270	6340
353.355	10097
353.441	2680
353.526	2830
353.611	5563
353.696	10059
353.781	5317
353.866	2944
353.952	1726
354.037	5879
354.122	16270
354.207	16496
354.292	7798
354.377	2012
354.462	1826
354.547	3249
354.632	3109
354.717	3752
354.802	4591
354.887	2250
354.972	1651
355.057	1160
355.142	1370
355.227	2227
355.312	3645
355.397	9165
355.482	24544
355.567	17290
355.652	7729
355.737	10176
355.822	19287
355.907	27107
355.991	5330
356.076	2695
356.161	1583
356.246	985
356.331	1998
356.416	4086
356.501	24835
356.585	45513
356.670	8948
356.755	3582
356.840	4647
356.924	16678
357.009	80066
357.094	52233
357.179	9559
357.263	7290
357.348	5001
357.433	7560
357.517	5136
357.602	5557
357.687	3551
357.771	3975
357.856	15486
357.941	13197
358.025	13426
358.110	72516
358.195	55521
358.279	9600
358.364	5348
358.448	14268
358.533	47146
358.617	43396
358.702	35766
358.787	18339
358.871	7564
358.956	8027
359.040	2791
359.125	1507
359.209	1990
359.294	5664
359.378	16486
359.462	7593
359.547	4317
359.631	2968
359.716	1381
359.800	2363
359.885	4375
359.969	3307
360.053	2002
360.138	2547
360.222	3422
360.306	6926
360.391	7526
360.475	7811
360.559	25240
360.644	19612
360.728	18570
360.812	13634
360.896	53628
360.981	30684
361.065	21135
361.149	4870
361.233	3785
361.318	2458
361.402	3833
361.486	3407
361.570	2448
361.654	2845
361.739	6867
361.823	25979
361.907	60033
361.991	15157
362.075	5641
362.159	14391
362.243	11195
362.327	6758
362.411	6110
362.495	4173
362.580	3417
362.664	1771
362.748	2012
362.832	1793
362.916	2027
363.000	5955
363.084	22115
363.168	64378
363.252	22977
363.336	6515
363.420	7590
363.503	26423
363.587	52764
363.671	11130
363.755	5304
363.839	8249
363.923	4096
364.007	5183
364.091	9260
364.175	8956
364.258	48403
364.342	38057
364.426	11757
364.510	8160
364.594	7637
364.677	8345
364.761	36704
364.845	42548
364.929	13388
365.013	13584
365.096	8078
365.180	12893
365.264	9394
365.347	52995
365.431	35799
365.515	8939
365.598	3795
365.682	2692
365.766	5172
365.849	10474
365.933	3637
366.017	4375
366.100	5400
366.184	1534
366.267	2403
366.351	1940
366.435	1888
366.518	1461
366.602	1274
366.685	1944
366.769	2347
366.852	4663
366.936	9910
367.019	6516
367.103	3478
367.186	10986
367.270	4024
367.353	1172
367.436	1240
367.520	842
367.603	2151
367.687	3324
367.770	9299
367.853	5110
367.937	8556
368.020	25342
368.104	8132
368.187	5291
368.270	9712
368.353	9875
368.437	9644
368.520	26129
368.603	21254
368.687	13974
368.770	36820
368.853	12428
368.936	7969
369.020	11975
369.103	4102
369.186	1733
369.269	2582
369.352	4081
369.436	10017
369.519	6585
369.602	2949
369.685	2686
369.768	3194
369.851	3408
369.934	1586
370.018	1906
370.101	7696
370.184	6712
370.267	4443
370.350	6486
370.433	10979
370.516	18205
370.599	29881
370.682	9221
370.765	17915
370.848	22722
370.931	39684
371.014	24297
371.097	4497
371.180	2666
371.263	1390
371.346	1420
371.429	1912
371.511	1902
371.594	3871
371.677	7808
371.760	11034
371.843	7143
371.926	19030
372.009	67389
372.091	32151
372.174	13613
372.257	31243
372.340	19063
372.423	12003
372.505	19733
372.588	8474
372.671	7960
372.754	35993
372.836	27979
372.919	13101
373.002	40483
373.085	16549
373.167	7066
373.250	14346
373.332	33101
373.415	35883
373.498	93373
373.580	48974
373.663	28223
373.746	59138
373.828	19956
373.911	8022
373.993	6682
374.076	26976
374.159	43461
374.241	11706
374.324	30723
374.406	31337
374.489	17116
374.571	66276
374.654	43402
374.736	12587
374.819	37811
374.901	57132
374.983	78202
375.066	19367
375.148	5305
375.231	16539
375.313	58384
375.395	28871
375.478	5967
375.560	2709
375.643	3371
375.725	9613
375.807	48455
375.890	58096
375.972	31742
376.054	13290
376.136	22030
376.219	12538
376.301	9653
376.383	47815
376.465	27492
376.548	13581
376.630	13070
376.712	38000
376.794	30302
376.877	3246
376.959	1840
377.041	2365
377.123	5970
377.205	12140
377.287	3257
377.369	2615
377.452	1599
377.534	1298
377.616	1313
377.698	1857
377.780	860
377.862	1979
377.944	1877
378.026	1124
378.108	1352
378.190	1199
378.272	1325
378.354	1230
378.436	992
378.518	2280
378.600	15198
378.682	14864
378.764	20613
378.846	27009
378.928	7381
379.010	8690
379.091	6063
379.173	1847
379.255	1450
379.337	2589
379.419	7875
379.501	33270
379.583	21261
379.664	3546
379.746	7633
379.828	21230
379.910	33314
379.991	35602
380.073	7962
380.155	3370
380.237	2900
380.318	1509
380.400	1861
380.482	4556
380.564	10016
380.645	7683
380.727	9112
380.809	4949
380.890	2925
380.972	2188
381.053	2997
381.135	3178
381.217	5599
381.298	26056
381.380	17741
381.461	8231
381.543	30326
381.624	64429
381.706	16725
381.787	6057
381.869	5609
381.951	10914
382.032	59023
382.113	59083
382.195	15538
382.276	7676
382.358	8498
382.439	32852
382.521	36723
382.602	65421
382.684	36559
382.765	49404
382.846	65957
382.928	80509
383.009	60150
383.090	25491
383.172	81970
383.253	194172
383.334	80207
383.416	59446
383.497	42389
383.578	14781
383.659	23851
383.741	66721
383.822	236101
383.903	178888
383.984	48007
384.066	73829
384.147	66366
384.228	14938
384.309	8272
384.390	7169
384.471	4630
384.553	4353
384.634	7791
384.715	8958
384.796	4611
384.877	4244
384.958	15370
385.039	32388
385.120	13917
385.201	5006
385.282	6232
385.363	6968
385.444	5488
385.525	5858
385.606	22943
385.687	31183
385.768	7773
385.849	7794
385.930	22191
386.011	57125
386.092	24032
386.173	5169
386.254	2859
386.335	4499
386.416	4311
386.496	10524
386.577	29267
386.658	13669
386.739	6581
386.820	6193
386.901	4632
386.981	3926
387.062	2827
387.143	3245
387.224	17143
387.304	28048
387.385	9616
387.466	4827
387.547	7310
387.627	4247
387.708	4775
387.789	29130
387.869	53751
387.950	18200
388.031	2941
388.111	2203
388.192	7645
388.273	16201
388.353	10603
388.434	4476
388.514	5170
388.595	23616
388.676	48408
388.756	31895
388.837	23463
388.917	21443
388.998	3922
389.078	3777
389.159	2366
389.239	2078
389.320	4011
389.400	4153
389.480	5529
389.561	22520
389.641	16169
389.722	3937
389.802	8234
389.883	8578
389.963	22444
390.043	23522
390.124	8219
390.204	6121
390.284	26712
390.365	25953
390.445	17923
390.525	50955
390.605	56790
390.686	21957
390.766	6716
390.846	3238
390.927	1584
391.007	2672
391.087	2595
391.167	2845
391.247	2772
391.328	3947
391.408	7867
391.488	7828
391.568	1311
391.648	2043
391.728	5450
391.808	4116
391.888	5162
391.969	8061
392.049	22043
392.129	13144
392.209	8553
392.289	22823
392.369	18546
392.449	15446
392.529	12196
392.609	6532
392.689	5334
392.769	18722
392.849	24958
392.929	10117
393.009	32179
393.089	29742
393.169	8563
393.248	14376
393.328	90363
393.408	179696
393.488	46527
393.568	8987
393.648	5570
393.728	4069
393.807	3562
393.887	3936
393.967	3251
394.047	5068
394.127	7805
394.206	12617
394.286	33268
394.366	150996
394.446	248873
394.525	93438
394.605	22143
394.685	12523
394.764	19740
394.844	37592
394.924	35383
395.003	10357
395.083	6162
395.163	5663
395.242	4126
395.322	5290
395.402	3725
395.481	5092
395.561	9726
395.640	40810
395.720	33497
395.799	38550
395.879	50324
395.958	23642
396.038	53629
396.117	200263
396.197	310005
396.276	143762
396.356	47110
396.435	27752
396.515	15933
396.594	9871
396.673	13103
396.753	20877
396.832	106199
396.912	135586
396.991	43614
397.070	9496
397.150	5455
397.229	3404
397.308	2617
397.388	3963
397.467	3268
397.546	1524
397.625	1129
397.705	3491
397.784	3710
397.863	2639
397.942	1642
398.022	1663
398.101	6074
398.180	37903
398.259	30026
398.338	6885
398.417	3494
398.497	2534
398.576	2463
398.655	1363
398.734	1128
398.813	1665
398.892	4872
398.971	37738
399.050	32042
399.129	3936
399.208	1023
399.287	1317
399.366	1271
399.445	1439
399.524	1105
399.603	1500
399.682	2678
399.761	8749
399.840	33536
399.919	46261
399.998	7896
400.077	1231
400.156	252
400.235	2214
400.313	1357
400.392	1833
400.471	8165
400.550	26186
400.629	9758
400.708	2924
400.786	2092
400.865	6944
400.944	12356
401.023	6413
401.102	1284
401.180	106
401.259	405
401.338	1385
401.416	1904
401.495	2474
401.574	1953
401.652	1687
401.731	2668
401.810	3265
401.888	970
401.967	-136
402.046	885
402.124	1741
402.203	3938
402.281	1937
402.360	2288
402.438	9467
402.517	12717
402.596	2926
402.674	2039
402.753	1339
402.831	705
402.910	1244
402.988	3701
403.066	17477
403.145	16587
403.223	4799
403.302	13793
403.380	12711
403.459	11183
403.537	5830
403.615	1408
403.694	18
403.772	1049
403.850	-109
403.929	-145
404.007	78
404.085	1854
404.164	2609
404.242	1027
404.320	3796
404.398	17597
404.477	25690
404.555	43876
404.633	65157
404.711	23219
404.789	14354
404.868	2728
404.946	1024
405.024	579
405.102	986
405.180	683
405.258	-207
405.336	958
405.415	-97
405.493	3278
405.571	3219
405.649	384
405.727	107
405.805	2012
405.883	1976
405.961	1556
406.039	3284
406.117	1193
406.195	1979
406.273	5935
406.351	40016
406.429	43786
406.507	8208
406.585	2856
406.663	829
406.740	2486
406.818	1894
406.896	1380
406.974	846
407.052	1143
407.130	16434
407.208	50050
407.285	14295
407.363	2000
407.441	1137
407.519	1066
407.596	840
407.674	3006
407.752	7976
407.830	14796
407.907	9857
407.985	2152
408.063	1041
408.141	1190
408.218	1157
408.296	2727
408.373	961
408.451	1517
408.529	1556
408.606	782
408.684	580
408.762	54
408.839	64
408.917	289
408.994	-78
409.072	165
409.149	-17
409.227	694
409.304	1050
409.382	138
409.459	248
409.537	1135
409.614	483
409.692	-99
409.769	527
409.846	454
409.924	1407
410.001	1031
410.079	1375
410.156	1511
410.233	259
410.311	598
410.388	343
410.465	483
410.543	1096
410.620	412
410.697	-6
410.775	1664
410.852	-436
410.929	709
411.006	2447
411.083	606
411.161	2972
411.238	4422
411.315	3713
411.392	852
411.469	1978
411.547	2594
411.624	-36
411.701	483
411.778	15
411.855	3303
411.932	2668
412.009	884
412.086	408
412.163	1665
412.240	1306
412.317	1694
412.394	2645
412.471	729
412.548	-192
412.625	-122
412.702	875
412.779	3241
412.856	2819
412.933	228
413.010	325
413.087	1197
413.164	7194
413.241	21790
413.318	7186
413.395	2498
413.471	3967
413.548	2116
413.625	161
413.702	1136
413.779	1731
413.855	144
413.932	-636
414.009	527
414.086	214
414.162	178
414.239	1238
414.316	6938
414.393	27244
414.469	17334
414.546	1529
414.623	450
414.699	-158
414.776	877
414.853	850
414.929	1300
415.006	369
415.082	1249
415.159	1239
415.236	1009
415.312	1015
415.389	1970
415.465	4009
415.542	2100
415.618	276
415.695	2591
415.771	1748
415.848	1683
415.924	1245
416.000	621
416.077	586
416.153	-485
416.230	-431
416.306	-475
416.383	-10
416.459	767
416.535	-916
416.612	-181
416.688	418
416.764	350
416.841	-433
416.917	-267
416.993	174
417.069	770
417.146	1662
417.222	4036
417.298	3082
417.374	455
417.451	762
417.527	1180
417.603	1910
417.679	1070
417.755	949
417.831	41
417.908	374
417.984	88
418.060	55
418.136	1521
418.212	5595
418.288	2094
418.364	403
418.440	109
418.516	1350
418.592	2200
418.668	4976
418.744	8544
418.820	9073
418.896	2331
418.972	350
419.048	58
419.124	1380
419.200	4133
419.276	831
419.352	-937
419.428	-239
419.504	86
419.579	766
419.655	1072
419.731	-82
419.807	3258
419.883	9085
419.959	10102
420.034	2586
420.110	2131
420.186	11504
420.262	19522
420.337	4003
420.413	847
420.489	1143
420.565	188
420.640	-62
420.716	308
420.792	-683
420.867	418
420.943	-307
421.019	1362
421.094	1860
421.170	304
421.245	-1445
421.321	-632
421.397	300
421.472	1247
421.548	3605
421.623	5117
421.699	1294
421.774	551
421.850	98
421.925	1933
422.001	2550
422.076	992
422.152	89
422.227	1896
422.302	2683
422.378	1910
422.453	3485
422.529	7221
422.604	27443
422.679	100776
422.755	89176
422.830	24484
422.905	6447
422.981	2305
423.056	1442
423.131	651
423.207	243
423.282	928
423.357	3193
423.432	4171
423.508	1891
423.583	6076
423.658	8583
423.733	1435
423.808	1752
423.883	1963
423.959	1865
424.034	510
424.109	525
424.184	91
424.259	-29
424.334	256
424.409	-361
424.484	112
424.559	955
424.634	-386
424.709	614
424.784	2313
424.859	634
424.934	381
425.009	6606
425.084	20889
425.159	12923
425.234	1966
425.309	-252
425.384	1471
425.459	7334
425.534	4129
425.609	718
425.683	15
425.758	216
425.833	757
425.908	1195
425.983	2384
426.058	18654
426.132	16056
426.207	2433
426.282	1966
426.357	3020
426.431	1037
426.506	404
426.581	152
426.655	89
426.730	-22
426.805	272
426.879	693
426.954	-11
427.029	805
427.103	8958
427.178	38884
427.253	33051
427.327	4416
427.402	2045
427.476	7728
427.551	8036
427.625	1583
427.700	945
427.774	262
427.849	1339
427.923	-205
427.998	116
428.072	267
428.147	2002
428.221	3849
428.296	15046
428.370	10813
428.444	1398
428.519	2499
428.593	7291
428.667	9146
428.742	6879
428.816	7584
428.890	9910
428.965	23699
429.039	12613
429.113	10404
429.188	6360
429.262	581
429.336	1223
429.410	7073
429.485	9426
429.559	5703
429.633	8676
429.707	1513
429.781	1187
429.855	12294
429.930	30225
430.004	21998
430.078	34593
430.152	41614
430.226	18850
430.300	26149
430.374	6332
430.448	1284
430.522	5030
430.596	32187
430.670	32597
430.744	15745
430.818	49299
430.892	22391
430.966	2177
431.040	1088
431.114	177
431.188	421
431.262	-35
431.336	300
431.410	1092
431.484	8179
431.557	12070
431.631	1480
431.705	25
431.779	378
431.853	6468
431.927	10965
432.000	1534
432.074	733
432.148	671
432.222	1590
432.295	177
432.369	236
432.443	418
432.516	6879
432.590	37976
432.664	29490
432.737	3742
432.811	461
432.885	229
432.958	-14
433.032	-681
433.106	-107
433.179	-78
433.253	-423
433.326	-256
433.400	-967
433.473	-110
433.547	-587
433.620	282
433.694	396
433.767	2800
433.841	437
433.914	-228
433.988	-332
434.061	-178
434.134	-311
434.208	-222
434.281	-75
434.355	-39
434.428	528
434.501	-525
434.575	-123
434.648	108
434.721	211
434.795	-1048
434.868	353
434.941	-901
435.014	-912
435.088	59
435.161	-390
435.234	1295
435.307	2575
435.381	1271
435.454	-188
435.527	-412
435.600	-55
435.673	-299
435.746	-148
435.819	-198
435.892	222
435.966	274
436.039	-423
436.112	502
436.185	-397
436.258	-998
436.331	-979
436.404	255
436.477	-378
436.550	122
436.623	181
436.696	-406
436.769	-274
436.842	-173
436.915	387
436.987	879
437.060	660
437.133	-169
437.206	-765
437.279	489
437.352	-565
437.425	-1041
437.498	674
437.570	946
437.643	3538
437.716	1034
437.789	-552
437.861	345
437.934	3972
438.007	4754
438.080	265
438.152	315
438.225	1473
438.298	7114
438.370	46707
438.443	40328
438.516	9446
438.588	1849
438.661	72
438.734	290
438.806	329
438.879	349
438.951	341
439.024	2118
439.096	1810
439.169	-457
439.241	30
439.314	-304
439.386	963
439.459	1677
439.531	3179
439.604	1958
439.676	417
439.749	-169
439.821	-352
439.893	-129
439.966	45
440.038	-35
440.110	835
440.183	360
440.255	-533
440.327	720
440.400	3653
440.472	25353
440.544	38378
440.617	6589
440.689	1502
440.761	1810
440.833	3331
440.905	3984
440.978	621
441.050	-739
441.122	-618
441.194	-425
441.266	115
441.338	-28
441.411	-75
441.483	5374
441.555	21737
441.627	8729
441.699	1451
441.771	2275
441.843	1023
441.915	-107
441.987	92
442.059	-466
442.131	-155
442.203	688
442.275	1126
442.347	1798
442.419	1083
442.491	1502
442.563	6652
442.635	7380
442.706	7221
442.778	12384
442.850	2787
442.922	-900
442.994	-199
443.066	1073
443.137	532
443.209	-568
443.281	268
443.353	852
443.425	4041
443.496	10964
443.568	19332
443.640	8287
443.711	1797
443.783	102
443.855	237
443.926	-143
443.998	-204
444.070	726
444.141	677
444.213	1009
444.285	2396
444.356	1916
444.428	2096
444.499	801
444.571	-606
444.642	-356
444.714	-703
444.785	1053
444.857	2036
444.928	5532
445.000	6758
445.071	3368
445.143	6347
445.214	2270
445.285	1506
445.357	8442
445.428	13337
445.500	27412
445.571	31393
445.642	13773
445.714	6201
445.785	13489
445.856	6259
445.928	2135
445.999	1948
446.070	1263
446.141	1049
446.213	3048
446.284	1053
446.355	867
446.426	1159
446.497	289
446.569	654
446.640	3084
446.711	3082
446.782	672
446.853	525
446.924	2045
446.995	524
447.066	602
447.138	1272
447.209	2654
447.280	-474
447.351	-166
447.422	-535
447.493	166
447.564	1790
447.635	2140
447.706	793
447.777	-176
447.847	-193
447.918	-504
447.989	614
448.060	1104
448.131	3772
448.202	4379
448.273	4092
448.344	1408
448.414	-80
448.485	-17
448.556	-323
448.627	-221
448.698	180
448.768	-392
448.839	15
448.910	960
448.981	2852
449.051	896
449.122	173
449.193	-413
449.263	372
449.334	14
449.405	230
449.475	3125
449.546	2929
449.616	2431
449.687	3649
449.758	757
449.828	485
449.899	-504
449.969	100
450.040	-1685
450.110	534
450.181	623
450.251	492
450.322	-217
450.392	521
450.463	-148
450.533	167
450.604	773
450.674	-12
450.744	373
450.815	55
450.885	-371
450.955	-346
451.026	-93
451.096	494
451.166	-239
451.237	1505
451.307	7224
451.377	6413
451.447	603
451.518	336
451.588	-10
451.658	225
451.728	103
451.799	4204
451.869	13375
451.939	5393
452.009	-230
452.079	187
452.149	270
452.219	1315
452.289	6338
452.360	11981
452.430	3835
452.500	380
452.570	114
452.640	1064
452.710	2875
452.780	9551
452.850	6400
452.920	7559
452.990	2762
453.060	959
453.129	857
453.199	2655
453.269	4471
453.339	28923
453.409	53424
453.479	31569
453.549	53386
453.619	64919
453.688	44353
453.758	8910
453.828	1545
453.898	870
453.968	740
454.037	641
454.087	273
454.107	117
454.168	470
454.177	516
454.247	-69
454.249	-26
454.316	888
454.330	900
454.386	984
454.411	1473
454.456	2089
454.492	5728
454.525	8947
454.574	6021
454.595	4777
454.655	1183
454.665	595
454.734	786
454.736	823
454.804	1994
454.817	2851
454.873	5934
454.898	8555
454.943	13088
454.979	9036
455.013	5425
455.060	2934
455.082	1909
455.141	1440
455.152	1364
455.221	3689
455.222	3854
455.291	14242
455.303	13928
455.360	12289
455.384	15696
455.430	20922
455.465	21622
455.499	22296
455.546	13541
455.569	9318
455.627	9042
455.638	9078
455.707	2254
455.708	2249
455.777	840
455.789	803
455.846	521
455.869	522
455.916	475
455.950	578
455.985	737
456.031	580
456.054	417
456.112	1043
456.124	1209
456.193	501
456.193	491
456.262	478
456.274	561
456.332	893
456.355	867
456.401	647
456.436	826
456.470	924
456.516	751
456.540	796
456.597	48
456.609	-163
456.678	311
456.678	306
456.747	249
456.759	135
456.817	-277
456.840	-124
456.886	138
456.920	207
456.955	166
457.001	320
457.024	494
457.082	503
457.093	510
457.162	629
457.163	643
457.232	2018
457.243	1902
457.301	925
457.324	629
457.370	403
457.405	334
457.439	224
457.485	224
457.508	230
457.566	346
457.577	363
457.646	612
457.647	622
457.715	1066
457.727	1102
457.784	1300
457.808	1122
457.853	858
457.889	1518
457.922	1856
457.969	1111
457.991	922
458.050	1214
458.060	1266
458.129	1327
458.130	1356
458.198	1753
458.211	1659
458.267	1318
458.292	948
458.336	406
458.372	306
458.405	495
458.453	622
458.474	688
458.533	1768
458.543	1891
458.611	2768
458.614	2828
458.680	3234
458.694	2858
458.749	1757
458.775	1428
458.818	1102
458.855	999
458.887	889
458.936	434
458.955	271
459.016	1049
459.024	1116
459.093	1079
459.097	1023
459.162	350
459.177	596
459.230	1311
459.257	1378
459.299	1391
459.338	1253
459.368	1290
459.418	1356
459.437	1196
459.499	1442
459.505	1498
459.574	741
459.579	786
459.643	1004
459.659	772
459.711	483
459.740	636
459.780	767
459.820	1008
459.849	1182
459.900	1195
459.917	1122
459.981	1424
459.986	1463
460.054	1311
460.061	1305
460.123	989
460.141	1066
460.191	1897
460.222	2227
460.260	2233
460.302	2322
460.328	2265
460.382	2219
460.397	2201
460.462	1542
460.465	1556
460.534	2099
460.543	2189
460.602	4077
460.623	4926
460.671	9025
460.703	12464
460.739	12870
460.783	14890
460.808	13800
460.864	5064
460.876	4458
460.944	2056
460.945	2031
461.013	1962
461.024	2025
461.081	1675
461.104	1438
461.150	1187
461.184	1382
461.218	1635
461.264	1411
461.286	1335
461.345	1516
461.355	1504
461.423	1484
461.425	1473
461.491	1052
461.505	1102
461.559	2367
461.585	2775
461.628	5601
461.665	8257
461.696	9658
461.745	13897
461.764	12652
461.825	6790
461.832	6772
461.901	2626
461.905	2504
461.969	1758
461.985	1774
462.037	1652
462.065	1529
462.105	1488
462.145	1481
462.173	2388
462.225	3987
462.241	4727
462.305	8209
462.310	8008
462.378	6457
462.385	5893
462.446	2910
462.465	2099
462.514	1750
462.545	2068
462.582	2216
462.625	2103
462.650	1855
462.705	1575
462.718	1616
462.785	1600
462.786	1618
462.854	3063
462.865	3224
462.922	4074
462.945	4629
462.990	3855
463.025	2963
463.058	2774
463.104	2070
463.126	1679
463.184	1155
463.194	1218
463.262	1585
463.264	1609
463.330	1819
463.344	1791
463.398	2073
463.424	2206
463.466	2216
463.504	2500
463.533	2677
463.583	2567
463.601	2656
463.663	2994
463.669	2994
463.737	2876
463.743	2896
463.805	4358
463.823	4781
463.873	8470
463.903	10719
463.940	12013
463.982	14162
464.008	12082
464.062	6697
464.076	6269
464.142	2581
464.144	2533
464.211	1975
464.221	1888
464.279	2252
464.301	2565
464.347	2275
464.381	1949
464.414	2579
464.461	3434
464.482	3507
464.540	3826
464.550	3676
464.617	2518
464.620	2466
464.685	3068
464.699	3245
464.753	4145
464.779	4572
464.820	5075
464.859	5592
464.888	5474
464.938	5281
464.956	5315
465.018	5318
465.023	5281
465.091	4638
465.098	4560
465.158	4473
465.177	4457
465.226	4413
465.257	4427
465.293	4095
465.336	3523
465.361	3977
465.416	5224
465.428	5544
465.495	7185
465.496	7223
465.563	11518
465.575	12233
465.631	16354
465.654	18355
465.698	12699
465.734	7588
465.765	6590
465.813	4584
465.833	4308
465.893	3936
465.900	3902
465.968	3713
465.972	3695
466.035	3897
466.052	3933
466.102	4068
466.131	4152
466.170	4314
466.210	4493
466.237	4768
466.290	5298
466.304	5225
466.369	4736
466.372	4769
466.439	5638
466.449	5750
466.506	5710
466.528	5664
466.573	6853
466.607	7759
466.641	11480
466.687	16627
466.708	19626
466.766	27940
466.775	26107
466.842	12199
466.845	11510
466.909	6956
466.925	5886
466.977	6153
467.004	6368
467.044	6094
467.083	5798
467.111	6336
467.163	7346
467.178	7647
467.242	8862
467.245	8795
467.312	7153
467.321	6928
467.379	7474
467.400	7655
467.446	7620
467.480	7576
467.559	8009
467.638	6442
467.717	5364
467.796	6763
467.875	7126
467.955	6476
468.034	8954
468.113	20403
468.192	33243
468.271	12526
468.350	5510
468.429	4278
468.508	5768
468.588	5242
468.667	5357
468.746	5907
468.825	6080
468.904	4707
468.983	5127
469.062	7709
469.141	11564
469.220	6112
469.299	4931
469.378	5650
469.456	6635
469.535	6862
469.614	6195
469.693	5906
469.772	7730
469.851	10119
469.930	8318
470.009	5478
470.088	5164
470.166	5259
470.245	6321
470.324	8058
470.403	6630
470.482	5065
470.560	4703
470.639	5068
470.718	5495
470.797	6023
470.875	4982
470.954	7849
471.033	9389
471.111	4872
471.190	4490
471.269	4143
471.347	4432
471.426	4701
471.505	5845
471.583	6630
471.662	5743
471.740	4810
471.819	4968
471.898	4575
471.976	5462
472.055	4510
472.133	4984
472.212	7156
472.290	7046
472.369	5392
472.447	4453
472.526	3696
472.604	4321
472.683	4432
472.761	4899
472.839	4578
472.918	3998
472.996	4500
473.075	5295
473.153	5449
473.231	4555
473.310	4782
473.388	5685
473.466	5191
473.545	4731
473.623	6006
473.701	6509
473.780	5426
473.858	5016
473.936	5268
474.014	4669
474.093	3894
474.171	6592
474.249	9844
474.327	7696
474.405	3869
474.484	3796
474.562	3281
474.640	3557
474.718	4475
474.796	4536
474.874	3959
474.952	3582
475.030	3787
475.108	5329
475.187	5178
475.265	4596
475.343	4329
475.421	5815
475.499	4549
475.577	4405
475.655	5185
475.733	9716
475.811	18344
475.889	17389
475.966	14737
476.044	4759
476.122	4777
476.200	4817
476.278	4751
476.356	3603
476.434	4267
476.512	4664
476.590	5378
476.667	5408
476.745	3391
476.823	3487
476.901	4380
476.979	4764
477.056	4466
477.134	4530
477.212	4549
477.290	4899
477.367	3576
477.445	4368
477.523	3973
477.601	3781
477.678	3869
477.756	4544
477.834	4986
477.911	3651
477.989	4140
478.066	3903
478.144	4546
478.222	4714
478.299	4529
478.377	5590
478.454	3227
478.532	3358
478.609	3512
478.687	3236
478.764	3203
478.842	3227
478.919	3721
478.997	4480
479.074	3364
479.152	3040
479.229	5636
479.307	3690
479.384	2969
479.461	3286
479.539	3119
479.616	3911
479.694	3372
479.771	4008
479.848	4339
479.926	4789
480.003	6552
480.080	3831
480.157	2573
480.235	3056
480.312	3828
480.389	3350
480.467	5135
480.544	8616
480.621	5461
480.698	3640
480.775	3927
480.853	4920
480.930	4226
481.007	4461
481.084	4143
481.161	4779
481.238	5265
481.315	3563
481.392	2958
481.470	3676
481.547	3046
481.624	4046
481.701	3840
481.778	3285
481.855	3446
481.932	5395
482.009	9585
482.086	9470
482.163	2955
482.240	3725
482.317	4929
482.393	5024
482.470	3635
482.547	3892
482.624	3676
482.701	3149
482.778	3449
482.855	2874
482.932	2576
483.009	2371
483.085	3395
483.162	3850
483.239	3609
483.316	3487
483.393	2474
483.469	2934
483.546	3704
483.623	4670
483.699	3330
483.776	3635
483.853	3544
483.930	4967
484.006	12807
484.083	30256
484.160	17140
484.236	21824
484.313	19328
484.389	14953
484.466	11869
484.543	11643
484.619	10797
484.696	11003
484.772	11787
484.849	12593
484.925	11340
485.002	9943
485.078	10504
485.155	11238
485.231	10377
485.308	9605
485.384	9708
485.461	11512
485.537	16078
485.614	23770
485.690	11820
485.766	9145
485.843	9747
485.919	10628
485.995	13300
486.072	9182
486.148	8491
486.224	8008
486.301	8420
486.377	10259
486.453	9736
486.530	9829
486.606	12665
486.682	15453
486.758	16175
486.835	20025
486.911	14626
486.987	20980
487.063	23572
487.139	23310
487.215	19483
487.292	12057
487.368	9580
487.444	9114
487.520	10411
487.596	10401
487.672	9373
487.748	12128
487.824	16971
487.900	11999
487.976	8834
488.052	9195
488.128	11370
488.204	10540
488.280	8796
488.356	9460
488.432	16500
488.508	31707
488.584	15899
488.660	8134
488.736	8603
488.812	8385
488.888	10941
488.964	11124
489.039	17472
489.115	30364
489.191	24680
489.267	9936
489.343	9107
489.418	7962
489.494	6914
489.570	6417
489.646	7308
489.722	7451
489.797	6969
489.873	9429
489.949	20719
490.024	24719
490.100	7952
490.176	6538
490.251	7869
490.327	8867
490.403	7010
490.478	6351
490.554	5445
490.629	5844
490.705	5151
490.781	5736
490.856	5844
490.932	5897
491.007	6329
491.083	6369
491.158	5860
491.234	7057
491.309	14308
491.385	20450
491.460	7552
491.536	6264
491.611	6406
491.686	5647
491.762	7495
491.837	11484
491.913	20794
491.988	26668
492.063	40530
492.139	17995
492.214	10162
492.289	6091
492.365	4606
492.440	5716
492.515	5590
492.590	6311
492.666	5413
492.741	5884
492.816	11113
492.891	7443
492.967	5405
493.042	4257
493.117	5355
493.192	5891
493.267	7864
493.342	26226
493.418	56729
493.493	15607
493.568	5235
493.643	3952
493.718	4778
493.793	7834
493.868	8714
493.943	5804
494.018	4987
494.093	5071
494.168	5067
494.243	3688
494.318	4069
494.393	4371
494.468	4010
494.543	3351
494.618	3237
494.693	4539
494.768	3242
494.842	4191
494.917	3577
494.992	3810
495.067	3264
495.142	3116
495.217	3785
495.292	4410
495.366	4039
495.441	6548
495.516	6952
495.591	8709
495.665	18215
495.740	56816
495.815	40813
495.890	7646
495.964	5654
496.039	5883
496.114	5598
496.188	5763
496.263	6440
496.338	5440
496.412	4779
496.487	7367
496.561	6496
496.636	7129
496.710	5943
496.785	6646
496.860	7883
496.934	6973
497.009	4859
497.083	6564
497.158	6408
497.232	6661
497.307	8483
497.381	7673
497.455	7984
497.530	11934
497.604	9440
497.679	8779
497.753	12474
497.827	17936
497.902	17815
497.976	18741
498.050	28518
498.125	116168
498.199	206300
498.273	38859
498.348	19916
498.422	14875
498.496	14738
498.570	13673
498.645	10221
498.719	10802
498.793	10211
498.867	16101
498.941	20539
499.016	37702
499.090	158323
499.164	103790
499.238	9709
499.312	6476
499.386	6912
499.460	7923
499.534	6780
499.609	7462
499.683	12390
499.757	14176
499.831	17061
499.905	80916
499.979	140050
500.053	22396
500.127	15273
500.201	9722
500.275	7024
500.349	6761
500.422	7032
500.496	9765
500.570	15793
500.644	38860
500.718	119596
500.792	48582
500.866	7011
500.940	8164
501.013	8800
501.087	6327
501.161	10196
501.235	15833
501.309	25119
501.382	78585
501.456	117547
501.530	22329
501.603	30022
501.677	20276
501.751	5019
501.825	6191
501.898	9810
501.972	32681
502.046	36590
502.119	7406
502.193	11202
502.266	38985
502.340	30593
502.413	13200
502.487	35533
502.561	26075
502.634	8704
502.708	5197
502.781	4192
502.855	4160
502.928	2818
503.002	3442
503.075	2636
503.149	3891
503.222	4531
503.295	4148
503.369	5802
503.442	7070
503.516	17358
503.589	65397
503.662	63079
503.736	16367
503.809	26835
503.882	31756
503.956	30419
504.029	45937
504.102	11726
504.175	10099
504.249	5732
504.322	4073
504.395	5621
504.468	3447
504.542	3245
504.615	2535
504.688	2720
504.761	2938
504.834	3093
504.907	4657
504.980	6759
505.053	5232
505.127	4440
505.200	6294
505.273	5261
505.346	4440
505.419	3164
505.492	2698
505.565	2298
505.638	1549
505.711	1960
505.784	2769
505.857	1969
505.930	2942
506.003	2634
506.076	3922
506.149	3606
506.221	6167
506.294	5233
506.367	8598
506.440	44732
506.513	44780
506.586	7009
506.659	4456
506.731	3541
506.804	2692
506.877	4773
506.950	4579
507.022	2800
507.095	2956
507.168	5574
507.241	3378
507.313	1620
507.386	1954
507.459	3950
507.531	3555
507.604	1993
507.677	2192
507.749	1622
507.822	3008
507.894	5999
507.967	9879
508.040	6205
508.112	4866
508.185	4981
508.257	4479
508.330	4933
508.402	4672
508.475	4713
508.547	3725
508.620	4476
508.692	7004
508.765	5879
508.837	3065
508.909	3414
508.982	3029
509.054	3790
509.127	4134
509.199	2943
509.271	3801
509.344	2547
509.416	3508
509.488	3181
509.560	3124
509.633	3779
509.705	3662
509.777	3960
509.849	5663
509.922	4547
509.994	3984
510.066	3842
510.138	3139
510.210	7262
510.283	8670
510.355	7038
510.427	6078
510.499	5176
510.571	5133
510.643	4867
510.715	5953
510.787	6282
510.859	5054
510.931	5299
511.003	6932
511.076	7224
511.148	4474
511.219	4297
511.291	5992
511.363	10106
511.435	5099
511.507	3781
511.579	3473
511.651	4437
511.723	4073
511.795	3748
511.867	4425
511.939	3537
512.010	7913
512.082	10140
512.154	5162
512.226	3955
512.298	5186
512.369	9559
512.441	8642
512.513	6360
512.585	5431
512.656	5396
512.728	6150
512.800	5561
512.871	4983
512.943	4390
513.015	4271
513.086	4849
513.158	3998
513.230	4390
513.301	6263
513.373	7505
513.444	4657
513.516	4522
513.588	5006
513.659	4217
513.731	4782
513.802	5160
513.874	6369
513.945	14195
514.016	8284
514.088	4854
514.159	4465
514.231	5514
514.302	7857
514.374	7260
514.445	6238
514.516	10504
514.588	10937
514.659	5788
514.730	9545
514.802	10815
514.873	5607
514.944	7401
515.016	5668
515.087	5909
515.158	7616
515.229	11394
515.301	7709
515.372	9078
515.443	6847
515.514	5269
515.585	3487
515.656	4421
515.728	4367
515.799	4336
515.870	4406
515.941	4163
516.012	4229
516.083	5961
516.154	6056
516.225	7372
516.296	7242
516.367	6490
516.438	6650
516.509	7516
516.580	9520
516.651	17600
516.722	73772
516.793	73414
516.864	12189
516.935	12068
517.006	12126
517.077	13666
517.148	24468
517.219	61436
517.289	177093
517.360	79335
517.431	40130
517.502	7804
517.573	7286
517.643	6061
517.714	6742
517.785	7405
517.856	6906
517.926	7708
517.997	9321
518.068	9752
518.138	13663
518.209	16482
518.280	37655
518.350	195510
518.421	162552
518.492	17722
518.562	8883
518.633	7395
518.703	5879
518.774	6716
518.845	8056
518.915	10797
518.986	6847
519.056	7197
519.127	12230
519.197	18111
519.268	44329
519.338	56731
519.408	10566
519.479	8916
519.549	7773
519.620	5554
519.690	4646
519.760	4147
519.831	4350
519.901	4369
519.971	4441
520.042	4613
520.112	5206
520.182	5649
520.253	5878
520.323	4815
520.393	5738
520.463	8656
520.534	5546
520.604	12501
520.674	8420
520.744	5182
520.814	11067
520.885	15099
520.955	12064
521.025	56599
521.095	48993
521.165	7306
521.235	5343
521.305	4006
521.375	3293
521.445	3869
521.515	4305
521.585	5411
521.655	6416
521.725	5336
521.795	5606
521.865	3605
521.935	5824
522.005	7234
522.075	3890
522.145	4577
522.215	3643
522.285	6248
522.355	6931
522.424	14557
522.494	17583
522.564	8258
522.634	8017
522.704	25466
522.774	21369
522.843	5453
522.913	3336
522.983	5010
523.053	4698
523.122	3628
523.192	4208
523.262	9871
523.331	20468
523.401	5687
523.471	2237
523.540	2934
523.610	2654
523.680	2877
523.749	2898
523.819	3122
523.888	4185
523.958	3258
524.027	3276
524.097	3269
524.166	2823
524.236	3079
524.305	4172
524.375	3214
524.444	2199
524.514	3531
524.583	3178
524.653	4022
524.722	4725
524.791	4201
524.861	3759
524.930	2325
524.999	2479
525.069	3392
525.138	4270
525.207	4128
525.277	4459
525.346	3288
525.415	2909
525.484	2644
525.554	3455
525.623	3016
525.692	3588
525.761	3023
525.830	2850
525.900	1975
525.969	3011
526.038	4201
526.107	3325
526.176	8319
526.245	10529
526.314	6555
526.383	7728
526.452	8448
526.522	11411
526.591	20259
526.660	15872
526.729	10041
526.797	8536
526.867	10370
526.935	56050
527.004	84683
527.073	39592
527.142	6597
527.211	3853
527.280	2672
527.349	4485
527.418	2515
527.487	3171
527.555	2621
527.624	2329
527.693	1868
527.762	2381
527.831	1830
527.899	2234
527.968	2295
528.037	2193
528.106	2995
528.174	4945
528.243	5510
528.312	5114
528.380	8598
528.449	3596
528.518	2053
528.586	1649
528.655	3033
528.723	2663
528.792	1614
528.861	2153
528.929	1538
528.998	3162
529.066	2876
529.135	1817
529.203	1827
529.272	1051
529.340	2415
529.409	2185
529.477	1892
529.545	2922
529.614	3777
529.682	3439
529.751	4431
529.819	4622
529.887	4075
529.956	1843
530.024	2537
530.092	2276
530.161	2663
530.229	3225
530.297	2945
530.365	2641
530.434	929
530.502	2055
530.570	2011
530.638	602
530.707	2795
530.775	3446
530.843	2068
530.911	2517
530.979	1281
531.047	2440
531.115	2144
531.183	2070
531.252	2759
531.320	1996
531.388	1970
531.456	2275
531.524	1287
531.592	2948
531.660	3350
531.728	2197
531.796	1233
531.864	1413
531.932	1878
532.000	1569
532.067	1604
532.135	2294
532.203	3018
532.271	2646
532.339	4066
532.407	10185
532.475	11323
532.542	4869
532.610	4827
532.678	4762
532.746	12387
532.814	58261
532.881	29336
532.949	4567
533.017	3665
533.084	2511
533.152	2843
533.220	1649
533.287	2773
533.355	2738
533.423	1723
533.490	1745
533.558	1913
533.625	2455
533.693	2593
533.761	2249
533.828	3406
533.896	2588
533.963	5215
534.031	7492
534.098	7822
534.166	6144
534.233	3474
534.300	2817
534.368	2936
534.435	2005
534.503	2862
534.570	2570
534.637	1754
534.705	1987
534.772	2382
534.840	2352
534.907	3870
534.974	6989
535.041	3189
535.109	3421
535.176	2274
535.243	2437
535.310	2431
535.378	1946
535.445	2380
535.512	2551
535.579	2478
535.646	1268
535.714	1572
535.781	3566
535.848	3550
535.915	3632
535.982	4099
536.049	4253
536.116	3467
536.183	2778
536.250	2882
536.317	3311
536.384	2833
536.451	3542
536.518	3939
536.585	2928
536.652	4277
536.719	5069
536.786	4786
536.853	3805
536.920	4713
536.987	8625
537.053	7106
537.120	20137
537.187	38697
537.254	5997
537.321	1720
537.388	2843
537.454	1641
537.521	1948
537.588	2439
537.654	3110
537.721	3359
537.788	3921
537.855	2711
537.921	2385
537.988	2498
538.055	2996
538.121	1945
538.188	2621
538.254	3712
538.321	5957
538.388	7262
538.454	2550
538.521	2029
538.587	2349
538.654	1508
538.720	3060
538.787	1901
538.853	2167
538.920	3476
538.986	3661
539.053	3164
539.119	2528
539.185	2963
539.252	3421
539.318	4709
539.385	4417
539.451	4563
539.517	4794
539.583	4180
539.650	6004
539.716	21964
539.782	13029
539.849	2907
539.915	3685
539.981	2500
540.047	3470
540.114	3218
540.180	4174
540.246	2748
540.312	3504
540.378	6406
540.444	10465
540.510	6893
540.576	21575
540.643	16196
540.709	4154
540.775	2791
540.841	2717
540.907	3620
540.973	5802
541.039	5067
541.105	6776
541.171	3478
541.237	2444
541.303	3421
541.369	3580
541.435	4019
541.500	6042
541.566	5235
541.632	2443
541.698	2122
541.764	2873
541.830	3086
541.896	1672
541.961	2615
542.027	2830
542.093	3325
542.159	3596
542.224	3362
542.290	4628
542.356	5534
542.421	9900
542.487	5482
542.553	3453
542.618	2952
542.684	3502
542.750	2875
542.815	3991
542.881	4773
542.947	14096
543.012	25909
543.078	4587
543.143	2420
543.209	3637
543.274	3235
543.340	4359
543.405	5544
543.471	14441
543.536	6453
543.602	2754
543.667	3040
543.732	4096
543.798	3232
543.863	3299
543.928	2984
543.994	2654
544.059	2812
544.124	2705
544.190	2534
544.255	2898
544.320	2833
544.386	3090
544.451	4456
544.516	4315
544.581	4142
544.646	7715
544.712	25500
544.777	9662
544.842	4213
544.907	3601
544.972	3286
545.037	4123
545.102	4395
545.168	3938
545.233	4566
545.298	4540
545.363	4872
545.428	5355
545.493	6027
545.558	16024
545.623	13704
545.688	4085
545.753	3850
545.818	4353
545.883	5010
545.947	4453
546.012	3394
546.077	5368
546.142	4247
546.207	3717
546.272	4720
546.337	5586
546.401	5086
546.466	4195
546.531	3406
546.596	5001
546.661	4031
546.725	4048
546.790	3456
546.855	3484
546.919	3733
546.984	4219
547.049	3769
547.113	4771
547.178	4006
547.243	4760
547.307	4669
547.372	5352
547.436	6165
547.501	4803
547.565	5058
547.630	4824
547.695	5146
547.759	6408
547.823	5861
547.888	4122
547.952	3796
548.017	4012
548.081	4898
548.146	5911
548.210	7087
548.274	4204
548.339	4513
548.403	4616
548.468	3401
548.532	3381
548.596	3707
548.660	4382
548.725	4790
548.789	5003
548.853	6843
548.917	4601
548.982	4446
549.046	8044
549.110	3993
549.174	4169
549.238	3629
549.303	3543
549.367	4522
549.431	3836
549.495	3726
549.559	3516
549.623	4239
549.687	3803
549.751	6734
549.815	5826
549.879	5495
549.943	3993
550.007	4685
550.071	4488
550.135	6401
550.199	5533
550.263	5179
550.327	4556
550.391	6223
550.455	5768
550.519	4374
550.582	4978
550.646	5383
550.710	7621
550.774	5561
550.838	4722
550.901	5609
550.965	5829
551.029	5163
551.093	7092
551.156	6780
551.220	11872
551.284	20096
551.347	10174
551.411	13301
551.475	25564
551.538	10106
551.602	5869
551.666	4637
551.729	4530
551.793	4512
551.856	5736
551.920	4880
551.983	5000
552.047	4069
552.110	4410
552.174	4447
552.237	4702
552.301	4396
552.364	4247
552.428	4489
552.491	4238
552.554	4591
552.618	4272
552.681	4840
552.745	4987
552.808	6485
552.871	8951
552.934	6940
552.998	4437
553.061	5159
553.124	4983
553.187	5661
553.251	5450
553.314	6652
553.377	6347
553.440	8499
553.503	18317
553.567	59063
553.630	23804
553.693	6022
553.756	4601
553.819	4319
553.882	3751
553.945	3336
554.008	2932
554.071	3336
554.134	4785
554.197	4001
554.260	3696
554.323	4525
554.386	4231
554.449	4498
554.512	4732
554.575	3338
554.638	4290
554.701	4265
554.764	4807
554.827	4067
554.889	4208
554.952	3376
555.015	3144
555.078	3827
555.141	3665
555.203	3309
555.266	3316
555.329	4155
555.391	3726
555.454	4291
555.517	3038
555.580	3553
555.642	3601
555.705	3236
555.768	3841
555.830	4202
555.893	3030
555.955	3633
556.018	3515
556.080	3789
556.143	2784
556.206	2753
556.268	3634
556.330	4219
556.393	4828
556.455	3725
556.518	5510
556.580	7279
556.643	3938
556.705	3158
556.767	2884
556.830	3803
556.892	3172
556.955	4257
557.017	5271
557.079	3786
557.142	3367
557.204	3913
557.266	6361
557.328	7760
557.391	3576
557.453	2645
557.515	3044
557.577	3186
557.639	4396
557.701	3743
557.764	3178
557.826	3193
557.888	4018
557.950	2683
558.012	2640
558.074	3462
558.136	3708
558.198	7893
558.260	7397
558.322	4341
558.384	3253
558.446	4318
558.508	3641
558.570	5426
558.632	7218
558.694	13761
558.756	10546
558.818	10786
558.880	35989
558.942	25516
559.003	8086
559.065	7809
559.127	3903
559.189	3125
559.251	4464
559.312	3999
559.374	6050
559.436	18208
559.498	21336
559.559	4993
559.621	4552
559.683	4435
559.744	5603
559.806	10327
559.868	20575
559.929	9569
559.991	5311
560.052	5564
560.114	8099
560.176	9928
560.237	5247
560.299	9114
560.360	7407
560.422	3556
560.483	4428
560.545	3879
560.606	3698
560.667	3100
560.729	3398
560.790	3754
560.852	3598
560.913	3781
560.974	3833
561.036	2885
561.097	3669
561.158	4405
561.220	4935
561.281	4236
561.342	4927
561.403	4959
561.465	4849
561.526	8457
561.587	17248
561.648	7923
561.709	4400
561.771	4355
561.832	4311
561.893	4306
561.954	4817
562.015	3164
562.076	4076
562.137	4348
562.198	3781
562.259	4137
562.320	4150
562.381	4081
562.442	5241
562.503	6100
562.564	4657
562.625	4323
562.686	4319
562.747	3996
562.808	4100
562.869	4074
562.930	5684
562.991	5094
563.051	5636
563.112	4665
563.173	4561
563.234	4202
563.294	4127
563.355	3883
563.416	4431
563.477	5137
563.537	4054
563.598	5189
563.659	3769
563.720	4090
563.780	4123
563.841	4926
563.901	5169
563.962	4878
564.023	4238
564.083	4887
564.144	4608
564.204	5065
564.265	4627
564.325	4320
564.386	7947
564.446	11323
564.507	5752
564.567	5232
564.628	5063
564.688	5100
564.749	4140
564.809	4820
564.869	5418
564.930	4286
564.990	5323
565.050	3990
565.111	4031
565.171	3977
565.231	4362
565.292	4911
565.352	3973
565.412	4928
565.472	4607
565.532	4653
565.593	4983
565.653	4008
565.713	4995
565.773	5078
565.833	5281
565.893	7149
565.953	5483
566.013	4500
566.074	5341
566.134	6617
566.194	8605
566.254	11264
566.314	7322
566.374	6560
566.434	5290
566.494	5856
566.554	5281
566.614	5668
566.673	4963
566.733	6334
566.793	6843
566.853	6604
566.913	7410
566.973	6943
567.033	8221
567.092	7389
567.152	7048
567.212	7170
567.272	8110
567.331	7533
567.391	6815
567.451	7994
567.511	9976
567.570	11407
567.630	8394
567.690	6805
567.749	7559
567.809	7538
567.868	8436
567.928	10120
567.988	11656
568.047	13287
568.107	15124
568.166	19585
568.226	28339
568.285	41844
568.345	44672
568.404	34329
568.464	28590
568.523	26069
568.582	26222
568.642	27905
568.701	31346
568.761	42782
568.820	65868
568.879	81522
568.939	65243
568.998	48225
569.057	35633
569.116	26402
569.176	21304
569.235	17701
569.294	14309
569.353	12195
569.413	11591
569.472	10823
569.531	9755
569.590	8576
569.649	8272
569.708	7674
569.767	7349
569.827	8023
569.886	7756
569.945	6283
570.004	6476
570.063	6070
570.122	5802
570.181	6728
570.240	7172
570.299	7463
570.358	6686
570.417	5685
570.475	5284
570.534	5844
570.593	5816
570.652	6443
570.711	5147
570.770	5378
570.829	6447
570.887	5187
570.946	5704
571.005	4571
571.064	4576
571.122	5865
571.181	5865
571.240	5162
571.299	4768
571.357	5810
571.416	5254
571.475	4974
571.533	7043
571.592	5541
571.650	4427
571.709	4075
571.768	4778
571.826	5228
571.885	4566
571.943	3805
572.002	4152
572.060	4872
572.119	3879
572.177	4448
572.236	4101
572.294	3262
572.352	4562
572.411	4467
572.469	3539
572.528	5178
572.586	4450
572.644	4003
572.703	5871
572.761	4798
572.819	4958
572.877	4237
572.936	3268
572.994	3696
573.052	4112
573.110	3917
573.169	4218
573.227	4247
573.285	3993
573.343	3160
573.401	3811
573.459	4218
573.517	3908
573.576	3709
573.634	4815
573.692	3542
573.750	4576
573.808	4750
573.866	4036
573.924	4500
573.982	5882
574.040	4524
574.098	4450
574.155	4348
574.213	3193
574.271	4178
574.329	4172
574.387	3147
574.445	4027
574.503	3679
574.560	3333
574.618	4242
574.676	3437
574.734	3807
574.792	3311
574.849	4088
574.907	3334
574.965	4068
575.022	3576
575.080	3509
575.138	3577
575.195	4514
575.253	4037
575.311	3314
575.368	4053
575.426	4204
575.483	3896
575.541	3414
575.598	2637
575.656	3722
575.713	3858
575.771	4135
575.828	3795
575.886	3307
575.943	3963
576.001	3864
576.058	4044
576.115	4423
576.173	4958
576.230	5193
576.287	5387
576.345	5679
576.402	4650
576.459	4452
576.517	4299
576.574	3713
576.631	5092
576.688	5889
576.746	4213
576.803	4065
576.860	4088
576.917	4782
576.974	4549
577.031	3918
577.089	4910
577.146	3885
577.203	4967
577.260	3993
577.317	4052
577.374	5648
577.431	5595
577.488	4955
577.545	4849
577.602	4387
577.659	4764
577.716	5557
577.773	5069
577.830	5751
577.886	4893
577.943	4698
578.000	4969
578.057	4241
578.114	5266
578.171	5601
578.227	6231
578.284	8038
578.341	5827
578.398	6148
578.454	5816
578.511	5149
578.568	6110
578.625	5527
578.681	5545
578.738	5073
578.794	4590
578.851	5072
578.908	4910
578.964	5090
579.021	4479
579.077	5019
579.134	4037
579.190	5253
579.247	4209
579.303	4396
579.360	4329
579.416	4512
579.473	4965
579.529	4536
579.586	4309
579.642	4335
579.698	4765
579.755	5764
579.811	4985
579.867	5637
579.924	6075
579.980	4883
580.036	5688
580.093	7283
580.149	7550
580.205	10870
580.261	9770
580.317	7549
580.374	6300
580.430	5896
580.486	6637
580.542	5931
580.598	5933
580.619	5711
580.654	5327
580.692	5020
580.710	4865
580.765	5478
580.767	5494
580.823	5365
580.838	5429
580.879	5610
580.911	5035
580.935	4604
580.984	4878
580.991	4911
581.047	4811
581.057	4756
581.103	4533
581.130	5248
581.159	5987
581.203	6188
581.215	6236
581.270	6074
581.276	6107
581.326	6357
581.349	6026
581.382	5503
581.422	5493
581.438	5499
581.494	6443
581.494	6440
581.550	5748
581.567	5901
581.606	6242
581.640	6195
581.661	6159
581.713	6095
581.717	6086
581.773	6335
581.786	6176
581.829	5665
581.859	6070
581.885	6417
581.932	6212
581.940	6164
581.996	6112
582.004	6277
582.052	7197
582.077	7079
582.107	6923
582.150	6898
582.163	6910
582.219	6509
582.223	6554
582.274	7028
582.296	7086
582.330	7117
582.368	7459
582.386	7616
582.441	7421
582.441	7417
582.497	6699
582.514	6970
582.552	7785
582.587	8205
582.608	8413
582.659	7373
582.663	7273
582.719	7490
582.732	7571
582.774	7947
582.805	8186
582.830	8347
582.877	8061
582.885	8035
582.941	7943
582.950	7993
582.996	8113
583.023	8722
583.052	9492
583.095	9568
583.107	9617
583.162	9913
583.168	10085
583.218	11640
583.240	11467
583.273	10883
583.313	10444
583.328	10233
583.384	10205
583.385	10179
583.439	9781
583.458	9848
583.494	10020
583.531	9626
583.549	9370
583.603	9808
583.605	9827
583.660	10185
583.676	10040
583.715	9706
583.748	10156
583.770	10476
583.820	10398
583.825	10400
583.881	11051
583.893	11072
583.936	10860
583.965	10434
583.991	10189
584.038	10904
584.046	11041
584.101	10835
584.110	10999
584.156	11870
584.183	11727
584.211	11538
584.255	11804
584.266	11916
584.321	11019
584.328	11152
584.376	12280
584.400	12063
584.431	11753
584.472	12099
584.486	12145
584.541	12439
584.545	12427
584.596	12820
584.617	12929
584.651	13158
584.689	13528
584.706	13662
584.761	13913
584.762	13907
584.816	15020
584.834	15075
584.871	14697
584.906	14511
584.926	14643
584.978	15120
584.980	15145
585.035	15324
585.051	15391
585.090	15978
585.123	16534
585.145	16849
585.195	16708
585.200	16724
585.254	17773
585.267	17952
585.309	19291
585.340	20250
585.364	20805
585.412	21408
585.419	21311
585.473	20409
585.484	20118
585.528	20364
585.556	20849
585.583	21437
585.628	22411
585.637	23064
585.692	28117
585.700	29101
585.747	37543
585.772	40410
585.801	37548
585.845	30260
585.856	28623
585.910	24348
585.917	23795
585.965	23921
585.989	23909
586.019	24123
586.061	24244
586.074	24332
586.128	24581
586.133	24623
586.183	26068
586.205	26620
586.237	27668
586.277	28186
586.292	28249
586.346	28523
586.349	28516
586.401	29477
586.421	29396
586.455	29492
586.493	30376
586.509	31535
586.564	35039
586.565	35079
586.618	43052
586.637	45938
586.672	48506
586.709	46882
586.727	43572
586.781	36153
586.781	36231
586.835	37815
586.853	38145
586.889	38266
586.925	38341
586.944	38917
586.996	40206
586.998	40337
587.052	42466
587.068	42942
587.106	44511
587.140	45401
587.161	46091
587.212	47680
587.215	47885
587.269	49972
587.284	50666
587.323	52967
587.356	53992
587.377	54850
587.427	57447
587.431	57864
587.485	61373
587.499	62225
587.539	64714
587.571	66497
587.593	68523
587.643	72600
587.648	73133
587.702	77131
587.715	78007
587.755	82648
587.786	85898
587.810	88842
587.858	94703
587.864	95685
587.917	103218
587.930	104686
587.971	112595
588.001	118083
588.025	123463
588.073	133971
588.079	135826
588.133	149621
588.145	152536
588.187	165257
588.217	173981
588.241	184534
588.288	204520
588.295	208223
588.348	235580
588.360	241061
588.402	268992
588.431	288187
588.456	309389
588.503	349122
588.510	357171
588.564	417423
588.575	429446
588.617	497132
588.646	543300
588.671	599259
588.718	703557
588.725	724445
588.778	879199
588.789	909067
588.832	1020805
588.861	1089830
588.886	1070346
588.932	1009564
588.939	982758
588.993	719379
589.004	673960
589.047	807899
589.075	904857
589.100	1017176
589.147	1186011
589.154	1177053
589.207	1072110
589.218	1048686
589.261	955627
589.290	892132
589.314	879598
589.361	854430
589.368	865390
589.421	943681
589.433	959035
589.475	1041562
589.504	1093424
589.528	1048897
589.576	928030
589.582	922394
589.635	859866
589.647	847702
589.689	1009404
589.718	1102183
589.742	1030526
589.790	876109
589.795	858948
589.849	675330
589.861	631600
589.902	544544
589.932	478091
589.955	445485
590.004	373623
590.009	369576
590.062	313817
590.075	299376
590.115	273735
590.146	252267
590.168	242058
590.218	217845
590.222	217010
590.275	196801
590.289	190960
590.328	179938
590.360	169788
590.381	165124
590.431	152759
590.435	152642
590.488	141440
590.503	137980
590.541	132847
590.574	127579
590.594	125206
590.645	117694
590.647	117847
590.700	111058
590.716	108604
590.753	105276
590.787	101691
590.806	100568
590.859	95863
590.859	96131
590.912	91764
590.930	90085
590.965	88057
591.001	85211
591.018	84643
591.071	82150
591.072	81828
591.124	80820
591.143	79921
591.177	78123
591.214	75635
591.230	75453
591.283	74105
591.285	73773
591.336	72360
591.356	71490
591.389	71964
591.427	71847
591.442	71019
591.495	66891
591.498	66342
591.547	64871
591.569	63832
591.600	63077
591.640	61512
591.653	61659
591.706	61318
591.711	61063
591.759	60921
591.782	60417
591.811	60932
591.853	61174
591.864	61275
591.917	60569
591.924	60232
591.969	57447
591.995	55479
592.022	55567
592.066	55245
592.075	55528
592.127	55876
592.137	55743
592.180	57761
592.208	58714
592.233	57923
592.279	55645
592.285	55377
592.338	51359
592.350	50248
592.390	49529
592.421	48653
592.443	48931
592.491	48941
592.495	49094
592.548	48583
592.562	48258
592.600	48432
592.633	48230
592.653	47692
592.704	45556
592.705	45821
592.775	45854
592.846	45498
592.916	45598
592.987	45515
593.058	45079
593.128	42248
593.199	42137
593.270	41042
593.341	40273
593.411	40095
593.482	40600
593.553	40384
593.623	37827
593.694	38170
593.764	38986
593.835	38728
593.906	37394
593.976	36007
594.047	37540
594.117	38641
594.188	40505
594.258	36450
594.329	33293
594.399	33813
594.470	33599
594.540	32749
594.611	33136
594.681	32166
594.751	32453
594.822	33127
594.892	33318
594.963	34108
595.033	33677
595.103	32529
595.174	33563
595.244	36856
595.314	49123
595.384	40975
595.455	31285
595.525	31601
595.595	31547
595.665	30725
595.736	31499
595.806	30922
595.876	30057
595.946	30136
596.016	29404
596.087	28988
596.157	29238
596.227	29317
596.297	29935
596.367	30475
596.437	31237
596.507	34527
596.577	43231
596.647	37821
596.717	30060
596.787	28757
596.857	28997
596.927	27374
596.997	28114
597.067	29314
597.137	31331
597.207	32360
597.277	30177
597.347	29359
597.417	29493
597.487	29019
597.557	30061
597.626	30079
597.696	29677
597.766	32359
597.836	37626
597.906	38025
597.975	27875
598.045	27592
598.115	27461
598.185	27242
598.254	27466
598.324	28908
598.394	29029
598.464	29528
598.533	28110
598.603	26743
598.672	27462
598.742	26380
598.812	26804
598.881	27182
598.951	26182
599.020	25606
599.090	25645
599.159	25328
599.229	27289
599.299	25224
599.368	24850
599.437	25972
599.507	25311
599.576	25256
599.646	27773
599.715	29159
599.785	26479
599.854	25557
599.924	27352
599.993	28508
600.062	25533
600.132	24618
600.201	24473
600.270	25886
600.340	27394
600.409	25402
600.478	25283
600.547	25372
600.617	24942
600.686	25570
600.755	24958
600.824	25561
600.894	25515
600.963	25167
601.032	23480
601.101	23704
601.170	23634
601.239	23698
601.308	24478
601.378	24284
601.447	24056
601.516	24335
601.585	24033
601.654	24686
601.723	25550
601.792	24491
601.861	24919
601.930	28885
601.999	28930
602.068	25674
602.137	24687
602.206	26185
602.275	23793
602.343	26575
602.412	28622
602.481	26251
602.550	24178
602.619	23649
602.688	24792
602.756	24632
602.825	24795
602.894	24150
602.963	24323
603.032	23395
603.100	23668
603.169	23868
603.238	24170
603.307	24132
603.375	23602
603.444	22793
603.513	24274
603.581	23605
603.650	23271
603.719	23099
603.787	21316
603.856	22128
603.924	22644
603.993	24622
604.061	22668
604.130	23131
604.198	23832
604.267	23442
604.335	22893
604.404	22212
604.472	22274
604.541	22398
604.609	22827
604.678	22943
604.746	23686
604.815	23194
604.883	23667
604.951	23073
605.020	24051
605.088	22555
605.156	23653
605.225	21999
605.293	23054
605.361	23067
605.429	22838
605.498	22408
605.566	23881
605.634	24581
605.702	22989
605.771	23526
605.839	23681
605.907	22674
605.975	22911
606.043	23363
606.111	21908
606.180	23471
606.248	24505
606.316	29525
606.384	25389
606.452	25927
606.520	26520
606.588	27372
606.656	20893
606.724	20488
606.792	19776
606.860	19854
606.928	18238
606.996	18338
607.064	17213
607.132	17487
607.200	18552
607.267	19325
607.335	18037
607.403	17919
607.471	17940
607.539	18638
607.607	17713
607.674	18562
607.742	17667
607.810	18371
607.878	19439
607.946	18150
608.013	18350
608.081	18807
608.149	20321
608.216	17946
608.284	18273
608.352	18363
608.419	18373
608.487	21064
608.555	25340
608.622	18899
608.690	18009
608.757	18292
608.825	18433
608.893	19477
608.960	20516
609.028	23897
609.095	26255
609.163	23718
609.230	19492
609.298	18192
609.365	17478
609.432	18281
609.500	18394
609.567	20038
609.635	20352
609.702	21228
609.769	21415
609.837	22546
609.904	21626
609.971	19449
610.039	21234
610.106	24750
610.173	34376
610.241	68686
610.308	125661
610.375	126136
610.442	53133
610.509	24694
610.577	21499
610.644	19682
610.711	19318
610.778	20317
610.845	19509
610.912	19993
610.980	20487
611.047	27160
611.114	31734
611.181	21202
611.248	18562
611.315	18828
611.382	18985
611.449	18114
611.516	19141
611.583	19550
611.650	18686
611.717	18648
611.784	18952
611.851	19904
611.918	20940
611.984	22143
612.051	25480
612.118	39181
612.185	83123
612.252	150722
612.319	47488
612.386	23373
612.452	21273
612.519	20971
612.586	24738
612.653	28093
612.719	20657
612.786	19976
612.853	18982
612.919	17978
612.986	19316
613.053	17815
613.120	17625
613.186	17097
613.253	17959
613.319	16978
613.386	17375
613.453	18361
613.519	18959
613.586	20887
613.652	29139
613.719	28806
613.785	28284
613.852	19702
613.918	17812
613.985	19429
614.051	22784
614.118	36436
614.184	70311
614.250	34256
614.317	19680
614.383	17723
614.449	17169
614.516	16663
614.582	18062
614.648	18231
614.715	15987
614.781	18303
614.847	18467
614.914	18612
614.980	18984
615.046	18668
615.112	17737
615.179	18523
615.245	20950
615.311	24491
615.377	34695
615.443	58947
615.509	46105
615.575	27560
615.642	22329
615.708	21482
615.774	22889
615.840	24520
615.906	29420
615.972	40841
616.038	69584
616.104	132452
616.170	153953
616.236	239263
616.302	93957
616.368	33927
616.434	28106
616.500	24357
616.565	23726
616.631	25605
616.697	25259
616.763	22232
616.829	24519
616.895	35167
616.961	46755
617.026	35703
617.092	22997
617.158	20119
617.224	19482
617.289	19955
617.355	19585
617.421	19904
617.487	21075
617.552	19092
617.618	17403
617.684	17653
617.749	18778
617.815	17574
617.880	18166
617.946	18004
618.012	18396
618.077	19243
618.143	18907
618.208	19242
618.274	18545
618.339	19000
618.405	18976
618.470	19030
618.536	19025
618.601	20802
618.667	21374
618.732	20614
618.798	19503
618.863	19340
618.928	19489
618.994	19995
619.059	21550
619.124	25432
619.190	28589
619.255	19515
619.320	19286
619.386	19880
619.451	18943
619.516	19065
619.581	18286
619.647	18392
619.712	18583
619.777	18641
619.842	18487
619.907	19879
619.972	19490
620.038	19674
620.103	18677
620.168	18993
620.233	18162
620.298	17156
620.363	17722
620.428	18234
620.493	18593
620.558	17901
620.623	17665
620.688	18183
620.753	17215
620.818	17549
620.883	18655
620.948	17739
621.013	18943
621.078	18545
621.143	18051
621.207	21125
621.272	19776
621.337	21434
621.402	21216
621.467	23967
621.532	29055
621.596	25391
621.661	22353
621.726	21307
621.791	20990
621.855	21334
621.920	22870
621.985	24161
622.049	24760
622.114	26116
622.179	24651
622.243	23308
622.308	24181
622.373	23512
622.437	24237
622.502	23252
622.566	22559
622.631	22558
622.695	22862
622.760	23163
622.824	23074
622.889	23013
622.953	24264
623.018	27533
623.082	38055
623.147	26546
623.211	23566
623.276	22785
623.340	22562
623.404	21219
623.469	21551
623.533	21562
623.597	20661
623.662	20540
623.726	21268
623.790	21163
623.854	19556
623.919	21595
623.983	20358
624.047	21109
624.111	20433
624.176	21188
624.240	21287
624.304	23759
624.368	22122
624.432	20825
624.496	20721
624.560	22160
624.625	24272
624.689	22586
624.753	20095
624.817	20499
624.881	20021
624.945	19896
625.009	19943
625.073	19799
625.137	20041
625.201	23788
625.265	27611
625.329	22671
625.393	20118
625.456	21839
625.520	20087
625.584	21330
625.648	24427
625.712	30084
625.776	52517
625.839	96216
625.903	77369
625.967	26560
626.031	27048
626.095	45861
626.158	42328
626.222	19995
626.286	17834
626.349	17509
626.413	16685
626.477	17782
626.540	18176
626.604	17395
626.668	16541
626.731	17288
626.795	16925
626.858	18036
626.922	17489
626.986	16586
627.049	16741
627.113	16255
627.176	16600
627.240	15567
627.303	16462
627.366	16997
627.430	16097
627.493	16310
627.557	17191
627.620	16495
627.684	16286
627.747	16075
627.810	16119
627.874	16218
627.937	15634
628.000	15492
628.064	16854
628.127	15206
628.190	15049
628.253	15295
628.317	15184
628.380	14115
628.443	15098
628.506	14976
628.569	15161
628.632	14852
628.696	13976
628.759	14203
628.822	13813
628.885	14288
628.948	14007
629.011	14114
629.074	14475
629.137	13838
629.200	12543
629.263	13792
629.326	14324
629.389	13419
629.452	13055
629.515	14720
629.578	14538
629.641	13517
629.704	14375
629.767	14918
629.830	13886
629.892	12980
629.955	13625
630.018	14274
630.081	13907
630.144	16364
630.207	15660
630.269	15356
630.332	14517
630.395	15247
630.458	12164
630.520	13133
630.583	13362
630.646	12847
630.708	11815
630.771	11394
630.834	12824
630.896	11654
630.959	12470
631.021	10992
631.084	11720
631.146	12550
631.209	14074
631.272	13993
631.334	12464
631.397	11322
631.459	11240
631.522	12041
631.584	12547
631.646	11805
631.709	12240
631.771	13093
631.834	16089
631.896	12584
631.958	10884
632.021	10867
632.083	11507
632.145	10336
632.208	11198
632.270	12121
632.332	10849
632.395	10974
632.457	11171
632.519	10828
632.581	11179
632.643	10541
632.706	11497
632.768	10648
632.830	10396
632.892	10395
632.954	10552
633.016	11245
633.078	10272
633.141	10572
633.203	10371
633.265	10420
633.327	9818
633.389	10034
633.451	10332
633.513	12678
633.575	14222
633.637	13218
633.698	13214
633.760	11390
633.822	10079
633.884	10375
633.946	10510
634.008	10624
634.070	10666
634.132	11369
634.193	12686
634.255	10786
634.317	10455
634.379	10171
634.441	9838
634.502	10014
634.564	10533
634.626	10020
634.687	9763
634.749	9609
634.811	9945
634.873	9640
634.934	10091
634.996	8814
635.057	9847
635.119	8966
635.181	9470
635.242	9977
635.304	8607
635.365	9651
635.427	9116
635.488	10503
635.550	9889
635.611	9788
635.673	9199
635.734	9113
635.796	9461
635.857	9929
635.918	9981
635.980	9524
636.041	9250
636.102	9400
636.164	10398
636.225	8751
636.286	9307
636.348	9523
636.409	8836
636.470	8845
636.531	9131
636.593	9608
636.654	10990
636.715	8789
636.776	8620
636.838	7580
636.899	8623
636.960	8436
637.021	8435
637.082	8146
637.143	7810
637.204	8586
637.265	7221
637.326	8323
637.387	8380
637.448	7601
637.509	7285
637.570	7753
637.631	7712
637.692	7451
637.753	7922
637.814	7472
637.875	8171
637.936	7182
637.997	7546
638.058	7368
638.119	8327
638.179	8468
638.240	7581
638.301	6584
638.362	7662
638.423	7051
638.483	7679
638.544	8073
638.605	7658
638.666	7435
638.726	8285
638.787	7732
638.848	7325
638.908	7327
638.969	7368
639.030	7690
639.090	7092
639.151	6900
639.211	8179
639.272	8998
639.332	11297
639.393	14053
639.453	8342
639.514	7088
639.574	7044
639.635	7147
639.695	7691
639.756	7048
639.816	8240
639.877	7193
639.937	9974
639.997	16116
640.058	13709
640.118	7450
640.178	6609
640.239	7562
640.299	6895
640.359	6399
640.420	6466
640.480	6336
640.540	6622
640.600	6752
640.661	7004
640.721	6854
640.781	8695
640.841	8343
640.901	7512
640.961	6695
641.021	7852
641.082	8034
641.142	8950
641.202	10750
641.262	6943
641.322	7662
641.382	5979
641.442	6216
641.502	6892
641.562	7185
641.622	6906
641.682	6178
641.742	6469
641.802	6347
641.861	6222
641.921	6990
641.981	7721
642.041	7310
642.101	8932
642.161	8919
642.221	6291
642.280	5848
642.340	5792
642.400	5824
642.460	6596
642.519	6268
642.579	5946
642.639	6418
642.698	5064
642.758	7249
642.818	5789
642.877	6090
642.937	6569
642.997	6350
643.056	8611
643.116	10341
643.175	6985
643.235	5071
643.294	6681
643.354	5870
643.414	5989
643.473	6698
643.532	6846
643.592	7090
643.651	7956
643.711	11847
643.770	17285
643.830	32036
643.889	84741
643.948	100500
644.008	14381
644.067	7611
644.126	7012
644.186	6718
644.245	6199
644.304	4923
644.363	5774
644.423	5600
644.482	5730
644.541	6142
644.600	5103
644.659	5857
644.719	5337
644.778	6357
644.837	6677
644.896	10135
644.955	16153
645.014	22741
645.073	9608
645.132	6960
645.191	6539
645.250	5469
645.309	5686
645.368	5404
645.427	5935
645.486	5787
645.545	7737
645.604	7177
645.663	5123
645.722	5413
645.781	5262
645.840	5040
645.898	4906
645.957	6199
646.016	7084
646.075	10474
646.134	14619
646.192	26740
646.251	73531
646.310	52412
646.369	8950
646.427	6075
646.486	5233
646.545	4867
646.603	5863
646.662	5803
646.721	4921
646.779	4875
646.838	3904
646.896	4580
646.955	5357
647.014	5250
647.072	6414
647.131	9425
647.189	15724
647.248	6089
647.306	4771
647.365	4692
647.423	3527
647.481	5386
647.540	4188
647.598	4737
647.657	4527
647.715	4878
647.773	5002
647.832	3795
647.890	4375
647.948	4918
648.007	4695
648.065	4044
648.123	4702
648.181	5853
648.240	5807
648.298	6942
648.356	5247
648.414	4648
648.472	4535
648.531	4423
648.589	4597
648.647	4756
648.705	4265
648.763	4533
648.821	4275
648.879	5436
648.937	4050
648.995	4498
649.053	5134
649.111	5204
649.169	6056
649.227	8198
649.285	11805
649.343	23267
649.401	46177
649.459	18060
649.516	21470
649.574	11026
649.632	12533
649.690	27123
649.748	19222
649.806	9192
649.863	16898
649.921	16377
649.979	13731
650.037	5738
650.094	3694
650.152	4563
650.210	3998
650.268	4781
650.325	4491
650.383	4122
650.440	3691
650.498	4666
650.556	4204
650.613	4121
650.671	3258
650.728	3727
650.786	3416
650.843	3757
650.901	3378
650.958	3725
651.016	4179
651.073	3633
651.131	3364
651.188	3195
651.246	4406
651.303	3926
651.360	3602
651.418	3954
651.475	4187
651.532	3603
651.590	3717
651.647	3346
651.704	3731
651.762	4241
651.819	3765
651.876	4286
651.933	3733
651.990	3407
652.048	2968
652.105	3123
652.162	4648
652.219	3305
652.276	4043
652.333	3595
652.390	3198
652.448	4068
652.505	3582
652.562	4204
652.619	4418
652.676	6270
652.733	9338
652.790	5873
652.847	2970
652.904	4091
652.961	3451
653.017	3256
653.074	4144
653.131	3763
653.188	2945
653.245	3048
653.302	3703
653.359	2338
653.415	3748
653.472	3187
653.529	3557
653.586	3215
653.642	3308
653.699	3653
653.756	2936
653.813	2850
653.869	3555
653.926	2590
653.983	2467
654.039	2721
654.096	4267
654.152	3527
654.209	2613
654.266	3966
654.322	2798
654.379	4396
654.435	4504
654.492	3838
654.548	4835
654.605	7311
654.661	8511
654.717	3980
654.774	3998
654.830	3630
654.887	3292
654.943	3362
655.000	3300
655.056	3780
655.112	3435
655.168	2638
655.225	3982
655.281	3734
655.337	3852
655.394	6048
655.450	8001
655.506	6241
655.562	5874
655.618	9527
655.675	4567
655.731	3488
655.787	3276
655.843	3047
655.899	3258
655.955	3105
656.011	2988
656.067	2872
656.123	4191
656.179	3362
656.235	4252
656.291	3180
656.347	3386
656.403	3236
656.459	3931
656.515	3509
656.571	3771
656.627	3882
656.683	3054
656.739	3069
656.795	3313
656.850	3052
656.906	3863
656.962	3948
657.018	3052
657.074	3238
657.129	3623
657.185	3743
657.241	3742
657.297	3206
657.352	3717
657.408	2198
657.464	4137
657.519	4165
657.575	2323
657.630	3794
657.686	2930
657.742	2709
657.797	3702
657.853	2489
657.908	4332
657.964	2990
658.019	2954
658.075	3604
658.130	3701
658.186	3005
658.241	3145
658.297	2509
658.352	2686
658.407	3147
658.463	2811
658.518	3245
658.573	2921
658.629	2680
658.684	2470
658.739	3136
658.795	3130
658.850	3833
658.905	2574
658.960	3796
659.016	2455
659.071	2815
659.126	3022
659.181	2784
659.236	4074
659.291	6898
659.346	4800
659.401	3709
659.457	4038
659.512	4960
659.567	7066
659.622	3192
659.677	3255
659.732	3765
659.787	3929
659.842	2369
659.897	4262
659.952	4357
660.007	3131
660.061	2507
660.116	3363
660.171	3262
660.226	3207
660.281	3387
660.336	2313
660.391	3437
660.445	2776
660.500	2742
660.555	3065
660.610	3029
660.664	3755
660.719	2334
660.774	2774
660.828	2562
660.883	2756
660.938	3725
660.992	2754
661.047	2640
661.101	2714
661.156	3342
661.211	2687
661.265	3401
661.320	3383
661.374	3323
661.429	3005
661.483	2772
661.538	3290
661.592	2520
661.647	2770
661.701	2937
661.755	3061
661.810	3239
661.864	2938
661.919	2417
661.973	3536
662.027	3375
662.081	2243
662.136	1785
662.190	2281
662.244	4046
662.299	2950
662.353	2476
662.407	3070
662.461	2371
662.515	2954
662.569	2438
662.624	4043
662.678	2687
662.732	3582
662.786	2437
662.840	3155
662.894	3345
662.948	2690
663.002	2821
663.056	2606
663.110	2426
663.164	2174
663.218	3175
663.272	1957
663.326	3607
663.380	2793
663.434	3425
663.488	3080
663.542	4327
663.595	2623
663.649	2205
663.703	3071
663.757	2790
663.811	2211
663.864	2777
663.918	3305
663.972	2360
664.026	3153
664.079	2569
664.133	3262
664.187	2996
664.240	3074
664.294	2876
664.348	3754
664.401	2691
664.455	2504
664.508	2455
664.562	2583
664.615	3004
664.669	2566
664.722	2494
664.776	2379
664.829	2237
664.883	2841
664.936	2241
664.990	3461
665.043	1782
665.097	2960
665.150	3971
665.203	3363
665.257	3150
665.310	2869
665.363	2809
665.417	3360
665.470	3546
665.523	2817
665.576	2881
665.630	3291
665.683	3589
665.736	2897
665.789	3000
665.842	2828
665.895	2701
665.949	3286
666.002	2217
666.055	2790
666.108	3028
666.161	3187
666.214	2857
666.267	3966
666.320	2340
666.373	3696
666.426	2656
666.479	2899
666.532	3092
666.585	2959
666.638	4253
666.691	3215
666.744	4615
666.796	3312
666.849	2764
666.902	3741
666.955	2737
667.008	3126
667.060	2326
667.113	1863
667.166	3157
667.219	2878
667.271	2572
667.324	3457
667.377	3139
667.430	3141
667.482	2953
667.535	3994
667.587	3924
667.640	3526
667.693	2488
667.745	4266
667.798	6106
667.850	4830
667.903	2900
667.955	3040
668.008	3191
668.060	3175
668.113	2679
668.165	3219
668.218	3397
668.270	3275
668.322	2931
668.375	3261
668.427	2951
668.479	2511
668.532	3673
668.584	3538
668.636	3254
668.689	2794
668.741	2901
668.793	4066
668.845	1984
668.898	2659
668.950	2542
669.002	3351
669.054	2772
669.106	3169
669.158	3031
669.211	2746
669.263	3317
669.315	4123
669.367	3690
669.419	4871
669.471	3736
669.523	3911
669.575	5530
669.627	5351
669.679	4050
669.731	3784
669.783	3595
669.835	4508
669.886	4599
669.938	4731
669.990	3920
670.042	2855
670.094	3878
670.146	4016
670.197	4205
670.249	4722
670.301	5140
670.353	7577
670.404	8702
670.456	12351
670.508	17566
670.560	28681
670.611	48913
670.663	83530
670.715	149751
670.766	321814
670.818	365013
670.869	111131
670.921	29248
670.972	17281
671.024	11743
671.075	9535
671.127	7072
671.178	6165
671.230	4925
671.281	5931
671.333	3522
671.384	4703
671.436	3936
671.487	5159
671.538	4842
671.590	3806
671.641	4537
671.692	5772
671.744	6144
671.795	8927
671.846	5902
671.897	4108
671.949	3509
672.000	4019
672.051	3442
672.102	2961
672.153	2440
672.204	3440
672.256	3369
672.307	3307
672.358	2896
672.409	3468
672.460	3371
672.511	2771
672.562	1659
672.613	2628
672.664	2479
672.715	2425
672.766	2666
672.817	2315
672.868	2750
672.919	2743
672.970	2234
673.021	2439
673.071	2744
673.122	2290
673.173	1894
673.224	1979
673.275	2787
673.326	2851
673.376	2868
673.427	2072
673.478	2650
673.528	2298
673.579	2016
673.630	2726
673.680	2439
673.731	2324
673.782	1836
673.832	2629
673.883	2924
673.934	1935
673.984	2045
674.035	1978
674.085	2671
674.136	2456
674.186	2257
674.237	3049
674.287	4427
674.338	4956
674.388	2443
674.438	2252
674.489	2657
674.539	2912
674.589	2809
674.640	2183
674.690	1960
674.740	2207
674.791	2377
674.841	2315
674.891	2570
674.942	2381
674.992	2306
675.042	2570
675.092	2662
675.142	1911
675.193	908
675.243	2032
675.293	2281
675.343	2335
675.393	2853
675.443	2482
675.493	2286
675.543	1874
675.593	2477
675.643	2490
675.693	2245
675.743	2025
675.793	2670
675.843	1955
675.893	1750
675.943	1776
675.993	1925
676.043	2213
676.093	3089
676.142	2095
676.192	2143
676.242	2490
676.292	2550
676.341	1571
676.391	2272
676.441	2404
676.491	2011
676.540	1414
676.590	1911
676.640	1780
676.689	1575
676.739	1181
676.789	1427
676.838	1335
676.888	2034
676.937	2097
676.987	2673
677.037	1703
677.086	784
677.136	1442
677.185	1533
677.235	1513
677.284	1590
677.333	1800
677.383	2111
677.432	1927
677.482	1630
677.531	2201
677.580	1574
677.630	1847
677.679	1163
677.728	1964
677.778	2195
677.827	1231
677.876	1605
677.925	1829
677.975	2065
678.024	1645
678.073	1796
678.122	1758
678.171	1603
678.220	2502
678.269	1986
678.319	1802
678.368	1726
678.417	1870
678.466	2702
678.515	1416
678.564	1518
678.613	1959
678.662	2509
678.711	1592
678.760	1418
678.809	1365
678.857	1602
678.906	1593
678.955	1809
679.004	2083
679.053	1858
679.102	1961
679.151	2175
679.199	1194
679.248	1780
679.297	1171
679.346	1844
679.394	1662
679.443	1254
679.492	1235
679.540	1696
679.589	1393
679.638	1938
679.686	902
679.735	1163
679.784	1791
679.832	2277
679.881	1681
679.929	1186
679.978	1938
680.026	1472
680.075	1756
680.123	1967
680.172	1457
680.220	1210
680.268	1351
680.317	1479
680.365	1415
680.414	1600
680.462	1223
680.510	1931
680.559	1752
680.607	1516
680.655	1338
680.703	339
680.752	1547
680.800	1650
680.848	54
680.896	1571
680.945	1607
680.993	1173
681.041	1240
681.089	1207
681.137	1741
681.185	365
681.233	1146
681.258	995
681.281	811
681.329	1730
681.377	1079
681.380	1135
681.425	1377
681.473	1491
681.502	1546
681.521	1517
681.569	2523
681.617	2197
681.624	2199
681.665	1890
681.713	2173
681.745	1930
681.761	1749
681.809	1964
681.857	2263
681.867	2197
681.904	1810
681.952	2869
681.989	2288
682.000	2061
682.048	2259
682.096	2531
682.111	2573
682.143	2541
682.191	2790
682.233	3160
682.239	3174
682.286	3226
682.334	2604
682.354	2799
682.382	2964
682.430	3014
682.476	3508
682.477	3484
682.525	3689
682.572	3199
682.598	3129
682.620	2999
682.667	3698
682.715	3259
682.720	3290
682.763	3242
682.810	3509
682.841	3181
682.857	2947
682.905	3782
682.952	4065
682.963	4037
683.000	3833
683.047	4497
683.085	4608
683.095	4596
683.142	4771
683.190	4451
683.206	4593
683.237	4761
683.284	5100
683.328	4682
683.332	4614
683.379	4912
683.426	4854
683.449	4706
683.473	4510
683.521	5022
683.568	4534
683.571	4629
683.615	5481
683.662	4818
683.693	5074
683.709	5168
683.757	5359
683.804	5281
683.814	5314
683.851	5303
683.898	5209
683.936	5384
683.945	5401
683.992	5721
684.039	5914
684.057	5837
684.086	5691
684.133	6545
684.179	6041
684.180	5999
684.227	6302
684.274	6520
684.300	6799
684.321	6924
684.368	6526
684.415	5997
684.422	6080
684.462	6640
684.509	6528
684.543	6720
684.556	6712
684.603	6690
684.649	6554
684.665	6610
684.696	6703
684.743	7044
684.786	6852
684.790	6819
684.837	7026
684.883	7122
684.908	7111
684.930	7096
684.977	8051
685.023	8452
685.029	8433
685.070	8081
685.117	7878
685.150	8192
685.164	8253
685.210	8660
685.257	8849
685.272	8647
685.303	8340
685.350	8569
685.393	9106
685.396	9118
685.443	8785
685.490	9036
685.514	9217
685.536	9378
685.583	9300
685.629	9349
685.636	9367
685.675	9379
685.722	9456
685.757	9089
685.768	8926
685.815	9329
685.861	9574
685.878	9406
685.908	9162
685.954	9503
686.000	9365
686.000	9353
686.047	10263
686.093	9880
686.121	10449
686.139	10911
686.185	10042
686.232	10823
686.242	10870
686.278	10613
686.324	10486
686.363	10167
686.370	10117
686.416	10356
686.463	10346
686.484	10152
686.509	10026
686.555	10457
686.601	10365
686.606	10380
686.647	10328
686.693	10707
686.727	10725
686.739	10763
686.785	10692
686.831	10769
686.848	10883
686.877	10987
686.923	10169
686.969	10296
686.969	10295
687.015	10166
687.061	10176
687.090	10451
687.107	10611
687.153	10871
687.199	10299
687.211	10609
687.245	11383
687.291	10719
687.332	11108
687.336	11157
687.382	11403
687.428	11299
687.453	11342
687.474	11333
687.520	10980
687.565	11115
687.574	11184
687.611	11396
687.657	11025
687.695	11063
687.702	11119
687.748	11380
687.794	11398
687.816	11699
687.839	12032
687.885	11972
687.931	12365
687.937	12396
687.976	12093
688.022	11364
688.058	11387
688.067	11523
688.113	11607
688.158	12282
688.179	12368
688.204	12371
688.249	12245
688.295	12388
688.300	12386
688.340	12478
688.386	12711
688.421	12960
688.431	13071
688.477	12693
688.522	13363
688.542	13584
688.567	13654
688.613	13652
688.658	13120
688.663	13073
688.703	12859
688.749	13175
688.784	13060
688.794	13097
688.839	12990
688.884	13287
688.905	13401
688.930	13424
688.975	13264
689.020	13328
689.026	13302
689.065	13412
689.110	13479
689.146	13436
689.155	13424
689.201	13430
689.246	13720
689.267	13519
689.291	13249
689.336	13518
689.381	13181
689.388	13194
689.426	13734
689.471	13727
689.509	14101
689.516	14134
689.561	14410
689.606	14420
689.630	14306
689.651	14045
689.696	13528
689.741	13255
689.750	13114
689.785	13327
689.830	13690
689.871	14310
689.875	14354
689.920	14303
689.965	14348
689.992	14315
690.010	14366
690.054	14274
690.099	14129
690.112	14342
690.144	14825
690.189	14269
690.233	14374
690.233	14396
690.278	14658
690.323	14616
690.354	14871
690.367	14876
690.412	14744
690.457	14016
690.474	14152
690.501	14830
690.546	15000
690.590	15396
690.595	15468
690.635	16214
690.680	16330
690.716	16211
690.724	16300
690.769	17588
690.813	18912
690.836	18998
690.857	19819
690.902	22547
690.946	25051
690.957	25634
690.991	31195
691.035	38688
691.077	47064
691.080	48088
691.124	65494
691.168	80813
691.198	90631
691.213	86168
691.257	73188
691.301	60768
691.318	55860
691.346	49453
691.390	38676
691.434	28188
691.439	26963
691.478	24702
691.522	22009
691.559	19974
691.567	20002
691.611	19550
691.655	19121
691.680	19074
691.699	18978
691.743	18371
691.787	17686
691.800	17440
691.831	17287
691.875	17247
691.919	17253
691.921	17216
691.964	17424
692.008	17848
692.041	17768
692.052	17746
692.096	18062
692.139	18320
692.162	18322
692.183	18234
692.227	17737
692.271	17489
692.282	17407
692.315	17584
692.359	17794
692.402	17661
692.403	17694
692.447	17934
692.490	17785
692.523	17675
692.534	17711
692.578	17694
692.622	17634
692.643	17501
692.666	17512
692.709	17769
692.753	18080
692.763	18042
692.797	17989
692.840	18175
692.884	18225
692.884	18264
692.928	18551
692.971	18657
693.004	18766
693.015	18883
693.059	18946
693.102	19487
693.124	19754
693.146	19919
693.189	19642
693.233	19669
693.245	19710
693.276	20372
693.320	20896
693.363	21207
693.365	21180
693.407	22065
693.450	23099
693.485	24084
693.493	24618
693.537	26416
693.580	28834
693.605	30122
693.624	32373
693.667	37515
693.710	42846
693.725	44668
693.753	55704
693.797	72860
693.840	91357
693.845	93504
693.883	128422
693.926	164662
693.966	197419
693.970	194822
694.013	164208
694.056	133716
694.086	112838
694.099	105484
694.142	81098
694.185	56588
694.206	44880
694.229	42098
694.272	36677
694.315	31318
694.326	29790
694.358	28485
694.401	26718
694.444	24960
694.446	24827
694.487	24510
694.530	23675
694.566	23062
694.573	23004
694.616	22350
694.659	21920
694.686	21285
694.702	21101
694.745	21006
694.787	20545
694.806	20329
694.830	20251
694.873	19907
694.916	19865
694.926	19729
694.959	19760
695.002	19885
695.044	19936
695.046	19887
695.087	19795
695.130	19986
695.166	20067
695.172	20161
695.215	20235
695.258	20447
695.286	20516
695.301	20498
695.343	20235
695.386	20050
695.406	19851
695.428	19829
695.471	19782
695.514	19751
695.526	19703
695.556	19714
695.599	19653
695.641	19594
695.646	19542
695.684	19888
695.726	19996
695.766	20184
695.769	20224
695.811	20103
695.854	19890
695.886	19759
695.896	19878
695.938	20112
695.981	20300
696.005	20429
696.023	20432
696.065	20095
696.108	19989
696.125	19819
696.150	19924
696.192	20225
696.235	20321
696.245	20298
696.277	20373
696.319	20392
696.361	20495
696.365	20447
696.404	20577
696.446	20854
696.485	20823
696.488	20895
696.530	21222
696.572	21402
696.604	21646
696.614	21658
696.656	21378
696.698	21127
696.724	20940
696.740	20846
696.783	20447
696.825	19876
696.844	19665
696.867	19681
696.909	19421
696.951	19280
696.964	19191
696.992	19417
697.034	19667
697.076	19787
697.083	19788
697.118	19774
697.160	19482
697.202	19413
697.203	19354
697.244	19563
697.286	19951
697.323	20072
697.327	20116
697.369	20147
697.411	20099
697.442	20094
697.453	20124
697.494	19884
697.536	19772
697.562	19625
697.578	19832
697.620	20207
697.661	20519
697.682	20677
697.703	20735
697.744	20747
697.786	20710
697.801	20631
697.828	20931
697.869	21320
697.911	21760
697.921	21791
697.952	21530
697.994	21154
698.035	20759
698.040	20657
698.077	20734
698.118	20750
698.160	20750
698.160	20694
698.201	20538
698.243	20300
698.279	20106
698.284	20176
698.325	20255
698.367	20340
698.399	20367
698.408	20436
698.449	20482
698.491	20506
698.518	20483
698.532	20579
698.573	20687
698.614	20817
698.638	20815
698.656	20815
698.697	20705
698.738	20577
698.757	20465
698.779	20631
698.820	20829
698.862	21018
698.877	21034
698.903	21344
698.944	21746
698.985	22146
698.996	22197
699.026	21990
699.067	21621
699.116	21122
699.235	20328
699.354	21188
699.474	20163
699.593	20184
699.713	22426
699.832	20529
699.951	20573
700.070	20877
700.190	19478
700.309	19976
700.428	19814
700.547	20495
700.667	19595
700.786	19777
700.905	20071
701.024	18859
701.143	19972
701.262	19198
701.381	18382
701.500	18776
701.619	19802
701.738	18999
701.857	19315
701.976	18031
702.095	18606
702.214	18361
702.333	20281
702.452	19023
702.571	18728
702.690	17800
702.809	18230
702.928	18390
703.047	18182
703.165	17698
703.284	17734
703.403	16782
703.522	17935
703.640	18847
703.759	18424
703.878	19494
703.997	20564
704.115	17733
704.234	17651
704.353	17410
704.471	17900
704.590	17198
704.708	17134
704.827	16835
704.946	16757
705.064	16458
705.183	17836
705.301	17402
705.420	21380
705.538	26319
705.656	23713
705.775	21619
705.893	23495
706.012	36819
706.130	32728
706.249	22150
706.367	21497
706.485	21240
706.604	22500
706.722	20894
706.840	21884
706.958	22163
707.077	21970
707.195	20230
707.313	19687
707.431	20006
707.549	19546
707.668	19273
707.786	19728
707.904	19768
708.022	18905
708.140	19160
708.258	19516
708.376	18748
708.494	19667
708.612	19201
708.730	21730
708.848	28136
708.966	25033
709.084	23697
709.202	22313
709.320	22368
709.438	22203
709.556	22626
709.674	22381
709.791	22625
709.909	21725
710.027	22347
710.145	21919
710.263	21785
710.380	21529
710.498	21349
710.616	20939
710.733	21641
710.851	21021
710.969	20664
711.086	20896
711.204	21052
711.322	20465
711.439	19794
711.557	20913
711.674	20864
711.792	20118
711.909	20258
712.027	21573
712.144	21416
712.262	19688
712.379	19373
712.497	21920
712.614	29525
712.732	27173
712.849	24583
712.966	23405
713.084	24931
713.201	25381
713.318	24583
713.436	24945
713.553	23488
713.670	23744
713.787	24200
713.905	25046
714.022	23701
714.139	23476
714.256	23868
714.373	23451
714.490	23694
714.608	24346
714.725	30051
714.842	60601
714.959	40837
715.076	22439
715.193	21400
715.310	20933
715.427	21416
715.544	20981
715.661	19753
715.778	19645
715.895	21127
716.011	22073
716.128	21622
716.245	20466
716.362	20484
716.479	21159
716.596	20360
716.713	20305
716.829	19659
716.946	20761
717.063	19471
717.180	19273
717.296	18493
717.413	18952
717.530	19306
717.646	18203
717.763	18592
717.880	18387
717.996	18440
718.113	17834
718.229	18047
718.346	17356
718.462	17373
718.579	17503
718.695	18962
718.812	22080
718.928	19472
719.045	19856
719.161	16323
719.277	17130
719.394	16283
719.510	16038
719.626	17475
719.743	17899
719.859	20447
719.975	18820
720.092	18848
720.208	26121
720.324	30367
720.440	18720
720.557	17326
720.673	18577
720.789	21343
720.905	25863
721.021	37604
721.137	18063
721.253	17515
721.369	16338
721.486	16806
721.602	17687
721.718	19556
721.834	15419
721.950	15478
722.066	15156
722.181	15264
722.297	14981
722.413	15414
722.529	15198
722.645	15004
722.761	14785
722.877	14634
722.993	14147
723.108	15302
723.224	15025
723.340	13956
723.456	15304
723.571	14060
723.687	14023
723.803	14993
723.918	14251
724.034	13980
724.150	14475
724.265	14283
724.381	14584
724.497	21530
724.612	18953
724.728	13368
724.843	12826
724.959	14127
725.074	14721
725.190	21292
725.305	16926
725.421	13371
725.536	13828
725.651	13876
725.767	13168
725.882	13114
725.997	13061
726.113	12424
726.228	12998
726.343	12574
726.459	12026
726.574	11784
726.689	12673
726.804	12943
726.920	12253
727.035	12660
727.150	12999
727.265	12905
727.380	12487
727.495	12047
727.610	12126
727.725	11797
727.841	12292
727.956	13657
728.071	21157
728.186	14611
728.301	11670
728.416	12005
728.531	11894
728.645	10609
728.760	10347
728.875	11504
728.990	10319
729.105	11187
729.220	11710
729.335	11874
729.449	11700
729.564	10980
729.679	10229
729.794	10543
729.908	11078
730.023	11663
730.138	10754
730.253	10179
730.367	10616
730.482	11022
730.596	10905
730.711	10788
730.826	11578
730.940	11025
731.055	10072
731.169	11536
731.284	10395
731.398	10361
731.513	10573
731.627	10533
731.742	10637
731.856	10482
731.970	10912
732.085	10199
732.199	10180
732.313	11184
732.428	10757
732.542	12601
732.656	17596
732.771	12458
732.885	10612
732.999	10297
733.113	9763
733.227	9419
733.342	9983
733.456	9465
733.570	10283
733.684	9581
733.798	10181
733.912	9584
734.026	10106
734.140	9299
734.254	10519
734.368	9976
734.482	13496
734.596	12697
734.710	8441
734.824	9441
734.938	8777
735.052	8904
735.166	9499
735.280	9454
735.393	9416
735.507	9574
735.621	9624
735.735	11248
735.849	13501
735.962	9363
736.076	9823
736.190	8689
736.303	10265
736.417	10596
736.531	10436
736.644	8729
736.758	9304
736.872	8271
736.985	8244
737.099	9189
737.212	8620
737.326	7814
737.439	8391
737.553	8554
737.666	7785
737.780	8962
737.893	9367
738.007	8038
738.120	8373
738.233	8479
738.347	8066
738.460	9358
738.573	9282
738.687	8547
738.800	8909
738.913	7872
739.026	9544
739.140	8999
739.253	8505
739.366	8732
739.479	8434
739.592	7680
739.705	7960
739.818	8355
739.932	8921
740.045	8487
740.158	7456
740.271	8136
740.384	8770
740.497	8172
740.610	8508
740.723	8109
740.836	8687
740.949	8690
741.062	8682
741.174	9356
741.287	8712
741.400	8645
741.513	7082
741.626	8065
741.739	8064
741.851	7817
741.964	7958
742.077	8314
742.189	8223
742.302	7414
742.415	8728
742.527	8172
742.640	7700
742.753	8120
742.865	8712
742.978	7641
743.090	7337
743.203	8074
743.316	8168
743.428	7149
743.541	7950
743.653	8144
743.766	7747
743.878	8106
743.990	8693
744.103	9152
744.215	8076
744.327	7880
744.440	8210
744.552	8203
744.664	9465
744.777	8355
744.889	8201
745.001	7924
745.113	7581
745.226	7751
745.338	8057
745.450	7888
745.562	7228
745.674	8113
745.786	6736
745.898	7173
746.010	7845
746.122	7371
746.234	7619
746.347	7987
746.459	7608
746.570	6894
746.682	7417
746.794	8192
746.906	8185
747.018	7956
747.130	7896
747.242	7058
747.354	7293
747.466	7892
747.577	7915
747.689	7807
747.801	7762
747.913	7424
748.024	7100
748.136	7587
748.248	7655
748.359	7806
748.471	7475
748.583	7670
748.694	8139
748.806	9071
748.918	8486
749.029	9346
749.141	8319
749.252	7933
749.364	7734
749.475	8786
749.587	10423
749.698	8716
749.809	9028
749.921	8483
750.032	7818
750.144	7637
750.255	7563
750.366	7866
750.478	7708
750.589	7376
750.700	7902
750.811	7953
750.923	8415
751.034	8002
751.145	11434
751.256	8441
751.367	8361
751.479	7064
751.590	7923
751.701	7542
751.812	7487
751.923	7278
752.034	7611
752.145	7755
752.256	7249
752.367	7803
752.478	7803
752.589	7818
752.700	7027
752.811	7537
752.922	8638
753.032	6994
753.143	7897
753.254	7258
753.365	8998
753.476	7997
753.586	8396
753.697	7669
753.808	7592
753.919	7373
754.029	7445
754.140	7726
754.251	8236
754.361	8008
754.472	8120
754.582	7953
754.693	7156
754.804	8049
754.914	7739
755.025	7822
755.135	8265
755.246	7805
755.356	8379
755.466	7632
755.577	8797
755.687	8519
755.798	7621
755.908	7957
756.018	8265
756.129	7630
756.239	8320
756.349	8234
756.460	8507
756.570	8653
756.680	9024
756.790	9176
756.900	9921
757.011	8938
757.121	9243
757.231	9640
757.341	8939
757.451	9229
757.561	9443
757.671	9109
757.781	9244
757.891	9480
758.001	9571
758.111	9745
758.221	9872
758.331	9791
758.441	10095
758.551	10114
758.661	10780
758.771	10114
758.880	10094
758.990	10058
759.100	10837
759.210	10940
759.320	10731
759.429	11367
759.539	11462
759.649	11882
759.758	11466
759.868	11055
759.978	12008
760.087	12467
760.197	12514
760.307	12112
760.416	12741
760.526	12560
760.635	12339
760.745	12523
760.854	13161
760.964	13613
761.073	13790
761.182	14234
761.292	15129
761.401	13765
761.511	15484
761.620	14967
761.729	16124
761.839	15739
761.948	18215
762.057	16910
762.166	17264
762.276	16852
762.385	17581
762.494	18532
762.603	19134
762.712	20875
762.822	20305
762.931	20977
763.040	22014
763.149	23043
763.258	23628
763.367	24821
763.476	25518
763.585	27942
763.694	28817
763.803	28812
763.912	29747
764.021	33251
764.130	34254
764.238	36302
764.347	38801
764.456	41757
764.565	45252
764.674	48772
764.783	53112
764.891	57105
765.000	63995
765.109	70857
765.217	79828
765.326	90746
765.435	105566
765.543	123415
765.652	145246
765.761	180620
765.869	222094
765.978	284041
766.086	367427
766.195	472051
766.303	583762
766.412	601463
766.520	436085
766.629	475060
766.737	590203
766.846	535872
766.954	428161
767.062	330262
767.171	255908
767.279	204582
767.387	163506
767.496	136804
767.604	114908
767.712	99330
767.820	87738
767.928	80684
768.037	73579
768.145	68457
768.253	65076
768.361	61908
768.469	61634
768.577	60854
768.685	63012
768.793	64443
768.901	68429
769.009	76939
769.117	87405
769.225	105456
769.333	130886
769.441	172976
769.549	245087
769.657	358498
769.765	509423
769.873	553595
769.981	424537
770.088	522915
770.196	453247
770.304	321903
770.412	232762
770.519	173840
770.627	136345
770.735	111284
770.842	93294
770.950	78497
771.058	69697
771.165	60998
771.273	54342
771.380	48752
771.488	44207
771.595	40904
771.703	37282
771.810	35210
771.918	32796
772.025	30813
772.133	29416
772.240	28867
772.348	26864
772.455	24761
772.562	23405
772.670	23849
772.777	21818
772.884	19842
772.991	19419
773.099	18881
773.206	17935
773.313	18671
773.420	17764
773.528	17377
773.635	16682
773.742	16484
773.849	16228
773.956	15161
774.063	14963
774.170	15052
774.277	13847
774.384	13724
774.491	13121
774.598	13684
774.705	13602
774.812	13356
774.919	13955
775.026	12794
775.133	12378
775.239	12176
775.346	11827
775.453	11204
775.560	10950
775.667	10875
775.773	11290
775.880	11215
775.987	10444
776.093	10607
776.200	10092
776.307	9626
776.413	10628
776.520	9277
776.627	10293
776.733	9690
776.840	9380
776.946	10382
777.053	9083
777.159	8784
777.266	9342
777.372	9045
777.478	8879
777.585	9514
777.691	8412
777.798	8811
777.904	9553
778.010	9063
778.117	9769
778.223	8612
778.329	8970
778.435	8662
778.542	8306
778.648	8003
778.754	7990
778.860	7368
778.966	8272
779.072	7577
779.178	7640
779.284	7766
779.391	7806
779.497	7353
779.603	10207
779.708	10735
779.815	17084
779.920	35315
780.026	117818
780.132	161623
780.238	28696
780.344	11374
780.450	9659
780.556	8288
780.661	8660
780.767	7370
780.873	7285
780.979	6530
781.085	6829
781.190	6517
781.296	5640
781.402	6190
781.507	5853
781.613	5999
781.719	6194
781.824	5818
781.930	6072
782.035	5862
782.141	6132
782.246	5969
782.352	6010
782.457	5594
782.563	5898
782.668	5203
782.773	5609
782.879	5809
782.984	5605
783.090	6988
783.195	6056
783.300	5791
783.405	5634
783.511	5055
783.616	4921
783.721	5216
783.826	5677
783.932	5650
784.037	5187
784.142	5672
784.247	5480
784.352	5097
784.457	5815
784.562	5312
784.667	5355
784.772	4837
784.877	4792
784.982	5046
785.087	4032
785.192	5134
785.297	5261
785.402	4556
785.507	5180
785.611	4835
785.716	5151
785.821	5010
785.926	4755
786.031	4345
786.135	4297
786.240	4250
786.345	4870
786.450	4556
786.554	5215
786.659	5177
786.763	4644
786.868	4763
786.973	4713
787.077	4177
787.182	4133
787.286	4658
787.391	4652
787.495	3663
787.600	4730
787.704	3935
787.809	4247
787.913	4689
788.017	4366
788.122	4503
788.226	4379
788.330	3877
788.435	4126
788.539	4346
788.643	3988
788.747	4222
788.852	3502
788.956	3528
789.060	4341
789.164	3819
789.268	3835
789.372	4146
789.476	3953
789.580	3744
789.684	3644
789.788	3649
789.892	3389
789.996	3942
790.100	4267
790.204	4154
790.308	3914
790.412	3947
790.516	4217
790.620	3962
790.724	4362
790.828	4036
790.931	3580
791.035	4689
791.139	4035
791.242	3887
791.346	3582
791.450	3728
791.554	3788
791.657	3552
791.761	3923
791.864	3794
791.968	3605
792.072	3121
792.175	3758
792.279	2957
792.382	4017
792.486	4428
792.589	3331
792.693	3697
792.796	3256
792.899	3731
793.003	2908
793.106	3312
793.209	3615
793.313	3442
793.416	3072
793.519	3540
793.623	3768
793.726	4412
793.829	4968
793.932	3847
794.035	3794
794.138	3959
794.242	4224
794.345	4247
794.448	5987
794.551	8737
794.654	20869
794.757	67141
794.860	107109
794.963	17611
795.066	5721
795.169	4919
795.272	4004
795.375	4375
795.477	4137
795.580	2931
795.683	3027
795.786	3310
795.889	3065
795.991	3841
796.094	4033
796.197	3386
796.300	4043
796.402	2882
796.505	2836
796.608	2774
796.710	3007
796.813	2712
796.915	2747
797.018	3081
797.120	2863
797.223	2329
797.326	3693
797.428	2063
797.530	2890
797.633	2899
797.735	3325
797.838	3310
797.940	3991
798.042	3306
798.145	3139
798.247	2371
798.349	3184
798.452	2840
798.554	3503
798.656	2184
798.758	2559
798.860	2890
798.962	2682
799.065	2805
799.167	2194
799.269	3227
799.371	2482
799.473	2857
799.575	3203
799.677	3099
799.779	3590
799.881	3025
799.983	4121
800.085	2423
800.187	1815
800.289	2426
800.390	1858
800.492	2981
800.594	3201
800.696	2614
800.798	2659
800.899	3117
801.001	2474
801.103	2308
801.205	2795
801.306	2741
801.408	2803
801.509	2652
801.611	2492
801.713	2158
801.814	2219
801.916	1334
802.017	2190
802.119	2661
802.220	2539
802.322	1900
802.423	3285
802.525	3184
802.626	2628
802.727	2575
802.829	2456
802.930	2389
803.031	2679
803.133	1753
803.234	1991
803.335	1976
803.436	2119
803.538	2032
803.639	2634
803.740	2754
803.841	2304
803.942	2158
804.043	2678
804.144	2039
804.245	1759
804.346	2231
804.447	2622
804.548	2345
804.649	2805
804.750	1806
804.851	2219
804.952	2017
805.053	2107
805.154	1728
805.255	2537
805.355	2560
805.456	2073
805.557	1738
805.658	1221
805.758	2688
805.859	2489
805.960	2140
806.061	2531
806.161	1919
806.262	2347
806.362	1344
806.463	1514
806.564	1764
806.664	1876
806.765	2583
806.865	2261
806.966	2797
807.066	1849
807.166	2851
807.267	2126
807.367	1932
807.468	2255
807.568	1860
807.668	2442
807.769	2064
807.869	1840
807.969	1634
808.069	1704
808.170	2260
808.270	1942
808.370	2281
808.470	2206
808.570	2152
808.670	2038
808.770	2050
808.870	1647
808.970	1794
809.070	1180
809.170	2188
809.271	1697
809.370	1425
809.470	1384
809.570	1766
809.670	1793
809.770	1595
809.870	2331
809.970	2450
810.070	1637
810.169	1907
810.269	1013
810.369	2717
810.469	2241
810.568	2268
810.668	2307
810.768	1123
810.867	2476
810.967	1801
811.066	2020
811.166	1593
811.265	2505
811.365	1046
811.464	1950
811.564	2158
811.663	1809
811.763	1814
811.862	1339
811.962	1644
812.061	1746
812.160	1952
812.260	2631
812.359	2027
812.458	2230
812.557	3175
812.657	6835
812.756	8872
812.855	3073
812.954	1675
813.053	2607
813.153	2297
813.252	1790
813.351	1428
813.450	1549
813.549	1695
813.648	1828
813.747	1992
813.846	2382
813.945	1949
814.044	1638
814.143	2106
814.242	2573
814.341	1804
814.439	1690
814.538	2798
814.637	1833
814.736	2537
814.835	2219
814.933	2673
815.032	2005
815.131	1689
815.229	2358
815.328	2695
815.427	2410
815.525	2154
815.624	2235
815.722	2032
815.821	2339
815.919	3216
816.018	2568
816.116	2518
816.215	2431
816.313	3363
816.412	3569
816.510	2695
816.609	3657
816.707	3336
816.805	3662
816.904	3500
817.002	4232
817.100	4407
817.198	4289
817.296	5207
817.395	5656
817.493	6433
817.591	7746
817.689	9755
817.787	11943
817.885	16533
817.983	24760
818.081	43118
818.179	82443
818.277	173622
818.375	312954
818.473	248584
818.571	111454
818.669	54827
818.767	35755
818.865	30756
818.963	30976
819.061	35882
819.158	48991
819.256	78388
819.354	144556
819.452	269258
819.549	362602
819.647	269689
819.745	143314
819.842	76426
819.940	46751
820.038	31074
820.135	23468
820.233	18056
820.330	14947
820.428	12373
820.525	9909
820.623	9590
820.720	7701
820.818	6864
820.915	6326
821.012	5435
821.110	4410
821.207	5004
821.304	4732
821.402	4021
821.499	4877
821.596	3796
821.693	3675
821.791	3558
821.888	3315
821.985	4027
822.082	4349
822.179	4087
822.276	2861
822.373	2942
822.470	2362
822.567	1548
822.664	1848
822.761	2672
822.858	2531
822.955	2096
823.052	2203
823.149	2071
823.246	2789
823.343	2343
823.440	2468
823.536	1430
823.633	2004
823.730	1629
823.827	2423
823.923	2514
824.020	2556
824.117	2415
824.213	1488
824.310	2571
824.407	985
824.503	2082
824.600	1840
824.696	1616
824.793	2403
824.889	1817
824.986	1646
825.082	1809
825.179	1750
825.275	639
825.371	1520
825.468	1665
825.564	336
825.660	1288
825.757	1232
825.853	1588
825.949	1596
826.045	1695
826.142	1132
826.238	867
826.334	1323
826.430	1346
826.526	1075
826.622	1363
826.718	1108
826.814	906
826.910	1678
827.006	1070
827.102	1435
827.198	1137
827.294	1038
827.390	1752
827.486	1586
827.582	974
827.678	896
827.774	1503
827.869	1148
827.965	2067
828.061	979
828.157	708
828.252	1289
828.348	824
828.444	897
828.539	499
828.635	1775
828.731	2375
828.826	853
828.922	1448
829.017	908
829.113	1071
829.208	1260
829.304	1302
829.399	1423
829.495	1626
829.590	1410
829.685	597
829.781	337
829.876	710
829.971	793
830.066	1086
830.162	1547
830.257	795
830.352	1009
830.447	1726
830.543	1248
830.638	417
830.733	1816
830.828	959
830.923	1073
831.018	1074
831.113	786
831.208	1611
831.303	1419
831.398	689
831.493	867
831.588	1233
831.683	975
831.778	1441
831.873	1296
831.967	1321
832.062	1385
832.157	382
832.252	1430
832.346	467
832.441	1650
832.536	1066
832.631	2042
832.725	3243
832.820	2179
832.914	452
833.009	441
833.104	1215
833.198	1154
833.293	1401
833.387	986
833.482	1254
833.576	1163
833.670	1761
833.765	693
833.859	853
833.954	858
834.048	883
834.142	1733
834.237	-181
834.331	974
834.425	1203
834.519	475
834.613	1413
834.708	720
834.802	1122
834.896	680
834.990	1657
835.084	375
835.178	1729
835.272	1673
835.366	193
835.460	1760
835.554	999
835.648	1119
835.742	636
835.836	1130
835.930	161
836.024	618
836.117	395
836.211	827
836.305	1208
836.399	1860
836.493	1989
836.586	1623
836.680	634
836.774	1494
836.867	1762
836.961	316
837.055	1134
837.148	544
837.242	566
837.335	1697
837.429	617
837.522	-10
837.616	615
837.709	1071
837.803	1713
837.896	1726
837.989	3
838.083	1279
838.176	2126
838.269	1915
838.363	3095
838.456	400
838.549	487
838.642	1536
838.735	2583
838.829	3636
838.922	1444
839.015	1081
839.108	671
839.201	765
839.294	885
839.387	488
839.480	362
839.573	1159
839.666	447
839.759	1325
839.852	206
839.945	664
840.038	709
840.131	369
840.223	191
840.316	1183
840.409	421
840.502	339
840.594	1203
840.687	380
840.780	1420
840.873	816
840.965	1039
841.058	861
841.150	1626
841.243	1294
841.336	1861
841.428	692
841.521	580
841.613	871
841.706	1128
841.798	852
841.890	762
841.983	194
842.075	731
842.167	736
842.260	628
842.352	647
842.444	661
842.537	2017
842.629	2651
842.721	2648
842.813	1036
842.905	304
842.997	1104
843.090	982
843.182	839
843.274	506
843.366	2527
843.458	4871
843.550	9385
843.642	5279
843.734	1239
843.826	929
843.918	1506
844.009	1035
844.101	-490
844.193	673
844.285	939
844.377	1229
844.469	1146
844.560	1176
844.652	877
844.744	1726
844.835	774
844.927	1048
845.019	839
845.110	327
845.202	1062
845.293	1179
845.385	100
845.476	1171
845.568	390
845.659	537
845.751	755
845.842	677
845.934	454
846.025	671
846.116	818
846.208	12
846.299	255
846.390	1014
846.482	1080
846.573	454
846.664	1073
846.755	511
846.846	1049
846.937	792
847.029	502
847.120	292
847.211	801
847.302	1287
847.393	-216
847.484	1226
847.575	746
847.666	282
847.757	561
847.847	736
847.938	644
848.029	889
848.120	-242
848.211	519
848.302	363
848.392	307
848.483	-113
848.574	86
848.664	-60
848.755	190
848.846	780
848.936	794
849.027	704
849.118	912
849.208	-326
849.299	1406
849.389	493
849.480	918
849.570	-98
849.661	1403
849.751	1152
849.841	1403
849.932	401
850.022	745
850.112	319
850.203	148
850.293	451
850.383	926
850.474	-209
850.564	1190
850.654	840
850.744	-14
850.834	125
850.924	783
851.014	629
851.104	1007
851.194	1015
851.284	401
851.374	974
851.464	811
851.554	979
851.644	767
851.734	943
851.824	1934
851.914	2477
852.004	4014
852.094	8003
852.183	7344
852.273	1231
852.363	536
852.452	626
852.542	-210
852.632	777
852.721	770
852.811	1048
852.901	38
852.990	874
853.080	299
853.169	-217
853.259	-21
853.348	-96
853.438	487
853.527	349
853.617	26
853.706	791
853.795	606
853.885	1103
853.974	2156
854.063	3578
854.152	4966
854.242	7200
854.331	2298
854.420	787
854.509	534
854.598	238
854.687	399
854.777	547
854.866	-174
854.955	383
855.044	400
855.133	-86
855.222	316
855.311	638
855.400	-231
855.488	-255
855.577	-11
855.666	245
855.755	624
855.844	418
855.933	152
856.021	759
856.110	1132
856.199	121
856.288	599
856.376	88
856.465	109
856.554	251
856.642	617
856.731	28
856.819	-21
856.908	147
856.996	378
857.085	551
857.173	762
857.262	-399
857.350	934
857.438	176
857.527	618
857.615	1045
857.703	514
857.792	244
857.880	160
857.968	-174
858.056	295
858.145	178
858.233	743
858.321	177
858.409	-237
858.497	223
858.585	224
858.673	374
858.761	165
858.849	-235
858.937	91
859.025	287
859.113	882
859.201	-56
859.289	884
859.377	-315
859.465	388
859.552	950
859.640	-33
859.728	565
859.816	290
859.903	549
859.991	370
860.079	97
860.166	636
860.254	211
860.342	-116
860.429	-295
860.517	-18
860.604	456
860.692	1385
860.779	-774
860.867	-128
860.954	365
861.042	108
861.129	740
861.216	966
861.304	-178
861.391	89
861.478	767
861.565	631
861.653	830
861.740	-777
861.827	801
861.914	730
862.001	-112
862.089	246
862.176	-216
862.263	-260
862.350	298
862.437	-564
862.524	145
862.611	179
862.698	-77
862.785	483
862.871	657
862.958	563
863.045	527
863.132	36
863.219	999
863.306	-418
863.392	308
863.479	-142
863.566	-202
863.652	93
863.739	293
863.826	397
863.912	-272
863.999	-74
864.086	-5
864.172	353
864.259	-869
864.345	-177
864.432	136
864.518	-62
864.604	144
864.691	351
864.777	-381
864.863	403
864.950	383
865.036	392
865.122	-191
865.209	510
865.295	623
865.381	84
865.467	-251
865.553	392
865.639	-494
865.726	176
865.812	496
865.898	1002
865.984	2257
866.070	1812
866.156	4274
866.242	3797
866.328	1046
866.414	-184
866.499	-152
866.585	-152
866.671	48
866.757	446
866.843	-47
866.928	-88
867.014	-199
867.100	556
867.186	-616
867.271	100
867.357	-498
867.442	430
867.528	845
867.614	538
867.699	-355
867.785	-273
867.870	144
867.956	341
868.041	819
868.127	165
868.212	385
868.297	259
868.383	-108
868.468	527
868.553	315
868.639	567
868.724	1162
868.809	3981
868.894	2538
868.979	472
869.065	23
869.150	-92
869.235	453
869.320	279
869.405	-174
869.490	765
869.575	558
869.660	-71
869.745	-335
869.830	-303
869.915	-297
870.000	86
870.085	-247
870.169	-137
870.254	102
870.339	-575
870.424	-133
870.509	-224
870.593	-324
870.678	767
870.763	-448
870.847	299
870.932	-639
871.016	373
871.101	38
871.186	-45
871.270	315
871.355	-495
871.439	-136
871.523	-488
871.608	215
871.692	-444
871.777	101
871.861	-530
871.945	-93
872.030	-153
872.114	115
872.198	-61
872.282	139
872.367	-163
872.451	-954
872.535	-377
872.619	-323
872.703	-250
872.787	-389
872.871	150
872.955	-454
873.039	-423
873.123	443
873.207	502
873.291	-874
873.375	-450
873.459	-75
873.543	-775
873.627	-104
873.711	-900
873.794	-58
873.878	-27
873.962	-314
874.045	-669
874.129	-121
874.137	-160
874.213	-548
874.245	-860
874.296	-1370
874.352	-649
874.380	-298
874.460	-192
874.464	-188
874.547	-306
874.568	-292
874.631	-254
874.676	-238
874.714	-234
874.784	-261
874.798	-257
874.881	203
874.892	65
874.965	-932
874.999	-602
875.048	-156
875.107	-139
875.131	-128
875.215	-474
875.215	-474
875.298	-595
875.323	-540
875.381	-441
875.430	-380
875.465	-309
875.538	-388
875.548	-399
875.631	-641
875.646	-669
875.714	-879
875.753	-530
875.798	-85
875.861	168
875.881	227
875.964	-195
875.968	-190
876.047	-49
876.076	-39
876.130	16
876.183	-154
876.213	-297
876.291	-253
876.296	-242
876.379	-699
876.398	-463
876.462	169
876.506	-111
876.545	-324
876.613	-70
876.628	5
876.711	-97
876.721	-99
876.794	-117
876.828	-285
876.877	-589
876.935	-729
876.960	-743
877.043	57
877.043	57
877.125	280
877.150	280
877.208	140
877.258	-77
877.291	-141
877.365	-181
877.374	-189
877.456	145
877.472	103
877.539	-177
877.579	-378
877.622	-543
877.687	-329
877.704	-265
877.787	267
877.794	294
877.869	622
877.901	436
877.952	107
878.008	316
878.034	351
878.115	425
878.117	432
878.199	-193
878.222	-40
878.282	403
878.329	280
878.364	-31
878.437	-330
878.447	-307
878.529	-374
878.544	-283
878.611	50
878.651	100
878.694	147
878.758	-30
878.776	-76
878.858	-409
878.865	-358
878.941	134
878.972	266
879.023	383
879.078	-123
879.105	-208
879.185	-14
879.187	-16
879.269	-76
879.292	-11
879.351	261
879.399	-148
879.433	-483
879.506	-210
879.516	-154
879.598	-256
879.613	-163
879.680	128
879.720	134
879.762	192
879.827	-72
879.844	-153
879.926	310
879.933	255
880.007	-272
880.040	-180
880.089	-117
880.147	-339
880.171	-426
880.253	-5
880.254	-5
880.335	315
880.360	385
880.417	438
880.467	655
880.499	896
880.574	2174
880.580	2244
880.662	2147
880.680	1773
880.744	103
880.787	-131
880.825	51
880.893	139
880.907	105
880.989	-49
881.000	-122
881.070	-230
881.106	182
881.152	489
881.213	127
881.233	-13
881.315	-427
881.319	-433
881.396	-285
881.426	-251
881.478	-73
881.532	47
881.559	-76
881.639	-605
881.641	-600
881.722	175
881.745	287
881.803	347
881.852	-15
881.885	-334
881.958	16
881.966	71
882.047	-83
882.064	-23
882.129	341
882.171	358
882.210	333
882.277	511
882.291	574
882.372	927
882.383	923
882.454	225
882.489	-217
882.535	-274
882.596	12
882.616	47
882.697	93
882.702	111
882.778	402
882.808	354
882.859	112
882.914	-245
882.940	-316
883.020	-115
883.021	-113
883.102	-200
883.127	-207
883.183	90
883.233	141
883.264	-69
883.339	-59
883.345	-12
883.426	229
883.445	240
883.507	14
883.551	109
883.587	179
883.657	220
883.668	192
883.749	-642
883.763	-634
883.830	53
883.869	244
883.910	224
883.975	315
883.991	342
884.072	23
884.081	37
884.152	169
884.187	98
884.233	14
884.292	68
884.314	68
884.394	-109
884.398	-120
884.475	-271
884.504	-272
884.555	-90
884.610	30
884.636	35
884.716	185
884.716	188
884.797	445
884.821	328
884.877	10
884.927	-51
884.958	-40
885.033	124
885.038	134
885.118	-5
885.139	58
885.199	36
885.244	-236
885.279	-130
885.350	373
885.359	365
885.439	95
885.456	23
885.520	79
885.561	86
885.600	-29
885.667	91
885.680	203
885.760	476
885.773	543
885.840	525
885.878	506
885.920	408
885.984	251
886.000	333
886.080	628
886.089	663
886.160	456
886.195	376
886.240	55
886.300	-444
886.320	-346
886.400	55
886.406	78
886.480	-75
886.511	-107
886.560	61
886.616	237
886.640	275
886.720	446
886.722	446
886.800	520
886.827	557
886.879	111
886.932	-321
886.959	-167
887.038	-26
887.039	-23
887.119	185
887.143	239
887.198	350
887.248	398
887.278	469
887.354	483
887.358	460
887.437	36
887.459	-90
887.517	265
887.564	637
887.596	572
887.669	295
887.676	300
887.755	266
887.774	272
887.835	222
887.880	220
887.914	236
887.985	235
887.994	218
888.073	24
888.090	-34
888.153	399
888.195	786
888.232	716
888.300	456
888.311	384
888.391	-132
888.405	-221
888.470	387
888.510	792
888.549	595
888.615	162
888.628	215
888.708	556
888.720	608
888.787	261
888.825	59
888.866	268
888.930	623
888.945	643
889.024	670
889.035	680
889.103	613
889.140	550
889.182	721
889.245	975
889.261	975
889.340	1003
889.349	999
889.419	400
889.454	111
889.498	59
889.559	-9
889.577	11
889.656	105
889.664	117
889.735	214
889.768	260
889.814	615
889.873	1087
889.978	1147
890.083	648
890.187	700
890.292	811
890.397	859
890.501	597
890.606	806
890.710	428
890.815	859
890.919	108
891.024	929
891.128	-20
891.233	749
891.337	462
891.442	629
891.546	864
891.650	168
891.755	762
891.859	1028
891.963	431
892.068	487
892.172	9
892.276	438
892.380	-261
892.484	574
892.589	223
892.693	-256
892.797	22
892.901	-442
893.005	-184
893.109	347
893.213	-7
893.317	786
893.421	716
893.525	566
893.629	-612
893.733	802
893.837	64
893.941	987
894.045	536
894.148	491
894.252	1642
894.356	1152
894.460	346
894.564	1144
894.667	527
894.771	226
894.875	-464
894.978	386
895.082	-269
895.186	198
895.289	617
895.393	1068
895.496	-326
895.600	137
895.703	188
895.807	508
895.910	297
896.014	-221
896.117	303
896.221	650
896.324	289
896.427	-30
896.531	256
896.634	493
896.737	64
896.840	545
896.944	88
897.047	655
897.150	-5
897.253	318
897.356	218
897.460	545
897.563	-322
897.666	740
897.769	197
897.872	19
897.975	-209
898.078	571
898.181	781
898.284	-76
898.387	652
898.490	1438
898.593	137
898.695	500
898.798	123
898.901	123
899.004	-3
899.107	178
899.209	106
899.312	512
899.415	131
899.518	-19
899.620	-56
899.723	789
899.826	449
899.928	455
900.031	-377
900.133	-90
900.236	126
900.338	-77
900.441	1039
900.543	616
900.646	-86
900.748	602
900.851	-334
900.953	-101
901.055	378
901.158	421
901.260	-410
901.362	478
901.465	278
901.567	592
901.669	-230
901.771	1006
901.873	485
901.976	-45
902.078	-731
902.180	150
902.282	-433
902.384	-474
902.486	-148
902.588	-327
902.690	16
902.792	439
902.894	-158
902.996	928
903.098	171
903.200	980
903.302	103
903.404	136
903.505	-82
903.607	701
903.709	538
903.811	745
903.913	467
904.014	297
904.116	232
904.218	-122
904.319	584
904.421	-426
904.523	-861
904.624	322
904.726	465
904.827	-131
904.929	-799
905.030	-560
905.132	196
905.233	-85
905.335	31
905.436	217
905.537	-322
905.639	334
905.740	-1
905.841	627
905.943	-249
906.044	404
906.145	209
906.247	822
906.348	-214
906.449	146
906.550	240
906.651	335
906.752	92
906.854	-223
906.955	-672
907.056	701
907.157	-230
907.258	110
907.359	28
907.460	-65
907.561	-64
907.662	-272
907.762	328
907.863	-72
907.964	-323
908.065	112
908.166	236
908.267	574
908.367	-613
908.468	432
908.569	179
908.670	256
908.770	467
908.871	414
908.971	-157
909.072	326
909.173	150
909.273	752
909.374	-1168
909.474	277
909.575	760
909.675	124
909.776	509
909.876	-125
909.977	-440
910.077	775
910.177	-192
910.278	469
910.378	-465
910.478	124
910.579	124
910.679	309
910.779	-130
910.879	14
910.980	280
911.080	-74
911.180	416
911.280	-38
911.380	-287
911.480	436
911.580	-209
911.680	396
911.780	141
911.880	345
911.980	-531
912.080	202
912.180	-401
912.280	185
912.380	-650
912.480	-78
912.580	-153
912.679	351
912.779	-344
912.879	901
912.979	807
913.078	-489
913.178	-6
913.278	-217
913.377	-391
913.477	-103
913.577	-478
913.676	1
913.776	60
913.875	152
913.975	-344
914.074	297
914.174	-640
914.273	180
914.373	311
914.472	9
914.572	53
914.671	88
914.770	-79
914.870	588
914.969	-701
915.068	-31
915.167	-71
915.267	614
915.366	224
915.465	43
915.564	-25
915.663	-236
915.763	-292
915.862	489
915.961	-308
916.060	-539
916.159	-254
916.258	-202
916.357	-743
916.456	723
916.555	-415
916.654	-618
916.752	-282
916.851	-842
916.950	47
917.049	898
917.148	-332
917.247	-473
917.345	-10
917.444	-594
917.543	-266
917.642	87
917.740	-714
917.839	319
917.937	-520
918.036	393
918.135	-389
918.233	-410
918.332	-182
918.430	-237
918.529	-69
918.627	-6
918.726	320
918.824	322
918.923	38
919.021	218
919.119	-1106
919.218	119
919.316	-413
919.414	105
919.512	-189
919.611	357
919.709	-42
919.807	-702
919.905	377
920.003	206
920.102	-588
920.200	36
920.298	-279
920.396	377
920.494	-706
920.592	-49
920.690	-398
920.788	-203
920.886	-418
920.984	464
921.082	-503
921.180	183
921.277	55
921.375	334
921.473	-750
921.571	28
921.669	137
921.766	-277
921.864	-572
921.962	-132
922.060	-571
922.157	323
922.255	-943
922.352	364
922.450	-324
922.548	-190
922.645	-561
922.743	217
922.840	-666
922.938	236
923.035	342
923.133	619
923.230	-357
923.327	-496
923.425	-110
923.522	-674
923.619	-958
923.717	126
923.814	-144
923.911	-268
924.008	-499
924.106	740
924.203	-307
924.300	954
924.397	-112
924.494	-136
924.591	-390
924.688	272
924.786	-726
924.883	-70
924.979	525
925.077	8
925.173	-478
925.270	-362
925.367	176
925.464	-251
925.561	218
925.658	96
925.755	-79
925.852	-43
925.948	-319
926.045	-209
926.142	-258
926.239	-55
926.335	242
926.432	718
926.529	-675
926.625	370
926.722	-403
926.818	333
926.915	915
927.011	-493
927.108	18
927.204	-573
927.301	35
927.397	-66
927.494	-513
927.590	-692
927.687	-389
927.783	117
927.879	-517
927.976	532
928.072	-804
928.168	41
928.264	18
928.361	383
928.457	-348
928.553	-213
928.649	9
928.745	171
928.841	-944
928.937	11
929.033	-248
929.129	43
929.225	-854
929.321	-61
929.417	-993
929.513	-117
929.609	-329
929.705	680
929.801	-340
929.897	-123
929.993	-920
930.089	-510
930.184	-1280
930.280	201
930.376	-823
930.471	-466
930.567	-792
930.663	20
930.758	-137
930.854	-282
930.950	376
931.045	-39
931.141	-204
931.236	696
931.332	-724
931.427	-736
931.523	-1013
931.618	20
931.714	-367
931.809	-350
931.905	-702
932.000	365
932.095	-843
932.191	259
932.286	-984
932.381	490
932.476	-1222
932.572	-353
932.667	-18
932.762	44
932.857	-56
932.952	-179
933.047	-289
933.142	-69
933.237	-1383
933.332	253
933.427	-520
933.522	-193
933.617	-776
933.712	409
933.807	176
933.902	-82
933.997	-695
934.092	-347
934.187	-522
934.282	-350
934.376	-520
934.471	-158
934.566	-570
934.661	-274
934.755	-509
934.850	-147
934.945	-286
935.039	52
935.134	-98
935.228	-686
935.323	-671
935.417	117
935.512	-738
935.606	121
935.701	-684
935.795	-634
935.890	-14
935.984	115
936.079	-437
936.173	-18
936.267	-397
936.362	-94
936.456	-288
936.550	207
936.644	-331
936.738	9
936.833	-200
936.927	652
937.021	-93
937.115	-362
937.209	-1024
937.303	7
937.397	-464
937.491	294
937.585	-341
937.679	-175
937.773	-154
937.867	591
937.961	-764
938.055	-38
938.149	134
938.243	41
938.337	-345
938.430	224
938.524	-497
938.618	-767
938.712	-648
938.805	132
938.899	-282
938.993	54
939.086	-1355
939.180	191
939.274	-959
939.367	135
939.461	-785
939.554	61
939.648	379
939.741	-234
939.835	-551
939.928	-287
940.022	-354
940.115	-345
940.208	-826
940.302	-196
940.395	-614
940.488	-251
940.582	-33
940.675	-747
940.768	-393
940.861	-380
940.954	-324
941.048	703
941.141	-780
941.234	-602
941.327	-8
941.420	-655
941.513	-383
941.606	-363
941.699	83
941.792	-1084
941.885	-975
941.978	-271
942.071	-533
942.164	-315
942.257	-644
942.349	-355
942.442	-1568
942.535	338
942.628	10
942.721	58
942.813	-1135
942.906	-670
942.999	-434
943.091	127
943.184	-379
943.277	227
943.369	-618
943.462	322
943.554	-160
943.647	-314
943.739	-685
943.832	-288
943.924	-593
944.017	257
944.109	-436
944.201	21
944.294	-30
944.386	-835
944.478	-934
944.571	97
944.663	-1166
944.755	829
944.847	-1018
944.940	-541
945.032	-305
945.124	65
945.216	-180
945.308	-630
945.400	-548
945.492	-230
945.584	-742
945.676	559
945.768	-432
945.860	-655
945.952	-368
946.044	331
946.136	-855
946.228	-335
946.320	-716
946.412	366
946.503	-254
946.595	-104
946.687	-442
946.779	-256
946.870	-1042
946.962	672
947.054	-621
947.145	-720
947.237	-1556
947.329	-824
947.420	-1112
947.512	-109
947.603	-793
947.695	164
947.786	-515
947.878	-844
947.969	-694
948.061	-536
948.152	-1007
948.243	-476
948.335	-1152
948.426	14
948.517	-1310
948.609	-297
948.700	-1089
948.791	97
948.882	-351
948.973	295
949.065	-414
949.156	273
949.247	-567
949.338	-220
949.429	-535
949.520	-358
949.611	232
949.702	559
949.793	-1007
949.884	-544
949.975	-421
950.066	-130
950.157	-100
950.247	-573
950.338	-333
950.429	-804
950.520	-439
950.611	-478
950.701	-552
950.792	-562
950.883	33
950.973	-597
951.064	-420
951.155	-505
951.245	395
951.336	-1029
951.427	-483
951.517	-600
951.608	-685
951.698	23
951.788	-730
951.879	-205
951.969	33
952.060	-564
952.150	-71
952.240	51
952.331	-868
952.421	-465
952.511	-719
952.602	-318
952.692	-1299
952.782	-874
952.872	-546
952.962	-62
953.052	-769
953.143	-649
953.233	-331
953.323	-178
953.413	-647
953.503	-590
953.593	-295
953.683	-993
953.773	-1213
953.863	-59
953.953	-629
954.042	-405
954.132	-589
954.222	-351
954.312	-779
954.402	-55
954.492	-901
954.581	-425
954.671	-109
954.761	-548
954.850	-499
954.940	6
955.030	-1600
955.119	192
955.209	-1280
955.298	-248
955.388	-653
955.477	-526
955.567	-1008
955.656	-55
955.746	-1342
955.835	-407
955.925	319
956.014	101
956.103	-1095
956.193	-391
956.282	-345
956.371	-95
956.461	-1261
956.550	-487
956.639	-1199
956.728	-458
956.817	-727
956.906	-368
956.995	-687
957.085	-656
957.174	-433
957.263	-637
957.352	-570
957.441	-49
957.530	-523
957.619	29
957.708	-1053
957.796	-344
957.885	-519
957.974	-208
958.063	-991
958.152	-559
958.241	-477
958.329	379
958.418	-877
958.507	-763
958.596	273
958.684	-494
958.773	-523
958.861	-502
958.950	-154
959.039	-116
959.127	-774
959.216	-627
959.304	-505
959.393	29
959.481	-73
959.570	-200
959.658	-823
959.746	144
959.835	31
959.923	60
960.011	-620
960.100	273
960.188	-306
960.276	-601
960.365	-587
960.453	-267
960.541	-1797
960.629	-270
960.717	187
960.805	352
960.893	-1139
960.981	-294
961.069	-467
961.158	-74
961.245	-708
961.333	-72
961.421	-1113
961.509	-358
961.597	-659
961.685	-124
961.773	-572
961.861	-196
961.949	-609
962.036	-361
962.124	-723
962.212	-160
962.299	-341
962.387	-652
962.475	-975
962.562	322
962.650	-709
962.738	-624
962.825	-744
962.913	-612
963.000	30
963.088	-1054
963.175	-443
963.263	268
963.350	-1226
963.438	-75
963.525	-228
963.612	-170
963.700	-341
963.787	1864
963.874	2332
963.962	428
964.049	-76
964.136	-546
964.223	-1065
964.310	-562
964.398	-1180
964.485	-474
964.572	-1072
964.659	-194
964.746	-127
964.833	-438
964.920	65
965.007	-131
965.094	-572
965.181	-21
965.268	-1189
965.355	-353
965.441	-211
965.528	-709
965.615	-647
965.702	-593
965.789	-1211
965.875	-634
965.962	-917
966.049	-697
966.136	-992
966.222	-855
966.309	-567
966.395	-1152
966.482	-745
966.569	-779
966.655	-1112
966.742	23
966.828	-1174
966.915	-629
967.001	-569
967.087	-621
967.174	-863
967.260	-574
967.347	-1237
967.433	-189
967.519	701
967.605	1089
967.692	-571
967.778	-770
967.864	-1369
967.950	-63
968.036	-1109
968.123	-197
968.209	-657
968.295	-499
968.381	-719
968.467	-333
968.553	-1685
968.639	-235
968.725	-1350
968.811	-144
968.897	-623
968.983	-558
969.069	-361
969.154	-520
969.240	-505
969.326	-583
969.412	-1534
969.497	-981
969.583	-1467
969.669	26
969.755	-821
969.840	-547
969.926	-646
970.012	-327
970.097	-711
970.183	-829
970.268	-47
970.354	-1311
970.439	-593
970.525	-105
970.610	-10
970.696	558
970.781	-617
970.866	-1071
970.952	-1234
971.037	-704
971.122	-670
971.208	-435
971.293	-267
971.378	-795
971.463	-829
971.549	-503
971.634	-1009
971.719	-797
971.804	-573
971.889	-819
971.974	-565
972.059	-466
972.144	-1239
972.229	-51
972.314	-1207
972.399	-1281
972.484	-592
972.569	-532
972.654	-777
972.739	-796
972.824	-51
972.908	84
972.993	-654
973.078	-222
973.163	-934
973.247	-998
973.332	-1233
973.417	-887
973.501	-1741
973.586	-1373
973.671	-613
973.755	-1235
973.840	-1123
973.924	-888
974.009	-615
974.093	-869
974.178	-620
974.262	-19
974.346	-770
974.431	-826
974.515	-941
974.600	-1301
974.684	-374
974.768	-848
974.852	-697
974.937	232
975.021	-1467
975.105	-933
975.189	-722
975.273	-832
975.358	-1460
975.442	-1275
975.526	-1587
975.610	-991
975.694	-1441
975.778	-1402
975.862	-1535
975.946	-1437
976.030	-1219
976.114	-635
976.198	-84
976.281	-1079
976.365	-829
976.449	-778
976.533	-2017
976.617	-336
976.700	-701
976.784	-821
976.868	-1014
976.951	-1005
977.035	-1935
977.119	-600
977.202	-1182
977.286	-624
977.369	-1364
977.453	-974
977.536	-1565
977.620	-630
977.703	-1479
977.787	-1229
977.870	-798
977.953	-687
978.037	-508
978.120	-747
978.203	-1751
978.287	-109
978.370	-1145
978.453	-844
978.536	-1284
978.620	-479
978.703	-851
978.786	-619
978.869	-1207
978.952	-1727
979.035	-954
979.118	-480
979.201	-2043
979.284	-1451
979.367	-1654
979.450	-1273
979.533	-1080
979.616	-2017
979.699	-1167
979.782	-1045
979.865	-1472
979.948	-1588
980.030	-2343
980.113	-1626
980.196	-1309
980.279	-1030
980.361	-1004
980.444	-1625
980.526	-1354
980.609	-404
980.692	-1691
980.774	-933
980.857	-1974
980.939	-1092
981.022	-1823
981.104	-1300
981.187	-647
981.269	-803
981.352	-1468
981.434	-1452
981.516	-2165
981.599	-444
981.681	-1510
981.763	-758
981.846	-941
981.928	-779
982.010	-1374
982.092	-1292
982.174	-1039
982.256	-539
982.339	-1611
982.421	-1275
982.503	-2061
982.585	-1024
982.667	-1105
982.749	-1046
982.831	-2003
982.913	-979
982.995	-884
983.077	-1217
983.158	-1385
983.240	-2266
983.322	-1447
983.404	-523
983.486	-2523
983.568	-1104
983.649	-1640
983.731	-1248
983.813	-1199
983.894	-1072
983.976	-1813
984.058	-1390
984.139	-1434
984.221	-1801
984.302	-1983
984.384	-570
984.465	-1133
984.547	-1062
984.628	-1394
984.710	-803
984.791	-2427
984.872	-951
984.954	-1643
985.035	-1207
985.116	-1419
985.198	-1589
985.279	-1552
985.360	-1680
985.441	-1624
985.522	-404
985.604	-1690
985.685	-1465
985.766	-1238
985.847	-696
985.928	-1687
986.009	-1123
986.090	-1760
986.171	-849
986.252	-807
986.333	-1442
986.414	-1955
986.495	-863
986.576	-988
986.656	-600
986.737	-1367
986.818	-1075
986.899	-1475
986.980	-1433
987.060	-1414
987.141	-2116
987.222	-1664
987.302	-1153
987.383	-605
987.464	-1780
987.544	-1211
987.625	-1429
987.705	-583
987.786	-1230
987.866	-1779
987.947	-1377
988.027	-2659
988.108	-897
988.188	-1295
988.268	-461
988.349	-797
988.429	-756
988.509	-1003
988.589	-524
988.670	-2136
988.750	-325
988.830	-1914
988.910	-1268
988.990	-1112
989.070	-710
989.151	-1988
989.231	-579
989.311	-937
989.391	-1169
989.471	-1260
989.551	-806
989.631	-1565
989.711	-1153
989.791	-2020
989.870	-965
989.950	-1325
990.030	-1411
990.110	-1557
990.190	-1438
990.269	-1045
990.349	-372
990.429	-2409
990.509	-1855
990.588	-1047
990.668	-1343
990.747	-1130
990.827	-2075
990.907	-1417
990.986	-1200
991.066	-2238
991.145	-1800
991.225	-1244
991.304	-804
991.383	-1703
991.463	-1158
991.542	-1339
991.622	-1215
991.701	-1327
991.780	-1528
991.859	-2193
991.939	-656
992.018	-1291
992.097	-862
992.176	-1284
992.256	-1367
992.335	-1710
992.414	-1319
992.493	-1530
992.572	-787
992.651	-749
992.730	-1741
992.809	-1914
992.888	-1002
992.967	-653
993.046	-1713
993.125	-2270
993.203	-1001
993.282	-1120
993.361	-1569
993.440	-826
993.519	-710
993.597	-703
993.676	-1356
993.755	-852
993.834	-578
993.912	-2217
993.991	-1863
994.069	-1877
994.148	-938
994.226	-1498
994.305	-966
994.384	-953
994.462	-306
994.540	-1084
994.619	-1390
994.697	-1999
994.776	-1152
994.854	-1065
994.932	-1107
995.011	-1312
995.089	-1496
995.167	-1494
995.245	-1857
995.324	-1991
995.402	-481
995.480	-1315
995.558	-1128
995.636	-2216
995.714	-952
995.792	-1600
995.870	-970
995.948	-1226
996.026	-1092
996.104	-1500
996.182	-1679
996.260	-1369
996.338	-1154
996.416	-942
996.494	-2265
996.572	-816
996.649	-1907
996.727	-1851
996.805	-1416
996.883	-960
996.960	-1132
997.038	-1404
997.116	-1392
997.193	-1663
997.271	-508
997.348	-2018
997.426	-1410
997.504	-1411
997.581	-773
997.658	-827
997.736	-1131
997.813	-2235
997.891	-920
997.968	-2094
998.046	-1019
998.123	-2082
998.200	-1639
998.277	-2149
998.355	-994
998.432	-2213
998.509	-783
998.586	-2076
998.663	-570
998.741	-1577
998.818	-1497
998.895	-1794
998.972	-1841
999.049	-1509
999.126	-1420
999.203	-1316
999.280	-590
999.357	-2250
999.434	-1473
999.511	-1863
999.587	-532
999.664	-1162
999.741	-1383
999.818	-1573
999.895	-1962
999.971	-1633
1000.048	-709
1000.125	-1203
1000.202	-1397
1000.278	-939
1000.355	-786
1000.431	-1547
1000.508	-1806
1000.584	-1399
1000.661	-1229
1000.738	-1675
1000.814	-1583
1000.890	-1088
1000.967	-1426
1001.043	-1777
1001.120	-1264
1001.196	-1276
1001.272	-1915
1001.349	-964
1001.425	-881
1001.501	-1468
1001.577	-1103
1001.654	-2859
1001.730	-1379
1001.806	-1686
1001.882	-2091
1001.958	-1853
1002.034	-830
1002.110	-1495
1002.186	-760
1002.262	-1878
1002.338	-1993
1002.414	-1858
1002.490	-553
1002.566	-2472
1002.642	-660
1002.718	-1925
1002.794	-1675
1002.870	-1655
1002.945	-2053
1003.021	-2061
1003.097	-1908
1003.173	-1342
1003.248	-1740
1003.324	-1567
1003.400	-1122
1003.475	-1820
1003.551	-1593
1003.626	-1897
1003.702	-1413
1003.777	-1571
1003.853	-1642
1003.928	-1017
1004.004	-777
1004.079	-1129
1004.155	-1342
1004.230	-1872
1004.305	-243
1004.381	-2221
1004.456	-844
1004.531	-1012
1004.607	-1849
1004.682	-1973
1004.757	-960
1004.832	-2276
1004.907	-1594
1004.982	-1288
1005.057	-1233
1005.133	-1735
1005.208	-569
1005.283	-1850
1005.358	-254
1005.433	-2471
1005.508	-988
1005.583	-2711
1005.657	-1553
1005.732	-1490
1005.807	-1754
1005.882	-1654
1005.957	-2089
1006.032	-1392
1006.106	-1797
1006.181	-1180
1006.256	-1807
1006.331	-2154
1006.405	-1819
1006.480	-1552
1006.554	-1924
1006.629	-1963
1006.704	-1674
1006.778	-1026
1006.853	-1046
1006.927	-1730
1007.002	-2418
1007.076	-797
1007.150	-1387
1007.225	-2652
1007.299	-1425
1007.373	-1777
1007.448	-1654
1007.522	-1314
1007.596	-1968
1007.671	-2673
1007.745	-1108
1007.819	-2548
1007.893	-1764
1007.967	-1624
1008.041	-1104
1008.115	-1056
1008.190	-2093
1008.264	-2355
1008.338	-2129
1008.412	-1673
1008.486	-1402
1008.560	-2287
1008.633	-1783
1008.707	-2950
1008.781	-578
1008.855	-1181
1008.929	-2591
1009.003	-1701
1009.076	-1533
1009.150	-1452
1009.224	-1862
1009.298	-1554
1009.371	-1633
1009.445	-1341
1009.519	-1828
1009.592	-1921
1009.666	-721
1009.739	-2035
1009.813	-2004
1009.886	-1572
1009.960	-2160
1010.033	-2279
1010.107	-1708
1010.180	-1951
1010.253	-1825
1010.327	-1959
1010.400	-1858
1010.473	-1455
1010.547	-786
1010.620	-1622
1010.693	-501
1010.766	-1746
1010.840	-1440
1010.913	-1190
1010.986	-1634
1011.059	-1364
1011.132	-961
1011.205	-1303
1011.278	-1771
1011.351	-1970
1011.424	-2476
1011.497	-1928
1011.570	-1644
1011.643	-1802
1011.716	-1743
1011.789	-1928
1011.862	-1829
1011.934	-2520
1012.007	-2160
1012.080	-1169
1012.153	-1550
1012.225	-2237
1012.298	-1661
1012.371	-1545
1012.443	-963
1012.516	-2022
1012.588	-1729
1012.661	-1121
1012.733	-2206
1012.806	-2302
1012.879	-1790
1012.951	-1142
1013.023	-1848
1013.096	-1824
1013.168	-1159
1013.241	-2001
1013.313	-1388
1013.385	-2231
1013.458	-1088
1013.530	-1710
1013.602	-2061
1013.674	-1477
1013.746	-1445
1013.819	-2132
1013.891	-1313
1013.963	-1404
1014.035	-1547
1014.107	-1610
1014.179	-1095
1014.251	-2529
1014.323	-1339
1014.395	-1906
1014.467	-1672
1014.539	-1649
1014.611	-1883
1014.683	-2177
1014.754	-388
1014.826	-1838
1014.898	-2023
1014.970	-1563
1015.042	-1300
1015.113	-1545
1015.185	-1499
1015.257	-2412
1015.328	-1442
1015.400	-2610
1015.471	-2249
1015.543	-3152
1015.615	-1292
1015.686	-1372
1015.757	-1176
1015.829	-1913
1015.901	-1400
1015.972	-2190
1016.043	-1560
1016.115	-1837
1016.186	-1392
1016.257	-1886
1016.328	-1082
1016.400	-1530
1016.471	-2239
1016.542	-1676
1016.613	-1491
1016.685	-1849
1016.756	-1235
1016.827	-2085
1016.898	-2566
1016.969	-1868
1017.040	-2200
1017.111	-2507
1017.182	-1125
1017.253	-1372
1017.324	-2079
1017.395	-2040
1017.466	-1613
1017.537	-1745
1017.608	-1938
1017.678	-2712
1017.749	-1953
1017.820	-2321
1017.891	-2256
1017.961	-2005
1018.032	-2274
1018.103	-2349
1018.173	-1658
1018.244	-1637
1018.315	-2310
1018.385	-1911
1018.456	-2224
1018.526	-2794
1018.597	-2160
1018.667	-960
1018.738	-2174
1018.808	-1491
1018.878	-2517
1018.949	-1800
1019.019	-1122
1019.089	-1393
1019.160	-1853
1019.230	-2562
1019.300	-1675
1019.371	-2458
1019.441	-1815
1019.511	-2585
1019.581	-1788
1019.651	-2120
1019.721	-1884
1019.791	-1330
1019.861	-988
1019.931	-1722
1020.001	-1526
1020.071	-2301
1020.141	-2096
1020.211	-2421
1020.281	-1889
1020.351	-2408
1020.421	-1738
1020.491	-2275
1020.560	-2026
1020.630	-1867
1020.700	-1738
1020.770	-2153
1020.839	-1473
1020.909	-2330
1020.979	-1842
1021.048	-2755
1021.118	-2319
1021.187	-2062
1021.257	-1430
1021.326	-1905
1021.396	-1695
1021.465	-1677
1021.535	-2201
1021.604	-2066
1021.674	-2245
1021.743	-1692
1021.812	-2049
1021.882	-2771
1021.951	-1996
1022.020	-2413
1022.089	-1157
1022.159	-2500
1022.228	-1298
1022.297	-1156
1022.366	-1243
1022.435	-2223
1022.504	-1466
1022.573	-1749
1022.642	-1796
1022.711	-2631
1022.781	-1126
1022.849	-1653
1022.918	-1780
1022.987	-1788
1023.056	-1591
1023.125	-2246
1023.194	-2149
1023.263	-2000
1023.331	-1524
1023.400	-2653
1023.469	-1067
1023.538	-1983
1023.606	-2663
1023.675	-3001
1023.744	-2330
1023.812	-2458
1023.881	-1246
1023.949	-2786
1024.018	-1699
1024.086	-2131
1024.155	-2180
1024.223	-1752
1024.292	-1500
1024.360	-2032
1024.429	-1514
1024.497	-2265
1024.565	-865
1024.634	-2053
1024.702	-1408
1024.770	-1540
1024.838	-2155
1024.907	-1403
1024.975	-1952
1025.043	-2082
1025.111	-1891
1025.179	-1359
1025.247	-1766
1025.315	-1892
1025.383	-1688
1025.451	-2507
1025.519	-1300
1025.587	-2300
1025.655	-1813
1025.723	-1850
1025.791	-2486
1025.859	-2415
1025.927	-1257
1025.995	-1638
1026.062	-1560
1026.130	-2542
1026.198	-1650
1026.266	-1454
1026.333	-2249
1026.401	-1388
1026.469	-1481
1026.536	-2190
1026.604	-2361
1026.671	-2154
1026.739	-1357
1026.806	-1910
1026.874	-1992
1026.941	-2246
1027.009	-1913
1027.076	-2821
1027.144	-957
1027.211	-2525
1027.278	-1553
1027.345	-2349
1027.413	-2660
1027.480	-2079
1027.547	-1852
1027.614	-2476
1027.682	-1441
1027.749	-2189
1027.816	-2204
1027.883	-1785
1027.950	-1190
1028.017	-2182
1028.084	-1464
1028.151	-2158
1028.218	-1598
1028.285	-1770
1028.352	-1955
1028.419	-1652
1028.486	-1706
1028.553	-1244
1028.619	-1430
1028.686	-2411
1028.753	-2725
1028.820	-1441
1028.886	-1442
1028.953	-2157
1029.020	-1592
1029.086	-2879
1029.153	-2685
1029.220	-1964
1029.286	-2013
1029.353	-1643
1029.419	-2340
1029.486	-1645
1029.552	-1994
1029.619	-2073
1029.685	-1693
1029.751	-2147
1029.818	-1330
1029.884	-2175
1029.951	-1017
1030.017	-1854
1030.083	-2063
1030.149	-2202
1030.216	-2134
1030.282	-1586
1030.348	-2120
1030.414	-2323
1030.480	-2096
1030.546	-2160
1030.612	-1285
1030.678	-2341
1030.744	-2615
1030.810	-2225
1030.876	-1717
1030.942	-2315
1031.008	-2246
1031.074	-2600
1031.140	-1875
1031.206	-1462
1031.272	-2558
1031.337	-2369
1031.403	-1971
1031.469	-2047
1031.534	-2265
1031.600	-2150
1031.666	-1629
1031.731	-2428
1031.797	-1761
1031.863	-1718
1031.928	-1381
1031.994	-2179
1032.059	-1325
1032.125	-2384
1032.190	-2564
1032.256	-2627
1032.321	-1831
1032.386	-929
1032.452	-620
1032.517	-1820
1032.582	-2595
1032.647	-2363
1032.713	-2109
1032.778	-2703
1032.843	-2260
1032.908	-1782
1032.974	-1631
1033.039	-1904
1033.104	-1379
1033.169	-3020
1033.234	-2130
1033.299	-2210
1033.364	-1788
1033.429	-1873
1033.494	-1510
1033.559	-2152
1033.624	-1704
1033.688	-1749
1033.753	-2358
1033.818	-2470
1033.883	-2226
1033.948	-1940
1034.013	-1589
1034.077	-1986
1034.142	-1208
1034.207	-2673
1034.271	-1982
1034.336	-3064
1034.400	-1617
1034.465	-2157
1034.530	-1674
1034.594	-2308
1034.658	-1171
1034.723	-2060
1034.787	-1391
1034.852	-1928
1034.916	-1997
1034.981	-2555
1035.045	-1212
1035.109	-2110
1035.173	-1631
1035.238	-2293
1035.302	-1746
1035.366	-2339
1035.430	-2038
1035.495	-2449
1035.559	-1487
1035.623	-1863
1035.687	-1669
1035.751	-2277
1035.815	-2125
1035.879	-2336
1035.943	-1997
1036.007	-2618
1036.071	-1531
1036.135	-2085
1036.198	-1260
1036.262	-2382
1036.326	-2002
1036.390	-2237
1036.454	-1871
1036.517	-2264
1036.581	-1885
1036.645	-1414
1036.709	-2371
1036.772	-2135
1036.836	-2076
1036.900	-2126
1036.963	-2379
1037.026	-2090
1037.090	-2083
1037.154	-1871
1037.217	-1717
1037.280	-1954
1037.344	-1601
1037.407	-2494
1037.471	-1558
1037.534	-2951
1037.597	-1855
1037.661	-2634
1037.724	-2430
1037.787	-2734
1037.850	-2136
1037.913	-2615
1037.977	-961
1038.040	-3168
1038.103	-2580
1038.166	-2077
1038.229	-2019
1038.292	-2750
1038.355	-2189
1038.418	-2379
1038.481	-1598
1038.544	-2407
1038.607	-1858
1038.670	-2746
1038.732	-1979
1038.795	-2420
1038.858	-1883
1038.921	-2153
1038.984	-1594
1039.046	-2451
1039.109	-1618
1039.172	-2418
1039.234	-2051
1039.297	-2154
1039.360	-1984
1039.422	-2341
1039.485	-2630
1039.547	-2955
1039.610	-2032
1039.672	-2025
1039.734	-1989
1039.797	-2447
1039.859	-1477
1039.922	-2531
1039.984	-2690
1040.046	-1789
1040.109	-1995
1040.171	-2949
1040.233	-2264
1040.295	-2021
1040.358	-2329
1040.420	-2549
1040.482	-1876
1040.544	-2475
1040.606	-2275
1040.668	-2833
1040.730	-2487
1040.792	-2337
1040.854	-1587
1040.916	-2608
1040.978	-2052
1041.040	-2052
1041.102	-1699
1041.164	-2958
1041.225	-2291
1041.287	-2367
1041.349	-1600
1041.411	-2533
1041.472	-1779
1041.534	-2828
1041.596	-2428
1041.657	-1981
1041.719	-1753
1041.781	-2762
1041.842	-1492
1041.904	-1469
1041.965	-2627
1042.027	-2082
1042.088	-1893
1042.150	-1537
1042.211	-1819
1042.272	-2198
1042.334	-1404
1042.395	-1938
1042.456	-2074
1042.518	-3445
1042.579	-1658
1042.640	-2107
1042.701	-3059
1042.763	-2273
1042.824	-2093
1042.885	-2377
1042.946	-2308
1043.007	-2281
1043.068	-1778
1043.129	-2357
1043.190	-2440
1043.251	-1801
1043.312	-1820
1043.373	-1657
1043.434	-1827
1043.495	-2425
1043.556	-1850
1043.616	-2110
1043.677	-3076
1043.738	-2098
1043.799	-1905
1043.859	-1792
1043.920	-1781
1043.981	-2650
1044.041	-1487
1044.102	-2568
1044.162	-1707
1044.223	-2421
1044.284	-2794
1044.344	-2551
1044.405	-2128
1044.465	-2650
1044.525	-2404
1044.586	-2386
1044.646	-2184
1044.707	-1978
1044.767	-2805
1044.827	-2712
1044.887	-2416
1044.948	-1940
1045.008	-1058
1045.068	-2069
1045.128	-1234
1045.188	-2745
1045.249	-1276
1045.309	-2324
1045.369	-1372
1045.429	-2466
1045.489	-1928
1045.549	-2823
1045.609	-2275
1045.669	-2807
1045.729	-2686
1045.789	-1657
1045.848	-2110
1045.908	-2569
1045.968	-1575
1046.028	-2191
1046.088	-1970
1046.147	-2167
1046.207	-1391
1046.267	-1800
1046.326	-1705
1046.386	-2094
1046.446	-1479
1046.505	-1494
1046.565	-1386
1046.624	-937
1046.684	-922
1046.743	-1137
1046.803	-883
1046.862	-942
1046.922	0
