'Start Wavelength	183.907
'End Wavelength	1046.922
'Gate Delay	5.000
'Gate Width (ms)	1.050
'Laser Output Level	0.000
'X Position	0.000
'Y Position	0.000
'Z Position	0.000
'Grid Point Number	1.000
'Shot Number	100.000
183.907	-43.000
183.977	-56.000
184.047	-30
184.116	1328
184.186	348
184.256	273
184.325	-412
184.395	457
184.465	885
184.534	808
184.604	205
184.674	757
184.743	44
184.813	-285
184.883	-249
184.952	333
185.022	240
185.092	296
185.161	-260
185.231	584
185.301	1119
185.370	671
185.440	71
185.509	297
185.579	585
185.649	109
185.718	616
185.788	465
185.857	22
185.927	299
185.996	724
186.066	298
186.136	252
186.205	564
186.275	688
186.344	906
186.414	-152
186.483	751
186.553	1589
186.622	1909
186.692	443
186.761	866
186.831	297
186.900	717
186.970	723
187.039	78
187.109	1874
187.178	1102
187.248	1255
187.317	1420
187.387	383
187.456	469
187.526	1447
187.595	1230
187.664	315
187.734	1248
187.803	1532
187.873	1034
187.942	636
188.012	1025
188.081	309
188.150	257
188.220	1778
188.289	2387
188.358	1274
188.428	2004
188.497	47
188.567	1669
188.636	1001
188.705	799
188.775	557
188.844	146
188.913	1315
188.983	890
189.052	503
189.121	1179
189.191	754
189.260	2137
189.329	1856
189.399	1439
189.468	1006
189.537	711
189.606	1021
189.676	1577
189.745	1237
189.814	1294
189.883	537
189.953	2178
190.022	2558
190.091	5259
190.161	8533
190.230	4212
190.299	1072
190.368	1365
190.437	1324
190.507	1395
190.576	1373
190.645	942
190.714	1496
190.783	1468
190.853	1769
190.922	2305
190.991	1817
191.060	1879
191.129	840
191.198	2633
191.268	760
191.337	1177
191.406	2450
191.475	973
191.544	846
191.613	2226
191.682	1039
191.752	1160
191.821	751
191.890	1074
191.959	1390
192.028	993
192.097	1848
192.166	1638
192.235	1099
192.304	1757
192.373	1089
192.442	-37
192.511	1123
192.580	926
192.650	803
192.719	1402
192.788	703
192.857	1579
192.926	1459
192.995	1693
193.064	2505
193.133	3640
193.202	3446
193.271	4148
193.340	3053
193.409	2671
193.478	4128
193.547	4120
193.615	6574
193.684	6304
193.753	4110
193.822	4287
193.891	1195
193.960	2136
194.029	2018
194.098	1933
194.167	1692
194.236	1655
194.305	1787
194.374	1256
194.443	1195
194.512	1660
194.580	1474
194.649	2759
194.718	3389
194.787	2709
194.856	895
194.925	2461
194.994	2130
195.062	3001
195.131	2683
195.200	2914
195.269	4610
195.338	2833
195.407	1901
195.475	2238
195.544	3303
195.613	3670
195.682	2282
195.751	4095
195.819	4140
195.888	3474
195.957	4150
196.026	4257
196.094	3886
196.163	4044
196.232	4579
196.301	3355
196.369	3046
196.438	2810
196.507	2441
196.576	2798
196.644	2188
196.713	2244
196.782	2407
196.850	2400
196.919	2411
196.988	2524
197.056	1238
197.125	2305
197.194	1998
197.262	1192
197.331	1974
197.400	2744
197.468	1885
197.537	2013
197.606	2844
197.674	3954
197.743	8410
197.812	3529
197.880	7316
197.949	5917
198.017	6916
198.086	5900
198.155	2772
198.223	4193
198.292	8267
198.360	5228
198.429	3101
198.497	2767
198.566	5588
198.635	10018
198.703	3722
198.772	4150
198.840	8603
198.909	10860
198.977	4559
199.046	3701
199.114	2648
199.183	3783
199.251	2115
199.320	3321
199.388	2418
199.457	2643
199.525	3105
199.594	2906
199.662	1857
199.731	2225
199.799	2633
199.867	3162
199.936	2552
200.004	2734
200.073	3210
200.141	2345
200.210	1545
200.278	1968
200.346	3547
200.415	3124
200.483	2949
200.552	3040
200.620	1578
200.688	4096
200.757	2072
200.825	3289
200.893	2253
200.962	2536
201.030	2842
201.098	2620
201.167	2824
201.235	2826
201.303	2695
201.372	3697
201.440	2925
201.508	3277
201.577	3690
201.645	4229
201.713	3575
201.781	2752
201.850	4380
201.918	3195
201.986	2825
202.055	3007
202.123	3528
202.191	3653
202.259	2550
202.327	3125
202.396	2431
202.464	3540
202.532	4449
202.600	13685
202.669	9446
202.737	4370
202.805	2947
202.873	3673
202.941	2953
203.009	3308
203.078	2871
203.146	3350
203.214	2660
203.282	2814
203.350	3717
203.418	2844
203.487	4095
203.555	3473
203.623	2871
203.691	2524
203.759	2029
203.827	3033
203.895	3436
203.963	3748
204.031	2766
204.099	4170
204.168	3062
204.236	3481
204.304	3660
204.372	4743
204.440	2577
204.508	2815
204.576	3194
204.644	3561
204.712	2108
204.780	2681
204.848	3291
204.916	2544
204.984	2225
205.052	3880
205.120	3177
205.188	3203
205.256	2688
205.324	3284
205.392	3700
205.460	3693
205.528	4501
205.596	4380
205.664	2886
205.732	3301
205.799	10516
205.867	19307
205.935	5606
206.003	5169
206.071	3489
206.139	4754
206.207	4241
206.275	3365
206.343	3244
206.411	4126
206.478	3920
206.546	4147
206.614	3699
206.682	3604
206.750	2998
206.818	4489
206.885	5795
206.953	2969
207.021	3721
207.089	4402
207.157	2785
207.225	3904
207.292	3098
207.360	3817
207.428	3115
207.496	3645
207.563	3234
207.631	4074
207.699	3098
207.767	3876
207.834	2850
207.902	4045
207.970	3889
208.038	3621
208.105	3517
208.173	4118
208.241	6805
208.309	4826
208.376	4991
208.444	9097
208.512	6432
208.579	3245
208.647	5128
208.715	5399
208.782	4618
208.850	4340
208.918	3331
208.985	3811
209.053	4403
209.120	3973
209.188	3931
209.256	3902
209.323	3484
209.391	6455
209.459	6531
209.526	4383
209.594	3874
209.661	4335
209.729	4136
209.796	3641
209.864	4153
209.932	3026
209.999	5650
210.067	5848
210.134	5241
210.202	5101
210.269	6947
210.337	6762
210.404	4678
210.472	4961
210.539	4903
210.607	5052
210.674	6898
210.742	5103
210.809	4349
210.877	5664
210.944	7167
211.012	5353
211.079	6317
211.146	5060
211.214	4737
211.281	8397
211.349	6824
211.416	4888
211.484	6857
211.551	4913
211.618	4997
211.686	5091
211.753	4845
211.821	5279
211.888	5025
211.955	5062
212.023	5639
212.090	5300
212.157	5659
212.225	7078
212.292	10879
212.359	20248
212.427	49910
212.494	26460
212.561	10437
212.629	6811
212.696	7000
212.763	5930
212.831	6034
212.898	5821
212.965	4264
213.032	5351
213.100	6093
213.167	6934
213.234	7630
213.301	5254
213.369	5422
213.436	4813
213.503	5324
213.570	7047
213.638	6475
213.705	5221
213.772	4133
213.839	8181
213.906	8812
213.973	7349
214.041	4649
214.108	5179
214.175	6166
214.242	4927
214.309	5869
214.376	6231
214.444	6606
214.511	6507
214.578	7188
214.645	6346
214.712	6657
214.779	6663
214.846	5706
214.913	7471
214.980	8196
215.048	8171
215.115	9660
215.182	8825
215.249	7076
215.316	6278
215.383	6033
215.450	5946
215.517	6438
215.584	5497
215.651	4943
215.718	6016
215.785	8122
215.852	7401
215.919	9201
215.986	8514
216.053	5967
216.120	5518
216.187	6980
216.254	7819
216.321	6368
216.388	6798
216.455	7943
216.522	7997
216.589	8455
216.656	14307
216.722	15565
216.789	9910
216.856	9286
216.923	8424
216.990	7294
217.057	7900
217.124	10201
217.191	9590
217.258	10949
217.324	12554
217.391	12523
217.458	10712
217.525	8222
217.592	8055
217.659	6360
217.725	8816
217.792	10962
217.859	11564
217.926	6478
217.993	5633
218.059	5537
218.126	5710
218.193	5056
218.260	4655
218.327	4629
218.393	4685
218.460	5148
218.527	4410
218.594	5683
218.660	12142
218.727	13609
218.794	6551
218.860	5805
218.927	3709
218.994	4458
219.061	4832
219.127	7526
219.194	11550
219.261	6213
219.327	4766
219.394	4610
219.461	3199
219.527	3941
219.594	8684
219.661	6725
219.727	3902
219.794	5287
219.860	4299
219.927	6083
219.994	9205
220.060	15418
220.127	10162
220.193	7737
220.260	7648
220.326	10023
220.393	13868
220.460	17981
220.526	14111
220.593	9007
220.659	10240
220.726	10097
220.792	23852
220.859	22036
220.925	23370
220.992	32001
221.058	32386
221.125	34540
221.191	25907
221.258	11677
221.324	9594
221.391	8587
221.457	6720
221.524	6913
221.590	9405
221.657	29530
221.723	23488
221.789	18973
221.856	18453
221.922	10095
221.989	8094
222.055	6705
222.121	5873
222.188	8868
222.254	6377
222.321	5562
222.387	4291
222.453	4255
222.520	4876
222.586	4298
222.652	4122
222.719	4863
222.785	6092
222.851	5058
222.918	5547
222.984	5527
223.050	7050
223.116	4828
223.183	6497
223.249	3596
223.315	3565
223.382	4709
223.448	4009
223.514	2982
223.580	3182
223.647	3608
223.713	3608
223.779	4035
223.845	3949
223.911	4608
223.978	2956
224.044	3911
224.110	4189
224.176	3967
224.242	2814
224.309	2348
224.375	3920
224.441	3265
224.507	2920
224.573	3837
224.639	4166
224.705	3204
224.772	4191
224.838	4350
224.904	6889
224.970	4981
225.036	4879
225.102	5717
225.168	5900
225.234	5043
225.300	5711
225.366	5542
225.432	4725
225.499	4796
225.565	6457
225.631	5749
225.697	5193
225.763	6781
225.829	7385
225.895	6999
225.961	13128
226.027	11667
226.093	10351
226.159	11328
226.225	14042
226.291	29386
226.357	50663
226.423	29194
226.489	18407
226.554	13198
226.620	11223
226.686	14598
226.752	24312
226.818	29976
226.884	62698
226.950	60611
227.016	25337
227.082	16258
227.148	12443
227.214	13168
227.279	12426
227.345	9440
227.411	8999
227.477	8082
227.543	15748
227.609	18546
227.674	12895
227.740	9213
227.806	8367
227.872	6346
227.938	7793
228.003	13661
228.069	7341
228.135	5571
228.201	6114
228.267	4607
228.332	7452
228.398	11571
228.464	8033
228.530	4374
228.595	5274
228.661	4865
228.727	11154
228.792	9893
228.858	6197
228.924	7140
228.990	9508
229.055	8539
229.121	10183
229.187	7025
229.252	7767
229.318	6069
229.384	6952
229.449	9304
229.515	4707
229.581	3818
229.646	6067
229.712	7760
229.777	16043
229.843	18201
229.909	12338
229.974	12296
230.040	12055
230.105	8042
230.171	10186
230.236	12017
230.302	18564
230.368	16046
230.433	7669
230.499	8296
230.564	9343
230.630	7125
230.695	5288
230.761	6106
230.826	4519
230.892	11475
230.957	7612
231.023	4338
231.088	7145
231.154	6267
231.219	7379
231.284	9646
231.350	12098
231.415	6123
231.481	5518
231.546	4300
231.612	4986
231.677	3882
231.742	4560
231.808	6986
231.873	4896
231.939	4042
232.004	11901
232.069	13042
232.135	7646
232.200	6265
232.265	4974
232.331	3875
232.396	4726
232.461	3911
232.527	4178
232.592	5421
232.657	6099
232.723	16719
232.788	14615
232.853	6848
232.918	5322
232.984	4730
233.049	5917
233.114	16130
233.179	16002
233.245	18744
233.310	29222
233.375	7620
233.440	7477
233.506	5640
233.571	5952
233.636	6324
233.701	6152
233.766	16537
233.832	25487
233.897	10297
233.962	9279
234.027	12191
234.092	10018
234.157	8709
234.222	9962
234.288	14497
234.353	51179
234.418	50979
234.483	27605
234.548	17364
234.613	12846
234.678	12413
234.743	14160
234.808	52466
234.873	38657
234.938	14132
235.004	10506
235.069	10061
235.134	10084
235.199	8631
235.264	7093
235.329	6179
235.394	8484
235.459	12922
235.524	14769
235.589	8906
235.654	6931
235.719	6091
235.784	7352
235.849	10209
235.913	29802
235.978	34547
236.043	44125
236.108	15616
236.173	13922
236.238	16928
236.303	8422
236.368	9528
236.433	16732
236.498	36612
236.563	18698
236.627	26423
236.692	82800
236.757	75339
236.822	35531
236.887	33395
236.952	22034
237.017	17344
237.081	20345
237.146	20418
237.211	38476
237.276	79842
237.341	145313
237.405	85091
237.470	35182
237.535	31972
237.600	16817
237.664	14801
237.729	11190
237.794	14334
237.859	26084
237.923	30346
237.988	18070
238.053	25581
238.118	29648
238.182	63677
238.247	65744
238.312	37577
238.376	24849
238.441	21383
238.506	17974
238.570	9654
238.635	9804
238.700	8031
238.764	10155
238.829	27911
238.893	41652
238.958	16763
239.023	15954
239.087	9411
239.152	12550
239.216	8903
239.281	7693
239.346	7808
239.410	8126
239.475	12901
239.539	61336
239.604	59847
239.668	17373
239.733	10481
239.797	12590
239.862	26905
239.926	53521
239.991	24765
240.055	12999
240.120	10113
240.184	9667
240.249	10019
240.313	9421
240.378	10724
240.442	39077
240.507	67353
240.571	22417
240.635	30993
240.700	43780
240.764	15298
240.829	10909
240.893	6956
240.957	10428
241.022	33481
241.086	69860
241.151	37277
241.215	12661
241.279	17648
241.344	39776
241.408	18361
241.472	10862
241.537	11204
241.601	10844
241.665	8496
241.730	8198
241.794	11537
241.858	9622
241.922	9916
241.987	10041
242.051	7740
242.115	7579
242.179	8475
242.244	8046
242.308	9930
242.372	11462
242.436	18604
242.501	11044
242.565	8469
242.629	7776
242.693	8744
242.757	7255
242.822	10070
242.886	11514
242.950	11232
243.014	14881
243.078	13288
243.142	14242
243.206	12545
243.271	14522
243.335	13090
243.399	18064
243.463	53914
243.527	153487
243.591	56278
243.655	24468
243.719	15323
243.783	15445
243.847	22078
243.911	32216
243.975	43625
244.040	33574
244.104	15080
244.168	11908
244.232	19212
244.296	29092
244.360	26493
244.424	21203
244.488	19204
244.552	16426
244.615	12216
244.679	12210
244.743	14534
244.807	16625
244.871	11460
244.935	9175
244.999	7878
245.063	11282
245.127	12564
245.191	18527
245.255	19778
245.319	16647
245.383	17174
245.446	13556
245.510	9988
245.574	12741
245.638	13246
245.702	12500
245.766	30219
245.829	20503
245.893	17874
245.957	13761
246.021	13527
246.085	15342
246.149	21006
246.212	39901
246.276	58392
246.340	29441
246.404	21909
246.467	20602
246.531	33991
246.595	21867
246.659	21058
246.722	19799
246.786	22499
246.850	22176
246.913	29859
246.977	15955
247.041	16272
247.104	17924
247.168	15088
247.232	35761
247.295	74808
247.359	42254
247.423	18876
247.486	34928
247.550	23719
247.614	17602
247.677	23934
247.741	17009
247.804	13584
247.868	18948
247.932	31542
247.995	73910
248.059	32798
248.122	16418
248.186	20504
248.249	36216
248.313	106488
248.376	121282
248.440	80180
248.503	33463
248.567	25607
248.630	36971
248.694	49888
248.757	57076
248.821	118529
248.884	77544
248.948	67719
249.011	98044
249.075	138810
249.138	129186
249.202	53662
249.265	36094
249.328	60309
249.392	37630
249.455	25624
249.519	19036
249.582	25212
249.645	39542
249.709	31180
249.772	22474
249.835	20912
249.899	30901
249.962	21221
250.025	18603
250.089	42435
250.152	66785
250.215	35214
250.279	26618
250.342	26633
250.405	25797
250.468	21602
250.532	28257
250.595	42700
250.658	124808
250.721	224011
250.785	88070
250.848	46636
250.911	30401
250.974	26578
251.038	33842
251.101	72550
251.164	46496
251.227	44694
251.290	37493
251.354	49595
251.417	174029
251.480	195412
251.543	123986
251.606	314087
251.669	266625
251.732	108444
251.795	103743
251.859	104160
251.922	210346
251.985	139331
252.048	52702
252.111	42294
252.174	41302
252.237	65162
252.300	143688
252.363	148972
252.426	275696
252.489	138099
252.552	87234
252.615	61588
252.678	54235
252.741	105201
252.804	134275
252.867	277621
252.930	191933
252.993	115880
253.056	65777
253.119	54578
253.182	41588
253.245	60991
253.308	52306
253.371	58018
253.434	55308
253.497	49058
253.559	74643
253.622	61430
253.685	79624
253.748	82176
253.811	40986
253.874	59223
253.937	60746
254.000	35304
254.062	52584
254.125	82489
254.188	71401
254.251	70982
254.314	36492
254.376	61265
254.439	68342
254.502	60025
254.565	56562
254.628	93690
254.690	67608
254.753	41128
254.816	32571
254.878	39252
254.941	60375
255.004	64938
255.067	33968
255.129	33923
255.192	20292
255.255	16433
255.317	22310
255.380	16592
255.443	12813
255.505	14169
255.568	14879
255.631	16274
255.693	16091
255.756	13232
255.819	13392
255.881	12145
255.944	11699
256.006	12602
256.069	14219
256.132	12946
256.194	19655
256.257	67730
256.319	51909
256.382	49877
256.444	21336
256.507	15942
256.569	14172
256.632	15063
256.694	32263
256.757	46606
256.819	127200
256.882	61321
256.944	27847
257.007	23471
257.069	30946
257.132	22531
257.194	15364
257.257	14860
257.319	17161
257.381	16466
257.444	39772
257.506	138079
257.569	179013
257.631	127017
257.693	65217
257.756	33420
257.818	39222
257.880	20389
257.943	18171
258.005	15505
258.067	14599
258.130	14294
258.192	19083
258.254	50472
258.317	33659
258.379	17831
258.441	42509
258.503	44034
258.566	62511
258.628	95036
258.690	26066
258.753	20888
258.815	39532
258.877	24944
258.939	14641
259.001	13265
259.064	13750
259.126	22549
259.188	38547
259.250	21210
259.312	26615
259.375	72403
259.437	50178
259.499	18353
259.561	15648
259.623	16157
259.685	16323
259.747	18376
259.809	57705
259.872	126597
259.934	162752
259.996	157787
260.058	44094
260.120	22527
260.182	18170
260.244	15536
260.306	13323
260.368	14503
260.430	14780
260.492	28498
260.554	63570
260.616	61674
260.678	79104
260.740	132296
260.802	37410
260.864	25164
260.926	22025
260.988	20581
261.050	19974
261.112	40650
261.174	112734
261.236	107528
261.298	33292
261.359	54592
261.421	90797
261.483	26669
261.545	20283
261.607	14276
261.669	15524
261.731	35145
261.793	94612
261.854	39941
261.916	24663
261.978	20100
262.040	24568
262.102	20902
262.164	40428
262.225	35826
262.287	17267
262.349	37825
262.411	34422
262.472	18931
262.534	37085
262.596	95964
262.658	31626
262.719	18256
262.781	24519
262.843	86095
262.904	42741
262.966	27843
263.028	32685
263.090	115444
263.151	308774
263.213	107179
263.275	54646
263.336	27702
263.398	19991
263.459	15269
263.521	15664
263.583	35352
263.644	28503
263.706	14013
263.767	11336
263.829	10774
263.891	9254
263.952	9646
264.014	10009
264.075	16701
264.137	40529
264.198	23675
264.260	10789
264.321	11062
264.383	24614
264.444	63987
264.506	22695
264.567	14576
264.629	22546
264.690	50408
264.752	23234
264.813	14691
264.875	11984
264.936	12257
264.998	10756
265.059	9333
265.120	11760
265.182	16185
265.243	56805
265.305	65676
265.366	20197
265.427	12973
265.489	12231
265.550	8460
265.611	13658
265.673	13081
265.734	11071
265.795	8576
265.857	9649
265.918	10850
265.979	20061
266.040	94775
266.102	91774
266.163	29475
266.224	26898
266.286	17601
266.347	12147
266.408	13529
266.469	18973
266.530	14623
266.592	10462
266.653	24042
266.714	45046
266.775	15378
266.836	12137
266.898	9823
266.959	17075
267.020	13778
267.081	9961
267.142	8910
267.203	9160
267.264	7827
267.326	11913
267.387	10052
267.448	9282
267.509	9046
267.570	10141
267.631	8409
267.692	7626
267.753	9263
267.814	9334
267.875	18850
267.936	48597
267.997	23919
268.058	20553
268.119	12692
268.180	14021
268.241	11351
268.302	10579
268.363	8749
268.424	11994
268.485	14743
268.546	10954
268.607	8218
268.668	7739
268.729	7418
268.790	9827
268.851	11527
268.912	28997
268.972	40399
269.033	21070
269.094	11628
269.155	9705
269.216	9264
269.277	15230
269.338	11547
269.398	9785
269.459	12655
269.520	17166
269.581	22794
269.642	29659
269.702	19632
269.763	15187
269.824	11430
269.885	15549
269.945	25132
270.006	11724
270.067	8470
270.128	9129
270.188	8838
270.249	9917
270.310	8548
270.370	8835
270.431	13791
270.492	9356
270.553	10692
270.613	25584
270.674	48784
270.734	25611
270.795	13247
270.856	19353
270.916	20057
270.977	12608
271.038	13978
271.098	16203
271.159	23409
271.219	29825
271.280	12983
271.340	10304
271.401	17011
271.462	56351
271.522	29316
271.583	14969
271.643	17287
271.704	15193
271.764	16098
271.825	33388
271.885	98439
271.946	144725
272.006	51424
272.066	58639
272.127	108311
272.187	37857
272.248	23266
272.308	22811
272.369	70565
272.429	46620
272.489	39635
272.550	42537
272.610	37262
272.671	33855
272.731	34578
272.791	73122
272.852	33520
272.912	26336
272.972	15942
273.033	16407
273.093	33527
273.153	26527
273.214	17458
273.274	20093
273.334	54592
273.394	118692
273.455	54112
273.515	46153
273.575	105203
273.635	50116
273.696	65402
273.756	118660
273.816	51864
273.876	33630
273.936	74290
273.997	151754
274.057	41819
274.117	27522
274.177	36633
274.237	126570
274.297	133976
274.358	122307
274.418	95167
274.478	76367
274.538	35451
274.598	34692
274.658	119181
274.718	170954
274.778	67397
274.838	35227
274.898	70903
274.958	236106
275.018	144737
275.078	83653
275.138	40374
275.198	25596
275.258	19940
275.318	28714
275.378	46539
275.438	44502
275.498	33591
275.558	83463
275.618	178076
275.678	94222
275.738	53717
275.798	44743
275.858	27130
275.918	16825
275.978	18484
276.038	19299
276.098	15155
276.157	29342
276.217	85941
276.277	42315
276.337	29946
276.397	19164
276.457	22778
276.517	18293
276.576	13865
276.636	13112
276.696	23787
276.756	54994
276.815	47191
276.875	21602
276.935	27176
276.995	23377
277.055	15536
277.114	15631
277.174	20388
277.234	63326
277.293	34563
277.353	20877
277.413	15186
277.472	17184
277.532	19456
277.592	20462
277.651	54482
277.711	116455
277.771	44673
277.830	121581
277.890	115873
277.950	74068
278.009	197772
278.069	85861
278.128	72443
278.188	118629
278.248	53964
278.307	117482
278.367	87046
278.426	33707
278.486	22269
278.545	18734
278.605	17282
278.664	16541
278.724	19066
278.783	40155
278.843	108551
278.902	40374
278.962	26420
279.021	31807
279.081	57251
279.140	59343
279.199	33418
279.259	30201
279.318	34187
279.378	45116
279.437	79271
279.496	230791
279.556	629267
279.615	589735
279.675	191487
279.734	107633
279.793	147403
279.853	210470
279.912	80863
279.971	48242
280.031	42894
280.090	62649
280.149	113774
280.208	117194
280.268	426489
280.327	504964
280.386	149451
280.445	91591
280.505	81909
280.564	45008
280.623	36552
280.682	43640
280.742	64898
280.801	26620
280.860	20939
280.919	18426
280.978	18434
281.037	19640
281.097	16496
281.156	16613
281.215	15556
281.274	21103
281.333	66206
281.392	62980
281.451	18134
281.510	14630
281.569	15050
281.628	13888
281.688	12951
281.747	14866
281.806	16369
281.865	13337
281.924	11929
281.983	13593
282.042	10666
282.101	11022
282.160	10903
282.219	10598
282.278	13186
282.337	40157
282.396	34422
282.454	15277
282.513	18440
282.572	59103
282.631	41233
282.690	15202
282.749	14833
282.808	18722
282.867	18578
282.926	18088
282.985	10521
283.043	10098
283.102	12883
283.161	17472
283.220	33157
283.279	73894
283.338	26003
283.396	16825
283.455	15334
283.514	16214
283.573	25328
283.631	20910
283.690	14698
283.749	14249
283.808	27321
283.866	35561
283.925	15162
283.984	15514
284.043	20276
284.101	24583
284.160	17294
284.219	26585
284.277	21069
284.336	26770
284.395	79869
284.453	76387
284.512	29285
284.570	36489
284.629	34033
284.688	28852
284.746	31058
284.805	35651
284.863	45339
284.922	54808
284.981	62404
285.039	86049
285.098	147851
285.156	317147
285.215	571091
285.273	565497
285.332	370981
285.390	199215
285.449	124946
285.507	86401
285.566	64496
285.624	51232
285.683	40166
285.741	32540
285.799	28657
285.858	28718
285.916	24550
285.975	20281
286.033	16549
286.091	16104
286.150	15579
286.208	16026
286.267	21039
286.325	18798
286.383	26127
286.442	23481
286.500	13596
286.558	12272
286.616	12054
286.675	17148
286.733	17309
286.791	15004
286.850	17567
286.908	23802
286.966	36755
287.024	17952
287.083	12121
287.141	12288
287.199	12376
287.257	20046
287.315	16271
287.374	17476
287.432	34040
287.490	26925
287.548	17781
287.606	14783
287.664	14167
287.723	20156
287.781	31118
287.839	17585
287.897	19209
287.955	22684
288.013	34801
288.071	74318
288.129	235629
288.187	640893
288.245	339597
288.303	108781
288.361	65387
288.419	53885
288.477	39138
288.535	26881
288.593	21467
288.651	17918
288.709	14578
288.767	14360
288.825	14277
288.883	12011
288.941	12844
288.999	11633
289.057	11929
289.115	12194
289.173	12679
289.231	13458
289.289	14390
289.346	13115
289.404	14049
289.462	23234
289.520	25863
289.578	14626
289.636	8602
289.694	8734
289.751	8563
289.809	8708
289.867	10140
289.925	11724
289.983	17291
290.040	9329
290.098	8007
290.156	11663
290.214	14720
290.271	11178
290.329	7920
290.387	7526
290.444	8230
290.502	7003
290.560	7958
290.617	8758
290.675	9987
290.733	9268
290.790	12478
290.848	9709
290.906	12360
290.963	12557
291.021	11793
291.078	10560
291.136	12356
291.194	29653
291.251	72953
291.309	25847
291.366	11875
291.424	10992
291.481	11811
291.539	12033
291.596	12129
291.654	7896
291.711	8456
291.769	11975
291.826	26742
291.884	18996
291.941	10642
291.999	10080
292.056	13266
292.114	14034
292.171	9564
292.228	11641
292.286	14920
292.343	26906
292.401	35607
292.458	24498
292.515	16623
292.573	19025
292.630	18278
292.687	22831
292.745	15170
292.802	19384
292.859	46775
292.917	79623
292.974	52539
293.031	19308
293.089	15088
293.146	12448
293.203	10407
293.260	10760
293.318	17986
293.375	23432
293.432	14572
293.489	11553
293.546	10408
293.604	19380
293.661	51678
293.718	117874
293.775	65573
293.832	33856
293.889	28790
293.947	33842
294.004	25501
294.061	21706
294.118	34130
294.175	68129
294.232	82305
294.289	39099
294.346	20827
294.403	17785
294.460	21361
294.517	18564
294.574	14240
294.631	13735
294.688	17652
294.745	36921
294.802	118984
294.859	138596
294.916	66079
294.973	45870
295.030	31287
295.087	26190
295.144	17638
295.201	16851
295.258	14955
295.315	18622
295.372	46448
295.429	96880
295.486	46251
295.542	27455
295.599	49516
295.656	94212
295.713	64162
295.770	89271
295.827	39935
295.883	21310
295.940	20742
295.997	32025
296.054	35507
296.111	18398
296.167	13218
296.224	11190
296.281	10573
296.338	10599
296.394	11762
296.451	16764
296.508	38949
296.564	79306
296.621	53921
296.678	87403
296.734	141113
296.791	57661
296.848	30460
296.904	32427
296.961	63585
297.018	98425
297.074	82393
297.131	33392
297.187	23957
297.244	34280
297.301	83893
297.357	169576
297.414	66085
297.470	27469
297.527	20689
297.583	16849
297.640	18818
297.696	15413
297.753	12832
297.809	10984
297.866	9607
297.922	10538
297.979	11319
298.035	13908
298.092	21349
298.148	53860
298.204	60600
298.261	32389
298.317	41534
298.374	112927
298.430	77520
298.486	45729
298.543	38111
298.599	28821
298.656	26693
298.712	40528
298.768	94491
298.824	76750
298.881	28287
298.937	17650
298.993	15837
299.050	21962
299.106	19410
299.162	15186
299.218	16579
299.275	13783
299.331	15905
299.387	28113
299.443	91700
299.500	111176
299.556	45512
299.612	23699
299.668	22089
299.724	24355
299.780	27424
299.837	21391
299.893	28952
299.949	84115
300.005	114414
300.061	83691
300.117	141087
300.173	78939
300.229	38111
300.285	44677
300.341	51774
300.397	28611
300.453	18963
300.510	15819
300.566	17339
300.622	21296
300.678	45159
300.734	91481
300.790	87113
300.845	106241
300.901	67857
300.957	89107
301.013	80163
301.069	34318
301.125	23775
301.181	27403
301.237	21313
301.293	15169
301.349	12672
301.405	12787
301.461	12694
301.516	14776
301.572	16499
301.628	31386
301.684	31158
301.740	40177
301.796	65402
301.851	46493
301.907	70600
301.963	78762
302.019	101003
302.074	263254
302.130	280184
302.186	130226
302.242	55388
302.297	38139
302.353	36394
302.409	62436
302.464	61463
302.520	48388
302.576	104673
302.631	129388
302.687	76321
302.743	34800
302.798	21110
302.854	17904
302.910	18454
302.965	24118
303.021	43060
303.076	40331
303.132	47809
303.187	56838
303.243	32418
303.299	19072
303.354	14630
303.410	14287
303.465	12144
303.521	12821
303.576	15238
303.632	18450
303.687	29400
303.743	84644
303.798	81809
303.853	35599
303.909	20053
303.964	19171
304.020	26264
304.075	43847
304.130	36510
304.186	63914
304.241	67806
304.297	54993
304.352	30589
304.358	29527
304.407	20925
304.449	19129
304.463	18535
304.518	19915
304.539	19464
304.573	18776
304.629	19964
304.630	20157
304.684	29896
304.720	52601
304.739	63794
304.794	105528
304.811	91127
304.850	56731
304.902	28083
304.905	26262
304.960	19753
304.992	19305
305.015	18980
305.071	19138
305.083	18432
305.126	15824
305.173	12029
305.181	11435
305.236	11162
305.264	11849
305.292	12591
305.347	15746
305.354	15952
305.402	17242
305.445	18822
305.457	19284
305.512	23537
305.535	24538
305.567	25959
305.622	25986
305.626	26706
305.678	44613
305.716	82957
305.733	96101
305.788	122207
305.807	106127
305.843	78918
305.897	87223
305.898	87220
305.953	94053
305.988	64986
306.008	49376
306.063	30601
306.078	27952
306.118	22098
306.168	17646
306.173	17266
306.228	13134
306.259	12678
306.283	12627
306.338	12506
306.349	12836
306.393	14057
306.440	16012
306.448	16451
306.503	19205
306.530	21682
306.558	29084
306.613	63708
306.620	69015
306.668	96858
306.711	106542
306.723	105621
306.778	86220
306.801	65602
306.833	42630
306.888	22859
306.892	22207
306.943	17589
306.982	16019
306.997	15661
307.052	15462
307.072	16049
307.107	19439
307.162	28160
307.163	28332
307.217	46684
307.253	56965
307.272	58491
307.327	63707
307.343	57406
307.381	45042
307.434	37978
307.436	38701
307.491	72722
307.524	107348
307.546	115378
307.600	102876
307.614	90043
307.655	55028
307.704	30328
307.710	29629
307.765	38258
307.795	48756
307.819	57917
307.874	97427
307.885	97682
307.929	75618
307.975	43883
307.984	42011
308.038	49017
308.065	58314
308.093	98056
308.148	198752
308.156	221922
308.202	326859
308.246	406678
308.257	401629
308.312	226722
308.336	161790
308.366	122049
308.421	82420
308.426	78439
308.475	50495
308.517	35898
308.530	33269
308.585	29459
308.607	28655
308.639	31113
308.694	38520
308.697	39227
308.748	76008
308.787	118031
308.803	117905
308.857	89940
308.877	72294
308.912	55020
308.967	45215
308.967	45176
309.021	56792
309.058	69283
309.076	86517
309.130	151569
309.148	176885
309.185	305344
309.238	515276
309.239	516212
309.293	556361
309.328	505839
309.348	442224
309.402	217844
309.418	163132
309.457	113403
309.508	72703
309.511	71645
309.566	70333
309.598	72977
309.620	85603
309.674	126629
309.688	138357
309.729	132632
309.778	105755
309.783	103330
309.837	72910
309.868	59453
309.892	69632
309.946	101581
309.959	112461
310.001	138457
310.049	161352
310.055	156568
310.109	94841
310.139	58543
310.163	46054
310.218	29644
310.229	27246
310.272	23410
310.319	20017
310.326	19649
310.381	19098
310.409	18540
310.435	18157
310.489	17284
310.499	17294
310.543	18647
310.589	20449
310.598	20313
310.652	19852
310.679	18845
310.706	16152
310.760	10900
310.769	10171
310.814	9379
310.859	9119
310.868	9227
310.923	9685
310.948	10184
310.977	12062
311.031	15668
311.038	16216
311.085	14922
311.128	12992
311.139	12859
311.193	12399
311.218	12207
311.247	11131
311.301	9179
311.308	8962
311.356	9502
311.398	10140
311.410	9897
311.464	8734
311.488	8208
311.518	8777
311.572	9866
311.578	10023
311.626	14106
311.668	17859
311.680	18258
311.734	19651
311.758	20361
311.788	19496
311.842	17772
311.847	17602
311.896	23880
311.937	29560
311.950	28796
312.004	25282
312.027	23655
312.058	19609
312.112	12505
312.117	11818
312.165	11164
312.207	10657
312.297	18115
312.386	13638
312.476	14888
312.566	29112
312.656	13789
312.745	8944
312.835	10678
312.925	11765
313.015	13509
313.104	15914
313.194	9212
313.284	10733
313.374	14265
313.463	11836
313.553	9904
313.643	8906
313.732	7662
313.822	7625
313.912	10086
314.001	12695
314.091	14303
314.180	19917
314.270	17705
314.360	23276
314.449	16039
314.539	10466
314.628	9231
314.718	13745
314.808	20138
314.897	9421
314.987	11081
315.076	14945
315.166	22179
315.255	21125
315.345	19939
315.434	21763
315.524	20539
315.613	22060
315.703	27258
315.792	48004
315.881	144610
315.971	47642
316.060	46340
316.150	79384
316.239	80014
316.328	25240
316.418	11132
316.507	11806
316.597	17159
316.686	16851
316.775	38852
316.865	83263
316.954	16208
317.043	9310
317.133	10664
317.222	9705
317.311	10080
317.400	9409
317.490	18084
317.579	20396
317.668	17105
317.757	31038
317.847	82102
317.936	249307
318.025	86716
318.114	52983
318.203	29166
318.293	30569
318.382	53868
318.471	42939
318.560	65353
318.649	123506
318.738	26788
318.828	21757
318.917	25877
319.006	36025
319.095	91219
319.184	161030
319.273	85714
319.362	42832
319.451	18057
319.540	17387
319.629	42030
319.718	61501
319.807	30966
319.896	61519
319.985	193998
320.074	64804
320.163	26557
320.252	50890
320.341	31621
320.430	24122
320.519	33496
320.608	18415
320.697	15077
320.786	16145
320.875	22679
320.964	29660
321.053	46270
321.142	66900
321.230	63765
321.319	55346
321.408	116719
321.497	48036
321.586	51174
321.675	77151
321.764	64241
321.852	41134
321.941	67913
322.030	42579
322.119	53998
322.207	130479
322.296	108457
322.385	50902
322.474	56578
322.562	144545
322.651	71317
322.740	61370
322.829	92722
322.917	110776
323.006	53043
323.095	40640
323.183	38021
323.272	55111
323.361	107425
323.449	293944
323.538	100922
323.626	223947
323.715	120187
323.804	61261
323.892	206574
323.981	96459
324.069	37690
324.158	120585
324.246	93478
324.335	29439
324.424	41551
324.512	16639
324.601	25511
324.689	64197
324.778	111517
324.866	81738
324.954	21197
325.043	20695
325.131	52471
325.220	92217
325.308	102499
325.397	72160
325.485	37141
325.574	11151
325.662	11225
325.750	13020
325.839	11121
325.927	10961
326.015	19263
326.104	43286
326.192	54515
326.280	12690
326.369	13304
326.457	18742
326.545	33040
326.634	12809
326.722	9060
326.810	10058
326.898	9782
326.987	13139
327.075	37087
327.163	44399
327.251	23298
327.340	39756
327.428	50448
327.516	11695
327.604	14139
327.692	15520
327.781	22480
327.869	40475
327.957	22137
328.045	16074
328.133	11050
328.221	19770
328.309	12702
328.397	9478
328.485	14468
328.574	25132
328.662	76624
328.750	51039
328.838	21671
328.926	10588
329.014	9323
329.102	18118
329.190	44937
329.278	24640
329.366	7707
329.454	7822
329.542	7867
329.630	6969
329.718	8951
329.806	12069
329.893	11103
329.981	10013
330.069	12075
330.157	37682
330.245	98272
330.333	45341
330.421	14634
330.509	25661
330.597	89964
330.684	52512
330.772	22073
330.860	34335
330.948	38598
331.036	14916
331.123	7869
331.211	9238
331.299	13841
331.387	34978
331.475	56471
331.562	19511
331.650	10453
331.738	15747
331.825	22268
331.913	9241
332.001	8506
332.089	18158
332.176	46389
332.264	120003
332.352	74790
332.439	18992
332.527	13345
332.614	15649
332.702	21812
332.790	15978
332.877	55022
332.965	98402
333.052	23016
333.140	27479
333.228	56095
333.315	15342
333.403	18879
333.490	70021
333.578	51073
333.665	55879
333.753	24811
333.840	12585
333.928	22027
334.015	72365
334.103	96332
334.190	232964
334.278	51728
334.365	28274
334.452	18958
334.540	13004
334.627	23560
334.715	35148
334.802	84427
334.889	394969
334.977	304148
335.064	39198
335.151	18449
335.239	17401
335.326	28574
335.413	109407
335.501	119631
335.588	19369
335.675	13818
335.762	19591
335.850	31952
335.937	29455
336.024	95673
336.111	347328
336.199	120135
336.286	22937
336.373	12410
336.460	9393
336.547	11394
336.635	15623
336.722	13543
336.809	13018
336.896	23860
336.983	72314
337.070	161604
337.157	215194
337.245	239414
337.332	145481
337.419	20512
337.506	12456
337.593	17229
337.680	59083
337.767	140127
337.854	43394
337.941	56540
338.028	86501
338.115	26168
338.202	31253
338.289	77898
338.376	237041
338.463	65503
338.550	93804
338.637	83570
338.724	54897
338.811	76403
338.898	14858
338.984	10478
339.071	14129
339.158	18450
339.245	44878
339.332	29172
339.419	57459
339.506	44984
339.593	8242
339.679	8489
339.766	7898
339.853	16419
339.940	29065
340.027	10188
340.113	11392
340.200	17505
340.287	13004
340.374	16988
340.460	25575
340.547	12831
340.634	26481
340.720	88201
340.807	43295
340.894	10083
340.980	11975
341.067	9554
341.154	11831
341.240	20415
341.327	39068
341.414	13060
341.500	13447
341.587	10866
341.674	10795
341.760	28949
341.847	31493
341.933	10610
342.020	5090
342.106	6180
342.193	11555
342.279	21388
342.366	17069
342.452	27773
342.539	16806
342.625	41468
342.712	88309
342.798	35344
342.885	14181
342.971	6067
343.058	6379
343.144	7364
343.230	7199
343.317	7987
343.403	6123
343.490	5876
343.576	5198
343.662	7848
343.749	10634
343.835	15821
343.921	33026
344.008	172883
344.094	319172
344.180	69246
344.267	34394
344.353	110000
344.439	110637
344.525	43969
344.612	16397
344.698	14602
344.784	9188
344.870	7984
344.957	8824
345.043	16865
345.129	13021
345.215	25620
345.301	14278
345.387	8935
345.474	5816
345.560	9043
345.646	13593
345.732	9735
345.818	11081
345.904	10195
345.990	13948
346.076	18748
346.162	35628
346.249	11916
346.335	7368
346.421	12643
346.507	50962
346.593	135281
346.679	29092
346.765	9811
346.851	9953
346.937	9193
347.023	7930
347.108	11868
347.194	8780
347.280	9384
347.366	14527
347.452	51239
347.538	169849
347.624	119917
347.710	97981
347.796	18212
347.882	10198
347.967	8849
348.053	13562
348.139	10504
348.225	7561
348.311	8887
348.397	6741
348.482	10719
348.568	12392
348.654	6947
348.740	10259
348.825	11825
348.911	22548
348.997	90769
349.083	147382
349.168	25998
349.254	10832
349.340	10025
349.425	7132
349.511	14498
349.597	16175
349.682	35955
349.768	96574
349.854	38212
349.939	10485
350.025	8058
350.110	6453
350.196	5881
350.282	4612
350.367	8504
350.453	27056
350.538	24130
350.624	13973
350.709	11631
350.795	7272
350.880	8474
350.966	10798
351.051	24762
351.137	16236
351.222	11609
351.308	35805
351.393	81776
351.479	19837
351.564	7347
351.649	8905
351.735	6519
351.820	6125
351.906	8620
351.991	17064
352.076	63486
352.162	74859
352.247	15545
352.332	13126
352.418	24192
352.503	33054
352.588	126045
352.673	89897
352.759	22145
352.844	11578
352.929	14218
353.014	17517
353.100	12013
353.185	24040
353.270	35632
353.355	30653
353.441	11514
353.526	16990
353.611	33918
353.696	32957
353.781	18703
353.866	8810
353.952	12009
354.037	32502
354.122	69189
354.207	58797
354.292	20629
354.377	9250
354.462	8421
354.547	14034
354.632	12713
354.717	19166
354.802	25661
354.887	9511
354.972	6727
355.057	5509
355.142	6873
355.227	11219
355.312	22024
355.397	49843
355.482	107979
355.567	46512
355.652	39065
355.737	42471
355.822	122614
355.907	81526
355.991	14765
356.076	8265
356.161	8513
356.246	7108
356.331	11476
356.416	35632
356.501	198845
356.585	169242
356.670	25493
356.755	17951
356.840	32597
356.924	159399
357.009	447052
357.094	144183
357.179	37455
357.263	23057
357.348	26414
357.433	25143
357.517	21538
357.602	15709
357.687	13100
357.771	19366
357.856	34610
357.941	30008
358.025	115435
358.110	404870
358.195	159023
358.279	28252
358.364	25657
358.448	94151
358.533	219093
358.617	153695
358.702	148877
358.787	50829
358.871	33019
358.956	24313
359.040	8956
359.125	6368
359.209	8341
359.294	17687
359.378	25603
359.462	25040
359.547	17729
359.631	13645
359.716	7739
359.800	10077
359.885	16755
359.969	12179
360.053	9061
360.138	9224
360.222	17733
360.306	33731
360.391	23335
360.475	35767
360.559	73556
360.644	87427
360.728	61802
360.812	120303
360.896	267571
360.981	112122
361.065	56658
361.149	17530
361.233	16877
361.318	13050
361.402	16292
361.486	13641
361.570	11019
361.654	17905
361.739	51448
361.823	202931
361.907	247364
361.991	43672
362.075	32740
362.159	66801
362.243	41511
362.327	39479
362.411	43899
362.495	27939
362.580	14321
362.664	9382
362.748	9032
362.832	11289
362.916	22317
363.000	75842
363.084	239311
363.168	298803
363.252	67922
363.336	27629
363.420	46153
363.503	153820
363.587	145131
363.671	27921
363.755	22373
363.839	29661
363.923	14837
364.007	35814
364.091	42239
364.175	69476
364.258	221514
364.342	133619
364.426	134618
364.510	70776
364.594	40651
364.677	65067
364.761	250183
364.845	145823
364.929	57330
365.013	44285
365.096	39856
365.180	46077
365.264	74138
365.347	217889
365.431	81790
365.515	24301
365.598	12865
365.682	12343
365.766	26822
365.849	27672
365.933	18858
366.017	22506
366.100	15774
366.184	9949
366.267	11638
366.351	8617
366.435	8114
366.518	6410
366.602	6819
366.685	8845
366.769	12307
366.852	24567
366.936	39703
367.019	21406
367.103	19627
367.186	30890
367.270	11011
367.353	6388
367.436	8678
367.520	7712
367.603	13359
367.687	22556
367.770	38049
367.853	23969
367.937	78128
368.020	106748
368.104	27378
368.187	30688
368.270	39551
368.353	35623
368.437	76368
368.520	177220
368.603	83351
368.687	96019
368.770	147332
368.853	36146
368.936	40188
369.020	34664
369.103	13477
369.186	7904
369.269	11436
369.352	27928
369.436	36115
369.519	22861
369.602	9509
369.685	13257
369.768	14408
369.851	11298
369.934	8191
370.018	15181
370.101	34627
370.184	24320
370.267	17444
370.350	30422
370.433	52660
370.516	139266
370.599	163426
370.682	58740
370.765	87355
370.848	109747
370.931	189949
371.014	64959
371.097	15548
371.180	10620
371.263	7029
371.346	4858
371.429	7385
371.511	10053
371.594	22129
371.677	33336
371.760	34030
371.843	33034
371.926	158897
372.009	297954
372.091	88393
372.174	84934
372.257	172498
372.340	58971
372.423	55954
372.505	56373
372.588	26549
372.671	71202
372.754	193469
372.836	83341
372.919	78297
373.002	125486
373.085	37472
373.167	33485
373.250	90185
373.332	174737
373.415	248465
373.498	436666
373.580	156019
373.663	262142
373.746	283095
373.828	62033
373.911	30043
373.993	40866
374.076	139036
374.159	118483
374.241	64524
374.324	163868
374.406	96548
374.489	155125
374.571	364202
374.654	132359
374.736	86103
374.819	243412
374.901	339697
374.983	302381
375.066	51387
375.148	27562
375.231	121736
375.313	186440
375.395	64994
375.478	16580
375.560	13293
375.643	22639
375.725	93789
375.807	319896
375.890	264967
375.972	143157
376.054	84736
376.136	142313
376.219	53969
376.301	105060
376.383	256176
376.465	86632
376.548	66648
376.630	88415
376.712	222630
376.794	84419
376.877	12847
376.959	9262
377.041	13801
377.123	30374
377.205	30792
377.287	7287
377.369	7623
377.452	9640
377.534	8875
377.616	9554
377.698	9330
377.780	6649
377.862	10224
377.944	9249
378.026	5758
378.108	7483
378.190	7479
378.272	6554
378.354	5712
378.436	5774
378.518	20300
378.600	61438
378.682	53172
378.764	115013
378.846	76930
378.928	25632
379.010	33260
379.091	17243
379.173	9517
379.255	8529
379.337	18000
379.419	64582
379.501	155826
379.583	53147
379.664	18506
379.746	47350
379.828	113359
379.910	149368
379.991	113428
380.073	21757
380.155	15313
380.237	10842
380.318	8514
380.400	11249
380.482	29574
380.564	41408
380.645	41778
380.727	34587
380.809	18809
380.890	13530
380.972	11271
381.053	10800
381.135	15665
381.217	45398
381.298	111959
381.380	51840
381.461	59390
381.543	241893
381.624	242908
381.706	42835
381.787	25694
381.869	29691
381.951	112473
382.032	356565
382.113	190223
382.195	45653
382.276	33468
382.358	83145
382.439	199597
382.521	226796
382.602	321623
382.684	150539
382.765	295354
382.846	305240
382.928	418507
383.009	209624
383.090	174819
383.172	639936
383.253	836538
383.334	293755
383.416	307728
383.497	139564
383.578	74309
383.659	152500
383.741	577306
383.822	1264832
383.903	574350
383.984	245603
384.066	374855
384.147	206959
384.228	45864
384.309	36843
384.390	27424
384.471	19937
384.553	23354
384.634	34330
384.715	31508
384.796	16951
384.877	27799
384.958	106712
385.039	112448
385.120	37687
385.201	19340
385.282	26835
385.363	27208
385.444	22917
385.525	48226
385.606	156950
385.687	113600
385.768	32070
385.849	45845
385.930	173418
386.011	246719
386.092	59139
386.173	17903
386.254	15354
386.335	16559
386.416	20877
386.496	72981
386.577	103976
386.658	39383
386.739	27053
386.820	24761
386.901	21011
386.981	17604
387.062	12570
387.143	33125
387.224	112640
387.304	90957
387.385	33995
387.466	24485
387.547	26941
387.627	20803
387.708	51681
387.789	203495
387.869	213141
387.950	50747
388.031	12142
388.111	15008
388.192	41329
388.273	56943
388.353	30148
388.434	18848
388.514	46757
388.595	185277
388.676	208565
388.756	99121
388.837	103488
388.917	54876
388.998	12813
389.078	13081
389.159	12665
389.239	12085
389.320	20635
389.400	20060
389.480	49457
389.561	113804
389.641	45853
389.722	22484
389.802	33802
389.883	55791
389.963	137755
390.043	88413
390.124	32343
390.204	47859
390.284	127375
390.365	76721
390.445	108674
390.525	247174
390.605	184996
390.686	55883
390.766	20103
390.846	12969
390.927	9192
391.007	11478
391.087	13885
391.167	13435
391.247	13243
391.328	32205
391.408	37682
391.488	22519
391.568	10897
391.648	17262
391.728	23138
391.808	23581
391.888	27385
391.969	67016
392.049	93359
392.129	43134
392.209	57600
392.289	125973
392.369	64692
392.449	61191
392.529	37978
392.609	33357
392.689	48228
392.769	134535
392.849	101297
392.929	88933
393.009	192908
393.089	140736
393.169	151304
393.248	518044
393.328	1520864
393.408	1420512
393.488	401492
393.568	122136
393.648	61080
393.728	40292
393.807	28921
393.887	25447
393.967	22167
394.047	25908
394.127	31031
394.206	48199
394.286	182384
394.366	697863
394.446	628922
394.525	131429
394.605	37911
394.685	39777
394.764	89386
394.844	144421
394.924	88646
395.003	29022
395.083	21524
395.163	19490
395.242	18743
395.322	19225
395.402	13697
395.481	22608
395.561	70034
395.640	159603
395.720	118706
395.799	172537
395.879	115607
395.958	67748
396.038	258557
396.117	911386
396.197	850464
396.276	234211
396.356	85335
396.435	68001
396.515	51054
396.594	67670
396.673	138880
396.753	540970
396.832	1355992
396.912	915060
396.991	221176
397.070	65665
397.150	37394
397.229	26995
397.308	33450
397.388	47014
397.467	24169
397.546	15509
397.625	12621
397.705	19520
397.784	19727
397.863	11425
397.942	9317
398.022	14102
398.101	60604
398.180	145341
398.259	65592
398.338	19425
398.417	14550
398.497	11058
398.576	11425
398.655	8024
398.734	7185
398.813	11669
398.892	58115
398.971	159129
399.050	64640
399.129	10102
399.208	6551
399.287	7597
399.366	5528
399.445	7881
399.524	7059
399.603	8046
399.682	20318
399.761	63807
399.840	176886
399.919	110248
399.998	15349
400.077	5899
400.156	6194
400.235	9530
400.313	7393
400.392	14930
400.471	64616
400.550	88824
400.629	24004
400.708	11958
400.786	13860
400.865	37751
400.944	35663
401.023	15427
401.102	4501
401.180	6052
401.259	7155
401.338	10322
401.416	13820
401.495	11824
401.574	9529
401.652	8486
401.731	14503
401.810	12357
401.888	5971
401.967	4423
402.046	5077
402.124	11888
402.203	16249
402.281	8417
402.360	14907
402.438	45278
402.517	28471
402.596	11485
402.674	10882
402.753	6975
402.831	6957
402.910	11645
402.988	50443
403.066	137373
403.145	65049
403.223	47375
403.302	106148
403.380	73770
403.459	71532
403.537	26932
403.615	11588
403.694	3940
403.772	4333
403.850	4187
403.929	3937
404.007	5736
404.085	16518
404.164	17395
404.242	7145
404.320	9484
404.398	19813
404.477	74518
404.555	292997
404.633	207659
404.711	28989
404.789	9810
404.868	8719
404.946	6368
405.024	3726
405.102	3395
405.180	3564
405.258	3656
405.336	5577
405.415	7186
405.493	18196
405.571	15503
405.649	5150
405.727	5901
405.805	11218
405.883	11230
405.961	10804
406.039	13548
406.117	6755
406.195	16311
406.273	83592
406.351	247652
406.429	120570
406.507	22049
406.585	9893
406.663	9681
406.740	12499
406.818	12052
406.896	6137
406.974	7752
407.052	29337
407.130	156814
407.208	178313
407.285	31260
407.363	7285
407.441	7925
407.519	5700
407.596	9384
407.674	29198
407.752	85424
407.830	73752
407.907	27411
407.985	10117
408.063	6177
408.141	4514
408.218	13453
408.296	12864
408.373	9897
408.451	10243
408.529	9935
408.606	3797
408.684	3535
408.762	2540
408.839	2899
408.917	2706
408.994	3735
409.072	3058
409.149	4854
409.227	8341
409.304	9859
409.382	7264
409.459	9252
409.537	13211
409.614	11313
409.692	7204
409.769	9051
409.846	15946
409.924	17680
410.001	11608
410.079	8095
410.156	6433
410.233	5975
410.311	5447
410.388	4940
410.465	7296
410.543	5988
410.620	4334
410.697	8071
410.775	9092
410.852	3884
410.929	8985
411.006	10361
411.083	5859
411.161	15677
411.238	16395
411.315	10105
411.392	5813
411.469	8848
411.547	8344
411.624	4006
411.701	4114
411.778	9807
411.855	20800
411.932	10489
412.009	4031
412.086	5321
412.163	7864
412.240	9801
412.317	10537
412.394	9995
412.471	3569
412.548	3204
412.625	4879
412.702	8553
412.779	15374
412.856	8450
412.933	3487
413.010	4040
413.087	11645
413.164	60469
413.241	69942
413.318	16693
413.395	11223
413.471	17099
413.548	7181
413.625	6501
413.702	8289
413.779	5749
413.855	2196
413.932	2540
414.009	1775
414.086	3015
414.162	3873
414.239	12539
414.316	62587
414.393	117622
414.469	34091
414.546	4417
414.623	2921
414.699	4898
414.776	5440
414.853	4342
414.929	5513
415.006	4526
415.082	7753
415.159	6413
415.236	4263
415.312	5612
415.389	14105
415.465	18518
415.542	8034
415.618	6557
415.695	12133
415.771	8685
415.848	6760
415.924	6980
416.000	4061
416.077	3895
416.153	1753
416.230	1196
416.306	2370
416.383	4535
416.459	2620
416.535	1513
416.612	2756
416.688	3446
416.764	3184
416.841	3974
416.917	3224
416.993	4191
417.069	7219
417.146	10363
417.222	10685
417.298	6694
417.374	4350
417.451	5871
417.527	8044
417.603	10161
417.679	6297
417.755	5147
417.831	1922
417.908	2569
417.984	1690
418.060	3454
418.136	17173
418.212	21027
418.288	6574
418.364	4208
418.440	4826
418.516	10286
418.592	15875
418.668	28459
418.744	38986
418.820	25437
418.896	6487
418.972	2853
419.048	5702
419.124	17652
419.200	11237
419.276	2945
419.352	1387
419.428	3555
419.504	5648
419.579	7830
419.655	5618
419.731	7574
419.807	28707
419.883	48263
419.959	28447
420.034	8897
420.110	22592
420.186	79070
420.262	50378
420.337	11489
420.413	7793
420.489	4164
420.565	4087
420.640	3665
420.716	5042
420.792	3031
420.867	4215
420.943	5415
421.019	12022
421.094	8278
421.170	4168
421.245	3025
421.321	5056
421.397	6344
421.472	16398
421.548	43317
421.623	26000
421.699	9682
421.774	8914
421.850	9351
421.925	16686
422.001	13227
422.076	9168
422.152	12978
422.227	20735
422.302	22192
422.378	31231
422.453	60586
422.529	157421
422.604	457971
422.679	681234
422.755	402291
422.830	134608
422.905	52025
422.981	28767
423.056	19572
423.131	14386
423.207	12217
423.282	15247
423.357	26918
423.432	16756
423.508	19827
423.583	43073
423.658	26991
423.733	10566
423.808	13352
423.883	14375
423.959	12048
424.034	8846
424.109	7581
424.184	4586
424.259	4280
424.334	4375
424.409	3282
424.484	4338
424.559	6541
424.634	5185
424.709	9816
424.784	10226
424.859	7074
424.934	16020
425.009	59004
425.084	84290
425.159	26098
425.234	5720
425.309	3005
425.384	7310
425.459	10475
425.534	5689
425.609	6306
425.683	3965
425.758	4018
425.833	4719
425.908	9514
425.983	39671
426.058	93234
426.132	34641
426.207	9234
426.282	15238
426.357	11966
426.431	4164
426.506	4489
426.581	5481
426.655	4532
426.730	4651
426.805	4078
426.879	5055
426.954	6589
427.029	20731
427.103	100703
427.178	210509
427.253	75392
427.327	11231
427.402	13715
427.476	24764
427.551	10245
427.625	8048
427.700	7079
427.774	5186
427.849	7755
427.923	3583
427.998	4629
428.072	6743
428.147	18081
428.221	70636
428.296	161148
428.370	69769
428.444	13939
428.519	19978
428.593	37302
428.667	30438
428.742	37262
428.816	37715
428.890	118493
428.965	147929
429.039	53600
429.113	40813
429.188	14704
429.262	6070
429.336	16681
429.410	44564
429.485	27075
429.559	31469
429.633	22109
429.707	9469
429.781	29978
429.855	140794
429.930	180509
430.004	117499
430.078	169463
430.152	139305
430.226	223331
430.300	183692
430.374	30778
430.448	16490
430.522	65351
430.596	157040
430.670	94635
430.744	222693
430.818	272297
430.892	52865
430.966	10898
431.040	5481
431.114	2965
431.188	3927
431.262	6191
431.336	6213
431.410	20175
431.484	49012
431.557	28158
431.631	4966
431.705	7143
431.779	38647
431.853	141624
431.927	84834
432.000	11489
432.074	5862
432.148	9023
432.222	6321
432.295	3819
432.369	3797
432.443	15625
432.516	98783
432.590	207291
432.664	64889
432.737	9378
432.811	3218
432.885	2426
432.958	2547
433.032	2208
433.106	828
433.179	1251
433.253	1160
433.326	2247
433.400	534
433.473	1986
433.547	616
433.620	3834
433.694	9739
433.767	11271
433.841	5089
433.914	2147
433.988	1675
434.061	2882
434.134	2447
434.208	1934
434.281	791
434.355	1979
434.428	2812
434.501	2117
434.575	2208
434.648	3022
434.721	1639
434.795	2310
434.868	1121
434.941	503
435.014	1068
435.088	2524
435.161	4890
435.234	11064
435.307	12596
435.381	5827
435.454	5302
435.527	8222
435.600	6783
435.673	5539
435.746	3693
435.819	3167
435.892	1918
435.966	2802
436.039	2659
436.112	3120
436.185	892
436.258	1088
436.331	341
436.404	1212
436.477	462
436.550	1466
436.623	1721
436.696	1859
436.769	3546
436.842	3392
436.915	3901
436.987	7027
437.060	2841
437.133	2164
437.206	1707
437.279	1915
437.352	856
437.425	2368
437.498	4510
437.570	10883
437.643	8755
437.716	2982
437.789	1417
437.861	9213
437.934	22484
438.007	11106
438.080	3425
438.152	5637
438.225	18360
438.298	130719
438.370	288809
438.443	103423
438.516	24697
438.588	7003
438.661	2418
438.734	3209
438.806	5157
438.879	6232
438.951	6927
439.024	11579
439.096	4936
439.169	2341
439.241	1556
439.314	2660
439.386	7301
439.459	16346
439.531	22153
439.604	8047
439.676	1949
439.749	1219
439.821	1627
439.893	2308
439.966	3865
440.038	6603
440.110	6013
440.183	3982
440.255	2798
440.327	8992
440.400	57957
440.472	197642
440.544	109687
440.617	16476
440.689	9979
440.761	13270
440.833	20230
440.905	12130
440.978	3491
441.050	2452
441.122	2152
441.194	2500
441.266	2614
441.338	3260
441.411	11195
441.483	64913
441.555	81891
441.627	19496
441.699	12604
441.771	13733
441.843	5334
441.915	2915
441.987	2010
442.059	3132
442.131	5876
442.203	10293
442.275	12626
442.347	10595
442.419	15211
442.491	72745
442.563	161164
442.635	78958
442.706	52753
442.778	36979
442.850	8513
442.922	4558
442.994	7598
443.066	12103
443.137	8802
443.209	7285
443.281	11046
443.353	26494
443.425	101559
443.496	309907
443.568	282404
443.640	105832
443.711	24456
443.783	10005
443.855	6433
443.926	5081
443.998	5787
444.070	9325
444.141	7952
444.213	12431
444.285	15197
444.356	16293
444.428	14162
444.499	5393
444.571	2506
444.642	3336
444.714	5435
444.785	12019
444.857	16876
444.928	36674
445.000	23403
445.071	27407
445.143	29669
445.214	17885
445.285	29562
445.357	83267
445.428	240052
445.500	472527
445.571	302887
445.642	152572
445.714	73200
445.785	62570
445.856	23497
445.928	17307
445.999	13292
446.070	9406
446.141	10690
446.213	14280
446.284	9151
446.355	9165
446.426	6969
446.497	6387
446.569	13331
446.640	20359
446.711	14430
446.782	7952
446.853	13754
446.924	12196
446.995	6588
447.066	8197
447.138	14753
447.209	8194
447.280	1630
447.351	1921
447.422	1692
447.493	6579
447.564	9735
447.635	13553
447.706	5212
447.777	2154
447.847	1970
447.918	3001
447.989	7264
448.060	12576
448.131	26491
448.202	23346
448.273	14748
448.344	6859
448.414	3594
448.485	3824
448.556	3133
448.627	2075
448.698	2436
448.768	1774
448.839	3754
448.910	13422
448.981	11923
449.051	4815
449.122	2473
449.193	2107
449.263	2210
449.334	3121
449.405	6420
449.475	16173
449.546	11137
449.616	15138
449.687	12751
449.758	4478
449.828	3201
449.899	3054
449.969	2275
450.040	3108
450.110	8437
450.181	9551
450.251	4191
450.322	2609
450.392	3264
450.463	3604
450.533	2152
450.604	3111
450.674	2690
450.744	3128
450.815	2978
450.885	3974
450.955	2920
451.026	2577
451.096	3569
451.166	6232
451.237	18449
451.307	40007
451.377	18616
451.447	4439
451.518	3226
451.588	3611
451.658	4472
451.728	10592
451.799	43562
451.869	47348
451.939	12712
452.009	4351
452.079	3022
452.149	5127
452.219	14115
452.289	48522
452.360	38746
452.430	9526
452.500	6763
452.570	9553
452.640	13378
452.710	38894
452.780	54247
452.850	41020
452.920	33589
452.990	13262
453.060	7932
453.129	12023
453.199	15520
453.269	61506
453.339	122122
453.409	182792
453.479	182593
453.549	259099
453.619	266363
453.688	114887
453.758	19719
453.828	8254
453.898	5376
453.968	6249
454.037	4156
454.087	4055
454.107	3977
454.168	3300
454.177	3157
454.247	3640
454.249	3668
454.316	3584
454.330	4458
454.386	7399
454.411	14588
454.456	25274
454.492	31873
454.525	37767
454.574	21604
454.595	14730
454.655	6688
454.665	5523
454.734	8314
454.736	8759
454.804	20159
454.817	26520
454.873	48322
454.898	52944
454.943	59522
454.979	42481
455.013	27903
455.060	16047
455.082	11958
455.141	14807
455.152	14758
455.221	39139
455.222	39794
455.291	63372
455.303	59847
455.360	44106
455.384	47163
455.430	51189
455.465	45922
455.499	40127
455.546	45440
455.569	46097
455.627	32400
455.638	30511
455.707	7773
455.708	7802
455.777	6176
455.789	6261
455.846	6299
455.869	6164
455.916	5802
455.950	5963
455.985	5859
456.031	6117
456.054	6239
456.112	5571
456.124	5509
456.193	5745
456.193	5698
456.262	7412
456.274	8454
456.332	12468
456.355	13925
456.401	14571
456.436	11560
456.470	8820
456.516	5554
456.540	4297
456.597	4639
456.609	4697
456.678	4612
456.678	4579
456.747	4162
456.759	4131
456.817	4278
456.840	4387
456.886	4358
456.920	4549
456.955	5113
457.001	5993
457.024	7340
457.082	11514
457.093	12158
457.162	19513
457.163	19636
457.232	22361
457.243	20983
457.301	12010
457.324	8702
457.370	5340
457.405	5592
457.439	6235
457.485	6671
457.508	6732
457.566	7857
457.577	8180
457.646	9295
457.647	9361
457.715	16608
457.727	18135
457.784	27147
457.808	33613
457.853	40989
457.889	46022
457.922	44235
457.969	32539
457.991	34525
458.050	42661
458.060	44093
458.129	69334
458.130	70108
458.198	64100
458.211	58484
458.267	37172
458.292	26900
458.336	18812
458.372	17743
458.405	23275
458.453	33887
458.474	42127
458.533	72436
458.543	74542
458.611	110003
458.614	110707
458.680	70182
458.694	56354
458.749	30235
458.775	22584
458.818	14735
458.855	12128
458.887	11065
458.936	10856
458.955	10579
459.016	10683
459.024	10639
459.093	9988
459.097	9992
459.162	10620
459.177	10960
459.230	12658
459.257	13955
459.299	14447
459.338	13868
459.368	14052
459.418	15028
459.437	14335
459.499	11673
459.505	11630
459.574	9940
459.579	9974
459.643	9760
459.659	9522
459.711	9743
459.740	10073
459.780	10825
459.820	11773
459.849	12133
459.900	13239
459.917	13104
459.981	12710
459.986	12663
460.054	10521
460.061	10383
460.123	11183
460.141	11630
460.191	14597
460.222	16564
460.260	17765
460.302	19901
460.328	18468
460.382	13240
460.397	13054
460.462	12067
460.465	12226
460.534	17843
460.543	18691
460.602	45621
460.623	55411
460.671	82836
460.703	108007
460.739	97756
460.783	75985
460.808	63005
460.864	19577
460.876	16753
460.944	12375
460.945	12325
461.013	13088
461.024	13050
461.081	13152
461.104	13860
461.150	13744
461.184	13133
461.218	12764
461.264	11646
461.286	11688
461.345	12496
461.355	12472
461.423	12503
461.425	12502
461.491	14141
461.505	14619
461.559	29735
461.585	36925
461.628	61014
461.665	84583
461.696	91842
461.745	110145
461.764	96085
461.825	32020
461.832	31094
461.901	17630
461.905	17495
461.969	15568
461.985	15055
462.037	14130
462.065	13650
462.105	16559
462.145	19584
462.173	28103
462.225	44796
462.241	49744
462.305	73357
462.310	71218
462.378	37028
462.385	31961
462.446	19838
462.465	17235
462.514	14946
462.545	14548
462.582	14457
462.625	14409
462.650	13829
462.705	12650
462.718	13416
462.785	17157
462.786	17322
462.854	26836
462.865	28646
462.922	35409
462.945	38243
462.990	27877
463.025	17818
463.058	15855
463.104	13002
463.126	12587
463.184	13008
463.194	13246
463.262	14728
463.264	14794
463.330	15589
463.344	15620
463.398	17227
463.424	18016
463.466	18332
463.504	18987
463.533	19174
463.583	18873
463.601	19677
463.663	22268
463.669	22936
463.737	31364
463.743	32111
463.805	50303
463.823	55569
463.873	84401
463.903	102904
463.940	107970
463.982	115400
464.008	92579
464.062	37098
464.076	34131
464.142	16451
464.144	16307
464.211	15700
464.221	15831
464.279	17011
464.301	17373
464.347	20032
464.381	22145
464.414	24478
464.461	27398
464.482	28304
464.540	31671
464.550	30670
464.617	22196
464.620	21855
464.685	23455
464.699	23985
464.753	26913
464.779	28290
464.820	29685
464.859	30895
464.888	31091
464.938	31313
464.956	31813
465.018	33767
465.023	33142
465.091	24292
465.098	23250
465.158	22435
465.177	22462
465.226	23481
465.257	23818
465.293	25440
465.336	27495
465.361	29997
465.416	35393
465.428	38267
465.495	54007
465.496	54333
465.563	92194
465.575	98855
465.631	118805
465.654	127546
465.698	78229
465.734	34900
465.765	30255
465.813	22804
465.833	22079
465.893	21934
465.900	21955
465.968	21975
465.972	21940
466.035	21901
466.052	21853
466.102	22267
466.131	22459
466.170	23629
466.210	24748
466.237	24730
466.290	24592
466.304	25011
466.369	26566
466.372	26688
466.439	28981
466.449	29250
466.506	33050
466.528	34471
466.573	50577
466.607	62514
466.641	94454
466.687	138779
466.708	153079
466.766	192650
466.775	177597
466.842	61276
466.845	55635
466.909	39361
466.925	35652
466.977	32603
467.004	31100
467.044	32269
467.083	33384
467.111	35626
467.163	39639
467.178	40526
467.242	43865
467.245	43813
467.312	41015
467.321	40568
467.379	40714
467.400	40644
467.446	44225
467.480	46667
467.559	40759
467.638	34884
467.717	35360
467.796	41627
467.875	48026
467.955	44181
468.034	67903
468.113	159275
468.192	231350
468.271	58407
468.350	38239
468.429	42987
468.508	45127
468.588	37072
468.667	36348
468.746	40086
468.825	37901
468.904	30849
468.983	39469
469.062	63559
469.141	78341
469.220	31205
469.299	30465
469.378	33205
469.456	36441
469.535	34960
469.614	34094
469.693	36771
469.772	51010
469.851	71309
469.930	49577
470.009	33412
470.088	34568
470.166	40125
470.245	60736
470.324	73719
470.403	52359
470.482	37959
470.560	33693
470.639	36089
470.718	43119
470.797	35246
470.875	41686
470.954	61642
471.033	66130
471.111	26198
471.190	24732
471.269	24637
471.347	25357
471.426	28712
471.505	31832
471.583	32039
471.662	29796
471.740	25960
471.819	27573
471.898	25804
471.976	27248
472.055	27569
472.133	32430
472.212	45099
472.290	47126
472.369	29354
472.447	25254
472.526	24379
472.604	27195
472.683	29569
472.761	31990
472.839	29416
472.918	27186
472.996	28029
473.075	35297
473.153	33888
473.231	27375
473.310	33790
473.388	33430
473.466	30006
473.545	34314
473.623	46376
473.701	47420
473.780	28494
473.858	26768
473.936	32355
474.014	28349
474.093	32280
474.171	54205
474.249	76305
474.327	47337
474.405	23563
474.484	25773
474.562	26163
474.640	27159
474.718	29369
474.796	29013
474.874	24354
474.952	23230
475.030	23681
475.108	24838
475.187	28181
475.265	31858
475.343	46922
475.421	53258
475.499	27914
475.577	29832
475.655	41273
475.733	93377
475.811	169958
475.889	149094
475.966	94020
476.044	28737
476.122	39014
476.200	50378
476.278	40468
476.356	26872
476.434	28776
476.512	36832
476.590	49753
476.667	41165
476.745	24608
476.823	28112
476.901	27507
476.979	28683
477.056	26482
477.134	29029
477.212	29998
477.290	27560
477.367	23399
477.445	24475
477.523	23566
477.601	25517
477.678	25369
477.756	33901
477.834	38642
477.911	25430
477.989	26225
478.066	26190
478.144	31190
478.222	36530
478.299	57217
478.377	51629
478.454	23136
478.532	23389
478.609	25106
478.687	28825
478.764	23474
478.842	26384
478.919	29541
478.997	27962
479.074	22746
479.152	33309
479.229	41926
479.307	26302
479.384	19390
479.461	20507
479.539	24551
479.616	31153
479.694	24960
479.771	29650
479.848	31754
479.926	45545
480.003	47917
480.080	23777
480.157	21076
480.235	22146
480.312	23175
480.389	30075
480.467	54001
480.544	67368
480.621	30304
480.698	28240
480.775	33196
480.853	33702
480.930	26926
481.007	28630
481.084	33485
481.161	35003
481.238	32251
481.315	22929
481.392	22397
481.470	25049
481.547	25579
481.624	24547
481.701	24203
481.778	26545
481.855	29563
481.932	50307
482.009	87540
482.086	58141
482.163	28373
482.240	42253
482.317	72893
482.393	55541
482.470	26692
482.547	28464
482.624	24024
482.701	27312
482.778	25963
482.855	21529
482.932	21277
483.009	21854
483.085	25776
483.162	31876
483.239	30350
483.316	23664
483.393	24892
483.469	24662
483.546	30748
483.623	32994
483.699	24715
483.776	27064
483.853	31086
483.930	47583
484.006	130560
484.083	218152
484.160	86099
484.236	99255
484.313	77563
484.389	61384
484.466	54989
484.543	52515
484.619	56623
484.696	59705
484.772	62707
484.849	68541
484.925	51926
485.002	50056
485.078	54006
485.155	57554
485.231	48182
485.308	47620
485.384	52013
485.461	68834
485.537	130432
485.614	155536
485.690	54900
485.766	46914
485.843	52940
485.919	80805
485.995	83887
486.072	44315
486.148	41810
486.224	43608
486.301	47099
486.377	59224
486.453	56928
486.530	52786
486.606	63407
486.682	74739
486.758	105297
486.835	127766
486.911	97896
486.987	169612
487.063	173937
487.139	213496
487.215	142250
487.292	62921
487.368	53046
487.444	59780
487.520	73728
487.596	72181
487.672	104961
487.748	272777
487.824	397197
487.900	133623
487.976	63992
488.052	64156
488.128	73080
488.204	61597
488.280	51945
488.356	65779
488.432	155661
488.508	242139
488.584	74709
488.660	49295
488.736	47837
488.812	52024
488.888	66408
488.964	88892
489.039	206772
489.115	322134
489.191	179805
489.267	52555
489.343	46139
489.418	38227
489.494	36134
489.570	35764
489.646	39925
489.722	39355
489.797	42161
489.873	75737
489.949	181083
490.024	145431
490.100	40492
490.176	38872
490.251	50538
490.327	70522
490.403	39270
490.478	34997
490.554	30365
490.629	32023
490.705	31782
490.781	37160
490.856	36265
490.932	43337
491.007	42851
491.083	44134
491.158	39097
491.234	55365
491.309	133840
491.385	136593
491.460	41569
491.536	44032
491.611	37208
491.686	45548
491.762	62701
491.837	134697
491.913	228455
491.988	324794
492.063	398100
492.139	112197
492.214	64027
492.289	32145
492.365	31735
492.440	39231
492.515	40828
492.590	38457
492.666	29701
492.741	47291
492.816	77620
492.891	41206
492.967	27500
493.042	27286
493.117	27462
493.192	28354
493.267	43387
493.342	112021
493.418	136589
493.493	35217
493.568	25075
493.643	27581
493.718	38027
493.793	67176
493.868	71821
493.943	41095
494.018	29046
494.093	27816
494.168	27343
494.243	25094
494.318	22676
494.393	22741
494.468	22019
494.543	23427
494.618	30253
494.693	26556
494.768	26076
494.842	27712
494.917	22217
494.992	25785
495.067	23257
495.142	22856
495.217	27498
495.292	29922
495.366	33826
495.441	45331
495.516	56640
495.591	81116
495.665	288688
495.740	686261
495.815	263182
495.890	47280
495.964	34608
496.039	36180
496.114	33003
496.188	36871
496.263	35176
496.338	33361
496.412	39505
496.487	46417
496.561	48813
496.636	50099
496.710	35607
496.785	44101
496.860	51619
496.934	37071
497.009	36602
497.083	35265
497.158	35610
497.232	46668
497.307	60381
497.381	45763
497.455	56918
497.530	80934
497.604	50977
497.679	56164
497.753	93437
497.827	122901
497.902	104124
497.976	114910
498.050	275294
498.125	1103785
498.199	1068540
498.273	167758
498.348	114994
498.422	87968
498.496	84114
498.570	76248
498.645	57219
498.719	60052
498.793	75253
498.867	119474
498.941	154712
499.016	446153
499.090	1203308
499.164	388499
499.238	49618
499.312	42476
499.386	54045
499.460	49668
499.534	48094
499.609	61801
499.683	95661
499.757	88481
499.831	194130
499.905	809922
499.979	724261
500.053	120588
500.127	117498
500.201	83118
500.275	50823
500.349	49904
500.422	57575
500.496	88073
500.570	180964
500.644	454656
500.718	830752
500.792	174539
500.866	49433
500.940	64036
501.013	55188
501.087	55304
501.161	92926
501.235	123268
501.309	267713
501.382	755369
501.456	616671
501.530	145853
501.603	244118
501.677	90580
501.751	40654
501.825	51667
501.898	100445
501.972	305230
502.046	179483
502.119	54750
502.193	132570
502.266	329637
502.340	145399
502.413	139319
502.487	277651
502.561	161518
502.634	48189
502.708	41269
502.781	35218
502.855	28494
502.928	25337
503.002	26083
503.075	26145
503.149	30528
503.222	32407
503.295	37075
503.369	45793
503.442	64097
503.516	224651
503.589	582912
503.662	355452
503.736	110689
503.809	261138
503.882	206098
503.956	293921
504.029	258107
504.102	172608
504.175	211063
504.249	75320
504.322	49880
504.395	43280
504.468	30261
504.542	30000
504.615	22981
504.688	21635
504.761	23311
504.834	30842
504.907	37866
504.980	63525
505.053	32578
505.127	39658
505.200	44659
505.273	47927
505.346	29928
505.419	21552
505.492	21166
505.565	17250
505.638	17973
505.711	17792
505.784	19234
505.857	17665
505.930	22120
506.003	19489
506.076	25067
506.149	35514
506.221	46717
506.294	38268
506.367	111057
506.440	391943
506.513	190929
506.586	47790
506.659	28724
506.731	23172
506.804	31042
506.877	45951
506.950	29556
507.022	20359
507.095	32039
507.168	39644
507.241	25297
507.313	18922
507.386	25308
507.459	36682
507.531	23812
507.604	18661
507.677	19374
507.749	16426
507.822	25632
507.894	50435
507.967	50769
508.040	27442
508.112	25031
508.185	24705
508.257	24217
508.330	37951
508.402	25472
508.475	24095
508.547	26818
508.620	27517
508.692	48140
508.765	27916
508.837	19170
508.909	18213
508.982	20310
509.054	24721
509.127	20866
509.199	18007
509.271	17674
509.344	17100
509.416	18241
509.488	19051
509.560	19193
509.633	22862
509.705	27710
509.777	25682
509.849	39707
509.922	24940
509.994	18879
510.066	17990
510.138	21335
510.210	37341
510.283	36087
510.355	29590
510.427	26875
510.499	25287
510.571	26842
510.643	25697
510.715	45839
510.787	38131
510.859	27441
510.931	33794
511.003	43284
511.076	36467
511.148	22653
511.219	24081
511.291	46687
511.363	53331
511.435	22383
511.507	19734
511.579	20353
511.651	21201
511.723	21815
511.795	20378
511.867	22669
511.939	29645
512.010	76336
512.082	54394
512.154	25226
512.226	23756
512.298	33136
512.369	49081
512.441	38446
512.513	41155
512.585	30659
512.656	31234
512.728	36059
512.800	25807
512.871	27578
512.943	27446
513.015	22212
513.086	25849
513.158	30654
513.230	30024
513.301	50273
513.373	58171
513.444	31010
513.516	22908
513.588	25448
513.659	29363
513.731	39087
513.802	34002
513.874	73872
513.945	135287
514.016	42382
514.088	25789
514.159	30588
514.231	40772
514.302	48410
514.374	32218
514.445	35580
514.516	77859
514.588	55921
514.659	35549
514.730	71428
514.802	50884
514.873	35116
514.944	32337
515.016	30920
515.087	36655
515.158	49683
515.229	68703
515.301	35653
515.372	40830
515.443	28931
515.514	23856
515.585	22548
515.656	24033
515.728	23743
515.799	22898
515.870	26727
515.941	27254
516.012	27344
516.083	34663
516.154	42961
516.225	60141
516.296	55921
516.367	49371
516.438	58007
516.509	73407
516.580	102964
516.651	313039
516.722	1139538
516.793	463347
516.864	108600
516.935	101923
517.006	114072
517.077	149823
517.148	332572
517.219	1240410
517.289	1830521
517.360	545516
517.431	161994
517.502	52933
517.573	47236
517.643	46362
517.714	49979
517.785	53825
517.856	59104
517.926	70644
517.997	88718
518.068	111770
518.138	144609
518.209	209108
518.280	789741
518.350	2757894
518.421	1018545
518.492	132873
518.562	79509
518.633	73711
518.703	67847
518.774	108194
518.845	251564
518.915	232424
518.986	88178
519.056	72302
519.127	120178
519.197	182092
519.268	424080
519.338	239999
519.408	63660
519.479	74119
519.549	54195
519.620	36076
519.690	28047
519.760	27280
519.831	32001
519.901	30888
519.971	25309
520.042	29876
520.112	37612
520.182	40442
520.253	44408
520.323	29761
520.393	34603
520.463	46499
520.534	37974
520.604	67696
520.674	40570
520.744	44428
520.814	81074
520.885	74125
520.955	124644
521.025	478905
521.095	165866
521.165	35058
521.235	32066
521.305	26865
521.375	25307
521.445	29369
521.515	41031
521.585	45687
521.655	41998
521.725	37323
521.795	33786
521.865	24361
521.935	42771
522.005	37517
522.075	24385
522.145	28261
522.215	33743
522.285	51016
522.355	70082
522.424	140097
522.494	114032
522.564	52811
522.634	106713
522.704	296260
522.774	102157
522.843	32631
522.913	30719
522.983	41465
523.053	31618
523.122	30776
523.192	45985
523.262	172104
523.331	154977
523.401	31551
523.471	21806
523.540	24541
523.610	18674
523.680	18552
523.749	20906
523.819	28711
523.888	30009
523.958	19274
524.027	21360
524.097	23123
524.166	21590
524.236	26844
524.305	26232
524.375	21066
524.444	20107
524.514	23592
524.583	24229
524.653	31991
524.722	36296
524.791	22022
524.861	23399
524.930	19382
524.999	23426
525.069	34496
525.138	28351
525.207	35214
525.277	24087
525.346	24311
525.415	23465
525.484	25436
525.554	32525
525.623	31994
525.692	27216
525.761	30556
525.830	33491
525.900	40024
525.969	59845
526.038	85700
526.107	162553
526.176	458798
526.245	359800
526.314	134501
526.383	253472
526.452	312414
526.522	555254
526.591	539087
526.660	195647
526.729	101976
526.797	98797
526.867	196520
526.935	827753
527.004	1319029
527.073	640034
527.142	74555
527.211	39344
527.280	37645
527.349	38725
527.418	21492
527.487	22515
527.555	18537
527.624	17755
527.693	17573
527.762	20242
527.831	17000
527.899	19230
527.968	18362
528.037	19443
528.106	26453
528.174	52867
528.243	40588
528.312	63256
528.380	80077
528.449	25949
528.518	18614
528.586	13462
528.655	15512
528.723	15417
528.792	15925
528.861	19444
528.929	16844
528.998	16050
529.066	13884
529.135	15581
529.203	13338
529.272	14963
529.340	15697
529.409	18487
529.477	16748
529.545	24581
529.614	26025
529.682	29929
529.751	34689
529.819	34107
529.887	24060
529.956	17525
530.024	18760
530.092	16037
530.161	21611
530.229	39663
530.297	20385
530.365	16692
530.434	15519
530.502	14967
530.570	15632
530.638	13971
530.707	16270
530.775	19979
530.843	15440
530.911	15299
530.979	14689
531.047	15936
531.115	16134
531.183	15177
531.252	15474
531.320	17186
531.388	15047
531.456	16222
531.524	15321
531.592	17113
531.660	19040
531.728	16225
531.796	14674
531.864	16761
531.932	17670
532.000	17108
532.067	18832
532.135	21980
532.203	24851
532.271	25293
532.339	45527
532.407	136151
532.475	71942
532.542	34438
532.610	36693
532.678	47942
532.746	209328
532.814	503578
532.881	115734
532.949	28054
533.017	21123
533.084	18948
533.152	17612
533.220	18624
533.287	21633
533.355	17787
533.423	16555
533.490	15484
533.558	16521
533.625	19810
533.693	21497
533.761	19717
533.828	20561
533.896	20516
533.963	42877
534.031	51683
534.098	72854
534.166	32240
534.233	19298
534.300	20991
534.368	20732
534.435	20344
534.503	20461
534.570	22426
534.637	22674
534.705	26437
534.772	29983
534.840	50027
534.907	211961
534.974	247339
535.041	39184
535.109	33833
535.176	20087
535.243	18356
535.310	19759
535.378	18399
535.445	15372
535.512	16328
535.579	17064
535.646	16759
535.714	17953
535.781	21699
535.848	20144
535.915	20784
535.982	18216
536.049	20296
536.116	19780
536.183	20456
536.250	20543
536.317	21643
536.384	27224
536.451	43046
536.518	43765
536.585	30316
536.652	37824
536.719	58544
536.786	45328
536.853	34524
536.920	51736
536.987	83805
537.053	73303
537.120	261467
537.187	202253
537.254	29673
537.321	22993
537.388	23487
537.454	20093
537.521	18766
537.588	18128
537.654	21296
537.721	24693
537.788	25215
537.855	19228
537.921	22437
537.988	21876
538.055	22236
538.121	22042
538.188	25389
538.254	40636
538.321	88512
538.388	48654
538.454	24379
538.521	21975
538.587	20359
538.654	19046
538.720	20168
538.787	19894
538.853	22862
538.920	29604
538.986	31585
539.053	24783
539.119	25151
539.185	24103
539.252	29059
539.318	46940
539.385	32958
539.451	28859
539.517	29038
539.583	33069
539.650	77399
539.716	192210
539.782	50054
539.849	24823
539.915	24405
539.981	26119
540.047	34201
540.114	28983
540.180	28319
540.246	29483
540.312	42082
540.378	85406
540.444	81091
540.510	80477
540.576	214673
540.643	62368
540.709	24758
540.775	23265
540.841	23677
540.907	33200
540.973	49248
541.039	44359
541.105	49666
541.171	26860
541.237	24873
541.303	25952
541.369	29511
541.435	41291
541.500	74558
541.566	44152
541.632	22626
541.698	19836
541.764	21533
541.830	19129
541.896	21194
541.961	21785
542.027	22899
542.093	23301
542.159	25301
542.224	27576
542.290	42445
542.356	71910
542.421	82725
542.487	35564
542.553	26748
542.618	29674
542.684	24954
542.750	25982
542.815	30991
542.881	53380
542.947	191818
543.012	123119
543.078	26447
543.143	22948
543.209	24763
543.274	24779
543.340	28826
543.405	71450
543.471	107218
543.536	27779
543.602	22962
543.667	20739
543.732	21650
543.798	21325
543.863	21337
543.928	18735
543.994	18378
544.059	19761
544.124	20962
544.190	21518
544.255	23877
544.320	23772
544.386	25366
544.451	37678
544.516	43595
544.581	39962
544.646	118436
544.712	171292
544.777	37318
544.842	30491
544.907	31881
544.972	26247
545.037	26596
545.102	29149
545.168	29767
545.233	31677
545.298	34132
545.363	39363
545.428	41719
545.493	73932
545.558	156757
545.623	58804
545.688	31012
545.753	29044
545.818	28114
545.883	28999
545.947	28439
546.012	33186
546.077	33584
546.142	31863
546.207	33338
546.272	44777
546.337	47045
546.401	36269
546.466	34063
546.531	31312
546.596	35690
546.661	35893
546.725	33785
546.790	31838
546.855	33998
546.919	34718
546.984	39466
547.049	42333
547.113	49994
547.178	46269
547.243	53324
547.307	60357
547.372	71579
547.436	75534
547.501	63195
547.565	66410
547.630	73464
547.695	72913
547.759	77982
547.823	67465
547.888	60220
547.952	59367
548.017	64443
548.081	71906
548.146	86669
548.210	75808
548.274	67303
548.339	64605
548.403	61722
548.468	57493
548.532	56896
548.596	59093
548.660	59581
548.725	67793
548.789	80018
548.853	77230
548.917	66884
548.982	81563
549.046	77878
549.110	54986
549.174	55380
549.238	59959
549.303	63317
549.367	65627
549.431	63774
549.495	60466
549.559	60484
549.623	68893
549.687	79659
549.751	93170
549.815	88966
549.879	84654
549.943	81071
550.007	85351
550.071	86130
550.135	89513
550.199	79035
550.263	73607
550.327	77153
550.391	92727
550.455	81146
550.519	81092
550.582	88469
550.646	109473
550.710	110413
550.774	94619
550.838	96563
550.901	98469
550.965	105377
551.029	111641
551.093	122337
551.156	143316
551.220	221787
551.284	242683
551.347	149843
551.411	210501
551.475	209902
551.538	107584
551.602	93944
551.666	88049
551.729	81092
551.793	80148
551.856	79449
551.920	78153
551.983	77688
552.047	76889
552.110	76485
552.174	77592
552.237	80516
552.301	73246
552.364	73358
552.428	70140
552.491	73476
552.554	76817
552.618	78076
552.681	80878
552.745	83401
552.808	116152
552.871	146119
552.934	99667
552.998	81351
553.061	78783
553.124	72502
553.187	70882
553.251	72902
553.314	74997
553.377	72930
553.440	79764
553.503	109930
553.567	124320
553.630	78539
553.693	73709
553.756	75548
553.819	70158
553.882	69916
553.945	68469
554.008	68282
554.071	68176
554.134	71318
554.197	65494
554.260	63589
554.323	68040
554.386	69587
554.449	69806
554.512	69633
554.575	65417
554.638	68029
554.701	65331
554.764	64128
554.827	61926
554.889	60295
554.952	55920
555.015	56277
555.078	56479
555.141	57916
555.203	55891
555.266	56717
555.329	57863
555.391	55098
555.454	58618
555.517	56433
555.580	52266
555.642	50171
555.705	50586
555.768	51007
555.830	49387
555.893	46841
555.955	46402
556.018	47279
556.080	47540
556.143	47223
556.206	48557
556.268	49450
556.330	50066
556.393	48545
556.455	47422
556.518	65902
556.580	64324
556.643	43942
556.705	43301
556.767	42491
556.830	43255
556.892	48400
556.955	69988
557.017	52433
557.079	42117
557.142	41657
557.204	48910
557.266	87355
557.328	70415
557.391	38530
557.453	35767
557.515	37513
557.577	45602
557.639	48128
557.701	38103
557.764	37074
557.826	39914
557.888	44588
557.950	43777
558.012	47824
558.074	59609
558.136	137877
558.198	306943
558.260	105139
558.322	54041
558.384	56272
558.446	64087
558.508	75341
558.570	93601
558.632	141292
558.694	190916
558.756	202878
558.818	628656
558.880	1436744
558.942	407012
559.003	336811
559.065	155054
559.127	74754
559.189	73874
559.251	82297
559.312	113649
559.374	289294
559.436	949825
559.498	399572
559.559	83857
559.621	73752
559.683	81944
559.744	139761
559.806	462312
559.868	616172
559.929	114431
559.991	77813
560.052	116073
560.114	308421
560.176	176286
560.237	183556
560.299	276590
560.360	65447
560.422	35956
560.483	33466
560.545	30937
560.606	29891
560.667	28467
560.729	28958
560.790	27566
560.852	28003
560.913	27999
560.974	27161
561.036	27376
561.097	28336
561.158	28664
561.220	30746
561.281	29468
561.342	31653
561.403	34379
561.465	45532
561.526	110879
561.587	133723
561.648	38311
561.709	29801
561.771	27676
561.832	27598
561.893	27246
561.954	25665
562.015	25277
562.076	26181
562.137	25377
562.198	26364
562.259	25961
562.320	26847
562.381	31567
562.442	44893
562.503	33847
562.564	25274
562.625	25062
562.686	24979
562.747	28075
562.808	26624
562.869	27006
562.930	33022
562.991	30003
563.051	28382
563.112	27045
563.173	26123
563.234	24693
563.294	24899
563.355	26179
563.416	28017
563.477	25380
563.537	28265
563.598	27318
563.659	27306
563.720	26865
563.780	28734
563.841	29608
563.901	26473
563.962	24999
564.023	26060
564.083	27123
564.144	29182
564.204	27191
564.265	28051
564.325	33729
564.386	69226
564.446	56903
564.507	26410
564.567	25537
564.628	25532
564.688	24808
564.749	25682
564.809	31201
564.869	36720
564.930	25581
564.990	24126
565.050	24140
565.111	25094
565.171	23488
565.231	23710
565.292	23567
565.352	23658
565.412	25906
565.472	27277
565.532	27727
565.593	26002
565.653	24383
565.713	26265
565.773	28004
565.833	35375
565.893	41271
565.953	27877
566.013	25652
566.074	28157
566.134	36837
566.194	62386
566.254	59845
566.314	38527
566.374	27078
566.434	27049
566.494	26396
566.554	26318
566.614	26217
566.673	27462
566.733	28864
566.793	29960
566.853	29455
566.913	29560
566.973	29840
567.033	31366
567.092	31804
567.152	29374
567.212	30302
567.272	31433
567.331	34207
567.391	31910
567.451	35624
567.511	49178
567.570	47558
567.630	31754
567.690	29712
567.749	29400
567.809	31941
567.868	34480
567.928	38208
567.988	43652
568.047	44480
568.107	51279
568.166	66477
568.226	104670
568.285	140534
568.345	108779
568.404	82642
568.464	72774
568.523	66730
568.582	70241
568.642	78291
568.701	95406
568.761	144453
568.820	232467
568.879	207870
568.939	148818
568.998	100834
569.057	75282
569.116	61803
569.176	51360
569.235	43692
569.294	40417
569.353	36530
569.413	35307
569.472	32829
569.531	30428
569.590	29623
569.649	28856
569.708	27434
569.767	30154
569.827	34917
569.886	29729
569.945	25571
570.004	26972
570.063	26618
570.122	28796
570.181	30206
570.240	32985
570.299	32195
570.358	32028
570.417	25413
570.475	24170
570.534	26246
570.593	27818
570.652	28444
570.711	27461
570.770	26970
570.829	30746
570.887	29264
570.946	32055
571.005	24474
571.064	25215
571.122	27907
571.181	30955
571.240	25153
571.299	24293
571.357	26051
571.416	26853
571.475	30578
571.533	31703
571.592	23607
571.650	26676
571.709	22302
571.768	24733
571.826	23414
571.885	21033
571.943	21196
572.002	22987
572.060	23912
572.119	20492
572.177	19359
572.236	19543
572.294	18780
572.352	20697
572.411	21466
572.469	20879
572.528	19932
572.586	20514
572.644	23236
572.703	29632
572.761	22733
572.819	20386
572.877	18722
572.936	19386
572.994	19101
573.052	20156
573.110	20914
573.169	22325
573.227	19533
573.285	18915
573.343	18565
573.401	20146
573.459	19258
573.517	18983
573.576	19914
573.634	20826
573.692	20553
573.750	20167
573.808	19907
573.866	22048
573.924	29069
573.982	27118
574.040	20285
574.098	19568
574.155	18046
574.213	18841
574.271	17399
574.329	19734
574.387	17712
574.445	16678
574.503	16431
574.560	16623
574.618	17244
574.676	16817
574.734	17087
574.792	17972
574.849	16930
574.907	16208
574.965	16314
575.022	16921
575.080	15861
575.138	17379
575.195	17846
575.253	19589
575.311	21459
575.368	18355
575.426	16320
575.483	17834
575.541	16663
575.598	18098
575.656	18821
575.713	18795
575.771	17245
575.828	17425
575.886	17664
575.943	18550
576.001	18732
576.058	18952
576.115	21271
576.173	25249
576.230	29036
576.287	31835
576.345	24643
576.402	21255
576.459	19847
576.517	21294
576.574	22954
576.631	24265
576.688	21361
576.746	18721
576.803	17496
576.860	18852
576.917	18367
576.974	18518
577.031	18141
577.089	19530
577.146	18533
577.203	19661
577.260	19807
577.317	22662
577.374	25589
577.431	23123
577.488	20880
577.545	18682
577.602	18178
577.659	18031
577.716	18010
577.773	18505
577.830	16965
577.886	17202
577.943	16095
578.000	17557
578.057	19063
578.114	19253
578.171	18574
578.227	18798
578.284	17907
578.341	18537
578.398	19499
578.454	22036
578.511	24475
578.568	27023
578.625	22514
578.681	18556
578.738	17198
578.794	18241
578.851	18297
578.908	17501
578.964	18564
579.021	18527
579.077	18182
579.134	18462
579.190	16786
579.247	17522
579.303	17321
579.360	16580
579.416	15597
579.473	15641
579.529	15838
579.586	17643
579.642	17529
579.698	18481
579.755	19040
579.811	17888
579.867	16380
579.924	16365
579.980	16967
580.036	18499
580.093	17737
580.149	19039
580.205	19475
580.261	19082
580.317	19291
580.374	21760
580.430	24845
580.486	23516
580.542	20603
580.598	20348
580.619	19983
580.654	19368
580.692	19450
580.710	19525
580.765	18638
580.767	18629
580.823	18978
580.838	18899
580.879	18726
580.911	18749
580.935	18811
580.984	17632
580.991	17490
581.047	18216
581.057	18241
581.103	18435
581.130	18696
581.159	18984
581.203	19207
581.215	19288
581.270	20147
581.276	20007
581.326	18811
581.349	18894
581.382	19054
581.422	18719
581.438	18595
581.494	20827
581.494	20795
581.550	18898
581.567	19645
581.606	21137
581.640	20175
581.661	19665
581.713	19789
581.717	19812
581.773	18257
581.786	18522
581.829	19366
581.859	18882
581.885	18518
581.932	18625
581.940	18650
581.996	19541
582.004	19460
582.052	18968
582.077	18777
582.107	18648
582.150	19603
582.163	19895
582.219	19169
582.223	19245
582.274	20253
582.296	20140
582.330	19989
582.368	20523
582.386	20763
582.441	18436
582.441	18436
582.497	18397
582.514	18431
582.552	18764
582.587	19011
582.608	19095
582.659	19055
582.663	19062
582.719	19670
582.732	19657
582.774	19685
582.805	20037
582.830	20253
582.877	19412
582.885	19268
582.941	18966
582.950	18999
582.996	19282
583.023	19642
583.052	20205
583.095	20747
583.107	20860
583.162	20958
583.168	20999
583.218	21051
583.240	20763
583.273	20389
583.313	19528
583.328	19262
583.384	20214
583.385	20211
583.439	19896
583.458	19787
583.494	19566
583.531	18780
583.549	18459
583.603	19716
583.605	19755
583.660	19459
583.676	19604
583.715	19779
583.748	20432
583.770	21121
583.820	21638
583.825	21620
583.881	19988
583.893	20096
583.936	20759
583.965	20321
583.991	19868
584.038	20464
584.046	20628
584.101	20706
584.110	20814
584.156	20835
584.183	20498
584.211	20289
584.255	19831
584.266	19702
584.321	20147
584.328	20252
584.376	21373
584.400	21385
584.431	21224
584.472	20828
584.486	20675
584.541	20731
584.545	20771
584.596	21460
584.617	21723
584.651	22641
584.689	23994
584.706	24230
584.761	23310
584.762	23304
584.816	23050
584.834	23434
584.871	24262
584.906	24471
584.926	24472
584.978	23968
584.980	23961
585.035	26258
585.051	26694
585.090	27991
585.123	28950
585.145	29565
585.195	31376
585.200	31633
585.254	35514
585.267	36503
585.309	39560
585.340	42131
585.364	43796
585.412	46101
585.419	46514
585.473	51132
585.484	52796
585.528	62989
585.556	73676
585.583	94567
585.628	148431
585.637	167189
585.692	343112
585.700	371963
585.747	470502
585.772	387797
585.801	233683
585.845	87432
585.856	70007
585.910	46240
585.917	44106
585.965	39496
585.989	37252
586.019	35116
586.061	34030
586.074	33934
586.128	34501
586.133	34617
586.183	36036
586.205	36414
586.237	36963
586.277	36246
586.292	35855
586.346	35344
586.349	35355
586.401	35629
586.421	35920
586.455	37587
586.493	40510
586.509	43804
586.564	57311
586.565	57888
586.618	88157
586.637	89327
586.672	72526
586.709	51894
586.727	46017
586.781	42934
586.781	42937
586.835	39063
586.853	38318
586.889	37381
586.925	36253
586.944	35928
586.996	37214
586.998	37271
587.052	37965
587.068	38295
587.106	39408
587.140	39894
587.161	39909
587.212	40720
587.215	40849
587.269	42978
587.284	43710
587.323	44674
587.356	44774
587.377	44990
587.427	46337
587.431	46480
587.485	48390
587.499	48786
587.539	50499
587.571	51669
587.593	52439
587.643	55530
587.648	55910
587.702	59362
587.715	60178
587.755	62175
587.786	63384
587.810	64598
587.858	67820
587.864	68415
587.917	74992
587.930	76466
587.971	81757
588.001	85923
588.025	89150
588.073	94779
588.079	95788
588.133	105692
588.145	108248
588.187	118190
588.217	125710
588.241	133974
588.288	151590
588.295	154341
588.348	179240
588.360	184937
588.402	208532
588.431	226035
588.456	243284
588.503	280400
588.510	287013
588.564	344621
588.575	358221
588.617	424248
588.646	474374
588.671	537764
588.718	675862
588.725	712378
588.778	1028190
588.789	1102942
588.832	1587321
588.861	1942110
588.886	2250993
588.932	2756604
588.939	2759269
588.993	2574832
589.004	2558540
589.047	2338553
589.075	2059088
589.100	1700912
589.147	1064240
589.154	1019334
589.207	750589
589.218	702357
589.261	645060
589.290	618716
589.314	645040
589.361	718007
589.368	751301
589.421	1062640
589.433	1139107
589.475	1673588
589.504	2063507
589.528	2263793
589.576	2511061
589.582	2465549
589.635	1990087
589.647	1854794
589.689	1207701
589.718	787661
589.742	642415
589.790	403179
589.795	391358
589.849	297900
589.861	278830
589.902	246675
589.932	221278
589.955	200346
590.004	157821
590.009	155459
590.062	133999
590.075	128768
590.115	119345
590.146	112650
590.168	108694
590.218	99795
590.222	99403
590.275	93893
590.289	92559
590.328	89626
590.360	86753
590.381	84470
590.431	79178
590.435	79033
590.488	75976
590.503	75091
590.541	73038
590.574	70901
590.594	69813
590.645	67232
590.647	67207
590.700	64660
590.716	63983
590.753	62153
590.787	60201
590.806	59914
590.859	59068
590.859	59124
590.912	58924
590.930	58893
590.965	58385
591.001	57732
591.018	57401
591.071	56253
591.072	56179
591.124	55848
591.143	55743
591.177	55651
591.214	55287
591.230	55677
591.283	57114
591.285	57092
591.336	58244
591.356	58757
591.389	58812
591.427	58197
591.442	56964
591.495	52386
591.498	51984
591.547	51074
591.569	50657
591.600	50340
591.640	49760
591.653	50119
591.706	51430
591.711	51510
591.759	53228
591.782	54139
591.811	56661
591.853	60007
591.864	58875
591.917	52327
591.924	51358
591.969	51326
591.995	51230
592.022	51813
592.066	52616
592.075	53512
592.127	58643
592.137	59562
592.180	63531
592.208	65683
592.233	61434
592.279	53094
592.285	52853
592.338	50424
592.350	49797
592.390	49703
592.421	49558
592.443	49729
592.491	49901
592.495	49944
592.548	49658
592.562	49523
592.600	49255
592.633	48906
592.653	48763
592.704	47982
592.705	48293
592.775	50142
592.846	50282
592.916	53209
592.987	55767
593.058	53262
593.128	48848
593.199	48265
593.270	47786
593.341	48528
593.411	49376
593.482	50317
593.553	50476
593.623	48673
593.694	51790
593.764	54299
593.835	51787
593.906	49768
593.976	50816
594.047	51794
594.117	62339
594.188	60976
594.258	52211
594.329	49954
594.399	51143
594.470	52185
594.540	52205
594.611	52761
594.681	53691
594.751	54713
594.822	56578
594.892	58515
594.963	59939
595.033	59140
595.103	61404
595.174	65932
595.244	88021
595.314	101756
595.384	65008
595.455	63099
595.525	65013
595.595	64982
595.665	66415
595.736	64189
595.806	64501
595.876	65170
595.946	65541
596.016	65181
596.087	68805
596.157	68481
596.227	68528
596.297	72089
596.367	75227
596.437	82317
596.507	97820
596.577	111079
596.647	82239
596.717	80498
596.787	81259
596.857	80263
596.927	80870
596.997	80861
597.067	82263
597.137	84487
597.207	84108
597.277	83811
597.347	81559
597.417	79538
597.487	81000
597.557	83073
597.626	85773
597.696	88959
597.766	99163
597.836	111701
597.906	81420
597.975	76044
598.045	75751
598.115	78073
598.185	82986
598.254	91801
598.324	98830
598.394	100745
598.464	99480
598.533	94373
598.603	86626
598.672	87388
598.742	88451
598.812	88101
598.881	88668
598.951	86589
599.020	89433
599.090	91631
599.159	91895
599.229	88678
599.299	86860
599.368	89453
599.437	88049
599.507	83768
599.576	82728
599.646	80898
599.715	80610
599.785	81087
599.854	82491
599.924	84456
599.993	80891
600.062	78350
600.132	79981
600.201	84411
600.270	97552
600.340	98120
600.409	94844
600.478	94197
600.547	97238
600.617	91298
600.686	76666
600.755	71154
600.824	72209
600.894	67229
600.963	65613
601.032	64005
601.101	64085
601.170	60760
601.239	62536
601.308	64542
601.378	63853
601.447	61401
601.516	61252
601.585	64352
601.654	69787
601.723	63925
601.792	64460
601.861	67892
601.930	72639
601.999	74418
602.068	70468
602.137	75945
602.206	75297
602.275	71105
602.343	79639
602.412	79898
602.481	70839
602.550	70495
602.619	72226
602.688	74530
602.756	73447
602.825	71434
602.894	73209
602.963	73412
603.032	75806
603.100	74216
603.169	76620
603.238	77492
603.307	76044
603.375	76690
603.444	78038
603.513	78501
603.581	78586
603.650	79941
603.719	79229
603.787	79876
603.856	81076
603.924	86316
603.993	87162
604.061	87871
604.130	92614
604.198	94818
604.267	96278
604.335	94687
604.404	95203
604.472	96566
604.541	98162
604.609	99306
604.678	100194
604.746	99319
604.815	102884
604.883	105219
604.951	105460
605.020	106090
605.088	108212
605.156	108728
605.225	110348
605.293	110181
605.361	111307
605.429	111034
605.498	116598
605.566	119410
605.634	123852
605.702	127601
605.771	129651
605.839	128078
605.907	126809
605.975	121167
606.043	120099
606.111	119618
606.180	121934
606.248	120928
606.316	120168
606.384	121078
606.452	131429
606.520	138131
606.588	126283
606.656	122137
606.724	121800
606.792	114060
606.860	103809
606.928	92797
606.996	91263
607.064	89518
607.132	91836
607.200	97558
607.267	101255
607.335	101655
607.403	104588
607.471	100193
607.539	97891
607.607	100140
607.674	89783
607.742	90380
607.810	91446
607.878	89391
607.946	89693
608.013	94536
608.081	95283
608.149	96893
608.216	98789
608.284	101666
608.352	102882
608.419	104570
608.487	116307
608.555	101938
608.622	99719
608.690	105424
608.757	115537
608.825	117990
608.893	117170
608.960	116893
609.028	119280
609.095	125071
609.163	108800
609.230	97108
609.298	88552
609.365	89623
609.432	98681
609.500	106549
609.567	121044
609.635	137965
609.702	144461
609.769	139882
609.837	114917
609.904	97376
609.971	98549
610.039	113863
610.106	156673
610.173	316266
610.241	727765
610.308	378694
610.375	143856
610.442	105297
610.509	96664
610.577	96728
610.644	99781
610.711	99927
610.778	103691
610.845	107438
610.912	114425
610.980	119146
611.047	121451
611.114	118895
611.181	113140
611.248	111171
611.315	118930
611.382	119664
611.449	125107
611.516	127047
611.583	125555
611.650	127522
611.717	129872
611.784	133412
611.851	140446
611.918	157057
611.984	188252
612.051	288819
612.118	631776
612.185	1586538
612.252	853503
612.319	208892
612.386	170288
612.452	154046
612.519	150435
612.586	160935
612.653	151066
612.719	148335
612.786	141403
612.853	131279
612.919	129214
612.986	130800
613.053	123599
613.120	114858
613.186	111577
613.253	114166
613.319	111936
613.386	113762
613.453	117550
613.519	122400
613.586	130705
613.652	149855
613.719	136756
613.785	131209
613.852	118098
613.918	115386
613.985	120377
614.051	131350
614.118	156536
614.184	147329
614.250	116836
614.317	117234
614.383	116731
614.449	117568
614.516	119452
614.582	121037
614.648	116713
614.715	115434
614.781	112050
614.847	113970
614.914	114938
614.980	112551
615.046	111605
615.112	113850
615.179	115692
615.245	118275
615.311	122637
615.377	142265
615.443	143542
615.509	125667
615.575	128722
615.642	124889
615.708	131402
615.774	138881
615.840	150440
615.906	172059
615.972	231804
616.038	397005
616.104	829443
616.170	1978389
616.236	1470853
616.302	314222
616.368	225766
616.434	163912
616.500	154597
616.565	172581
616.631	212417
616.697	169263
616.763	177447
616.829	278412
616.895	496041
616.961	441803
617.026	182831
617.092	131854
617.158	125525
617.224	120740
617.289	112929
617.355	109410
617.421	107953
617.487	108178
617.552	101494
617.618	101032
617.684	99472
617.749	103070
617.815	96431
617.880	95354
617.946	94293
618.012	97668
618.077	98247
618.143	93749
618.208	96126
618.274	101098
618.339	104368
618.405	86501
618.470	88749
618.536	88704
618.601	92314
618.667	82620
618.732	79531
618.798	76514
618.863	78171
618.928	76560
618.994	81968
619.059	85880
619.124	103670
619.190	85309
619.255	76297
619.320	78263
619.386	77487
619.451	74950
619.516	74979
619.581	75707
619.647	76824
619.712	76538
619.777	75253
619.842	74908
619.907	77607
619.972	78355
620.038	77937
620.103	75034
620.168	73065
620.233	74325
620.298	75519
620.363	74700
620.428	76446
620.493	78730
620.558	79626
620.623	80308
620.688	80233
620.753	79052
620.818	80530
620.883	80588
620.948	80418
621.013	79921
621.078	80556
621.143	80562
621.207	85328
621.272	84147
621.337	84435
621.402	86667
621.467	97117
621.532	97678
621.596	87456
621.661	80577
621.726	78247
621.791	80110
621.855	82711
621.920	84426
621.985	88522
622.049	94099
622.114	92787
622.179	85505
622.243	88788
622.308	87968
622.373	91694
622.437	90740
622.502	84706
622.566	83849
622.631	84561
622.695	86464
622.760	85043
622.824	85066
622.889	85916
622.953	92546
623.018	118735
623.082	113053
623.147	92077
623.211	89033
623.276	89554
623.340	82040
623.404	80550
623.469	80845
623.533	82231
623.597	78734
623.662	79741
623.726	74904
623.790	71325
623.854	69185
623.919	70626
623.983	72118
624.047	73943
624.111	72551
624.176	75298
624.240	79284
624.304	82378
624.368	75254
624.432	75363
624.496	77384
624.560	84327
624.625	89695
624.689	80247
624.753	79334
624.817	77939
624.881	75628
624.945	69889
625.009	68479
625.073	70416
625.137	75416
625.201	88373
625.265	84273
625.329	72988
625.393	76916
625.456	75758
625.520	78304
625.584	82968
625.648	94596
625.712	126721
625.776	232747
625.839	243671
625.903	107103
625.967	75777
626.031	108673
626.095	154001
626.158	79622
626.222	57842
626.286	55826
626.349	53501
626.413	52101
626.477	55108
626.540	51394
626.604	51336
626.668	50184
626.731	48900
626.795	51780
626.858	51639
626.922	49443
626.986	50104
627.049	48033
627.113	50823
627.176	48444
627.240	46659
627.303	47593
627.366	47562
627.430	49393
627.493	49016
627.557	47826
627.620	49195
627.684	50326
627.747	50785
627.810	46116
627.874	44534
627.937	41526
628.000	45653
628.064	44737
628.127	39024
628.190	39837
628.253	39463
628.317	37500
628.380	37430
628.443	36137
628.506	38294
628.569	35737
628.632	34232
628.696	33837
628.759	33756
628.822	32337
628.885	32233
628.948	31785
629.011	32532
629.074	32765
629.137	31047
629.200	31704
629.263	34940
629.326	28710
629.389	30105
629.452	30778
629.515	32456
629.578	31659
629.641	32858
629.704	31665
629.767	32193
629.830	28551
629.892	29738
629.955	28082
630.018	32737
630.081	35220
630.144	41371
630.207	32816
630.269	35202
630.332	34530
630.395	31099
630.458	27621
630.520	26860
630.583	27479
630.646	27495
630.708	26450
630.771	27273
630.834	28045
630.896	27762
630.959	27091
631.021	26602
631.084	27776
631.146	31238
631.209	33928
631.272	28371
631.334	28120
631.397	27526
631.459	27779
631.522	30277
631.584	30274
631.646	32300
631.709	35828
631.771	42305
631.834	33282
631.896	30504
631.958	26455
632.021	27330
632.083	26785
632.145	27292
632.208	27285
632.270	28652
632.332	24703
632.395	25381
632.457	26823
632.519	25503
632.581	25121
632.643	24807
632.706	26077
632.768	23816
632.830	25399
632.892	24901
632.954	23429
633.016	25821
633.078	24950
633.141	25025
633.203	24149
633.265	26002
633.327	25411
633.389	25232
633.451	28914
633.513	33259
633.575	33352
633.637	32937
633.698	29562
633.760	27344
633.822	26786
633.884	27378
633.946	26279
634.008	28412
634.070	28387
634.132	31715
634.193	31743
634.255	35090
634.317	34596
634.379	35406
634.441	31408
634.502	30072
634.564	27247
634.626	26018
634.687	25893
634.749	26041
634.811	24705
634.873	22690
634.934	23515
634.996	24251
635.057	22268
635.119	23604
635.181	23286
635.242	24594
635.304	22148
635.365	26378
635.427	24000
635.488	24240
635.550	22448
635.611	25511
635.673	22944
635.734	27911
635.796	27743
635.857	31232
635.918	29566
635.980	33878
636.041	34058
636.102	37376
636.164	37206
636.225	36707
636.286	30165
636.348	29294
636.409	25883
636.470	25417
636.531	25478
636.593	27182
636.654	24835
636.715	21940
636.776	20391
636.838	20084
636.899	21699
636.960	20887
637.021	19969
637.082	20033
637.143	21015
637.204	18770
637.265	18780
637.326	20523
637.387	19415
637.448	18584
637.509	19659
637.570	20191
637.631	20252
637.692	17500
637.753	17387
637.814	18466
637.875	18037
637.936	19225
637.997	18167
638.058	19938
638.119	19916
638.179	18637
638.240	17906
638.301	18704
638.362	16972
638.423	17260
638.483	19137
638.544	16105
638.605	17680
638.666	17208
638.726	17076
638.787	18096
638.848	16879
638.908	17474
638.969	16973
639.030	17571
639.090	15305
639.151	17364
639.211	19314
639.272	24926
639.332	37276
639.393	22793
639.453	18660
639.514	20052
639.574	17563
639.635	16098
639.695	17290
639.756	16156
639.816	18128
639.877	22555
639.937	36971
639.997	43707
640.058	19170
640.118	16212
640.178	16522
640.239	15070
640.299	14836
640.359	15614
640.420	16726
640.480	18391
640.540	19698
640.600	19599
640.661	19611
640.721	19331
640.781	24293
640.841	18456
640.901	17591
640.961	17328
641.021	19947
641.082	22155
641.142	28813
641.202	21019
641.262	14504
641.322	15059
641.382	13742
641.442	15561
641.502	14266
641.562	15388
641.622	14497
641.682	16686
641.742	18063
641.802	17587
641.861	16991
641.921	17553
641.981	19591
642.041	19307
642.101	22727
642.161	15643
642.221	14317
642.280	14233
642.340	13660
642.400	14384
642.460	15170
642.519	14546
642.579	14678
642.639	16116
642.698	12476
642.758	17321
642.818	14448
642.877	14344
642.937	15563
642.997	19008
643.056	26884
643.116	16584
643.175	15650
643.235	15680
643.294	15611
643.354	17760
643.414	18953
643.473	22998
643.532	28515
643.592	39442
643.651	64946
643.711	117521
643.770	244092
643.830	623336
643.889	1225459
643.948	234068
644.008	42545
644.067	28627
644.126	22039
644.186	19570
644.245	17293
644.304	13942
644.363	16915
644.423	14323
644.482	15053
644.541	16596
644.600	14660
644.659	20554
644.719	24330
644.778	37711
644.837	62408
644.896	131653
644.955	289663
645.014	80868
645.073	23431
645.132	18336
645.191	16555
645.250	15728
645.309	17060
645.368	17166
645.427	22586
645.486	35281
645.545	56711
645.604	19575
645.663	15628
645.722	15566
645.781	17648
645.840	20949
645.898	24858
645.957	37503
646.016	57709
646.075	110719
646.134	220751
646.192	634057
646.251	828349
646.310	101078
646.369	31415
646.427	26873
646.486	19820
646.545	16995
646.603	16107
646.662	14109
646.721	14115
646.779	14103
646.838	14380
646.896	19465
646.955	23920
647.014	37311
647.072	68852
647.131	186515
647.189	76991
647.248	15873
647.306	13503
647.365	12529
647.423	10761
647.481	12896
647.540	10033
647.598	11343
647.657	11111
647.715	11246
647.773	9607
647.832	11362
647.890	9219
647.948	10805
648.007	10299
648.065	10130
648.123	10598
648.181	12848
648.240	10150
648.298	10119
648.356	10212
648.414	10597
648.472	10397
648.531	11365
648.589	10649
648.647	10632
648.705	10031
648.763	10777
648.821	11503
648.879	10612
648.937	12992
648.995	15223
649.053	19435
649.111	28399
649.169	48390
649.227	88014
649.285	187068
649.343	530335
649.401	212544
649.459	62123
649.516	35483
649.574	22399
649.632	32309
649.690	33303
649.748	23359
649.806	29791
649.863	50683
649.921	129861
649.979	73919
650.037	14366
650.094	9766
650.152	11181
650.210	9090
650.268	9956
650.325	10052
650.383	11301
650.440	7718
650.498	8839
650.556	8236
650.613	8007
650.671	8111
650.728	8937
650.786	10151
650.843	11531
650.901	8045
650.958	8366
651.016	7155
651.073	8074
651.131	7663
651.188	7706
651.246	7807
651.303	7059
651.360	8094
651.418	6602
651.475	7721
651.532	6456
651.590	7422
651.647	6363
651.704	7421
651.762	8265
651.819	7182
651.876	7447
651.933	7547
651.990	8575
652.048	5915
652.105	6590
652.162	6591
652.219	6485
652.276	7313
652.333	7557
652.390	5824
652.448	6897
652.505	6770
652.562	6540
652.619	7649
652.676	9465
652.733	8933
652.790	6440
652.847	5345
652.904	6358
652.961	5294
653.017	6067
653.074	6598
653.131	7712
653.188	5707
653.245	6417
653.302	7093
653.359	6125
653.415	7113
653.472	6056
653.529	7110
653.586	5892
653.642	5110
653.699	6864
653.756	6172
653.813	5792
653.869	6229
653.926	5285
653.983	5144
654.039	6717
654.096	5257
654.152	7761
654.209	5861
654.266	7524
654.322	5629
654.379	8690
654.435	8829
654.492	9339
654.548	13488
654.605	20824
654.661	9657
654.717	6453
654.774	7068
654.830	6874
654.887	6717
654.943	6954
655.000	7869
655.056	7532
655.112	7078
655.168	7201
655.225	7323
655.281	8250
655.337	12249
655.394	19059
655.450	13473
655.506	12661
655.562	20077
655.618	14527
655.675	6032
655.731	7372
655.787	6463
655.843	8217
655.899	6649
655.955	7505
656.011	7399
656.067	7142
656.123	8367
656.179	8858
656.235	9679
656.291	8669
656.347	9625
656.403	8232
656.459	8064
656.515	9846
656.571	9011
656.627	7998
656.683	7528
656.739	7848
656.795	7527
656.850	8790
656.906	9692
656.962	8431
657.018	5701
657.074	7291
657.129	8252
657.185	10972
657.241	18857
657.297	10371
657.352	7379
657.408	6479
657.464	7914
657.519	7068
657.575	4592
657.630	6763
657.686	5386
657.742	5919
657.797	6480
657.853	6276
657.908	6839
657.964	5571
658.019	5854
658.075	6264
658.130	6783
658.186	4930
658.241	6170
658.297	5315
658.352	5704
658.407	5705
658.463	6091
658.518	6435
658.573	5562
658.629	4548
658.684	5574
658.739	6457
658.795	5064
658.850	5533
658.905	5223
658.960	6063
659.016	5130
659.071	5452
659.126	6511
659.181	7431
659.236	13025
659.291	14053
659.346	8513
659.401	7938
659.457	7367
659.512	6800
659.567	6743
659.622	6079
659.677	5723
659.732	5297
659.787	6234
659.842	8077
659.897	10274
659.952	6713
660.007	5755
660.061	6195
660.116	5147
660.171	5205
660.226	5708
660.281	6645
660.336	4827
660.391	6663
660.445	5404
660.500	5700
660.555	6121
660.610	5911
660.664	5993
660.719	5151
660.774	6158
660.828	5480
660.883	6182
660.938	6162
660.992	5036
661.047	5976
661.101	5868
661.156	5671
661.211	4245
661.265	5979
661.320	5565
661.374	5980
661.429	5836
661.483	5614
661.538	4851
661.592	5797
661.647	5092
661.701	6459
661.755	6167
661.810	6433
661.864	5510
661.919	5196
661.973	5528
662.027	5753
662.081	4932
662.136	5474
662.190	5795
662.244	6150
662.299	5187
662.353	6387
662.407	5068
662.461	6647
662.515	5757
662.569	6075
662.624	6968
662.678	5613
662.732	5526
662.786	5081
662.840	6373
662.894	6204
662.948	5935
663.002	5225
663.056	4922
663.110	4985
663.164	5422
663.218	5987
663.272	6403
663.326	7148
663.380	7273
663.434	6750
663.488	6260
663.542	6344
663.595	5917
663.649	5844
663.703	5467
663.757	6193
663.811	5036
663.864	5576
663.918	6596
663.972	6025
664.026	6097
664.079	5566
664.133	5303
664.187	5286
664.240	5463
664.294	5664
664.348	6338
664.401	5527
664.455	6383
664.508	5204
664.562	4819
664.615	5647
664.669	5265
664.722	5169
664.776	5276
664.829	6204
664.883	5968
664.936	6200
664.990	5405
665.043	7391
665.097	6344
665.150	6903
665.203	5698
665.257	7228
665.310	6475
665.363	6985
665.417	6720
665.470	6905
665.523	7049
665.576	6668
665.630	6008
665.683	6326
665.736	5971
665.789	6424
665.842	6038
665.895	6496
665.949	5604
666.002	6327
666.055	5794
666.108	7196
666.161	6732
666.214	7373
666.267	7205
666.320	8520
666.373	7416
666.426	7464
666.479	5985
666.532	7165
666.585	9567
666.638	10532
666.691	8755
666.744	10020
666.796	9152
666.849	8909
666.902	6904
666.955	6154
667.008	5993
667.060	5523
667.113	5177
667.166	5873
667.219	6087
667.271	6478
667.324	5816
667.377	5821
667.430	5526
667.482	7534
667.535	6898
667.587	7593
667.640	7212
667.693	10103
667.745	15350
667.798	15055
667.850	6537
667.903	6231
667.955	6529
668.008	7336
668.060	7647
668.113	7620
668.165	7565
668.218	7673
668.270	7326
668.322	6832
668.375	7073
668.427	6551
668.479	6186
668.532	7134
668.584	6029
668.636	6654
668.689	7314
668.741	6545
668.793	7093
668.845	6421
668.898	7818
668.950	6295
669.002	6311
669.054	6817
669.106	6637
669.158	7853
669.211	6613
669.263	6633
669.315	7018
669.367	8848
669.419	7605
669.471	9239
669.523	9039
669.575	12393
669.627	9611
669.679	8165
669.731	7679
669.783	7122
669.835	9175
669.886	7774
669.938	7370
669.990	7443
670.042	5836
670.094	7512
670.146	7255
670.197	7259
670.249	8911
670.301	10118
670.353	12417
670.404	16876
670.456	21066
670.508	32181
670.560	50283
670.611	83855
670.663	146968
670.715	378310
670.766	558377
670.818	141016
670.869	25491
670.921	15939
670.972	13357
671.024	11281
671.075	9231
671.127	9022
671.178	7599
671.230	8214
671.281	8305
671.333	8701
671.384	9182
671.436	9543
671.487	11363
671.538	14899
671.590	20341
671.641	29404
671.692	49464
671.744	88221
671.795	51092
671.846	19631
671.897	12743
671.949	11152
672.000	8686
672.051	9468
672.102	8034
672.153	7266
672.204	6463
672.256	7317
672.307	7515
672.358	8337
672.409	6976
672.460	7248
672.511	6787
672.562	6642
672.613	6337
672.664	6947
672.715	6907
672.766	6883
672.817	6746
672.868	6616
672.919	6237
672.970	6803
673.021	6735
673.071	6020
673.122	5662
673.173	6999
673.224	6779
673.275	6580
673.326	6026
673.376	6719
673.427	5906
673.478	6400
673.528	6010
673.579	6103
673.630	5673
673.680	7468
673.731	6206
673.782	5382
673.832	5800
673.883	7408
673.934	5488
673.984	6673
674.035	6237
674.085	5927
674.136	6452
674.186	7545
674.237	9058
674.287	13816
674.338	7356
674.388	6402
674.438	6934
674.489	7104
674.539	6617
674.589	6584
674.640	6322
674.690	6467
674.740	6510
674.791	7396
674.841	6862
674.891	6549
674.942	6309
674.992	7270
675.042	5123
675.092	6131
675.142	6226
675.193	5541
675.243	5906
675.293	6914
675.343	5336
675.393	5434
675.443	5630
675.493	5440
675.543	5609
675.593	7064
675.643	5378
675.693	6370
675.743	5529
675.793	6402
675.843	5643
675.893	5754
675.943	5658
675.993	6747
676.043	5626
676.093	6424
676.142	5203
676.192	6732
676.242	5977
676.292	5440
676.341	5716
676.391	6244
676.441	5026
676.491	5238
676.540	4469
676.590	6040
676.640	4782
676.689	6006
676.739	4407
676.789	4715
676.838	4640
676.888	5528
676.937	4358
676.987	4457
677.037	4903
677.086	4410
677.136	5059
677.185	4982
677.235	4135
677.284	4970
677.333	4514
677.383	4543
677.432	4043
677.482	5673
677.531	5115
677.580	5764
677.630	5270
677.679	4154
677.728	3799
677.778	4947
677.827	4718
677.876	5271
677.925	4299
677.975	4309
678.024	4820
678.073	5119
678.122	5676
678.171	5820
678.220	5887
678.269	6045
678.319	5810
678.368	6695
678.417	6489
678.466	5656
678.515	6310
678.564	5841
678.613	4363
678.662	6047
678.711	4594
678.760	5457
678.809	5090
678.857	5055
678.906	5683
678.955	5156
679.004	5349
679.053	4989
679.102	4834
679.151	5556
679.199	3978
679.248	5106
679.297	5635
679.346	5243
679.394	4993
679.443	4738
679.492	4917
679.540	5154
679.589	5346
679.638	4394
679.686	4464
679.735	5025
679.784	5666
679.832	7058
679.881	5074
679.929	4819
679.978	3709
680.026	4620
680.075	4239
680.123	4694
680.172	3951
680.220	4337
680.268	4948
680.317	4742
680.365	4290
680.414	3823
680.462	3910
680.510	5005
680.559	4431
680.607	4723
680.655	3957
680.703	4497
680.752	4499
680.800	4399
680.848	3559
680.896	3440
680.945	3794
680.993	4749
681.041	4168
681.089	4704
681.137	4249
681.185	3709
681.233	4270
681.258	4001
681.281	3705
681.329	3226
681.377	4276
681.380	4346
681.425	4922
681.473	5460
681.502	5109
681.521	4785
681.569	5278
681.617	4499
681.624	4685
681.665	5579
681.713	5313
681.745	5047
681.761	4858
681.809	5162
681.857	6195
681.867	5859
681.904	4537
681.952	5996
681.989	5608
682.000	5439
682.048	5758
682.096	5136
682.111	5212
682.143	5240
682.191	5692
682.233	6787
682.239	6909
682.286	5688
682.334	5750
682.354	5493
682.382	5087
682.430	6387
682.476	5586
682.477	5532
682.525	6629
682.572	5445
682.598	5827
682.620	6124
682.667	5734
682.715	7293
682.720	7314
682.763	7141
682.810	6065
682.841	6296
682.857	6342
682.905	6733
682.952	6454
682.963	6587
683.000	6901
683.047	6662
683.085	7907
683.095	8208
683.142	6614
683.190	6354
683.206	6469
683.237	6651
683.284	7522
683.328	7712
683.332	7686
683.379	7073
683.426	7416
683.449	7085
683.473	6716
683.521	7164
683.568	7481
683.571	7483
683.615	7198
683.662	7485
683.693	7702
683.709	7743
683.757	7862
683.804	7876
683.814	8061
683.851	8683
683.898	8387
683.936	8995
683.945	9126
683.992	8808
684.039	9281
684.057	9332
684.086	9196
684.133	8920
684.179	8737
684.180	8706
684.227	9500
684.274	9466
684.300	9706
684.321	9849
684.368	8824
684.415	9080
684.422	9070
684.462	8740
684.509	8737
684.543	8979
684.556	9067
684.603	8674
684.649	8835
684.665	8859
684.696	9018
684.743	9611
684.786	10168
684.790	10197
684.837	11106
684.883	10486
684.908	11096
684.930	11548
684.977	10971
685.023	11466
685.029	11464
685.070	11030
685.117	10876
685.150	10775
685.164	10813
685.210	11242
685.257	12235
685.272	12093
685.303	11691
685.350	11851
685.393	12049
685.396	12073
685.443	13042
685.490	13857
685.514	13771
685.536	13269
685.583	12665
685.629	12463
685.636	12399
685.675	12242
685.722	12293
685.757	12480
685.768	12524
685.815	12630
685.861	12353
685.878	12335
685.908	12493
685.954	13066
686.000	13837
686.000	13847
686.047	14590
686.093	17224
686.121	17021
686.139	16153
686.185	15052
686.232	13226
686.242	13179
686.278	13338
686.324	12967
686.363	11852
686.370	11713
686.416	12554
686.463	13066
686.484	12473
686.509	11821
686.555	12474
686.601	12094
686.606	12198
686.647	13030
686.693	12276
686.727	11927
686.739	11787
686.785	12281
686.831	12138
686.848	12126
686.877	12220
686.923	12445
686.969	11994
686.969	11990
687.015	13065
687.061	12914
687.090	13245
687.107	13296
687.153	13100
687.199	12769
687.211	12565
687.245	12544
687.291	13309
687.332	14253
687.336	14298
687.382	14366
687.428	13824
687.453	13986
687.474	13965
687.520	13145
687.565	13200
687.574	13043
687.611	12832
687.657	13779
687.695	13330
687.702	13311
687.748	14495
687.794	14998
687.816	15264
687.839	15046
687.885	13719
687.931	13722
687.937	13610
687.976	13518
688.022	14009
688.058	13991
688.067	13985
688.113	14125
688.158	13476
688.179	13763
688.204	14084
688.249	14129
688.295	14794
688.300	14805
688.340	15095
688.386	15510
688.421	15138
688.431	15019
688.477	15229
688.522	15026
688.542	15119
688.567	15063
688.613	14721
688.658	14061
688.663	13995
688.703	13914
688.749	15036
688.784	14653
688.794	14508
688.839	15140
688.884	14368
688.905	14357
688.930	14491
688.975	14982
689.020	14956
689.026	14929
689.065	14688
689.110	14450
689.146	14680
689.155	14733
689.201	14330
689.246	14083
689.267	14001
689.291	14180
689.336	14412
689.381	14716
689.388	14749
689.426	14760
689.471	14907
689.509	14768
689.516	14727
689.561	14968
689.606	14338
689.630	14113
689.651	14113
689.696	14258
689.741	15210
689.750	15080
689.785	14681
689.830	15133
689.871	14891
689.875	14858
689.920	15253
689.965	14611
689.992	14425
690.010	14422
690.054	14594
690.099	14910
690.112	14793
690.144	14533
690.189	14744
690.233	14251
690.233	14267
690.278	14718
690.323	14729
690.354	14590
690.367	14675
690.412	15129
690.457	15189
690.474	15401
690.501	15454
690.546	15485
690.590	15010
690.595	14991
690.635	15115
690.680	14711
690.716	14866
690.724	15008
690.769	15334
690.813	16019
690.836	15822
690.857	15775
690.902	16496
690.946	17057
690.957	17166
690.991	18412
691.035	20118
691.077	21684
691.080	21710
691.124	21501
691.168	21142
691.198	20913
691.213	20731
691.257	20331
691.301	19544
691.318	19202
691.346	18354
691.390	17131
691.434	15795
691.439	15639
691.478	16025
691.522	16537
691.559	16749
691.567	16833
691.611	17692
691.655	18019
691.680	18053
691.699	17811
691.743	17748
691.787	17422
691.800	17255
691.831	17371
691.875	17569
691.919	18237
691.921	18210
691.964	18409
692.008	18758
692.041	18970
692.052	18963
692.096	18919
692.139	18921
692.162	18561
692.183	18317
692.227	18122
692.271	18204
692.282	18232
692.315	18556
692.359	18476
692.402	18589
692.403	18624
692.447	18616
692.490	18639
692.523	18851
692.534	18889
692.578	18881
692.622	18546
692.643	18375
692.666	18141
692.709	17819
692.753	17154
692.763	17080
692.797	17456
692.840	17631
692.884	17863
692.884	17899
692.928	18111
692.971	18383
693.004	18375
693.015	18333
693.059	18392
693.102	17850
693.124	17800
693.146	18094
693.189	18473
693.233	19093
693.245	19143
693.276	19299
693.320	19665
693.363	19781
693.365	19753
693.407	19964
693.450	20317
693.485	20006
693.493	20024
693.537	20655
693.580	20870
693.605	21078
693.624	21471
693.667	22019
693.710	22760
693.725	22953
693.753	25247
693.797	29347
693.840	33113
693.845	33453
693.883	31275
693.926	28678
693.966	26522
693.970	26343
694.013	23857
694.056	21317
694.086	19618
694.099	19702
694.142	20018
694.185	20029
694.206	20037
694.229	20265
694.272	20536
694.315	21020
694.326	21024
694.358	21222
694.401	21677
694.444	22121
694.446	22095
694.487	21956
694.530	21625
694.566	21399
694.573	21286
694.616	19750
694.659	19072
694.686	18289
694.702	18258
694.745	18358
694.787	18142
694.806	18055
694.830	18114
694.873	18127
694.916	18001
694.926	17975
694.959	18174
695.002	18460
695.044	18580
695.046	18554
695.087	19063
695.130	19308
695.166	19373
695.172	19412
695.215	19458
695.258	19747
695.286	19653
695.301	19487
695.343	19216
695.386	18650
695.406	18426
695.428	18527
695.471	18434
695.514	18573
695.526	18507
695.556	19060
695.599	20052
695.641	20725
695.646	20774
695.684	20174
695.726	19489
695.766	18558
695.769	18606
695.811	18965
695.854	19136
695.886	19263
695.896	19332
695.938	19447
695.981	19291
696.005	19382
696.023	19630
696.065	19931
696.108	20320
696.125	20397
696.150	20485
696.192	20549
696.235	20600
696.245	20583
696.277	20376
696.319	19850
696.361	19618
696.365	19526
696.404	19478
696.446	19526
696.485	19474
696.488	19545
696.530	20021
696.572	20147
696.604	20488
696.614	20460
696.656	19949
696.698	19477
696.724	19008
696.740	19098
696.783	19365
696.825	19737
696.844	19811
696.867	20019
696.909	20270
696.951	20590
696.964	20671
696.992	20567
697.034	20142
697.076	19791
697.083	19691
697.118	20151
697.160	20579
697.202	20956
697.203	20914
697.244	20814
697.286	20646
697.323	20429
697.327	20496
697.369	20622
697.411	20732
697.442	20807
697.453	20971
697.494	21407
697.536	21779
697.562	21974
697.578	22033
697.620	22057
697.661	22091
697.682	22051
697.703	22525
697.744	23251
697.786	24174
697.801	24412
697.828	24559
697.869	24676
697.911	24734
697.921	24703
697.952	23588
697.994	21997
698.035	20450
698.040	20206
698.077	20683
698.118	21181
698.160	21669
698.160	21615
698.201	21336
698.243	20919
698.279	20562
698.284	20714
698.325	21594
698.367	22484
698.399	23104
698.408	23059
698.449	22593
698.491	22143
698.518	21749
698.532	21835
698.573	21963
698.614	22080
698.638	22099
698.656	22225
698.697	22354
698.738	22510
698.757	22522
698.779	22855
698.820	23360
698.862	23888
698.877	24021
698.903	24241
698.944	24484
698.985	24733
698.996	24740
699.026	24318
699.067	23638
699.116	22768
699.235	23286
699.354	22559
699.474	22183
699.593	25292
699.713	24574
699.832	22647
699.951	25369
700.070	23262
700.190	21319
700.309	22877
700.428	24770
700.547	22414
700.667	21570
700.786	25046
700.905	20170
701.024	22816
701.143	21013
701.262	19154
701.381	20695
701.500	22037
701.619	23568
701.738	20152
701.857	19298
701.976	19130
702.095	19483
702.214	22440
702.333	22595
702.452	21412
702.571	20381
702.690	18796
702.809	18664
702.928	18218
703.047	19192
703.165	18907
703.284	18085
703.403	19242
703.522	22078
703.640	21148
703.759	26305
703.878	34378
703.997	19985
704.115	18342
704.234	18864
704.353	17993
704.471	16525
704.590	16762
704.708	16491
704.827	16724
704.946	17671
705.064	19045
705.183	18183
705.301	22163
705.420	30488
705.538	26253
705.656	21388
705.775	21731
705.893	27693
706.012	28520
706.130	22685
706.249	23757
706.367	23627
706.485	25136
706.604	23909
706.722	24191
706.840	29818
706.958	28310
707.077	22531
707.195	20818
707.313	21290
707.431	20475
707.549	19339
707.668	20552
707.786	21937
707.904	20724
708.022	19959
708.140	19524
708.258	20379
708.376	20789
708.494	19898
708.612	23714
708.730	32882
708.848	30214
708.966	28785
709.084	26841
709.202	25060
709.320	25946
709.438	25254
709.556	26445
709.674	26554
709.791	24482
709.909	24242
710.027	24710
710.145	24029
710.263	24682
710.380	25118
710.498	23437
710.616	23667
710.733	24519
710.851	25805
710.969	25706
711.086	24168
711.204	24883
711.322	24117
711.439	23642
711.557	24651
711.674	22957
711.792	23770
711.909	22129
712.027	22085
712.144	21895
712.262	22792
712.379	25938
712.497	36005
712.614	34432
712.732	29093
712.849	28728
712.966	31620
713.084	37794
713.201	30559
713.318	29139
713.436	28232
713.553	28379
713.670	30601
713.787	33002
713.905	32463
714.022	28316
714.139	29244
714.256	34752
714.373	42134
714.490	67026
714.608	171898
714.725	703461
714.842	551271
714.959	50575
715.076	31970
715.193	28344
715.310	27069
715.427	24801
715.544	24944
715.661	24779
715.778	24827
715.895	27355
716.011	27184
716.128	24854
716.245	25330
716.362	30416
716.479	29184
716.596	23803
716.713	23212
716.829	23247
716.946	23334
717.063	21354
717.180	21574
717.296	21193
717.413	21291
717.530	21901
717.646	21385
717.763	21269
717.880	19022
717.996	21429
718.113	21450
718.229	20252
718.346	19948
718.462	22199
718.579	27957
718.695	46637
718.812	33225
718.928	30686
719.045	21714
719.161	19269
719.277	19426
719.394	19325
719.510	19805
719.626	21488
719.743	26227
719.859	31225
719.975	53471
720.092	200175
720.208	374824
720.324	43874
720.440	23303
720.557	26528
720.673	40281
720.789	52956
720.905	101001
721.021	30793
721.137	19099
721.253	20255
721.369	19882
721.486	22389
721.602	30595
721.718	17288
721.834	16936
721.950	18461
722.066	16454
722.181	16342
722.297	18184
722.413	16788
722.529	16741
722.645	16302
722.761	15701
722.877	15359
722.993	14658
723.108	18234
723.224	15679
723.340	17001
723.456	14367
723.571	15966
723.687	14903
723.803	15632
723.918	14217
724.034	15384
724.150	14916
724.265	18534
724.381	39883
724.497	43068
724.612	14980
724.728	14046
724.843	13819
724.959	18782
725.074	39265
725.190	37930
725.305	17085
725.421	14454
725.536	11568
725.651	13153
725.767	13300
725.882	12137
725.997	11703
726.113	12725
726.228	12048
726.343	12285
726.459	11545
726.574	13719
726.689	11358
726.804	12051
726.920	12899
727.035	12322
727.150	13546
727.265	12369
727.380	13539
727.495	12702
727.610	11241
727.725	12267
727.841	11757
727.956	14791
728.071	15830
728.186	11748
728.301	10766
728.416	11947
728.531	11388
728.645	10391
728.760	13197
728.875	14162
728.990	13218
729.105	12313
729.220	13557
729.335	13194
729.449	11176
729.564	10054
729.679	9895
729.794	10124
729.908	11711
730.023	11018
730.138	10326
730.253	10340
730.367	8835
730.482	10376
730.596	10621
730.711	11879
730.826	11027
730.940	10343
731.055	11094
731.169	9281
731.284	10050
731.398	10280
731.513	12887
731.627	12300
731.742	14649
731.856	15378
731.970	12295
732.085	15251
732.199	17431
732.313	28436
732.428	74831
732.542	218003
732.656	102474
732.771	21009
732.885	13411
732.999	14204
733.113	13095
733.227	13200
733.342	11361
733.456	11748
733.570	11205
733.684	10488
733.798	10687
733.912	11218
734.026	9426
734.140	10724
734.254	12497
734.368	22489
734.482	24517
734.596	10378
734.710	10003
734.824	9495
734.938	9628
735.052	11042
735.166	12306
735.280	11726
735.393	9640
735.507	10826
735.621	14666
735.735	26661
735.849	11091
735.962	9479
736.076	10479
736.190	10953
736.303	16733
736.417	18317
736.531	10884
736.644	10319
736.758	9121
736.872	8661
736.985	8375
737.099	8233
737.212	7694
737.326	8722
737.439	8560
737.553	8263
737.666	9111
737.780	8502
737.893	8304
738.007	8346
738.120	8330
738.233	8693
738.347	8309
738.460	8551
738.573	9918
738.687	9304
738.800	9786
738.913	12254
739.026	8637
739.140	9060
739.253	7304
739.366	7329
739.479	7314
739.592	7206
739.705	8105
739.818	8427
739.932	6711
740.045	7957
740.158	8683
740.271	8452
740.384	7877
740.497	8777
740.610	8380
740.723	9329
740.836	9151
740.949	9825
741.062	14391
741.174	10327
741.287	8127
741.400	7550
741.513	8859
741.626	9924
741.739	9042
741.851	7178
741.964	7318
742.077	7770
742.189	8652
742.302	10769
742.415	10215
742.527	7862
742.640	7276
742.753	6791
742.865	6154
742.978	6852
743.090	7682
743.203	7362
743.316	6532
743.428	5915
743.541	6790
743.653	6830
743.766	6154
743.878	7017
743.990	10240
744.103	9715
744.215	9400
744.327	7787
744.440	9702
744.552	16948
744.664	7586
744.777	6171
744.889	5233
745.001	6896
745.113	5821
745.226	5934
745.338	5990
745.450	6312
745.562	6027
745.674	5364
745.786	5400
745.898	4763
746.010	5610
746.122	6198
746.234	6417
746.347	5851
746.459	5670
746.570	5953
746.682	5879
746.794	9155
746.906	6469
747.018	6334
747.130	5381
747.242	5463
747.354	4283
747.466	5970
747.577	5466
747.689	5519
747.801	5390
747.913	6079
748.024	4781
748.136	4498
748.248	5046
748.359	4754
748.471	5438
748.583	5094
748.694	4548
748.806	6495
748.918	8554
749.029	6652
749.141	6720
749.252	6525
749.364	8974
749.475	18751
749.587	10292
749.698	5562
749.809	5173
749.921	5139
750.032	5295
750.144	5208
750.255	4362
750.366	3891
750.478	5082
750.589	5128
750.700	5289
750.811	6781
750.923	9330
751.034	22826
751.145	18398
751.256	5855
751.367	4484
751.479	4450
751.590	4513
751.701	4711
751.812	4690
751.923	4759
752.034	4979
752.145	4270
752.256	4440
752.367	4535
752.478	3949
752.589	5219
752.700	4069
752.811	4132
752.922	4004
753.032	6174
753.143	6826
753.254	4007
753.365	4982
753.476	4721
753.586	3785
753.697	3669
753.808	3522
753.919	4434
754.029	3990
754.140	4819
754.251	4524
754.361	3920
754.472	4034
754.582	4280
754.693	4907
754.804	4298
754.914	3321
755.025	2939
755.135	3874
755.246	4267
755.356	3383
755.466	4221
755.577	3818
755.687	4555
755.798	4246
755.908	4235
756.018	3452
756.129	3653
756.239	3789
756.349	4243
756.460	4027
756.570	5315
756.680	3880
756.790	4768
756.900	4749
757.011	4036
757.121	4487
757.231	4180
757.341	3577
757.451	3952
757.561	3406
757.671	3912
757.781	3320
757.891	4747
758.001	4179
758.111	4566
758.221	4675
758.331	6443
758.441	6293
758.551	9033
758.661	7342
758.771	5469
758.880	4208
758.990	4664
759.100	5345
759.210	4707
759.320	5266
759.429	5154
759.539	4907
759.649	4735
759.758	5269
759.868	7261
759.978	5456
760.087	6643
760.197	6398
760.307	6765
760.416	5675
760.526	4496
760.635	6226
760.745	6114
760.854	6813
760.964	8220
761.073	6771
761.182	6244
761.292	6389
761.401	6342
761.511	5102
761.620	4841
761.729	5480
761.839	5569
761.948	5334
762.057	6089
762.166	5349
762.276	4064
762.385	5973
762.494	5666
762.603	4541
762.712	4767
762.822	4764
762.931	5118
763.040	3817
763.149	3779
763.258	5305
763.367	5458
763.476	4461
763.585	4571
763.694	5451
763.803	4609
763.912	5366
764.021	5814
764.130	5084
764.238	5717
764.347	5099
764.456	5843
764.565	6234
764.674	6218
764.783	5778
764.891	5573
765.000	6331
765.109	6994
765.217	7728
765.326	9571
765.435	11306
765.543	11759
765.652	11209
765.761	14059
765.869	21446
765.978	32998
766.086	61005
766.195	125708
766.303	349599
766.412	891827
766.520	624853
766.629	158233
766.737	59267
766.846	35323
766.954	23867
767.062	19677
767.171	15047
767.279	12643
767.387	10539
767.496	9794
767.604	9335
767.712	7746
767.820	7780
767.928	8407
768.037	7708
768.145	9051
768.253	7337
768.361	6421
768.469	6170
768.577	6942
768.685	7263
768.793	7802
768.901	7851
769.009	9000
769.117	8030
769.225	11900
769.333	17330
769.441	25856
769.549	49830
769.657	120164
769.765	411442
769.873	698145
769.981	198890
770.088	45973
770.196	24490
770.304	17274
770.412	14354
770.519	11413
770.627	9634
770.735	9289
770.842	7797
770.950	7517
771.058	7316
771.165	7662
771.273	7289
771.380	7631
771.488	6988
771.595	7311
771.703	6484
771.810	7464
771.918	7402
772.025	6704
772.133	7180
772.240	6683
772.348	8586
772.455	6837
772.562	6637
772.670	6930
772.777	6975
772.884	6641
772.991	5924
773.099	6575
773.206	5358
773.313	7021
773.420	6589
773.528	5441
773.635	5372
773.742	7173
773.849	6258
773.956	6354
774.063	5919
774.170	6270
774.277	7189
774.384	6614
774.491	5732
774.598	6469
774.705	6900
774.812	9297
774.919	6894
775.026	7696
775.133	6008
775.239	5646
775.346	6334
775.453	6562
775.560	5297
775.667	5849
775.773	4878
775.880	6339
775.987	5679
776.093	6554
776.200	6791
776.307	5800
776.413	6046
776.520	6162
776.627	6161
776.733	5149
776.840	4824
776.946	7968
777.053	8184
777.159	13911
777.266	7869
777.372	12436
777.478	10391
777.585	7590
777.691	5154
777.798	5642
777.904	6557
778.010	11359
778.117	7594
778.223	5454
778.329	5552
778.435	4746
778.542	5066
778.648	4249
778.754	4958
778.860	4063
778.966	5389
779.072	4335
779.178	4464
779.284	3673
779.391	4127
779.497	3797
779.603	5947
779.708	4720
779.815	8448
779.920	17375
780.026	23462
780.132	5113
780.238	4577
780.344	4481
780.450	5658
780.556	3939
780.661	4593
780.767	4748
780.873	3892
780.979	5057
781.085	3884
781.190	4593
781.296	4044
781.402	4291
781.507	3093
781.613	3422
781.719	2848
781.824	3981
781.930	4256
782.035	4301
782.141	4581
782.246	3512
782.352	3922
782.457	4439
782.563	3532
782.668	4333
782.773	4137
782.879	4008
782.984	5098
783.090	6094
783.195	10115
783.300	6050
783.405	5620
783.511	4637
783.616	5389
783.721	5047
783.826	3974
783.932	5240
784.037	4153
784.142	5208
784.247	4460
784.352	3907
784.457	4668
784.562	4724
784.667	4691
784.772	3750
784.877	3358
784.982	4345
785.087	4396
785.192	4590
785.297	3861
785.402	3887
785.507	3253
785.611	3878
785.716	3588
785.821	3706
785.926	3135
786.031	3771
786.135	3915
786.240	3899
786.345	2444
786.450	4004
786.554	3612
786.659	2274
786.763	2442
786.868	3970
786.973	4102
787.077	2894
787.182	3180
787.286	3584
787.391	2950
787.495	3146
787.600	2624
787.704	2939
787.809	3283
787.913	2723
788.017	3283
788.122	3295
788.226	2977
788.330	2679
788.435	3159
788.539	2974
788.643	2919
788.747	2905
788.852	2981
788.956	2916
789.060	3704
789.164	3190
789.268	2180
789.372	2908
789.476	2698
789.580	2564
789.684	3020
789.788	3422
789.892	1874
789.996	3737
790.100	2757
790.204	3159
790.308	2878
790.412	2614
790.516	2588
790.620	4042
790.724	2846
790.828	2733
790.931	2166
791.035	4312
791.139	2295
791.242	2277
791.346	3627
791.450	2875
791.554	1858
791.657	1948
791.761	3278
791.864	3342
791.968	3424
792.072	2898
792.175	3376
792.279	2865
792.382	2813
792.486	2627
792.589	3533
792.693	3631
792.796	1737
792.899	3176
793.003	3782
793.106	2023
793.209	1560
793.313	3308
793.416	1634
793.519	4639
793.623	6775
793.726	9444
793.829	2693
793.932	3303
794.035	2871
794.138	4500
794.242	4896
794.345	4110
794.448	4812
794.551	9335
794.654	11709
794.757	12385
794.860	5176
794.963	3818
795.066	1930
795.169	3183
795.272	1227
795.375	3478
795.477	1602
795.580	3058
795.683	553
795.786	2419
795.889	1649
795.991	2708
796.094	4068
796.197	2302
796.300	3699
796.402	1603
796.505	1493
796.608	1853
796.710	1530
796.813	1669
796.915	1059
797.018	2983
797.120	2429
797.223	593
797.326	3347
797.428	1159
797.530	1469
797.633	2416
797.735	4601
797.838	6735
797.940	5747
798.042	2031
798.145	1699
798.247	2457
798.349	1423
798.452	2235
798.554	1519
798.656	1765
798.758	3591
798.860	1824
798.962	1459
799.065	1340
799.167	1100
799.269	3715
799.371	2982
799.473	3286
799.575	4288
799.677	4854
799.779	5558
799.881	6031
799.983	4076
800.085	2288
800.187	1973
800.289	1782
800.390	1226
800.492	2296
800.594	2264
800.696	1766
800.798	2148
800.899	2010
801.001	1204
801.103	2479
801.205	862
801.306	1809
801.408	772
801.509	1908
801.611	1060
801.713	2334
801.814	459
801.916	1334
802.017	1666
802.119	151
802.220	1646
802.322	196
802.423	4752
802.525	2194
802.626	1762
802.727	2705
802.829	2754
802.930	132
803.031	2300
803.133	928
803.234	1194
803.335	1815
803.436	940
803.538	1239
803.639	687
803.740	2434
803.841	551
803.942	1856
804.043	1767
804.144	160
804.245	1690
804.346	228
804.447	2260
804.548	4948
804.649	3895
804.750	1210
804.851	1602
804.952	455
805.053	1432
805.154	-20
805.255	1731
805.355	1318
805.456	826
805.557	813
805.658	400
805.758	2415
805.859	1254
805.960	638
806.061	770
806.161	867
806.262	731
806.362	667
806.463	768
806.564	1849
806.664	1784
806.765	3220
806.865	3115
806.966	1388
807.066	886
807.166	1850
807.267	2080
807.367	1208
807.468	1282
807.568	-132
807.668	1986
807.769	1974
807.869	246
807.969	1337
808.069	1225
808.170	948
808.270	1403
808.370	2261
808.470	3373
808.570	2039
808.670	773
808.770	1834
808.870	875
808.970	2332
809.070	982
809.170	812
809.271	1828
809.370	783
809.470	574
809.570	442
809.670	56
809.770	920
809.870	1958
809.970	1476
810.070	788
810.169	1645
810.269	-39
810.369	1388
810.469	368
810.568	380
810.668	275
810.768	534
810.867	1384
810.967	647
811.066	646
811.166	1433
811.265	1466
811.365	21
811.464	816
811.564	1633
811.663	1838
811.763	634
811.862	1227
811.962	1736
812.061	1000
812.160	944
812.260	644
812.359	1359
812.458	533
812.557	3148
812.657	2405
812.756	1847
812.855	757
812.954	870
813.053	1338
813.153	2182
813.252	850
813.351	839
813.450	707
813.549	939
813.648	705
813.747	67
813.846	1625
813.945	586
814.044	880
814.143	1222
814.242	1614
814.341	617
814.439	734
814.538	937
814.637	813
814.736	808
814.835	2140
814.933	770
815.032	2361
815.131	1555
815.229	2767
815.328	3919
815.427	1918
815.525	3043
815.624	2523
815.722	2305
815.821	2366
815.919	2968
816.018	2082
816.116	3377
816.215	1923
816.313	3413
816.412	3020
816.510	3437
816.609	4860
816.707	4111
816.805	3852
816.904	3688
817.002	3923
817.100	4883
817.198	5643
817.296	5457
817.395	6095
817.493	6586
817.591	6531
817.689	10596
817.787	12520
817.885	22155
817.983	38729
818.081	86339
818.179	211639
818.277	513935
818.375	356245
818.473	90901
818.571	36049
818.669	24850
818.767	22527
818.865	21951
818.963	27395
819.061	42412
819.158	74578
819.256	168169
819.354	410269
819.452	800930
819.549	436898
819.647	119731
819.745	50520
819.842	30725
819.940	22222
820.038	16056
820.135	13045
820.233	11729
820.330	7418
820.428	7146
820.525	6914
820.623	6374
820.720	5558
820.818	4835
820.915	5536
821.012	4714
821.110	3465
821.207	4889
821.304	3085
821.402	4506
821.499	4463
821.596	5972
821.693	5193
821.791	3768
821.888	5866
821.985	11717
822.082	8193
822.179	4548
822.276	2970
822.373	2653
822.470	2490
822.567	2377
822.664	1739
822.761	3498
822.858	2124
822.955	2371
823.052	2064
823.149	1498
823.246	2298
823.343	1737
823.440	2363
823.536	2337
823.633	1778
823.730	1281
823.827	1875
823.923	2405
824.020	2830
824.117	1042
824.213	1301
824.310	2342
824.407	977
824.503	2020
824.600	1060
824.696	1723
824.793	2446
824.889	1736
824.986	1573
825.082	934
825.179	2132
825.275	1550
825.371	1987
825.468	2213
825.564	-67
825.660	2823
825.757	2123
825.853	2300
825.949	374
826.045	1407
826.142	629
826.238	1177
826.334	2320
826.430	1070
826.526	809
826.622	1429
826.718	2068
826.814	1976
826.910	2948
827.006	352
827.102	-446
827.198	1962
827.294	1086
827.390	1063
827.486	1775
827.582	785
827.678	417
827.774	2454
827.869	-148
827.965	1737
828.061	259
828.157	586
828.252	1293
828.348	1361
828.444	1595
828.539	227
828.635	1542
828.731	1525
828.826	354
828.922	1481
829.017	1127
829.113	1832
829.208	150
829.304	826
829.399	2706
829.495	939
829.590	1449
829.685	363
829.781	1538
829.876	1581
829.971	1197
830.066	376
830.162	1537
830.257	1672
830.352	968
830.447	936
830.543	1331
830.638	456
830.733	1979
830.828	710
830.923	1633
831.018	1307
831.113	1978
831.208	1646
831.303	577
831.398	643
831.493	930
831.588	1671
831.683	-89
831.778	1441
831.873	495
831.967	2364
832.062	1224
832.157	38
832.252	1210
832.346	1267
832.441	2848
832.536	3481
832.631	8865
832.725	6266
832.820	1287
832.914	1001
833.009	233
833.104	2176
833.198	2490
833.293	1059
833.387	1896
833.482	1555
833.576	978
833.670	1242
833.765	1206
833.859	1193
833.954	2312
834.048	1245
834.142	1227
834.237	657
834.331	152
834.425	1117
834.519	-140
834.613	953
834.708	-150
834.802	512
834.896	412
834.990	860
835.084	1167
835.178	579
835.272	861
835.366	668
835.460	1094
835.554	1295
835.648	617
835.742	14
835.836	751
835.930	-597
836.024	966
836.117	1633
836.211	1084
836.305	3083
836.399	4401
836.493	706
836.586	2195
836.680	793
836.774	-139
836.867	1494
836.961	505
837.055	-358
837.148	-111
837.242	1071
837.335	627
837.429	-83
837.522	957
837.616	1446
837.709	4629
837.803	3100
837.896	950
837.989	1218
838.083	3302
838.176	7086
838.269	4299
838.363	1487
838.456	898
838.549	3664
838.642	5058
838.735	10656
838.829	3871
838.922	1107
839.015	398
839.108	417
839.201	317
839.294	82
839.387	1083
839.480	936
839.573	2634
839.666	3135
839.759	1270
839.852	127
839.945	606
840.038	165
840.131	784
840.223	362
840.316	825
840.409	675
840.502	-142
840.594	1735
840.687	-343
840.780	234
840.873	449
840.965	681
841.058	2830
841.150	6292
841.243	3124
841.336	1474
841.428	656
841.521	-333
841.613	254
841.706	758
841.798	662
841.890	1039
841.983	101
842.075	1653
842.167	477
842.260	794
842.352	2276
842.444	3955
842.537	8044
842.629	9614
842.721	1760
842.813	1384
842.905	-814
842.997	1460
843.090	1406
843.182	3703
843.274	7429
843.366	20176
843.458	33478
843.550	17957
843.642	2410
843.734	640
843.826	1065
843.918	2467
844.009	1819
844.101	451
844.193	332
844.285	637
844.377	1873
844.469	2014
844.560	2576
844.652	1860
844.744	869
844.835	868
844.927	516
845.019	1314
845.110	942
845.202	-373
845.293	89
845.385	340
845.476	655
845.568	1112
845.659	-274
845.751	776
845.842	270
845.934	307
846.025	-161
846.116	550
846.208	217
846.299	-148
846.390	916
846.482	1594
846.573	2251
846.664	2213
846.755	3785
846.846	3526
846.937	-868
847.029	173
847.120	694
847.211	739
847.302	1461
847.393	-292
847.484	656
847.575	-301
847.666	-62
847.757	-437
847.847	546
847.938	1451
848.029	561
848.120	128
848.211	-80
848.302	213
848.392	-2
848.483	627
848.574	-313
848.664	-23
848.755	1053
848.846	781
848.936	169
849.027	330
849.118	474
849.208	1955
849.299	3098
849.389	6182
849.480	12319
849.570	26088
849.661	52842
849.751	79373
849.841	23817
849.932	3527
850.022	1452
850.112	906
850.203	589
850.293	668
850.383	588
850.474	661
850.564	184
850.654	715
850.744	-776
850.834	858
850.924	654
851.014	697
851.104	821
851.194	426
851.284	1294
851.374	2366
851.464	1412
851.554	1350
851.644	1272
851.734	2486
851.824	1887
851.914	635
852.004	745
852.094	281
852.183	166
852.273	726
852.363	698
852.452	564
852.542	-62
852.632	1171
852.721	1539
852.811	368
852.901	1519
852.990	919
853.080	1747
853.169	1190
853.259	2397
853.348	2977
853.438	3276
853.527	5592
853.617	8542
853.706	17688
853.795	34095
853.885	79637
853.974	149195
854.063	284574
854.152	390213
854.242	125827
854.331	22435
854.420	10148
854.509	6970
854.598	5511
854.687	4141
854.777	3832
854.866	1726
854.955	2308
855.044	1727
855.133	1303
855.222	876
855.311	556
855.400	1538
855.488	855
855.577	927
855.666	1658
855.755	1375
855.844	1011
855.933	711
856.021	463
856.110	498
856.199	94
856.288	-145
856.376	127
856.465	443
856.554	558
856.642	229
856.731	904
856.819	507
856.908	791
856.996	431
857.085	793
857.173	158
857.262	573
857.350	427
857.438	113
857.527	377
857.615	-288
857.703	620
857.792	1160
857.880	405
857.968	410
858.056	343
858.145	895
858.233	-20
858.321	-49
858.409	-167
858.497	-715
858.585	-1126
858.673	159
858.761	-683
858.849	66
858.937	-387
859.025	188
859.113	697
859.201	532
859.289	1108
859.377	147
859.465	836
859.552	253
859.640	53
859.728	999
859.816	453
859.903	566
859.991	-339
860.079	516
860.166	318
860.254	382
860.342	714
860.429	-129
860.517	319
860.604	118
860.692	-58
860.779	-314
860.867	354
860.954	-351
861.042	1207
861.129	1107
861.216	202
861.304	-250
861.391	364
861.478	797
861.565	726
861.653	1085
861.740	-320
861.827	-161
861.914	84
862.001	375
862.089	284
862.176	-363
862.263	-142
862.350	631
862.437	49
862.524	160
862.611	243
862.698	323
862.785	918
862.871	1537
862.958	123
863.045	961
863.132	375
863.219	117
863.306	-679
863.392	1069
863.479	510
863.566	597
863.652	361
863.739	473
863.826	-93
863.912	613
863.999	-417
864.086	223
864.172	103
864.259	549
864.345	276
864.432	964
864.518	1042
864.604	978
864.691	344
864.777	788
864.863	1516
864.950	1833
865.036	1858
865.122	3808
865.209	3746
865.295	3850
865.381	3483
865.467	4146
865.553	6980
865.639	10183
865.726	19150
865.812	40474
865.898	75460
865.984	113530
866.070	220894
866.156	204146
866.242	46295
866.328	11535
866.414	5681
866.499	4900
866.585	3358
866.671	2984
866.757	2766
866.843	3405
866.928	1886
867.014	1884
867.100	3119
867.186	2576
867.271	2763
867.357	4874
867.442	5102
867.528	2578
867.614	1834
867.699	2104
867.785	2389
867.870	3430
867.956	4352
868.041	3046
868.127	2739
868.212	4229
868.297	2849
868.383	3295
868.468	4679
868.553	6439
868.639	6578
868.724	14115
868.809	10160
868.894	2112
868.979	2268
869.065	1924
869.150	1005
869.235	1457
869.320	1184
869.405	873
869.490	1276
869.575	920
869.660	1123
869.745	1546
869.830	1510
869.915	865
870.000	1395
870.085	1325
870.169	2071
870.254	1454
870.339	360
870.424	118
870.509	1485
870.593	1856
870.678	935
870.763	400
870.847	823
870.932	1752
871.016	1821
871.101	1041
871.186	344
871.270	668
871.355	283
871.439	1448
871.523	906
871.608	968
871.692	1014
871.777	1774
871.861	1117
871.945	121
872.030	1056
872.114	639
872.198	341
872.282	-261
872.367	577
872.451	856
872.535	321
872.619	927
872.703	519
872.787	1047
872.871	1057
872.955	832
873.039	362
873.123	1407
873.207	1302
873.291	592
873.375	1440
873.459	765
873.543	-158
873.627	580
873.711	1139
873.794	1029
873.878	1014
873.962	832
874.045	566
874.129	1815
874.137	1759
874.213	1202
874.245	1143
874.296	1039
874.352	1040
874.380	1045
874.460	688
874.464	673
874.547	448
874.568	662
874.631	1291
874.676	1133
874.714	1014
874.784	695
874.798	628
874.881	1710
874.892	1619
874.965	992
874.999	1429
875.048	2055
875.107	1441
875.131	1181
875.215	833
875.215	833
875.298	773
875.323	920
875.381	1262
875.430	1626
875.465	1923
875.538	1151
875.548	1029
875.631	489
875.646	435
875.714	221
875.753	308
875.798	380
875.861	337
875.881	337
875.964	948
875.968	954
876.047	1142
876.076	1034
876.130	808
876.183	1126
876.213	1282
876.291	2025
876.296	2075
876.379	1163
876.398	1149
876.462	1048
876.506	850
876.545	765
876.613	799
876.628	778
876.711	710
876.721	703
876.794	667
876.828	573
876.877	530
876.935	559
876.960	546
877.043	895
877.043	901
877.125	2377
877.150	2372
877.208	2143
877.258	2191
877.291	2317
877.365	2099
877.374	2062
877.456	1294
877.472	1403
877.539	1764
877.579	1650
877.622	1670
877.687	1992
877.704	2033
877.787	1439
877.794	1442
877.869	1522
877.901	1612
877.952	1719
878.008	1057
878.034	779
878.115	776
878.117	781
878.199	797
878.222	931
878.282	1202
878.329	1459
878.364	1487
878.437	1254
878.447	1254
878.529	472
878.544	519
878.611	888
878.651	1038
878.694	1184
878.758	1433
878.776	1449
878.858	1216
878.865	1249
878.941	1812
878.972	1590
879.023	1169
879.078	853
879.105	867
879.185	1870
879.187	1881
879.269	1736
879.292	1570
879.351	1095
879.399	916
879.433	941
879.506	1096
879.516	1118
879.598	1022
879.613	1076
879.680	800
879.720	680
879.762	955
879.827	789
879.844	711
879.926	1442
879.933	1453
880.007	1284
880.040	1397
880.089	1896
880.147	3170
880.171	3790
880.253	6677
880.254	6695
880.335	9236
880.360	10061
880.417	14063
880.467	21369
880.499	26083
880.574	29277
880.580	28683
880.662	9292
880.680	7047
880.744	2897
880.787	1294
880.825	881
880.893	1134
880.907	1175
880.989	633
881.000	722
881.070	1710
881.106	1511
881.152	826
881.213	832
881.233	995
881.315	856
881.319	883
881.396	880
881.426	390
881.478	117
881.532	1276
881.559	1576
881.639	808
881.641	800
881.722	1226
881.745	1127
881.803	990
881.852	1193
881.885	1130
881.958	1048
881.966	1082
882.047	1646
882.064	1613
882.129	2057
882.171	2962
882.210	3863
882.277	4897
882.291	4847
882.372	3160
882.383	2933
882.454	1370
882.489	996
882.535	1014
882.596	1331
882.616	1310
882.697	661
882.702	625
882.778	1116
882.808	1398
882.859	1156
882.914	678
882.940	703
883.020	1034
883.021	1036
883.102	842
883.127	831
883.183	1393
883.233	1579
883.264	1284
883.339	454
883.345	450
883.426	871
883.445	965
883.507	1034
883.551	938
883.587	1041
883.657	1551
883.668	1597
883.749	1689
883.763	1668
883.830	1429
883.869	1231
883.910	888
883.975	542
883.991	646
884.072	1190
884.081	1244
884.152	1168
884.187	1211
884.233	1420
884.292	1271
884.314	1015
884.394	307
884.398	271
884.475	825
884.504	1035
884.555	965
884.610	620
884.636	690
884.716	1709
884.716	1717
884.797	1495
884.821	1380
884.877	1329
884.927	1314
884.958	1249
885.033	840
885.038	821
885.118	833
885.139	759
885.199	865
885.244	1038
885.279	1169
885.350	1548
885.359	1588
885.439	1661
885.456	1644
885.520	1335
885.561	1238
885.600	1163
885.667	934
885.680	982
885.760	1343
885.773	1366
885.840	853
885.878	724
885.920	1076
885.984	1373
886.000	1261
886.080	919
886.089	830
886.160	955
886.195	1147
886.240	1395
886.300	1729
886.320	1769
886.400	1895
886.406	1893
886.480	1861
886.511	1913
886.560	2832
886.616	3651
886.640	3133
886.720	1362
886.722	1315
886.800	1572
886.827	1673
886.879	1472
886.932	1168
886.959	1449
887.038	2344
887.039	2343
887.119	1589
887.143	1291
887.198	1285
887.248	1268
887.278	1189
887.354	983
887.358	985
887.437	915
887.459	860
887.517	1200
887.564	1636
887.596	1639
887.669	1406
887.676	1381
887.755	1182
887.774	1054
887.835	1234
887.880	1576
887.914	1332
887.985	594
887.994	693
888.073	1607
888.090	1782
888.153	1633
888.195	1553
888.232	1544
888.300	1529
888.311	1536
888.391	1463
888.405	1457
888.470	1206
888.510	1029
888.549	985
888.615	969
888.628	1164
888.708	2187
888.720	2353
888.787	1602
888.825	1154
888.866	1123
888.930	1060
888.945	1008
889.024	766
889.035	726
889.103	1782
889.140	2335
889.182	1897
889.245	1249
889.261	1346
889.340	1790
889.349	1834
889.419	1541
889.454	1390
889.498	1445
889.559	1530
889.577	1436
889.656	997
889.664	955
889.735	1729
889.768	2094
889.814	1911
889.873	1658
889.978	2155
890.083	2042
890.187	861
890.292	1695
890.397	1550
890.501	1144
890.606	1963
890.710	1946
890.815	1972
890.919	1989
891.024	2517
891.128	1987
891.233	2072
891.337	1748
891.442	1398
891.546	1649
891.650	765
891.755	1119
891.859	3483
891.963	1856
892.068	1995
892.172	1339
892.276	787
892.380	1485
892.484	1780
892.589	2804
892.693	2781
892.797	1701
892.901	3059
893.005	1558
893.109	1577
893.213	1592
893.317	1850
893.421	915
893.525	1104
893.629	1145
893.733	2500
893.837	795
893.941	1556
894.045	1599
894.148	1641
894.252	845
894.356	3217
894.460	1682
894.564	2036
894.667	1430
894.771	1112
894.875	1029
894.978	2481
895.082	1039
895.186	1814
895.289	1891
895.393	1191
895.496	2233
895.600	1661
895.703	880
895.807	1431
895.910	1055
896.014	2124
896.117	1019
896.221	1722
896.324	1447
896.427	1989
896.531	831
896.634	1987
896.737	329
896.840	1370
896.944	1945
897.047	2111
897.150	985
897.253	1050
897.356	1405
897.460	2004
897.563	2056
897.666	2079
897.769	1471
897.872	1637
897.975	905
898.078	1499
898.181	1716
898.284	2061
898.387	1902
898.490	2150
898.593	1103
898.695	1369
898.798	2291
898.901	2329
899.004	1352
899.107	1960
899.209	874
899.312	2253
899.415	1117
899.518	1198
899.620	1176
899.723	2324
899.826	3312
899.928	4891
900.031	1439
900.133	1738
900.236	1894
900.338	2503
900.441	1343
900.543	1355
900.646	1755
900.748	2103
900.851	1056
900.953	1968
901.055	1393
901.158	2187
901.260	1231
901.362	2032
901.465	1157
901.567	1410
901.669	1387
901.771	2261
901.873	1175
901.976	1904
902.078	830
902.180	1232
902.282	1033
902.384	1611
902.486	1737
902.588	2121
902.690	2131
902.792	2016
902.894	1948
902.996	1525
903.098	945
903.200	892
903.302	1302
903.404	1614
903.505	687
903.607	1472
903.709	1316
903.811	1584
903.913	1371
904.014	1275
904.116	427
904.218	1706
904.319	1179
904.421	2220
904.523	985
904.624	1206
904.726	1317
904.827	2139
904.929	1132
905.030	1094
905.132	963
905.233	1351
905.335	717
905.436	973
905.537	1397
905.639	1688
905.740	925
905.841	2657
905.943	1414
906.044	1666
906.145	679
906.247	1396
906.348	889
906.449	1536
906.550	1008
906.651	1040
906.752	929
906.854	1036
906.955	983
907.056	1085
907.157	1830
907.258	1188
907.359	1410
907.460	948
907.561	891
907.662	955
907.762	1354
907.863	1914
907.964	1102
908.065	1479
908.166	1216
908.267	880
908.367	946
908.468	937
908.569	1515
908.670	2564
908.770	2018
908.871	2444
908.971	2959
909.072	2929
909.173	807
909.273	1397
909.374	1124
909.474	678
909.575	937
909.675	1665
909.776	1219
909.876	1290
909.977	1282
910.077	1372
910.177	1457
910.278	1596
910.378	1218
910.478	1393
910.579	869
910.679	778
910.779	1043
910.879	1769
910.980	547
911.080	1792
911.180	381
911.280	816
911.380	589
911.480	1319
911.580	2223
911.680	1784
911.780	2386
911.880	2048
911.980	1105
912.080	746
912.180	1251
912.280	1302
912.380	437
912.480	851
912.580	612
912.679	923
912.779	1421
912.879	1177
912.979	688
913.078	1589
913.178	1167
913.278	1474
913.377	758
913.477	840
913.577	369
913.676	1707
913.776	1063
913.875	1300
913.975	1139
914.074	1228
914.174	441
914.273	1265
914.373	1959
914.472	1618
914.572	789
914.671	597
914.770	1338
914.870	723
914.969	1232
915.068	284
915.167	373
915.267	1315
915.366	1394
915.465	1665
915.564	1491
915.663	1944
915.763	-187
915.862	1094
915.961	1039
916.060	346
916.159	1434
916.258	992
916.357	1309
916.456	1729
916.555	803
916.654	2200
916.752	772
916.851	1341
916.950	1186
917.049	1451
917.148	383
917.247	1571
917.345	656
917.444	668
917.543	878
917.642	1037
917.740	728
917.839	657
917.937	1448
918.036	2112
918.135	919
918.233	1636
918.332	1388
918.430	1426
918.529	759
918.627	1268
918.726	1165
918.824	972
918.923	847
919.021	665
919.119	910
919.218	1066
919.316	136
919.414	1428
919.512	-263
919.611	1184
919.709	1777
919.807	854
919.905	2050
920.003	1122
920.102	939
920.200	1893
920.298	2112
920.396	1567
920.494	900
920.592	938
920.690	881
920.788	1077
920.886	1407
920.984	1082
921.082	533
921.180	2177
921.277	1456
921.375	2454
921.473	1375
921.571	1245
921.669	2227
921.766	1059
921.864	2139
921.962	2324
922.060	1464
922.157	1516
922.255	1411
922.352	1376
922.450	2070
922.548	2023
922.645	2285
922.743	2851
922.840	2602
922.938	3108
923.035	3083
923.133	3608
923.230	3246
923.327	4521
923.425	3290
923.522	3402
923.619	2896
923.717	3112
923.814	3299
923.911	2807
924.008	3656
924.106	3116
924.203	2287
924.300	3246
924.397	2577
924.494	4551
924.591	3306
924.688	2905
924.786	2921
924.883	2780
924.979	2533
925.077	2978
925.173	2380
925.270	3341
925.367	3080
925.464	3703
925.561	3298
925.658	4825
925.755	4621
925.852	4259
925.948	4233
926.045	4310
926.142	3998
926.239	3912
926.335	3684
926.432	3499
926.529	4451
926.625	4687
926.722	2814
926.818	3683
926.915	3446
927.011	3683
927.108	2370
927.204	3456
927.301	2516
927.397	2693
927.494	2384
927.590	2554
927.687	2509
927.783	3092
927.879	2928
927.976	2762
928.072	2746
928.168	3160
928.264	1471
928.361	2700
928.457	2544
928.553	2366
928.649	3009
928.745	2558
928.841	1963
928.937	2745
929.033	2275
929.129	2172
929.225	2415
929.321	2551
929.417	2145
929.513	2692
929.609	2632
929.705	2547
929.801	2552
929.897	1769
929.993	1758
930.089	3080
930.184	2210
930.280	2999
930.376	2555
930.471	2081
930.567	1920
930.663	3194
930.758	1961
930.854	3361
930.950	1321
931.045	2113
931.141	2293
931.236	3018
931.332	1888
931.427	1507
931.523	2411
931.618	2786
931.714	1241
931.809	2141
931.905	1724
932.000	1688
932.095	947
932.191	2815
932.286	1719
932.381	1994
932.476	1205
932.572	2686
932.667	1613
932.762	1538
932.857	2622
932.952	2608
933.047	1629
933.142	1961
933.237	1414
933.332	2660
933.427	2405
933.522	1017
933.617	1221
933.712	2043
933.807	2994
933.902	2651
933.997	2180
934.092	1742
934.187	984
934.282	2632
934.376	2363
934.471	2624
934.566	1276
934.661	2392
934.755	1429
934.850	2232
934.945	1752
935.039	1902
935.134	1621
935.228	2618
935.323	3096
935.417	1456
935.512	1236
935.606	2048
935.701	2099
935.795	2883
935.890	2027
935.984	1501
936.079	1599
936.173	2217
936.267	1981
936.362	2113
936.456	1301
936.550	2271
936.644	1382
936.738	1574
936.833	1265
936.927	1703
937.021	664
937.115	1784
937.209	1057
937.303	3169
937.397	864
937.491	1372
937.585	1610
937.679	2087
937.773	1347
937.867	1154
937.961	955
938.055	2331
938.149	1604
938.243	2187
938.337	1370
938.430	1755
938.524	1884
938.618	2241
938.712	2401
938.805	1918
938.899	1344
938.993	852
939.086	2548
939.180	2510
939.274	2786
939.367	2564
939.461	1746
939.554	1938
939.648	765
939.741	1700
939.835	1393
939.928	2733
940.022	1264
940.115	2341
940.208	1360
940.302	2097
940.395	1403
940.488	1400
940.582	1827
940.675	820
940.768	526
940.861	3019
940.954	2015
941.048	1384
941.141	1440
941.234	2597
941.327	3516
941.420	5881
941.513	2692
941.606	1881
941.699	2439
941.792	1541
941.885	1693
941.978	1769
942.071	352
942.164	1097
942.257	681
942.349	914
942.442	878
942.535	961
942.628	1524
942.721	2080
942.813	120
942.906	2203
942.999	797
943.091	1701
943.184	889
943.277	297
943.369	1800
943.462	1228
943.554	1029
943.647	226
943.739	822
943.832	918
943.924	114
944.017	1033
944.109	127
944.201	1227
944.294	78
944.386	769
944.478	609
944.571	1501
944.663	314
944.755	1373
944.847	577
944.940	1624
945.032	-523
945.124	806
945.216	1018
945.308	1665
945.400	1103
945.492	1868
945.584	1500
945.676	1681
945.768	676
945.860	1746
945.952	824
946.044	2016
946.136	305
946.228	1294
946.320	543
946.412	1115
946.503	612
946.595	1958
946.687	1023
946.779	869
946.870	638
946.962	1191
947.054	736
947.145	1772
947.237	594
947.329	1209
947.420	373
947.512	585
947.603	219
947.695	1075
947.786	784
947.878	477
947.969	1005
948.061	267
948.152	743
948.243	143
948.335	705
948.426	895
948.517	330
948.609	1060
948.700	554
948.791	732
948.882	372
948.973	913
949.065	-177
949.156	989
949.247	-547
949.338	686
949.429	-547
949.520	716
949.611	-290
949.702	655
949.793	367
949.884	423
949.975	120
950.066	-302
950.157	-500
950.247	1097
950.338	904
950.429	1035
950.520	-597
950.611	1424
950.701	423
950.792	1559
950.883	1316
950.973	1428
951.064	829
951.155	1072
951.245	860
951.336	1100
951.427	-432
951.517	1744
951.608	1748
951.698	765
951.788	447
951.879	908
951.969	-79
952.060	1434
952.150	73
952.240	1702
952.331	-668
952.421	1826
952.511	144
952.602	783
952.692	418
952.782	507
952.872	-402
952.962	268
953.052	-284
953.143	-631
953.233	454
953.323	330
953.413	210
953.503	793
953.593	414
953.683	984
953.773	-119
953.863	219
953.953	294
954.042	1188
954.132	467
954.222	1570
954.312	550
954.402	808
954.492	1486
954.581	3450
954.671	1608
954.761	192
954.850	419
954.940	927
955.030	619
955.119	-282
955.209	-14
955.298	155
955.388	795
955.477	1450
955.567	-492
955.656	899
955.746	202
955.835	1096
955.925	742
956.014	568
956.103	-86
956.193	959
956.282	132
956.371	1326
956.461	-206
956.550	717
956.639	-116
956.728	541
956.817	1169
956.906	1146
956.995	1123
957.085	-266
957.174	201
957.263	1135
957.352	-135
957.441	543
957.530	67
957.619	1703
957.708	538
957.796	677
957.885	-73
957.974	61
958.063	854
958.152	-390
958.241	2
958.329	343
958.418	185
958.507	-26
958.596	1202
958.684	-388
958.773	866
958.861	1103
958.950	-238
959.039	928
959.127	289
959.216	769
959.304	-111
959.393	13
959.481	506
959.570	863
959.658	-247
959.746	815
959.835	2124
959.923	4582
960.011	1623
960.100	1310
960.188	509
960.276	510
960.365	-227
960.453	371
960.541	-371
960.629	930
960.717	312
960.805	96
960.893	366
960.981	-467
961.069	1020
961.158	730
961.245	1449
961.333	1149
961.421	-291
961.509	663
961.597	660
961.685	130
961.773	-487
961.861	162
961.949	778
962.036	291
962.124	679
962.212	1110
962.299	-281
962.387	35
962.475	163
962.562	36
962.650	883
962.738	284
962.825	112
962.913	1330
963.000	278
963.088	913
963.175	-28
963.263	1516
963.350	889
963.438	1079
963.525	1935
963.612	4660
963.700	9878
963.787	22073
963.874	8250
963.962	1851
964.049	579
964.136	709
964.223	834
964.310	1007
964.398	291
964.485	1058
964.572	1538
964.659	3312
964.746	2224
964.833	278
964.920	-248
965.007	-190
965.094	276
965.181	659
965.268	610
965.355	428
965.441	-193
965.528	684
965.615	659
965.702	285
965.789	-278
965.875	256
965.962	216
966.049	100
966.136	817
966.222	319
966.309	1018
966.395	1057
966.482	385
966.569	604
966.655	180
966.742	1413
966.828	808
966.915	145
967.001	420
967.087	344
967.174	776
967.260	2433
967.347	2896
967.433	7509
967.519	14651
967.605	4935
967.692	94
967.778	688
967.864	-785
967.950	169
968.036	-777
968.123	176
968.209	-238
968.295	161
968.381	1700
968.467	-169
968.553	-839
968.639	903
968.725	700
968.811	3666
968.897	2303
968.983	1185
969.069	-579
969.154	1292
969.240	236
969.326	-160
969.412	-1006
969.497	148
969.583	-641
969.669	974
969.755	-302
969.840	112
969.926	637
970.012	1488
970.097	2049
970.183	1119
970.268	1612
970.354	2702
970.439	4952
970.525	9752
970.610	2995
970.696	1090
970.781	-6
970.866	120
970.952	1009
971.037	54
971.122	259
971.208	930
971.293	-618
971.378	-1011
971.463	-131
971.549	1211
971.634	-274
971.719	390
971.804	1089
971.889	2457
971.974	19
972.059	-105
972.144	432
972.229	854
972.314	-245
972.399	1259
972.484	-137
972.569	485
972.654	892
972.739	5246
972.824	3851
972.908	1195
972.993	-485
973.078	-264
973.163	-24
973.247	847
973.332	-879
973.417	1808
973.501	-477
973.586	444
973.671	-24
973.755	1266
973.840	897
973.924	787
974.009	15
974.093	662
974.178	2560
974.262	3596
974.346	3515
974.431	995
974.515	901
974.600	210
974.684	894
974.768	-262
974.852	1009
974.937	-670
975.021	245
975.105	231
975.189	-597
975.273	1349
975.358	-446
975.442	44
975.526	24
975.610	-488
975.694	-1611
975.778	1474
975.862	61
975.946	-1322
976.030	1045
976.114	-452
976.198	-165
976.281	-164
976.365	655
976.449	200
976.533	387
976.617	-138
976.700	135
976.784	815
976.868	-573
976.951	3221
977.035	799
977.119	1219
977.202	-23
977.286	990
977.369	-499
977.453	1529
977.536	-693
977.620	275
977.703	191
977.787	198
977.870	979
977.953	1212
978.037	-463
978.120	2384
978.203	2071
978.287	5178
978.370	903
978.453	1426
978.536	137
978.620	1813
978.703	2129
978.786	1029
978.869	-414
978.952	-673
979.035	528
979.118	474
979.201	-1344
979.284	441
979.367	-1035
979.450	623
979.533	-1058
979.616	-336
979.699	-94
979.782	570
979.865	137
979.948	492
980.030	-585
980.113	40
980.196	-617
980.279	1314
980.361	-195
980.444	-281
980.526	97
980.609	1063
980.692	-667
980.774	283
980.857	-1079
980.939	1583
981.022	-683
981.104	-1084
981.187	-133
981.269	926
981.352	-93
981.434	-492
981.516	-1047
981.599	341
981.681	11
981.763	337
981.846	-157
981.928	-306
982.010	-1157
982.092	-760
982.174	-331
982.256	-467
982.339	-377
982.421	337
982.503	-482
982.585	-489
982.667	-738
982.749	-371
982.831	-238
982.913	-430
982.995	656
983.077	-552
983.158	937
983.240	-1038
983.322	99
983.404	1109
983.486	-429
983.568	435
983.649	82
983.731	508
983.813	-648
983.894	960
983.976	-849
984.058	-303
984.139	819
984.221	-1065
984.302	159
984.384	231
984.465	-723
984.547	-94
984.628	-1227
984.710	933
984.791	-491
984.872	-593
984.954	97
985.035	559
985.116	-429
985.198	-41
985.279	-77
985.360	-937
985.441	-817
985.522	202
985.604	-1039
985.685	-785
985.766	587
985.847	1320
985.928	-1411
986.009	-577
986.090	-890
986.171	411
986.252	32
986.333	372
986.414	-434
986.495	859
986.576	-31
986.656	57
986.737	-350
986.818	-141
986.899	-1158
986.980	215
987.060	498
987.141	-387
987.222	424
987.302	818
987.383	-430
987.464	-133
987.544	-95
987.625	-624
987.705	94
987.786	47
987.866	-106
987.947	393
988.027	-371
988.108	-795
988.188	441
988.268	-30
988.349	-35
988.429	4
988.509	-257
988.589	-511
988.670	-1205
988.750	1830
988.830	-241
988.910	1586
988.990	-613
989.070	69
989.151	-631
989.231	-176
989.311	473
989.391	-749
989.471	-667
989.551	-305
989.631	-538
989.711	732
989.791	-1382
989.870	-178
989.950	448
990.030	-344
990.110	-612
990.190	-1054
990.269	-781
990.349	-665
990.429	-569
990.509	-248
990.588	-242
990.668	-270
990.747	-403
990.827	-327
990.907	-35
990.986	-526
991.066	-876
991.145	-1029
991.225	-25
991.304	-135
991.383	-115
991.463	292
991.542	-373
991.622	-147
991.701	-1082
991.780	-241
991.859	-628
991.939	-731
992.018	-1063
992.097	208
992.176	-1917
992.256	-546
992.335	-1883
992.414	366
992.493	-537
992.572	-1002
992.651	1139
992.730	-686
992.809	-623
992.888	-533
992.967	-909
993.046	-232
993.125	-1390
993.203	172
993.282	-748
993.361	-77
993.440	-784
993.519	-1559
993.597	-259
993.676	-742
993.755	482
993.834	-31
993.912	-1936
993.991	302
994.069	-1163
994.148	-582
994.226	-803
994.305	-96
994.384	-1045
994.462	1068
994.540	-1977
994.619	-1403
994.697	-1109
994.776	-594
994.854	-1041
994.932	-1540
995.011	-1004
995.089	-992
995.167	-192
995.245	8
995.324	-1194
995.402	-139
995.480	-1333
995.558	-403
995.636	-2412
995.714	-831
995.792	-424
995.870	-1339
995.948	-433
996.026	-380
996.104	-2133
996.182	246
996.260	-87
996.338	-765
996.416	-2105
996.494	-1342
996.572	-316
996.649	-78
996.727	-2210
996.805	36
996.883	-2204
996.960	-1523
997.038	-970
997.116	-920
997.193	-1163
997.271	-894
997.348	-1371
997.426	-803
997.504	-1071
997.581	-260
997.658	-544
997.736	-1971
997.813	-2214
997.891	-470
997.968	-1803
998.046	459
998.123	69
998.200	-330
998.277	-1807
998.355	-984
998.432	-2088
998.509	-615
998.586	-684
998.663	-766
998.741	-1134
998.818	-1757
998.895	-1690
998.972	-257
999.049	-1037
999.126	-807
999.203	-641
999.280	-1340
999.357	-1143
999.434	-189
999.511	-1018
999.587	145
999.664	-1490
999.741	298
999.818	-283
999.895	-1244
999.971	-1444
1000.048	-1616
1000.125	404
1000.202	-1613
1000.278	-560
1000.355	-1009
1000.431	-1283
1000.508	-1332
1000.584	-1280
1000.661	-442
1000.738	-2000
1000.814	-710
1000.890	-882
1000.967	-690
1001.043	-590
1001.120	-1465
1001.196	-1160
1001.272	-795
1001.349	-877
1001.425	-347
1001.501	-1098
1001.577	-1047
1001.654	-1698
1001.730	-658
1001.806	-1598
1001.882	-1412
1001.958	-1362
1002.034	176
1002.110	-76
1002.186	-1729
1002.262	-2323
1002.338	-974
1002.414	-1108
1002.490	-603
1002.566	-1200
1002.642	-1515
1002.718	-758
1002.794	-550
1002.870	-698
1002.945	-1456
1003.021	-1586
1003.097	-818
1003.173	-917
1003.248	-745
1003.324	-1891
1003.400	-97
1003.475	-1843
1003.551	-371
1003.626	-1812
1003.702	-241
1003.777	-1740
1003.853	-1330
1003.928	-1405
1004.004	-921
1004.079	-627
1004.155	-1427
1004.230	-2314
1004.305	-798
1004.381	-1819
1004.456	-763
1004.531	-1501
1004.607	-565
1004.682	-2152
1004.757	-1423
1004.832	-1589
1004.907	-792
1004.982	-1345
1005.057	-1181
1005.133	-2186
1005.208	-663
1005.283	-2449
1005.358	-761
1005.433	-2021
1005.508	-1253
1005.583	-1690
1005.657	-1018
1005.732	-599
1005.807	-1595
1005.882	-1915
1005.957	-806
1006.032	-570
1006.106	-1468
1006.181	-1775
1006.256	-1043
1006.331	-1205
1006.405	-1829
1006.480	-1992
1006.554	-1039
1006.629	-1938
1006.704	-1123
1006.778	-1184
1006.853	-985
1006.927	-1444
1007.002	-1818
1007.076	-1568
1007.150	-1971
1007.225	-951
1007.299	-1002
1007.373	-1894
1007.448	-1816
1007.522	-105
1007.596	-830
1007.671	-2037
1007.745	-662
1007.819	-1983
1007.893	-614
1007.967	-1627
1008.041	-1729
1008.115	-867
1008.190	-1415
1008.264	-1599
1008.338	-1172
1008.412	-2205
1008.486	-1182
1008.560	-1417
1008.633	-1723
1008.707	-1825
1008.781	-642
1008.855	-1457
1008.929	-1677
1009.003	-1981
1009.076	-1698
1009.150	-1661
1009.224	-823
1009.298	-1459
1009.371	-1696
1009.445	-1013
1009.519	-1610
1009.592	-1907
1009.666	-1539
1009.739	-1621
1009.813	-1739
1009.886	-1066
1009.960	-2320
1010.033	-1958
1010.107	-1144
1010.180	-2597
1010.253	-803
1010.327	-2139
1010.400	-1478
1010.473	-1486
1010.547	-563
1010.620	-2001
1010.693	-792
1010.766	-2070
1010.840	-907
1010.913	-1645
1010.986	-1330
1011.059	-2206
1011.132	-1342
1011.205	-885
1011.278	-991
1011.351	-1731
1011.424	-771
1011.497	-1427
1011.570	-1938
1011.643	-1741
1011.716	-1923
1011.789	-1889
1011.862	-1560
1011.934	-943
1012.007	-1728
1012.080	-1711
1012.153	-933
1012.225	-1021
1012.298	-1699
1012.371	-2065
1012.443	-1011
1012.516	-2159
1012.588	-1093
1012.661	-1725
1012.733	-1960
1012.806	-1083
1012.879	-940
1012.951	-2101
1013.023	-1629
1013.096	-1852
1013.168	-1136
1013.241	-918
1013.313	-1629
1013.385	-2277
1013.458	-902
1013.530	-1030
1013.602	-1610
1013.674	-1625
1013.746	-1377
1013.819	-1891
1013.891	-1485
1013.963	-1642
1014.035	-793
1014.107	-1496
1014.179	-661
1014.251	-1958
1014.323	-1130
1014.395	-2292
1014.467	-1174
1014.539	-1049
1014.611	-673
1014.683	-1780
1014.754	-530
1014.826	-2199
1014.898	-1006
1014.970	-2747
1015.042	-347
1015.113	-819
1015.185	-1846
1015.257	-1697
1015.328	-624
1015.400	-2115
1015.471	-1201
1015.543	-2739
1015.615	-821
1015.686	-2667
1015.757	-1412
1015.829	-1943
1015.901	-1153
1015.972	-2103
1016.043	-1971
1016.115	-941
1016.186	-900
1016.257	-2616
1016.328	-374
1016.400	-818
1016.471	-2765
1016.542	-1747
1016.613	-1195
1016.685	-1947
1016.756	-282
1016.827	-2076
1016.898	-2264
1016.969	-1693
1017.040	-1157
1017.111	-1183
1017.182	-1125
1017.253	-1960
1017.324	-2004
1017.395	-1626
1017.466	-1497
1017.537	-1655
1017.608	-2221
1017.678	-2166
1017.749	-1644
1017.820	-1861
1017.891	-2270
1017.961	-1984
1018.032	-1492
1018.103	-1705
1018.173	-1040
1018.244	-1886
1018.315	-1660
1018.385	-1087
1018.456	-2416
1018.526	-1857
1018.597	-1406
1018.667	-1457
1018.738	-1725
1018.808	-1737
1018.878	-1448
1018.949	-1959
1019.019	-1546
1019.089	-1397
1019.160	-1848
1019.230	-2317
1019.300	-742
1019.371	-2022
1019.441	-835
1019.511	-1706
1019.581	-1286
1019.651	-2407
1019.721	-1121
1019.791	-1834
1019.861	-1476
1019.931	-1841
1020.001	-1703
1020.071	-1733
1020.141	-1348
1020.211	-1935
1020.281	-1459
1020.351	-1509
1020.421	-1124
1020.491	-1458
1020.560	-1480
1020.630	-2253
1020.700	-1032
1020.770	-1993
1020.839	-2748
1020.909	-2120
1020.979	-2009
1021.048	-1752
1021.118	-1615
1021.187	-1996
1021.257	-1068
1021.326	-1942
1021.396	-1338
1021.465	-1536
1021.535	-1330
1021.604	-2081
1021.674	-1028
1021.743	-1530
1021.812	-1299
1021.882	-1685
1021.951	-1644
1022.020	-1739
1022.089	-848
1022.159	-2493
1022.228	-1433
1022.297	-2125
1022.366	-798
1022.435	-1120
1022.504	-1225
1022.573	-2402
1022.642	-1220
1022.711	-2217
1022.781	-1559
1022.849	-1877
1022.918	-1441
1022.987	-1884
1023.056	-1089
1023.125	-1877
1023.194	-1593
1023.263	-1106
1023.331	-979
1023.400	-2335
1023.469	-1705
1023.538	-1760
1023.606	-1540
1023.675	-2187
1023.744	-1319
1023.812	-2171
1023.881	-1378
1023.949	-2095
1024.018	-1885
1024.086	-2352
1024.155	-1347
1024.223	-2324
1024.292	8
1024.360	-1839
1024.429	-1345
1024.497	-2797
1024.565	-1861
1024.634	-1844
1024.702	-1066
1024.770	-2171
1024.838	-2679
1024.907	-1244
1024.975	-820
1025.043	-1365
1025.111	-1982
1025.179	-1488
1025.247	-2108
1025.315	-2485
1025.383	-1350
1025.451	-2452
1025.519	-1197
1025.587	-2098
1025.655	-1273
1025.723	-1837
1025.791	-951
1025.859	-1844
1025.927	-1378
1025.995	-1987
1026.062	-1441
1026.130	-1979
1026.198	-2208
1026.266	-2468
1026.333	-1158
1026.401	-1094
1026.469	-1486
1026.536	-1828
1026.604	-1933
1026.671	-1560
1026.739	-1816
1026.806	-2491
1026.874	-1365
1026.941	-1448
1027.009	-889
1027.076	-1902
1027.144	-752
1027.211	-2262
1027.278	-1740
1027.345	-2073
1027.413	-1556
1027.480	-2390
1027.547	-1662
1027.614	-2217
1027.682	-2032
1027.749	-1887
1027.816	-1470
1027.883	-1876
1027.950	-703
1028.017	-1738
1028.084	-1160
1028.151	-2848
1028.218	-1157
1028.285	-1600
1028.352	-1730
1028.419	-2514
1028.486	-1797
1028.553	-1647
1028.619	-2009
1028.686	-1869
1028.753	-1095
1028.820	-2135
1028.886	-1513
1028.953	-1460
1029.020	-1786
1029.086	-2869
1029.153	-1721
1029.220	-1881
1029.286	-1220
1029.353	-888
1029.419	-1021
1029.486	-1888
1029.552	-1453
1029.619	-2055
1029.685	-2060
1029.751	-2352
1029.818	-1179
1029.884	-2671
1029.951	-44
1030.017	-2073
1030.083	-710
1030.149	-1408
1030.216	-1975
1030.282	-2218
1030.348	-1301
1030.414	-2021
1030.480	-1370
1030.546	-2584
1030.612	-1008
1030.678	-1961
1030.744	-2062
1030.810	-1575
1030.876	-1605
1030.942	-1688
1031.008	-1594
1031.074	-1680
1031.140	-1385
1031.206	-1195
1031.272	-1533
1031.337	-2267
1031.403	-1435
1031.469	-2300
1031.534	-1662
1031.600	-2174
1031.666	-1507
1031.731	-2280
1031.797	-1330
1031.863	-1658
1031.928	-1469
1031.994	-1825
1032.059	-1022
1032.125	-1711
1032.190	-1669
1032.256	-2163
1032.321	-1571
1032.386	-1270
1032.452	-782
1032.517	-1411
1032.582	-2284
1032.647	-1231
1032.713	-1364
1032.778	-2294
1032.843	-1473
1032.908	-2069
1032.974	-1524
1033.039	-2579
1033.104	-1176
1033.169	-2496
1033.234	-1249
1033.299	-1349
1033.364	-716
1033.429	-1491
1033.494	-767
1033.559	-1810
1033.624	-1391
1033.688	-1507
1033.753	-1483
1033.818	-2053
1033.883	-384
1033.948	-1192
1034.013	-865
1034.077	-1341
1034.142	-504
1034.207	-468
1034.271	581
1034.336	549
1034.400	461
1034.465	-250
1034.530	-238
1034.594	-1660
1034.658	-253
1034.723	-1803
1034.787	-1369
1034.852	-1652
1034.916	-1549
1034.981	-2280
1035.045	-1439
1035.109	-1570
1035.173	-828
1035.238	-2482
1035.302	-2038
1035.366	-1459
1035.430	-1173
1035.495	-2493
1035.559	-2379
1035.623	-1935
1035.687	-2039
1035.751	-2283
1035.815	-1772
1035.879	-1833
1035.943	-1376
1036.007	-2179
1036.071	-1486
1036.135	-1779
1036.198	-1272
1036.262	-2943
1036.326	-1199
1036.390	-2171
1036.454	-1040
1036.517	-1405
1036.581	-27
1036.645	53
1036.709	291
1036.772	-927
1036.836	-1088
1036.900	-1403
1036.963	-1635
1037.026	-2340
1037.090	-1785
1037.154	-2418
1037.217	-1282
1037.280	-2636
1037.344	-2184
1037.407	-3039
1037.471	-1162
1037.534	-1805
1037.597	-1804
1037.661	-2249
1037.724	-1685
1037.787	-1891
1037.850	-1080
1037.913	-2022
1037.977	-2203
1038.040	-2435
1038.103	-1481
1038.166	-2382
1038.229	-1334
1038.292	-3238
1038.355	-1201
1038.418	-2252
1038.481	-677
1038.544	-1573
1038.607	-1767
1038.670	-2171
1038.732	-1615
1038.795	-2127
1038.858	-1475
1038.921	-1377
1038.984	-614
1039.046	-1817
1039.109	-2089
1039.172	-1689
1039.234	-1532
1039.297	-1783
1039.360	-2063
1039.422	-2191
1039.485	-1362
1039.547	-2163
1039.610	-1824
1039.672	-2745
1039.734	-2302
1039.797	-2402
1039.859	-2250
1039.922	-2272
1039.984	-1678
1040.046	-2724
1040.109	-1429
1040.171	-2352
1040.233	-2047
1040.295	-2172
1040.358	-2294
1040.420	-2736
1040.482	-2713
1040.544	-2173
1040.606	-1982
1040.668	-2420
1040.730	-1787
1040.792	-2947
1040.854	-2858
1040.916	-2760
1040.978	-2276
1041.040	-2011
1041.102	-2204
1041.164	-1846
1041.225	-1774
1041.287	-2272
1041.349	-1991
1041.411	-2092
1041.472	-1658
1041.534	-2188
1041.596	-2356
1041.657	-2231
1041.719	-1771
1041.781	-2747
1041.842	-1632
1041.904	-1993
1041.965	-1989
1042.027	-2951
1042.088	-1815
1042.150	-2349
1042.211	-2211
1042.272	-2791
1042.334	-2088
1042.395	-2259
1042.456	-1715
1042.518	-2118
1042.579	-1842
1042.640	-2702
1042.701	-2156
1042.763	-2210
1042.824	-1273
1042.885	-2879
1042.946	-2411
1043.007	-2527
1043.068	-2390
1043.129	-2847
1043.190	-2498
1043.251	-2190
1043.312	-1715
1043.373	-1871
1043.434	-2303
1043.495	-2112
1043.556	-1399
1043.616	-1958
1043.677	-2460
1043.738	-2982
1043.799	-2433
1043.859	-2394
1043.920	-1930
1043.981	-2389
1044.041	-1877
1044.102	-2236
1044.162	-1978
1044.223	-3317
1044.284	-1994
1044.344	-1924
1044.405	-2370
1044.465	-2540
1044.525	-1324
1044.586	-2904
1044.646	-2089
1044.707	-1779
1044.767	-2054
1044.827	-2699
1044.887	-2621
1044.948	-2381
1045.008	-1215
1045.068	-2715
1045.128	-1136
1045.188	-2452
1045.249	-1035
1045.309	-1706
1045.369	-1806
1045.429	-2736
1045.489	-1780
1045.549	-2498
1045.609	-1493
1045.669	-2922
1045.729	-1690
1045.789	-1648
1045.848	-1585
1045.908	-1096
1045.968	-1256
1046.028	-2205
1046.088	-1401
1046.147	-982
1046.207	-831
1046.267	-1793
1046.326	-1689
1046.386	-2040
1046.446	-974
1046.505	-1575
1046.565	-1525
1046.624	-1262
1046.684	-1161
1046.743	-1119
1046.803	-409
1046.862	-1098
1046.922	0
