'Start Wavelength	183.907
'End Wavelength	1046.922
'Gate Delay	5.000
'Gate Width (ms)	1.050
'Laser Output Level	0.000
'X Position	0.000
'Y Position	0.000
'Z Position	0.000
'Grid Point Number	1.000
'Shot Number	100.000
183.907	644.000
183.977	-353.000
184.047	143
184.116	315
184.186	178
184.256	221
184.325	19
184.395	-605
184.465	859
184.534	263
184.604	-329
184.674	579
184.743	116
184.813	803
184.883	507
184.952	247
185.022	210
185.092	311
185.161	248
185.231	717
185.301	166
185.370	907
185.440	-174
185.509	-79
185.579	99
185.649	366
185.718	620
185.788	1029
185.857	121
185.927	190
185.996	189
186.066	-175
186.136	-223
186.205	927
186.275	494
186.344	469
186.414	35
186.483	6
186.553	874
186.622	1749
186.692	958
186.761	-42
186.831	442
186.900	-498
186.970	-188
187.039	1280
187.109	1809
187.178	585
187.248	322
187.317	589
187.387	128
187.456	1499
187.526	893
187.595	1795
187.664	-356
187.734	505
187.803	398
187.873	1049
187.942	1987
188.012	1227
188.081	840
188.150	409
188.220	2225
188.289	2725
188.358	1240
188.428	729
188.497	1175
188.567	1231
188.636	850
188.705	506
188.775	655
188.844	1127
188.913	1300
188.983	1264
189.052	641
189.121	536
189.191	666
189.260	2115
189.329	1820
189.399	782
189.468	647
189.537	430
189.606	194
189.676	1335
189.745	355
189.814	1298
189.883	1544
189.953	1283
190.022	2423
190.091	3894
190.161	5698
190.230	1702
190.299	541
190.368	1154
190.437	963
190.507	1144
190.576	807
190.645	823
190.714	75
190.783	361
190.853	761
190.922	1109
190.991	461
191.060	681
191.129	129
191.198	1233
191.268	-284
191.337	345
191.406	1226
191.475	985
191.544	172
191.613	483
191.682	942
191.752	1250
191.821	1356
191.890	1271
191.959	1282
192.028	458
192.097	820
192.166	893
192.235	188
192.304	967
192.373	-227
192.442	457
192.511	719
192.580	715
192.650	701
192.719	767
192.788	670
192.857	1335
192.926	1040
192.995	1482
193.064	1324
193.133	3002
193.202	3294
193.271	2959
193.340	2306
193.409	2634
193.478	2915
193.547	4089
193.615	5202
193.684	5584
193.753	2845
193.822	2218
193.891	1397
193.960	1798
194.029	1999
194.098	1379
194.167	675
194.236	2131
194.305	1666
194.374	1275
194.443	822
194.512	1867
194.580	1784
194.649	2231
194.718	2371
194.787	1666
194.856	555
194.925	1055
194.994	1847
195.062	2294
195.131	2115
195.200	2238
195.269	3305
195.338	2839
195.407	1424
195.475	1788
195.544	1832
195.613	1795
195.682	1928
195.751	3019
195.819	2460
195.888	3077
195.957	3174
196.026	3540
196.094	2796
196.163	2872
196.232	3121
196.301	1931
196.369	2211
196.438	2481
196.507	1752
196.576	1404
196.644	563
196.713	1236
196.782	640
196.850	2465
196.919	1381
196.988	2042
197.056	564
197.125	2348
197.194	1307
197.262	1482
197.331	696
197.400	1326
197.468	1230
197.537	1499
197.606	1754
197.674	3073
197.743	5700
197.812	3058
197.880	5592
197.949	4529
198.017	5088
198.086	3834
198.155	1805
198.223	2643
198.292	6927
198.360	3445
198.429	1550
198.497	1901
198.566	4132
198.635	7016
198.703	3272
198.772	2707
198.840	6975
198.909	8202
198.977	2695
199.046	2832
199.114	2715
199.183	2852
199.251	1872
199.320	1733
199.388	1496
199.457	1194
199.525	2271
199.594	2281
199.662	2129
199.731	1132
199.799	1746
199.867	2111
199.936	1702
200.004	2069
200.073	1952
200.141	1347
200.210	2178
200.278	2288
200.346	2090
200.415	2381
200.483	3127
200.552	2084
200.620	1218
200.688	1762
200.757	1227
200.825	1837
200.893	1893
200.962	2473
201.030	1663
201.098	2044
201.167	2022
201.235	2456
201.303	1958
201.372	3419
201.440	2493
201.508	3806
201.577	3372
201.645	2710
201.713	1574
201.781	3007
201.850	4590
201.918	3086
201.986	1612
202.055	2223
202.123	1902
202.191	2232
202.259	2282
202.327	2112
202.396	2308
202.464	3063
202.532	5425
202.600	15232
202.669	10550
202.737	4116
202.805	2663
202.873	2718
202.941	2674
203.009	2317
203.078	1764
203.146	2544
203.214	1847
203.282	2068
203.350	2427
203.418	2959
203.487	3210
203.555	1478
203.623	1801
203.691	2359
203.759	898
203.827	2123
203.895	2125
203.963	2596
204.031	2366
204.099	2735
204.168	1776
204.236	3396
204.304	2430
204.372	2955
204.440	2939
204.508	2651
204.576	1637
204.644	2371
204.712	1857
204.780	2333
204.848	2614
204.916	1945
204.984	2139
205.052	2158
205.120	2521
205.188	2978
205.256	1481
205.324	1903
205.392	2589
205.460	3317
205.528	2890
205.596	3543
205.664	2697
205.732	2793
205.799	7376
205.867	13680
205.935	3998
206.003	3986
206.071	2723
206.139	3291
206.207	3375
206.275	3251
206.343	2436
206.411	3501
206.478	2539
206.546	3677
206.614	2887
206.682	3198
206.750	2924
206.818	3943
206.885	4240
206.953	2165
207.021	3998
207.089	3237
207.157	2383
207.225	3032
207.292	3016
207.360	3290
207.428	3008
207.496	2319
207.563	2600
207.631	2750
207.699	1520
207.767	2895
207.834	2440
207.902	3239
207.970	2885
208.038	2198
208.105	2859
208.173	2894
208.241	4406
208.309	4691
208.376	3707
208.444	7274
208.512	4836
208.579	2732
208.647	3603
208.715	5341
208.782	3190
208.850	2538
208.918	2819
208.985	2710
209.053	3461
209.120	3773
209.188	2086
209.256	2542
209.323	3307
209.391	5024
209.459	4487
209.526	3079
209.594	3093
209.661	3444
209.729	3425
209.796	3305
209.864	2826
209.932	2819
209.999	4184
210.067	4636
210.134	4208
210.202	4626
210.269	5649
210.337	6188
210.404	3417
210.472	3975
210.539	2922
210.607	3993
210.674	4891
210.742	3974
210.809	3797
210.877	4795
210.944	5022
211.012	4401
211.079	5512
211.146	3794
211.214	4119
211.281	6459
211.349	5631
211.416	4157
211.484	5794
211.551	4601
211.618	3346
211.686	4175
211.753	3214
211.821	4089
211.888	3796
211.955	4419
212.023	4375
212.090	4311
212.157	4451
212.225	5583
212.292	8735
212.359	16449
212.427	37155
212.494	19691
212.561	8528
212.629	5597
212.696	5055
212.763	5074
212.831	4362
212.898	5103
212.965	4478
213.032	4417
213.100	5352
213.167	5066
213.234	6196
213.301	3930
213.369	4540
213.436	4450
213.503	4135
213.570	5350
213.638	4407
213.705	4285
213.772	3565
213.839	7647
213.906	8349
213.973	5793
214.041	4028
214.108	4859
214.175	4533
214.242	5115
214.309	4726
214.376	4419
214.444	4125
214.511	6046
214.578	5470
214.645	5003
214.712	6502
214.779	6619
214.846	4861
214.913	5913
214.980	6068
215.048	7283
215.115	8218
215.182	6693
215.249	5810
215.316	5627
215.383	4913
215.450	5385
215.517	4490
215.584	3989
215.651	5147
215.718	5162
215.785	6158
215.852	5759
215.919	6863
215.986	6643
216.053	5142
216.120	4415
216.187	5863
216.254	5628
216.321	5411
216.388	6058
216.455	6066
216.522	6201
216.589	7648
216.656	12174
216.722	13428
216.789	8320
216.856	8017
216.923	7470
216.990	6436
217.057	7105
217.124	8359
217.191	8269
217.258	9416
217.324	10561
217.391	11204
217.458	8770
217.525	6748
217.592	5651
217.659	5607
217.725	8003
217.792	9095
217.859	10640
217.926	5331
217.993	5009
218.059	4813
218.126	4697
218.193	4404
218.260	4037
218.327	3584
218.393	4785
218.460	4211
218.527	3755
218.594	4436
218.660	10004
218.727	10642
218.794	4571
218.860	4572
218.927	3783
218.994	3766
219.061	4638
219.127	5000
219.194	9004
219.261	4917
219.327	4168
219.394	3807
219.461	2633
219.527	4230
219.594	6897
219.661	6186
219.727	3601
219.794	4118
219.860	2898
219.927	4349
219.994	7072
220.060	13960
220.127	10376
220.193	7686
220.260	7620
220.326	10341
220.393	13736
220.460	16970
220.526	12469
220.593	8846
220.659	9941
220.726	10094
220.792	21091
220.859	19750
220.925	22987
220.992	28181
221.058	27695
221.125	30154
221.191	22732
221.258	10734
221.324	8507
221.391	5987
221.457	5229
221.524	5231
221.590	8010
221.657	24477
221.723	19145
221.789	15518
221.856	14787
221.922	7903
221.989	6183
222.055	5303
222.121	3916
222.188	6452
222.254	5330
222.321	4796
222.387	3216
222.453	3953
222.520	4228
222.586	2510
222.652	3644
222.719	3176
222.785	3944
222.851	2722
222.918	2748
222.984	3181
223.050	3948
223.116	2367
223.183	4519
223.249	3139
223.315	2497
223.382	3397
223.448	3204
223.514	2717
223.580	3190
223.647	2792
223.713	3174
223.779	3445
223.845	3577
223.911	3268
223.978	2235
224.044	2623
224.110	3152
224.176	3343
224.242	2443
224.309	1583
224.375	3367
224.441	2052
224.507	2209
224.573	2258
224.639	4439
224.705	2366
224.772	2849
224.838	2935
224.904	4110
224.970	2811
225.036	3272
225.102	3683
225.168	4522
225.234	3616
225.300	3352
225.366	3189
225.432	3355
225.499	3813
225.565	4715
225.631	5097
225.697	4497
225.763	5008
225.829	6865
225.895	5968
225.961	11505
226.027	9222
226.093	8474
226.159	10074
226.225	15022
226.291	32245
226.357	48857
226.423	29199
226.489	18240
226.554	11730
226.620	10956
226.686	13897
226.752	21494
226.818	32798
226.884	64918
226.950	57946
227.016	26287
227.082	15659
227.148	11573
227.214	12336
227.279	9777
227.345	7028
227.411	7286
227.477	8326
227.543	17395
227.609	18054
227.674	10809
227.740	7102
227.806	6694
227.872	5736
227.938	5236
228.003	9878
228.069	5656
228.135	3612
228.201	4927
228.267	4383
228.332	6794
228.398	8351
228.464	7148
228.530	4314
228.595	4430
228.661	3762
228.727	9289
228.792	7764
228.858	4435
228.924	4042
228.990	8536
229.055	7173
229.121	8020
229.187	4664
229.252	6035
229.318	4368
229.384	5057
229.449	6493
229.515	3279
229.581	2619
229.646	5948
229.712	5690
229.777	15117
229.843	15101
229.909	10780
229.974	9105
230.040	9256
230.105	6111
230.171	8396
230.236	9909
230.302	13412
230.368	12892
230.433	8263
230.499	6461
230.564	6565
230.630	4885
230.695	4935
230.761	4929
230.826	3540
230.892	10053
230.957	5574
231.023	4811
231.088	8828
231.154	6462
231.219	8937
231.284	10290
231.350	12519
231.415	7749
231.481	5142
231.546	4176
231.612	4642
231.677	4276
231.742	4928
231.808	5665
231.873	3481
231.939	3082
232.004	14654
232.069	12549
232.135	8627
232.200	5885
232.265	5488
232.331	3937
232.396	3404
232.461	2980
232.527	3246
232.592	7517
232.657	5125
232.723	8299
232.788	7156
232.853	4929
232.918	4423
232.984	3612
233.049	4864
233.114	8213
233.179	8157
233.245	10626
233.310	14760
233.375	4603
233.440	4526
233.506	6015
233.571	6396
233.636	4676
233.701	4830
233.766	9443
233.832	13354
233.897	6477
233.962	5276
234.027	7186
234.092	7214
234.157	5436
234.222	6132
234.288	9375
234.353	28371
234.418	24159
234.483	14774
234.548	12587
234.613	9546
234.678	8265
234.743	8870
234.808	28267
234.873	19547
234.938	9004
235.004	6946
235.069	6363
235.134	5364
235.199	5852
235.264	5003
235.329	3742
235.394	5790
235.459	6913
235.524	6876
235.589	5727
235.654	4729
235.719	3996
235.784	5916
235.849	6566
235.913	15570
235.978	15341
236.043	19168
236.108	8652
236.173	8006
236.238	8858
236.303	5939
236.368	6053
236.433	10908
236.498	20211
236.563	13883
236.627	26995
236.692	86419
236.757	77787
236.822	32827
236.887	22155
236.952	18485
237.017	13498
237.081	15987
237.146	19475
237.211	39928
237.276	86564
237.341	142577
237.405	76736
237.470	31671
237.535	22771
237.600	14286
237.664	11409
237.729	9346
237.794	12360
237.859	22749
237.923	17901
237.988	11405
238.053	13676
238.118	15655
238.182	36555
238.247	35755
238.312	17043
238.376	12845
238.441	9620
238.506	9087
238.570	5215
238.635	6275
238.700	5980
238.764	6023
238.829	16107
238.893	22114
238.958	10763
239.023	11459
239.087	6295
239.152	7582
239.216	5099
239.281	6109
239.346	5324
239.410	4838
239.475	7460
239.539	34457
239.604	29817
239.668	10524
239.733	6727
239.797	10621
239.862	27602
239.926	35115
239.991	14507
240.055	7784
240.120	6366
240.184	7409
240.249	5699
240.313	5391
240.378	6179
240.442	20343
240.507	35316
240.571	12166
240.635	15917
240.700	22545
240.764	9025
240.829	6604
240.893	5558
240.957	6422
241.022	18578
241.086	35103
241.151	18017
241.215	7247
241.279	10159
241.344	18967
241.408	9861
241.472	7405
241.537	8724
241.601	7711
241.665	5768
241.730	5102
241.794	7437
241.858	7413
241.922	7092
241.987	7408
242.051	5799
242.115	5050
242.179	5174
242.244	5510
242.308	7254
242.372	7280
242.436	8161
242.501	7870
242.565	5538
242.629	5906
242.693	6159
242.757	5453
242.822	5337
242.886	7491
242.950	6886
243.014	7345
243.078	8922
243.142	9497
243.206	7547
243.271	9204
243.335	8069
243.399	13628
243.463	48577
243.527	131743
243.591	44375
243.655	18786
243.719	10807
243.783	11527
243.847	18522
243.911	23983
243.975	29791
244.040	22672
244.104	11948
244.168	8252
244.232	14432
244.296	21527
244.360	21526
244.424	13051
244.488	9192
244.552	9894
244.615	5851
244.679	6781
244.743	9727
244.807	11530
244.871	5980
244.935	6335
244.999	4930
245.063	7490
245.127	9599
245.191	14717
245.255	15643
245.319	12753
245.383	11389
245.446	9581
245.510	7194
245.574	8100
245.638	8903
245.702	8016
245.766	24779
245.829	15796
245.893	10692
245.957	8629
246.021	8587
246.085	10244
246.149	11636
246.212	31168
246.276	50018
246.340	21161
246.404	14689
246.467	14453
246.531	24403
246.595	14574
246.659	12920
246.722	11575
246.786	16485
246.850	16907
246.913	22586
246.977	10516
247.041	9147
247.104	11383
247.168	11336
247.232	31214
247.295	65133
247.359	33949
247.423	15310
247.486	26927
247.550	16860
247.614	12632
247.677	17329
247.741	11778
247.804	9898
247.868	12632
247.932	25623
247.995	60374
248.059	22888
248.122	12859
248.186	15946
248.249	27094
248.313	97710
248.376	107772
248.440	69759
248.503	27524
248.567	19823
248.630	29686
248.694	39693
248.757	48058
248.821	107319
248.884	64915
248.948	55428
249.011	81267
249.075	121763
249.138	108895
249.202	42387
249.265	25304
249.328	30104
249.392	21821
249.455	18327
249.519	14989
249.582	18847
249.645	31581
249.709	22482
249.772	15151
249.835	12946
249.899	16601
249.962	14224
250.025	13634
250.089	37088
250.152	54270
250.215	26026
250.279	19195
250.342	17535
250.405	18629
250.468	15999
250.532	21668
250.595	33837
250.658	115954
250.721	197100
250.785	76691
250.848	39238
250.911	24188
250.974	20957
251.038	28849
251.101	63338
251.164	32979
251.227	32548
251.290	29960
251.354	43496
251.417	159125
251.480	170540
251.543	116459
251.606	284723
251.669	232146
251.732	94068
251.795	92998
251.859	93091
251.922	188204
251.985	119835
252.048	43794
252.111	33265
252.174	31085
252.237	56239
252.300	126969
252.363	130935
252.426	242306
252.489	112793
252.552	54361
252.615	36508
252.678	40451
252.741	93682
252.804	119864
252.867	247057
252.930	159714
252.993	85109
253.056	50217
253.119	36252
253.182	27922
253.245	44994
253.308	35891
253.371	33588
253.434	31686
253.497	28534
253.559	56629
253.622	41146
253.685	49865
253.748	51873
253.811	26188
253.874	29573
253.937	31399
254.000	22997
254.062	40293
254.125	64878
254.188	52271
254.251	49061
254.314	23955
254.376	43774
254.439	48763
254.502	38813
254.565	42372
254.628	75912
254.690	45800
254.753	24945
254.816	20027
254.878	23126
254.941	42654
255.004	48167
255.067	20704
255.129	22097
255.192	13949
255.255	11933
255.317	16409
255.380	10798
255.443	7775
255.505	8978
255.568	9029
255.631	9121
255.693	10580
255.756	8090
255.819	9139
255.881	7219
255.944	7833
256.006	7156
256.069	9370
256.132	8378
256.194	12520
256.257	30975
256.319	23762
256.382	21749
256.444	12985
256.507	9934
256.569	10411
256.632	10164
256.694	19557
256.757	45986
256.819	141221
256.882	62442
256.944	26534
257.007	19275
257.069	22307
257.132	13466
257.194	13177
257.257	11010
257.319	12150
257.381	14824
257.444	35576
257.506	155106
257.569	179471
257.631	82758
257.693	47563
257.756	25108
257.818	21217
257.880	13259
257.943	12559
258.005	10566
258.067	9944
258.130	9384
258.192	12376
258.254	27784
258.317	17789
258.379	12075
258.441	32660
258.503	34325
258.566	36605
258.628	51652
258.690	14477
258.753	14008
258.815	26079
258.877	16783
258.939	10552
259.001	9365
259.064	9938
259.126	11628
259.188	18940
259.250	12499
259.312	14150
259.375	29654
259.437	22302
259.499	10888
259.561	10165
259.623	10595
259.685	9702
259.747	10996
259.809	33673
259.872	67289
259.934	98051
259.996	88675
260.058	24663
260.120	13604
260.182	10332
260.244	9591
260.306	8147
260.368	9607
260.430	9068
260.492	15581
260.554	28910
260.616	24878
260.678	52171
260.740	74131
260.802	20884
260.864	14617
260.926	13548
260.988	11942
261.050	11933
261.112	21612
261.174	61625
261.236	56768
261.298	19748
261.359	30109
261.421	45127
261.483	15154
261.545	12498
261.607	8737
261.669	10022
261.731	19394
261.793	49032
261.854	23515
261.916	14134
261.978	11343
262.040	12491
262.102	10322
262.164	18395
262.225	16471
262.287	11034
262.349	29557
262.411	24031
262.472	11611
262.534	20740
262.596	45300
262.658	16403
262.719	10841
262.781	14372
262.843	42179
262.904	21284
262.966	16135
263.028	19053
263.090	78211
263.151	201186
263.213	66456
263.275	34745
263.336	18180
263.398	13577
263.459	11023
263.521	11491
263.583	27713
263.644	21215
263.706	9005
263.767	7393
263.829	6886
263.891	6094
263.952	6182
264.014	6083
264.075	9236
264.137	19931
264.198	13711
264.260	7624
264.321	7472
264.383	18727
264.444	36910
264.506	13038
264.567	9020
264.629	13049
264.690	24559
264.752	13850
264.813	9831
264.875	7396
264.936	7951
264.998	7031
265.059	7037
265.120	8079
265.182	15436
265.243	64646
265.305	72100
265.366	20854
265.427	11627
265.489	10766
265.550	6643
265.611	10805
265.673	9400
265.734	6949
265.795	6195
265.857	7001
265.918	10484
265.979	20336
266.040	109880
266.102	102095
266.163	30099
266.224	22924
266.286	14098
266.347	12511
266.408	11134
266.469	12071
266.530	9544
266.592	10464
266.653	19964
266.714	32097
266.775	12552
266.836	10111
266.898	7990
266.959	12735
267.020	10561
267.081	8565
267.142	7537
267.203	9802
267.264	8534
267.326	11918
267.387	8932
267.448	8306
267.509	8236
267.570	8801
267.631	7502
267.692	10269
267.753	17011
267.814	9990
267.875	18248
267.936	40971
267.997	16686
268.058	14384
268.119	10377
268.180	9774
268.241	7984
268.302	7986
268.363	7027
268.424	8224
268.485	8029
268.546	6572
268.607	5664
268.668	5114
268.729	5949
268.790	7659
268.851	9225
268.912	21388
268.972	28569
269.033	15736
269.094	8425
269.155	7275
269.216	5638
269.277	7705
269.338	6329
269.398	6751
269.459	8489
269.520	12879
269.581	16643
269.642	19166
269.702	13900
269.763	10943
269.824	8906
269.885	14306
269.945	19851
270.006	9094
270.067	6092
270.128	6956
270.188	6380
270.249	7736
270.310	6267
270.370	6156
270.431	7684
270.492	5949
270.553	7941
270.613	18409
270.674	37531
270.734	17114
270.795	9409
270.856	14313
270.916	12989
270.977	7952
271.038	9730
271.098	10423
271.159	17169
271.219	18445
271.280	8931
271.340	7977
271.401	10729
271.462	23712
271.522	14137
271.583	10049
271.643	10374
271.704	10247
271.764	12763
271.825	28597
271.885	88378
271.946	125444
272.006	42789
272.066	52434
272.127	95525
272.187	31665
272.248	18820
272.308	19992
272.369	63826
272.429	39237
272.489	27088
272.550	28880
272.610	31829
272.671	28263
272.731	20723
272.791	33472
272.852	21901
272.912	18331
272.972	13047
273.033	11791
273.093	18843
273.153	19854
273.214	16978
273.274	18524
273.334	45749
273.394	100165
273.455	43848
273.515	41251
273.575	86439
273.635	42766
273.696	48030
273.756	93696
273.816	43489
273.876	26241
273.936	46803
273.997	76326
274.057	25168
274.117	21466
274.177	29249
274.237	107899
274.297	95490
274.358	65503
274.418	75117
274.478	57428
274.538	23646
274.598	20724
274.658	57676
274.718	75136
274.778	32241
274.838	19947
274.898	35863
274.958	103105
275.018	91958
275.078	62922
275.138	27122
275.198	17248
275.258	14230
275.318	17854
275.378	27080
275.438	30292
275.498	20936
275.558	47592
275.618	98499
275.678	68363
275.738	40563
275.798	30021
275.858	16244
275.918	11726
275.978	13773
276.038	13603
276.098	11370
276.157	22446
276.217	63676
276.277	33871
276.337	23580
276.397	14326
276.457	17796
276.517	13325
276.576	10891
276.636	12361
276.696	23897
276.756	39205
276.815	31011
276.875	15981
276.935	18088
276.995	20250
277.055	12872
277.114	11715
277.174	16560
277.234	50808
277.293	24489
277.353	15908
277.413	11521
277.472	13186
277.532	14358
277.592	19882
277.651	67511
277.711	130751
277.771	48542
277.830	136720
277.890	120322
277.950	89052
278.009	227287
278.069	105111
278.128	98617
278.188	136239
278.248	65740
278.307	149410
278.367	92414
278.426	30458
278.486	20521
278.545	17301
278.605	14547
278.664	15113
278.724	17340
278.783	37104
278.843	93047
278.902	33442
278.962	21386
279.021	25228
279.081	43041
279.140	43164
279.199	28696
279.259	27567
279.318	32236
279.378	43614
279.437	78084
279.496	227745
279.556	560190
279.615	500746
279.675	179546
279.734	99429
279.793	121082
279.853	157012
279.912	64670
279.971	41019
280.031	37088
280.090	55772
280.149	95403
280.208	113429
280.268	388085
280.327	424636
280.386	136290
280.445	81123
280.505	67897
280.564	38257
280.623	30141
280.682	37281
280.742	50482
280.801	20898
280.860	16543
280.919	14631
280.978	14912
281.037	14648
281.097	13025
281.156	15441
281.215	14470
281.274	17214
281.333	58363
281.392	47635
281.451	14771
281.510	12464
281.569	11944
281.628	11598
281.688	10076
281.747	12153
281.806	11842
281.865	9012
281.924	10015
281.983	10203
282.042	7964
282.101	8928
282.160	8881
282.219	9342
282.278	11417
282.337	32608
282.396	24105
282.454	11864
282.513	14867
282.572	48206
282.631	29887
282.690	13100
282.749	10496
282.808	13464
282.867	12314
282.926	13008
282.985	9739
283.043	9354
283.102	10603
283.161	13121
283.220	26535
283.279	58462
283.338	21509
283.396	14542
283.455	15161
283.514	17353
283.573	32202
283.631	25262
283.690	14454
283.749	14442
283.808	25102
283.866	29928
283.925	16098
283.984	15574
284.043	19415
284.101	21666
284.160	17699
284.219	20789
284.277	23990
284.336	38825
284.395	80322
284.453	69243
284.512	36300
284.570	43328
284.629	44051
284.688	45556
284.746	52936
284.805	62775
284.863	81601
284.922	102582
284.981	131454
285.039	188715
285.098	295437
285.156	502601
285.215	539729
285.273	545257
285.332	527642
285.390	347793
285.449	229248
285.507	162171
285.566	122271
285.624	94845
285.683	72520
285.741	57514
285.799	49546
285.858	42467
285.916	38581
285.975	31047
286.033	26753
286.091	25537
286.150	23358
286.208	22233
286.267	23852
286.325	23689
286.383	27978
286.442	24002
286.500	17937
286.558	18335
286.616	14774
286.675	19815
286.733	18974
286.791	17778
286.850	16673
286.908	18970
286.966	29018
287.024	16632
287.083	12788
287.141	11130
287.199	13168
287.257	16644
287.315	13781
287.374	15429
287.432	29202
287.490	20013
287.548	14532
287.606	13726
287.664	12894
287.723	15163
287.781	18585
287.839	13642
287.897	15795
287.955	21067
288.013	29312
288.071	63063
288.129	213569
288.187	528711
288.245	268351
288.303	92304
288.361	53041
288.419	38235
288.477	27979
288.535	21069
288.593	16262
288.651	13196
288.709	11793
288.767	10945
288.825	9356
288.883	9725
288.941	14308
288.999	11864
289.057	8194
289.115	7297
289.173	8397
289.231	8931
289.289	9447
289.346	12335
289.404	11871
289.462	17314
289.520	16893
289.578	9146
289.636	5987
289.694	7811
289.751	5788
289.809	6221
289.867	5992
289.925	8504
289.983	10485
290.040	5936
290.098	5157
290.156	7247
290.214	9212
290.271	6425
290.329	5148
290.387	5848
290.444	5244
290.502	4706
290.560	5859
290.617	5827
290.675	5349
290.733	6048
290.790	7973
290.848	5100
290.906	8970
290.963	8637
291.021	6923
291.078	7979
291.136	11890
291.194	20785
291.251	43023
291.309	14545
291.366	6876
291.424	6759
291.481	6777
291.539	10205
291.596	11244
291.654	6247
291.711	4290
291.769	7699
291.826	16860
291.884	11130
291.941	6164
291.999	6348
292.056	7159
292.114	8852
292.171	5337
292.228	7077
292.286	8644
292.343	16016
292.401	19282
292.458	12209
292.515	8605
292.573	10150
292.630	9814
292.687	9923
292.745	7453
292.802	11272
292.859	25238
292.917	54887
292.974	33154
293.031	12522
293.089	8522
293.146	6659
293.203	6140
293.260	6073
293.318	7066
293.375	8647
293.432	6416
293.489	6303
293.546	8227
293.604	13454
293.661	38370
293.718	91338
293.775	42622
293.832	24117
293.889	21718
293.947	19737
294.004	13468
294.061	13495
294.118	24302
294.175	44433
294.232	45443
294.289	24417
294.346	12982
294.403	13474
294.460	10775
294.517	9554
294.574	8072
294.631	7904
294.688	10798
294.745	25050
294.802	84213
294.859	77657
294.916	30160
294.973	19498
295.030	15959
295.087	14074
295.144	10341
295.201	9200
295.258	7864
295.315	12362
295.372	35118
295.429	69710
295.486	29237
295.542	16162
295.599	26192
295.656	43246
295.713	36513
295.770	62537
295.827	24615
295.883	12362
295.940	11489
295.997	19207
296.054	19964
296.111	9446
296.167	7185
296.224	6336
296.281	4941
296.338	5005
296.394	6814
296.451	9952
296.508	27653
296.564	53294
296.621	34751
296.678	71313
296.734	107012
296.791	42567
296.848	21953
296.904	23208
296.961	44680
297.018	72552
297.074	55176
297.131	27486
297.187	19405
297.244	24861
297.301	72539
297.357	134470
297.414	46063
297.470	20387
297.527	15514
297.583	17193
297.640	13697
297.696	9574
297.753	7407
297.809	6901
297.866	5234
297.922	5997
297.979	6329
298.035	8533
298.092	18389
298.148	44667
298.204	42882
298.261	21858
298.317	31963
298.374	85623
298.430	54156
298.486	26300
298.543	22098
298.599	34218
298.656	51287
298.712	48821
298.768	74081
298.824	55485
298.881	25029
298.937	15825
298.993	11417
299.050	14867
299.106	12723
299.162	11607
299.218	14965
299.275	11234
299.331	12481
299.387	23979
299.443	78590
299.500	87424
299.556	36747
299.612	19948
299.668	23725
299.724	26212
299.780	23784
299.837	16427
299.893	25118
299.949	70132
300.005	85830
300.061	66203
300.117	114149
300.173	56295
300.229	32733
300.285	41461
300.341	39901
300.397	26407
300.453	15565
300.510	18316
300.566	18425
300.622	18367
300.678	41729
300.734	75562
300.790	65519
300.845	81979
300.901	51356
300.957	71484
301.013	56129
301.069	23331
301.125	17409
301.181	21665
301.237	21050
301.293	13806
301.349	14762
301.405	19888
301.461	27321
301.516	52925
301.572	33157
301.628	29493
301.684	25985
301.740	43418
301.796	75185
301.851	45261
301.907	62110
301.963	60464
302.019	84179
302.074	219393
302.130	226357
302.186	126868
302.242	53957
302.297	32790
302.353	30992
302.409	54905
302.464	59466
302.520	40172
302.576	80070
302.631	92197
302.687	50922
302.743	22526
302.798	13842
302.854	11745
302.910	13475
302.965	16512
303.021	33929
303.076	33951
303.132	34047
303.187	39428
303.243	19743
303.299	11302
303.354	9462
303.410	9656
303.465	10885
303.521	8060
303.576	8739
303.632	12737
303.687	26589
303.743	73641
303.798	65814
303.853	27046
303.909	13643
303.964	13691
304.020	19386
304.075	30758
304.130	28706
304.186	45347
304.241	44487
304.297	34547
304.352	18230
304.358	17553
304.407	12067
304.449	11269
304.463	11006
304.518	11058
304.539	10931
304.573	10731
304.629	11861
304.630	12018
304.684	19792
304.720	39083
304.739	48707
304.794	78287
304.811	66252
304.850	37343
304.902	17969
304.905	16753
304.960	12233
304.992	13300
305.015	14149
305.071	19231
305.083	19230
305.126	18881
305.173	10870
305.181	9555
305.236	7925
305.264	8263
305.292	8916
305.347	13127
305.354	14175
305.402	20553
305.445	20980
305.457	20964
305.512	17846
305.535	17220
305.567	16539
305.622	16770
305.626	17257
305.678	29997
305.716	60847
305.733	71738
305.788	88309
305.807	75029
305.843	52156
305.897	65990
305.898	66104
305.953	68966
305.988	44782
306.008	31630
306.063	19133
306.078	17115
306.118	12702
306.168	10103
306.173	9906
306.228	7431
306.259	7151
306.283	7008
306.338	7117
306.349	7310
306.393	8347
306.440	10199
306.448	10429
306.503	10846
306.530	10654
306.558	12252
306.613	23541
306.620	25453
306.668	40840
306.711	62460
306.723	65198
306.778	54311
306.801	41016
306.833	25793
306.888	13152
306.892	12684
306.943	9444
306.982	8373
306.997	8086
307.052	8093
307.072	7556
307.107	7159
307.162	9964
307.163	9993
307.217	12781
307.253	14365
307.272	14746
307.327	16825
307.343	16171
307.381	14877
307.434	15366
307.436	15787
307.491	28973
307.524	42915
307.546	47525
307.600	54784
307.614	49529
307.655	30517
307.704	16307
307.710	15603
307.765	16642
307.795	19102
307.819	21546
307.874	30337
307.885	30291
307.929	26255
307.975	23565
307.984	24624
308.038	37788
308.065	49045
308.093	82908
308.148	171268
308.156	191269
308.202	290030
308.246	353355
308.257	347062
308.312	193891
308.336	138799
308.366	104357
308.421	68847
308.426	65540
308.475	43363
308.517	32108
308.530	30150
308.585	26209
308.607	25061
308.639	24653
308.694	26033
308.697	26192
308.748	33839
308.787	43555
308.803	44109
308.857	38533
308.877	35604
308.912	35124
308.967	38873
308.967	39008
309.021	58834
309.058	75405
309.076	92185
309.130	154739
309.148	178423
309.185	282658
309.238	456786
309.239	458150
309.293	508248
309.328	482703
309.348	426873
309.402	234974
309.418	186963
309.457	139120
309.508	95067
309.511	94465
309.566	100559
309.598	108165
309.620	130744
309.674	198642
309.688	216729
309.729	207045
309.778	171591
309.783	167358
309.837	112618
309.868	85203
309.892	85517
309.946	94176
309.959	98938
310.001	115370
310.049	127802
310.055	124089
310.109	79814
310.139	55991
310.163	46116
310.218	29903
310.229	26866
310.272	20323
310.319	15119
310.326	14623
310.381	12029
310.409	10998
310.435	10440
310.489	9472
310.499	9409
310.543	9496
310.589	9404
310.598	9158
310.652	8088
310.679	7425
310.706	7173
310.760	6794
310.769	6775
310.814	6247
310.859	5607
310.868	5668
310.923	6134
310.948	6528
310.977	7371
311.031	8844
311.038	9071
311.085	8596
311.128	7754
311.139	7575
311.193	6952
311.218	6643
311.247	6645
311.301	6588
311.308	6581
311.356	6477
311.398	6547
311.410	6324
311.464	5119
311.488	4579
311.518	4909
311.572	5560
311.578	5649
311.626	8620
311.668	11320
311.680	10918
311.734	8664
311.758	7748
311.788	7888
311.842	8181
311.847	8212
311.896	9745
311.937	11120
311.950	11202
312.004	11523
312.027	11638
312.058	10121
312.112	7430
312.117	7164
312.165	6566
312.207	6071
312.297	7190
312.386	5786
312.476	9097
312.566	19541
312.656	8077
312.745	4306
312.835	5542
312.925	7514
313.015	5128
313.104	6525
313.194	8049
313.284	8117
313.374	14080
313.463	11298
313.553	5378
313.643	6441
313.732	4716
313.822	5576
313.912	4981
314.001	7096
314.091	6693
314.180	8751
314.270	10267
314.360	11287
314.449	9343
314.539	5737
314.628	5474
314.718	7029
314.808	8428
314.897	6285
314.987	6759
315.076	9679
315.166	11812
315.255	9931
315.345	10314
315.434	9939
315.524	9330
315.613	13241
315.703	18453
315.792	34234
315.881	114563
315.971	38086
316.060	20942
316.150	20588
316.239	18138
316.328	8660
316.418	6259
316.507	8038
316.597	10292
316.686	9424
316.775	11702
316.865	19521
316.954	7337
317.043	5325
317.133	6916
317.222	6544
317.311	6568
317.400	6805
317.490	12326
317.579	14389
317.668	11881
317.757	22604
317.847	59909
317.936	200459
318.025	68803
318.114	42329
318.203	21415
318.293	18410
318.382	29362
318.471	25900
318.560	29261
318.649	44291
318.738	12889
318.828	12115
318.917	12070
319.006	12971
319.095	26066
319.184	63091
319.273	44142
319.362	29455
319.451	10409
319.540	10823
319.629	26035
319.718	41490
319.807	16285
319.896	27568
319.985	80638
320.074	35016
320.163	9817
320.252	13039
320.341	9034
320.430	9885
320.519	19736
320.608	11079
320.697	8952
320.786	9812
320.875	14148
320.964	20218
321.053	30502
321.142	45311
321.230	44198
321.319	31659
321.408	70069
321.497	27527
321.586	29055
321.675	25479
321.764	25285
321.852	18471
321.941	41653
322.030	28625
322.119	29774
322.207	75031
322.296	33305
322.385	22252
322.474	33286
322.562	95785
322.651	43892
322.740	33246
322.829	40260
322.917	28506
323.006	23899
323.095	21027
323.183	14221
323.272	23131
323.361	37345
323.449	81863
323.538	29339
323.626	55958
323.715	32501
323.804	16594
323.892	51495
323.981	33322
324.069	11190
324.158	26260
324.246	22643
324.335	16524
324.424	25790
324.512	9778
324.601	11473
324.689	12662
324.778	16182
324.866	20578
324.954	6934
325.043	8889
325.131	16218
325.220	21174
325.308	22621
325.397	19242
325.485	12601
325.574	6305
325.662	5353
325.750	8007
325.839	6080
325.927	5167
326.015	8479
326.104	9167
326.192	10862
326.280	6344
326.369	6237
326.457	11609
326.545	21238
326.634	9888
326.722	4269
326.810	6095
326.898	6099
326.987	7865
327.075	18891
327.163	15632
327.251	5955
327.340	7076
327.428	6726
327.516	5148
327.604	5514
327.692	6278
327.781	5724
327.869	9296
327.957	7363
328.045	10119
328.133	5120
328.221	6023
328.309	5625
328.397	6419
328.485	9003
328.574	15189
328.662	49975
328.750	21985
328.838	6812
328.926	6066
329.014	4815
329.102	9109
329.190	18107
329.278	13983
329.366	4045
329.454	3609
329.542	3213
329.630	3502
329.718	4797
329.806	6890
329.893	5434
329.981	5039
330.069	5915
330.157	19292
330.245	50603
330.333	24707
330.421	8517
330.509	15904
330.597	59445
330.684	34194
330.772	9356
330.860	8975
330.948	10397
331.036	6495
331.123	3548
331.211	4736
331.299	4989
331.387	10604
331.475	18577
331.562	8017
331.650	4881
331.738	5537
331.825	5783
331.913	4718
332.001	5326
332.089	6532
332.176	10721
332.264	24176
332.352	17850
332.439	7959
332.527	6077
332.614	5055
332.702	5947
332.790	6926
332.877	16876
332.965	36179
333.052	20632
333.140	25305
333.228	65909
333.315	18696
333.403	9214
333.490	19150
333.578	31868
333.665	95980
333.753	39245
333.840	10081
333.928	9066
334.015	17879
334.103	29118
334.190	75100
334.278	22073
334.365	13394
334.452	11958
334.540	9265
334.627	9779
334.715	14209
334.802	27884
334.889	99806
334.977	96263
335.064	21691
335.151	11055
335.239	9244
335.326	12702
335.413	39795
335.501	47917
335.588	11384
335.675	7748
335.762	10033
335.850	13987
335.937	16772
336.024	37556
336.111	109268
336.199	53717
336.286	17096
336.373	9185
336.460	7880
336.547	6982
336.635	8911
336.722	8616
336.809	8927
336.896	14665
336.983	33793
337.070	58796
337.157	78851
337.245	58454
337.332	36984
337.419	8066
337.506	6148
337.593	6144
337.680	16292
337.767	41964
337.854	17056
337.941	18934
338.028	28919
338.115	13188
338.202	10278
338.289	20084
338.376	57193
338.463	19553
338.550	26420
338.637	26039
338.724	11895
338.811	15359
338.898	5599
338.984	5080
339.071	8322
339.158	10688
339.245	30014
339.332	20164
339.419	13792
339.506	11893
339.593	4326
339.679	5331
339.766	5814
339.853	8341
339.940	20437
340.027	6727
340.113	7460
340.200	10948
340.287	8003
340.374	11078
340.460	18420
340.547	8577
340.634	17126
340.720	59100
340.807	32138
340.894	6590
340.980	6769
341.067	6154
341.154	7808
341.240	13879
341.327	32156
341.414	20314
341.500	29364
341.587	8228
341.674	7339
341.760	19130
341.847	22492
341.933	6540
342.020	2853
342.106	4646
342.193	8908
342.279	16877
342.366	16338
342.452	19969
342.539	11442
342.625	27281
342.712	63379
342.798	24441
342.885	10327
342.971	3159
343.058	4088
343.144	5427
343.230	6190
343.317	12541
343.403	11517
343.490	3851
343.576	5347
343.662	7427
343.749	8440
343.835	9904
343.921	22189
344.008	124385
344.094	249086
344.180	53453
344.267	23082
344.353	70468
344.439	65203
344.525	30398
344.612	22768
344.698	15838
344.784	8932
344.870	5895
344.957	6751
345.043	10893
345.129	9279
345.215	17724
345.301	13614
345.387	7656
345.474	3514
345.560	4167
345.646	5513
345.732	6208
345.818	16794
345.904	12278
345.990	8830
346.076	9735
346.162	22201
346.249	9803
346.335	5532
346.421	7501
346.507	33946
346.593	100372
346.679	22562
346.765	7108
346.851	7529
346.937	6464
347.023	5524
347.108	8112
347.194	7955
347.280	10314
347.366	11066
347.452	36686
347.538	126363
347.624	85949
347.710	62279
347.796	9490
347.882	5152
347.967	4626
348.053	5867
348.139	4730
348.225	5117
348.311	6203
348.397	6537
348.482	7965
348.568	8813
348.654	5235
348.740	9909
348.825	10597
348.911	16390
348.997	61708
349.083	103643
349.168	16201
349.254	16544
349.340	15036
349.425	5945
349.511	9122
349.597	9229
349.682	22712
349.768	71439
349.854	28492
349.939	5529
350.025	4581
350.110	7209
350.196	4781
350.282	3653
350.367	3717
350.453	6932
350.538	7379
350.624	8508
350.709	7097
350.795	3675
350.880	4846
350.966	8784
351.051	13550
351.137	7428
351.222	7466
351.308	23808
351.393	60919
351.479	27113
351.564	13774
351.649	6779
351.735	4714
351.820	4465
351.906	5853
351.991	9835
352.076	40415
352.162	56662
352.247	12253
352.332	11541
352.418	34789
352.503	37995
352.588	88308
352.673	67226
352.759	15555
352.844	8133
352.929	9882
353.014	13644
353.100	8087
353.185	14838
353.270	22702
353.355	22669
353.441	6779
353.526	7604
353.611	21936
353.696	23715
353.781	13321
353.866	6353
353.952	8041
354.037	21287
354.122	45979
354.207	41730
354.292	14414
354.377	6552
354.462	5706
354.547	9895
354.632	7839
354.717	9895
354.802	14183
354.887	6843
354.972	4683
355.057	4938
355.142	4491
355.227	8420
355.312	14940
355.397	33732
355.482	74528
355.567	34616
355.652	25864
355.737	30275
355.822	86565
355.907	62574
355.991	11649
356.076	7147
356.161	5626
356.246	6177
356.331	8371
356.416	23945
356.501	141434
356.585	134993
356.670	26693
356.755	15028
356.840	22519
356.924	104243
357.009	321563
357.094	112035
357.179	28733
357.263	18545
357.348	18087
357.433	18290
357.517	16899
357.602	14067
357.687	14338
357.771	43930
357.856	156325
357.941	76700
358.025	85285
358.110	307338
358.195	129243
358.279	23691
358.364	19442
358.448	64564
358.533	157005
358.617	110512
358.702	107267
358.787	38586
358.871	23100
358.956	18988
359.040	7719
359.125	6892
359.209	15445
359.294	86881
359.378	132593
359.462	31690
359.547	11629
359.631	6043
359.716	5823
359.800	7120
359.885	9254
359.969	7643
360.053	5752
360.138	7346
360.222	13345
360.306	24237
360.391	23631
360.475	85182
360.559	152212
360.644	72853
360.728	44151
360.812	82057
360.896	198486
360.981	76154
361.065	35674
361.149	12248
361.233	11472
361.318	10113
361.402	11321
361.486	9760
361.570	7470
361.654	12709
361.739	33988
361.823	141874
361.907	201793
361.991	43084
362.075	22927
362.159	46759
362.243	33270
362.327	35657
362.411	42392
362.495	20712
362.580	10934
362.664	8527
362.748	8284
362.832	13333
362.916	24276
363.000	79984
363.084	202809
363.168	238547
363.252	54660
363.336	21060
363.420	24670
363.503	59200
363.587	59259
363.671	18170
363.755	14439
363.839	21498
363.923	12576
364.007	28886
364.091	27395
364.175	33410
364.258	102110
364.342	104204
364.426	153816
364.510	79333
364.594	33391
364.677	45221
364.761	182670
364.845	115280
364.929	41563
365.013	33363
365.096	27275
365.180	31573
365.264	28202
365.347	86796
365.431	33392
365.515	11208
365.598	8658
365.682	8935
365.766	8667
365.849	9807
365.933	9106
366.017	9424
366.100	6055
366.184	4545
366.267	6341
366.351	6357
366.435	6048
366.518	4205
366.602	4640
366.685	6549
366.769	8139
366.852	10601
366.936	20236
367.019	14530
367.103	7194
367.186	10635
367.270	5250
367.353	4656
367.436	6635
367.520	5423
367.603	9102
367.687	14423
367.770	26856
367.853	16775
367.937	52693
368.020	82131
368.104	19366
368.187	20410
368.270	26484
368.353	21680
368.437	25988
368.520	40115
368.603	32831
368.687	64415
368.770	107396
368.853	25285
368.936	21950
369.020	16735
369.103	8943
369.186	4510
369.269	6509
369.352	18263
369.436	23081
369.519	14452
369.602	6254
369.685	9291
369.768	8913
369.851	7123
369.934	4860
370.018	9329
370.101	21298
370.184	16730
370.267	9697
370.350	18477
370.433	30934
370.516	96893
370.599	126244
370.682	44368
370.765	58830
370.848	75975
370.931	135313
371.014	41950
371.097	9681
371.180	8950
371.263	6066
371.346	4625
371.429	6520
371.511	6974
371.594	14628
371.677	19687
371.760	16474
371.843	23902
371.926	114808
372.009	237912
372.091	71873
372.174	57983
372.257	125169
372.340	45350
372.423	27980
372.505	25040
372.588	14824
372.671	48531
372.754	137454
372.836	61186
372.919	28659
373.002	46815
373.085	21617
373.167	24788
373.250	60957
373.332	128784
373.415	176356
373.498	332949
373.580	120549
373.663	194966
373.746	228306
373.828	49194
373.911	19754
373.993	19867
374.076	46898
374.159	40797
374.241	35908
374.324	117979
374.406	75933
374.489	107735
374.571	274545
374.654	103232
374.736	58171
374.819	175013
374.901	247918
374.983	235611
375.066	39201
375.148	15753
375.231	42709
375.313	70152
375.395	27552
375.478	9852
375.560	8502
375.643	15125
375.725	57871
375.807	221481
375.890	136141
375.972	42205
376.054	27904
376.136	31329
376.219	18239
376.301	69417
376.383	185123
376.465	65453
376.548	45315
376.630	59618
376.712	160377
376.794	66742
376.877	9369
376.959	5829
377.041	7785
377.123	9659
377.205	8896
377.287	4677
377.369	5597
377.452	6163
377.534	6872
377.616	6599
377.698	5845
377.780	4940
377.862	7102
377.944	7234
378.026	2999
378.108	4939
378.190	4787
378.272	4986
378.354	4631
378.436	3443
378.518	8447
378.600	24907
378.682	29106
378.764	80224
378.846	56208
378.928	15864
379.010	21732
379.091	12546
379.173	7481
379.255	6349
379.337	11180
379.419	42176
379.501	111081
379.583	38994
379.664	12212
379.746	31741
379.828	79336
379.910	106545
379.991	86674
380.073	15245
380.155	9855
380.237	8828
380.318	6854
380.400	7790
380.482	20278
380.564	29041
380.645	26638
380.727	25544
380.809	14959
380.890	11132
380.972	7568
381.053	9259
381.135	11845
381.217	30243
381.298	82163
381.380	38380
381.461	38971
381.543	171162
381.624	185615
381.706	35731
381.787	19110
381.869	23381
381.951	80931
382.032	267544
382.113	150990
382.195	36565
382.276	28079
382.358	62639
382.439	153605
382.521	175148
382.602	254849
382.684	134014
382.765	255989
382.846	402978
382.928	720742
383.009	393263
383.090	324049
383.172	968593
383.253	1198507
383.334	414687
383.416	296182
383.497	165632
383.578	133069
383.659	273770
383.741	853511
383.822	1617734
383.903	821798
383.984	291428
384.066	316164
384.147	184609
384.228	54719
384.309	42255
384.390	32955
384.471	23537
384.553	24476
384.634	29707
384.715	29929
384.796	20404
384.877	28068
384.958	83729
385.039	91275
385.120	33498
385.201	19116
385.282	19591
385.363	21549
385.444	25684
385.525	40058
385.606	116011
385.687	91047
385.768	25165
385.849	31561
385.930	126669
386.011	194850
386.092	49125
386.173	15159
386.254	10762
386.335	11530
386.416	13972
386.496	50257
386.577	74032
386.658	23002
386.739	15370
386.820	11440
386.901	9954
386.981	10522
387.062	9426
387.143	21318
387.224	78864
387.304	64446
387.385	23608
387.466	13630
387.547	14707
387.627	13231
387.708	34412
387.789	140216
387.869	158676
387.950	39783
388.031	9704
388.111	6260
388.192	14279
388.273	17918
388.353	15548
388.434	12499
388.514	33121
388.595	133083
388.676	158242
388.756	71625
388.837	71360
388.917	40911
388.998	8434
389.078	9543
389.159	9690
389.239	8929
389.320	15653
389.400	12720
389.480	30654
389.561	78004
389.641	35715
389.722	14528
389.802	23778
389.883	35123
389.963	93550
390.043	48773
390.124	12894
390.204	29351
390.284	89227
390.365	51240
390.445	49363
390.525	160271
390.605	137887
390.686	41364
390.766	16171
390.846	11860
390.927	8227
391.007	8192
391.087	9408
391.167	10287
391.247	7679
391.328	10656
391.408	13209
391.488	9759
391.568	7270
391.648	12661
391.728	18224
391.808	18098
391.888	25559
391.969	49800
392.049	70564
392.129	27957
392.209	38096
392.289	93233
392.369	44739
392.449	25640
392.529	22432
392.609	24446
392.689	35951
392.769	99922
392.849	82830
392.929	61223
393.009	134153
393.089	120217
393.169	146490
393.248	456687
393.328	1339952
393.408	1295343
393.488	412189
393.568	131011
393.648	65640
393.728	41951
393.807	29500
393.887	24543
393.967	21810
394.047	22174
394.127	27342
394.206	41063
394.286	139651
394.366	555070
394.446	531001
394.525	117977
394.605	34334
394.685	24021
394.764	36319
394.844	54680
394.924	41445
395.003	20127
395.083	16743
395.163	14528
395.242	14800
395.322	14394
395.402	10509
395.481	14513
395.561	29993
395.640	71828
395.720	69477
395.799	70909
395.879	54053
395.958	52384
396.038	200667
396.117	720045
396.197	706232
396.276	193503
396.356	70466
396.435	49465
396.515	43078
396.594	59593
396.673	125312
396.753	456737
396.832	1193995
396.912	832276
396.991	216855
397.070	66508
397.150	36137
397.229	26310
397.308	35777
397.388	54130
397.467	28132
397.546	13843
397.625	14085
397.705	19096
397.784	15262
397.863	8841
397.942	6758
398.022	7255
398.101	20073
398.180	46410
398.259	21763
398.338	11816
398.417	12791
398.497	6058
398.576	7440
398.655	4695
398.734	5290
398.813	5354
398.892	18207
398.971	51990
399.050	24115
399.129	6952
399.208	4830
399.287	4923
399.366	3747
399.445	3383
399.524	4735
399.603	4105
399.682	12318
399.761	27512
399.840	62264
399.919	39617
399.998	6446
400.077	2978
400.156	3359
400.235	5738
400.313	2914
400.392	6211
400.471	42166
400.550	61795
400.629	15010
400.708	6635
400.786	5205
400.865	9510
400.944	11512
401.023	8059
401.102	2475
401.180	2186
401.259	2880
401.338	2533
401.416	7133
401.495	5946
401.574	4655
401.652	3370
401.731	5978
401.810	4777
401.888	3084
401.967	2245
402.046	4340
402.124	5499
402.203	7764
402.281	5122
402.360	6025
402.438	13602
402.517	8430
402.596	3725
402.674	3377
402.753	2723
402.831	3669
402.910	4867
402.988	22173
403.066	75037
403.145	38643
403.223	23083
403.302	58332
403.380	40190
403.459	38966
403.537	13699
403.615	5800
403.694	1726
403.772	3333
403.850	2556
403.929	2999
404.007	2847
404.085	8726
404.164	9659
404.242	5112
404.320	13357
404.398	38691
404.477	64076
404.555	208574
404.633	160637
404.711	37676
404.789	15965
404.868	6530
404.946	3383
405.024	2373
405.102	1966
405.180	2043
405.258	1998
405.336	3324
405.415	2633
405.493	7058
405.571	6811
405.649	3091
405.727	2703
405.805	5738
405.883	6117
405.961	6069
406.039	4342
406.117	3192
406.195	9331
406.273	52231
406.351	172269
406.429	84798
406.507	10592
406.585	3597
406.663	5914
406.740	8384
406.818	5869
406.896	2834
406.974	4794
407.052	15948
407.130	104429
407.208	130272
407.285	21858
407.363	4732
407.441	4174
407.519	3953
407.596	4681
407.674	11894
407.752	24077
407.830	20731
407.907	7913
407.985	4243
408.063	1886
408.141	1513
408.218	3924
408.296	4138
408.373	4701
408.451	6394
408.529	5601
408.606	2618
408.684	1669
408.762	1497
408.839	1196
408.917	1736
408.994	1681
409.072	2195
409.149	2825
409.227	6639
409.304	8340
409.382	7154
409.459	8585
409.537	13264
409.614	11958
409.692	7660
409.769	7946
409.846	13510
409.924	16578
410.001	10702
410.079	6925
410.156	7012
410.233	4574
410.311	3923
410.388	3476
410.465	5080
410.543	3123
410.620	3461
410.697	5003
410.775	6233
410.852	1722
410.929	4956
411.006	7074
411.083	3619
411.161	7141
411.238	7726
411.315	3871
411.392	2559
411.469	4579
411.547	4766
411.624	1327
411.701	2572
411.778	4722
411.855	13012
411.932	5803
412.009	2446
412.086	2329
412.163	3584
412.240	3247
412.317	4389
412.394	2950
412.471	2022
412.548	2074
412.625	2443
412.702	3952
412.779	7149
412.856	4256
412.933	1536
413.010	2187
413.087	7320
413.164	37494
413.241	47721
413.318	10579
413.395	6415
413.471	10097
413.548	4429
413.625	2378
413.702	3192
413.779	2028
413.855	887
413.932	572
414.009	488
414.086	1185
414.162	2325
414.239	5588
414.316	37401
414.393	79719
414.469	23949
414.546	3118
414.623	1624
414.699	2219
414.776	4146
414.853	1421
414.929	1874
415.006	1608
415.082	1833
415.159	1341
415.236	2074
415.312	3028
415.389	8799
415.465	11210
415.542	4787
415.618	3075
415.695	7394
415.771	3837
415.848	3503
415.924	2861
416.000	1358
416.077	1453
416.153	353
416.230	246
416.306	1663
416.383	1435
416.459	2062
416.535	394
416.612	1395
416.688	1403
416.764	3554
416.841	1540
416.917	2730
416.993	2370
417.069	4782
417.146	4551
417.222	6381
417.298	3521
417.374	3010
417.451	2837
417.527	5100
417.603	6310
417.679	4523
417.755	2223
417.831	1228
417.908	1491
417.984	1090
418.060	1081
418.136	10586
418.212	12770
418.288	4158
418.364	2224
418.440	1828
418.516	5216
418.592	5455
418.668	14673
418.744	24856
418.820	16666
418.896	3571
418.972	1344
419.048	1797
419.124	10647
419.200	7863
419.276	877
419.352	896
419.428	1190
419.504	3436
419.579	4665
419.655	3155
419.731	3408
419.807	16781
419.883	30833
419.959	18867
420.034	4981
420.110	12920
420.186	51501
420.262	33521
420.337	5450
420.413	4798
420.489	1788
420.565	2536
420.640	1287
420.716	2921
420.792	295
420.867	2905
420.943	2787
421.019	7093
421.094	4894
421.170	1515
421.245	1242
421.321	3851
421.397	2521
421.472	6182
421.548	12863
421.623	11469
421.699	5725
421.774	7907
421.850	5799
421.925	12404
422.001	10547
422.076	9165
422.152	11816
422.227	18952
422.302	22256
422.378	34377
422.453	64094
422.529	162284
422.604	452945
422.679	665068
422.755	429082
422.830	156444
422.905	63248
422.981	35635
423.056	21415
423.131	16498
423.207	10989
423.282	12690
423.357	20046
423.432	13102
423.508	13249
423.583	28197
423.658	18371
423.733	6778
423.808	7199
423.883	10117
423.959	8772
424.034	7471
424.109	5149
424.184	2540
424.259	2409
424.334	3104
424.409	1327
424.484	2387
424.559	3735
424.634	3189
424.709	6216
424.784	6572
424.859	2951
424.934	7943
425.009	36635
425.084	56243
425.159	17178
425.234	4363
425.309	8192
425.384	62833
425.459	97501
425.534	20568
425.609	2145
425.683	2460
425.758	1781
425.833	1484
425.908	4355
425.983	22953
426.058	60700
426.132	21700
426.207	3106
426.282	4526
426.357	2328
426.431	1189
426.506	1007
426.581	1413
426.655	1474
426.730	2438
426.805	1020
426.879	2946
426.954	2260
427.029	9961
427.103	63055
427.178	139634
427.253	51839
427.327	8647
427.402	29414
427.476	92971
427.551	40058
427.625	4808
427.700	2629
427.774	1431
427.849	1842
427.923	1238
427.998	1767
428.072	2997
428.147	9926
428.221	53895
428.296	153342
428.370	69149
428.444	7308
428.519	5830
428.593	8259
428.667	7445
428.742	9836
428.816	19202
428.890	106129
428.965	193800
429.039	62563
429.113	13804
429.188	4294
429.262	2440
429.336	7715
429.410	24845
429.485	12833
429.559	7915
429.633	5125
429.707	4575
429.781	14333
429.855	89790
429.930	127834
430.004	44319
430.078	45640
430.152	63324
430.226	200239
430.300	178931
430.374	24829
430.448	8253
430.522	18109
430.596	44504
430.670	42694
430.744	172405
430.818	213129
430.892	36423
430.966	6100
431.040	2883
431.114	1168
431.188	90
431.262	977
431.336	1628
431.410	4373
431.484	13737
431.557	9856
431.631	1796
431.705	4741
431.779	32150
431.853	134271
431.927	79945
432.000	8368
432.074	2492
432.148	1855
432.222	1043
432.295	1006
432.369	1462
432.443	6816
432.516	57339
432.590	132468
432.664	38860
432.737	4046
432.811	320
432.885	-357
432.958	458
433.032	-252
433.106	-202
433.179	-555
433.253	-61
433.326	-607
433.400	-142
433.473	48
433.547	-608
433.620	525
433.694	5435
433.767	6073
433.841	1295
433.914	3921
433.988	4639
434.061	962
434.134	683
434.208	-1121
434.281	-588
434.355	994
434.428	5966
434.501	4108
434.575	430
434.648	-89
434.721	-259
434.795	-274
434.868	15
434.941	-102
435.014	1179
435.088	4782
435.161	14033
435.234	15626
435.307	9577
435.381	5336
435.454	4732
435.527	6385
435.600	6406
435.673	4690
435.746	3230
435.819	2087
435.892	1902
435.966	2092
436.039	1399
436.112	883
436.185	-164
436.258	-392
436.331	-515
436.404	-709
436.477	-1254
436.550	-910
436.623	265
436.696	-632
436.769	1333
436.842	402
436.915	99
436.987	1238
437.060	1040
437.133	963
437.206	-412
437.279	-441
437.352	551
437.425	32
437.498	1494
437.570	4705
437.643	4322
437.716	-260
437.789	186
437.861	2112
437.934	8800
438.007	3060
438.080	476
438.152	1658
438.225	10720
438.298	79971
438.370	186599
438.443	58418
438.516	11003
438.588	1866
438.661	-424
438.734	-331
438.806	1050
438.879	1784
438.951	1550
439.024	3255
439.096	393
439.169	-101
439.241	-232
439.314	-725
439.386	367
439.459	1489
439.531	3850
439.604	617
439.676	-202
439.749	-175
439.821	-522
439.893	-638
439.966	-201
440.038	129
440.110	1432
440.183	-134
440.255	156
440.327	3229
440.400	30242
440.472	116023
440.544	59295
440.617	4900
440.689	3733
440.761	5130
440.833	7801
440.905	2669
440.978	438
441.050	-1028
441.122	-275
441.194	-839
441.266	-75
441.338	-404
441.411	4741
441.483	36179
441.555	43960
441.627	5830
441.699	2338
441.771	1200
441.843	219
441.915	-330
441.987	-184
442.059	-696
442.131	832
442.203	2479
442.275	4158
442.347	4398
442.419	11043
442.491	65821
442.563	143754
442.635	46594
442.706	16304
442.778	9632
442.850	2587
442.922	548
442.994	1774
443.066	3839
443.137	3468
443.209	3062
443.281	6701
443.353	16909
443.425	82969
443.496	276267
443.568	234256
443.640	73300
443.711	12464
443.783	3964
443.855	2122
443.926	1241
443.998	1192
444.070	1420
444.141	1620
444.213	4772
444.285	5653
444.356	3359
444.428	1587
444.499	135
444.571	94
444.642	311
444.714	1812
444.785	4301
444.857	3696
444.928	6066
445.000	3391
445.071	4871
445.143	7051
445.214	5848
445.285	13887
445.357	41629
445.428	186372
445.500	376626
445.571	207190
445.642	104465
445.714	29223
445.785	14915
445.856	6031
445.928	7392
445.999	4433
446.070	2683
446.141	4531
446.213	5489
446.284	1495
446.355	666
446.426	623
446.497	429
446.569	2214
446.640	4744
446.711	3285
446.782	-498
446.853	1126
446.924	1455
446.995	1074
447.066	-162
447.138	1205
447.209	-512
447.280	-1505
447.351	-696
447.422	-1034
447.493	132
447.564	1718
447.635	4067
447.706	699
447.777	-797
447.847	-822
447.918	-248
447.989	84
448.060	961
448.131	3724
448.202	3258
448.273	3154
448.344	187
448.414	376
448.485	51
448.556	-1026
448.627	-681
448.698	-302
448.768	-1141
448.839	-613
448.910	692
448.981	1084
449.051	28
449.122	-588
449.193	-990
449.263	77
449.334	-698
449.405	1213
449.475	5874
449.546	1331
449.616	2396
449.687	2734
449.758	301
449.828	-683
449.899	-936
449.969	-614
450.040	-832
450.110	-415
450.181	-444
450.251	-25
450.322	-572
450.392	-742
450.463	-1083
450.533	-425
450.604	-976
450.674	-1342
450.744	-379
450.815	-787
450.885	-561
450.955	61
451.026	-882
451.096	-729
451.166	-494
451.237	1118
451.307	4805
451.377	715
451.447	-2121
451.518	-415
451.588	-1146
451.658	-1093
451.728	153
451.799	5551
451.869	4234
451.939	-434
452.009	-1143
452.079	-1033
452.149	-179
452.219	1065
452.289	6045
452.360	2717
452.430	-54
452.500	1100
452.570	1388
452.640	6252
452.710	14098
452.780	15330
452.850	13355
452.920	11019
452.990	1658
453.060	2028
453.129	2802
453.199	1818
453.269	11213
453.339	17160
453.409	23150
453.479	30473
453.549	38835
453.619	37777
453.688	8656
453.758	1612
453.828	-559
453.898	-826
453.968	-686
454.037	357
454.087	386
454.107	387
454.168	-97
454.177	-181
454.247	-658
454.249	-638
454.316	-533
454.330	-359
454.386	246
454.411	1253
454.456	2776
454.492	3574
454.525	4218
454.574	2958
454.595	2398
454.655	909
454.665	675
454.734	307
454.736	382
454.804	2172
454.817	2998
454.873	5965
454.898	5733
454.943	5126
454.979	3309
455.013	1694
455.060	-0
455.082	-612
455.141	1403
455.152	1802
455.221	7217
455.222	7380
455.291	17830
455.303	21933
455.360	36317
455.384	50286
455.430	71291
455.465	46429
455.499	23438
455.546	12287
455.569	7667
455.627	4186
455.638	3591
455.707	937
455.708	948
455.777	-4
455.789	41
455.846	111
455.869	59
455.916	-67
455.950	48
455.985	153
456.031	-541
456.054	-908
456.112	-347
456.124	-232
456.193	965
456.193	955
456.262	369
456.274	468
456.332	763
456.355	801
456.401	753
456.436	520
456.470	178
456.516	-78
456.540	-165
456.597	-275
456.609	-290
456.678	509
456.678	497
456.747	-928
456.759	-897
456.817	-562
456.840	-392
456.886	-46
456.920	49
456.955	172
457.001	636
457.024	837
457.082	1142
457.093	1175
457.162	2076
457.163	2096
457.232	2070
457.243	1902
457.301	604
457.324	486
457.370	924
457.405	974
457.439	764
457.485	741
457.508	766
457.566	1633
457.577	1866
457.646	2018
457.647	2044
457.715	5197
457.727	5970
457.784	11226
457.808	15299
457.853	20731
457.889	24148
457.922	23780
457.969	14985
457.991	14449
458.050	19788
458.060	20581
458.129	33956
458.130	34341
458.198	36541
458.211	32896
458.267	15120
458.292	9827
458.336	6305
458.372	5766
458.405	8041
458.453	13162
458.474	17605
458.533	34389
458.543	35868
458.611	59619
458.614	59788
458.680	35439
458.694	28139
458.749	10790
458.775	7080
458.818	4164
458.855	2988
458.887	2223
458.936	1570
458.955	1546
459.016	1699
459.024	1738
459.093	2492
459.097	2535
459.162	2959
459.177	2935
459.230	2569
459.257	2845
459.299	3261
459.338	2874
459.368	2576
459.418	3225
459.437	3235
459.499	2071
459.505	2005
459.574	2126
459.579	2081
459.643	1060
459.659	1110
459.711	1815
459.740	1686
459.780	1470
459.820	1958
459.849	2245
459.900	2803
459.917	3200
459.981	3549
459.986	3513
460.054	4416
460.061	4554
460.123	4640
460.141	4133
460.191	3659
460.222	3832
460.260	3973
460.302	4800
460.328	4525
460.382	2815
460.397	2696
460.462	2274
460.465	2258
460.534	2584
460.543	2601
460.602	6914
460.623	8834
460.671	13180
460.703	17314
460.739	17555
460.783	15344
460.808	12599
460.864	3188
460.876	2454
460.944	1925
460.945	1920
461.013	2400
461.024	2469
461.081	2964
461.104	3270
461.150	3014
461.184	2539
461.218	2742
461.264	3089
461.286	3116
461.345	3582
461.355	3499
461.423	2649
461.425	2629
461.491	3686
461.505	3938
461.559	6502
461.585	7955
461.628	10289
461.665	12053
461.696	12397
461.745	13921
461.764	12390
461.825	4185
461.832	4004
461.901	3853
461.905	3907
461.969	3269
461.985	3010
462.037	3085
462.065	3078
462.105	3211
462.145	3351
462.173	4342
462.225	6196
462.241	6469
462.305	8591
462.310	8453
462.378	5472
462.385	5015
462.446	3208
462.465	2887
462.514	4388
462.545	5485
462.582	5776
462.625	6326
462.650	5573
462.705	3304
462.718	3265
462.785	2606
462.786	2610
462.854	3554
462.865	3661
462.922	4778
462.945	5457
462.990	4855
463.025	3716
463.058	2551
463.104	1224
463.126	1549
463.184	2576
463.194	2608
463.262	2897
463.264	2903
463.330	2844
463.344	2850
463.398	3314
463.424	3393
463.466	3026
463.504	3005
463.533	3395
463.583	3451
463.601	3431
463.663	3877
463.669	3992
463.737	5092
463.743	5231
463.805	8150
463.823	8833
463.873	10641
463.903	11939
463.940	13402
463.982	15106
464.008	12336
464.062	5608
464.076	5161
464.142	2961
464.144	2957
464.211	3248
464.221	3283
464.279	3849
464.301	4093
464.347	4523
464.381	4732
464.414	5327
464.461	6390
464.482	8879
464.540	15317
464.550	15952
464.617	21004
464.620	21131
464.685	11580
464.699	9277
464.753	8653
464.779	8476
464.820	8028
464.859	7746
464.888	7112
464.938	6004
464.956	6733
465.018	9444
465.023	9661
465.091	11876
465.098	12143
465.158	13542
465.177	13945
465.226	12852
465.257	11973
465.293	9771
465.336	6888
465.361	7226
465.416	8391
465.428	8754
465.495	10613
465.496	10647
465.563	12827
465.575	13302
465.631	16097
465.654	17225
465.698	11714
465.734	6785
465.765	5854
465.813	4561
465.833	4489
465.893	4424
465.900	4458
465.968	4693
465.972	4688
466.035	4519
466.052	4520
466.102	5420
466.131	5866
466.170	5762
466.210	5651
466.237	6088
466.290	6811
466.304	6691
466.369	6154
466.372	6187
466.439	6767
466.449	6843
466.506	7343
466.528	7455
466.573	9563
466.607	11193
466.641	15649
466.687	21791
466.708	23827
466.766	29424
466.775	27707
466.842	14211
466.845	13542
466.909	9021
466.925	7946
466.977	7375
467.004	7066
467.044	7253
467.083	7408
467.111	8098
467.163	9360
467.178	9771
467.242	11391
467.245	11367
467.312	10398
467.321	10249
467.379	9935
467.400	9792
467.446	10265
467.480	10571
467.559	9031
467.638	8597
467.717	8267
467.796	10582
467.875	12268
467.955	10863
468.034	11950
468.113	24688
468.192	32624
468.271	14046
468.350	11001
468.429	14459
468.508	15781
468.588	12448
468.667	8690
468.746	8785
468.825	8789
468.904	8340
468.983	9920
469.062	12953
469.141	14791
469.220	9150
469.299	7427
469.378	8816
469.456	10067
469.535	9959
469.614	8552
469.693	9554
469.772	12721
469.851	16414
469.930	13142
470.009	12854
470.088	13906
470.166	21093
470.245	42246
470.324	57987
470.403	39492
470.482	21996
470.560	14818
470.639	13552
470.718	15890
470.797	14482
470.875	12192
470.954	12454
471.033	13315
471.111	7489
471.190	7300
471.269	6212
471.347	6019
471.426	8617
471.505	8353
471.583	9298
471.662	8341
471.740	8027
471.819	9873
471.898	9355
471.976	7023
472.055	7305
472.133	7924
472.212	10212
472.290	9840
472.369	7912
472.447	6755
472.526	6568
472.604	7413
472.683	9310
472.761	10278
472.839	9113
472.918	8615
472.996	8921
473.075	9317
473.153	8957
473.231	7690
473.310	8351
473.388	8661
473.466	8068
473.545	9770
473.623	15776
473.701	16895
473.780	9608
473.858	5526
473.936	9737
474.014	7300
474.093	8232
474.171	10672
474.249	14066
474.327	11510
474.405	7021
474.484	7349
474.562	7890
474.640	7176
474.718	7383
474.796	7385
474.874	7074
474.952	6262
475.030	6650
475.108	7245
475.187	7144
475.265	7592
475.343	12675
475.421	14982
475.499	9226
475.577	10583
475.655	11516
475.733	14971
475.811	23194
475.889	21432
475.966	18048
476.044	7011
476.122	9123
476.200	12858
476.278	10338
476.356	5964
476.434	7734
476.512	8990
476.590	12088
476.667	10516
476.745	7105
476.823	6940
476.901	7404
476.979	5833
477.056	6766
477.134	6145
477.212	7290
477.290	7467
477.367	5912
477.445	5274
477.523	5691
477.601	5549
477.678	5871
477.756	6634
477.834	7275
477.911	6015
477.989	6415
478.066	6350
478.144	5616
478.222	8095
478.299	14584
478.377	14933
478.454	5141
478.532	4669
478.609	6672
478.687	8857
478.764	6594
478.842	7894
478.919	10279
478.997	9878
479.074	5259
479.152	7003
479.229	8812
479.307	7018
479.384	5079
479.461	5252
479.539	5402
479.616	6293
479.694	6301
479.771	6274
479.848	6151
479.926	7347
480.003	10964
480.080	7444
480.157	6456
480.235	5540
480.312	7127
480.389	4615
480.467	8405
480.544	11715
480.621	7280
480.698	6929
480.775	7083
480.853	6901
480.930	5818
481.007	6870
481.084	6488
481.161	7043
481.238	6768
481.315	5275
481.392	4873
481.470	5757
481.547	5886
481.624	5059
481.701	4894
481.778	5298
481.855	6151
481.932	9663
482.009	14081
482.086	11198
482.163	8205
482.240	12145
482.317	19443
482.393	17677
482.470	7804
482.547	6834
482.624	6251
482.701	6960
482.778	6557
482.855	6334
482.932	8234
483.009	6366
483.085	7872
483.162	8198
483.239	9379
483.316	6897
483.393	7923
483.469	6921
483.546	6908
483.623	7892
483.699	6155
483.776	6322
483.853	7006
483.930	10001
484.006	20951
484.083	34673
484.160	24227
484.236	29968
484.313	25696
484.389	18289
484.466	18021
484.543	17028
484.619	17706
484.696	19646
484.772	17598
484.849	17727
484.925	15083
485.002	14470
485.078	15839
485.155	17043
485.231	13803
485.308	12996
485.384	13836
485.461	16171
485.537	24470
485.614	30635
485.690	15895
485.766	15118
485.843	15432
485.919	27772
485.995	32573
486.072	16147
486.148	13749
486.224	13297
486.301	14059
486.377	15738
486.453	15646
486.530	15200
486.606	18237
486.682	20377
486.758	23312
486.835	27131
486.911	22527
486.987	35950
487.063	59753
487.139	88979
487.215	61780
487.292	27232
487.368	17708
487.444	19663
487.520	25671
487.596	28212
487.672	47291
487.748	139688
487.824	240079
487.900	106801
487.976	32658
488.052	22226
488.128	24483
488.204	21066
488.280	16715
488.356	16456
488.432	28742
488.508	45063
488.584	25042
488.660	18831
488.736	19482
488.812	17289
488.888	23844
488.964	30604
489.039	76511
489.115	138040
489.191	95767
489.267	18263
489.343	13734
489.418	12038
489.494	11283
489.570	9655
489.646	12960
489.722	10758
489.797	11740
489.873	15691
489.949	31283
490.024	34198
490.100	13112
490.176	12293
490.251	17502
490.327	26180
490.403	15669
490.478	11170
490.554	10057
490.629	9147
490.705	10246
490.781	11523
490.856	10741
490.932	14235
491.007	16002
491.083	13506
491.158	11528
491.234	12166
491.309	23488
491.385	28250
491.460	12275
491.536	12738
491.611	12971
491.686	14483
491.762	21113
491.837	50323
491.913	91588
491.988	122867
492.063	185906
492.139	54315
492.214	25429
492.289	14793
492.365	10860
492.440	12959
492.515	12496
492.590	11158
492.666	9403
492.741	12380
492.816	17161
492.891	13285
492.967	12152
493.042	12897
493.117	13757
493.192	18115
493.267	36045
493.342	155835
493.418	269847
493.493	56227
493.568	13697
493.643	11391
493.718	12579
493.793	16934
493.868	25816
493.943	18732
494.018	11293
494.093	8891
494.168	9705
494.243	9617
494.318	8644
494.393	8475
494.468	7929
494.543	9275
494.618	11380
494.693	9717
494.768	9146
494.842	8602
494.917	8704
494.992	9697
495.067	8808
495.142	7827
495.217	9740
495.292	11585
495.366	12152
495.441	16598
495.516	20767
495.591	26472
495.665	106763
495.740	298854
495.815	179565
495.890	20029
495.964	10449
496.039	12149
496.114	10400
496.188	9856
496.263	10707
496.338	8681
496.412	10301
496.487	13967
496.561	15883
496.636	17362
496.710	12044
496.785	11826
496.860	12599
496.934	10804
497.009	12451
497.083	10811
497.158	9840
497.232	11949
497.307	16289
497.381	13184
497.455	13419
497.530	16597
497.604	13117
497.679	11275
497.753	17587
497.827	22684
497.902	22200
497.976	22508
498.050	48985
498.125	205477
498.199	288234
498.273	56522
498.348	34313
498.422	27652
498.496	25389
498.570	26939
498.645	16043
498.719	11397
498.793	15552
498.867	22157
498.941	30510
499.016	76441
499.090	232534
499.164	135413
499.238	15233
499.312	11701
499.386	16398
499.460	15360
499.534	12493
499.609	14826
499.683	19433
499.757	17510
499.831	32098
499.905	138054
499.979	180182
500.053	29149
500.127	29901
500.201	31131
500.275	17811
500.349	13929
500.422	15965
500.496	23929
500.570	57091
500.644	104724
500.718	167219
500.792	60310
500.866	11892
500.940	12682
501.013	12567
501.087	11556
501.161	24638
501.235	32677
501.309	40783
501.382	118110
501.456	148814
501.530	36038
501.603	38748
501.677	24974
501.751	7427
501.825	11880
501.898	16850
501.972	46665
502.046	43766
502.119	10887
502.193	24084
502.266	55264
502.340	36314
502.413	21944
502.487	46910
502.561	31764
502.634	14901
502.708	12773
502.781	11804
502.855	10305
502.928	6177
503.002	6769
503.075	5801
503.149	6216
503.222	7440
503.295	7179
503.369	8381
503.442	10519
503.516	33564
503.589	91377
503.662	78872
503.736	24090
503.809	43585
503.882	47227
503.956	53361
504.029	72887
504.102	88796
504.175	138119
504.249	62143
504.322	24604
504.395	15880
504.468	10705
504.542	9168
504.615	6664
504.688	7260
504.761	6354
504.834	10801
504.907	13271
504.980	26185
505.053	13294
505.127	12957
505.200	18447
505.273	9135
505.346	7249
505.419	5790
505.492	6098
505.565	5093
505.638	4173
505.711	4761
505.784	5227
505.857	4096
505.930	6173
506.003	4015
506.076	6289
506.149	6998
506.221	7531
506.294	8875
506.367	16435
506.440	63871
506.513	57978
506.586	12177
506.659	7642
506.731	7590
506.804	9523
506.877	15873
506.950	9983
507.022	6961
507.095	5506
507.168	10138
507.241	9844
507.313	7001
507.386	8107
507.459	15463
507.531	10009
507.604	6928
507.677	7024
507.749	4277
507.822	8427
507.894	18740
507.967	22430
508.040	11896
508.112	9630
508.185	9092
508.257	7540
508.330	16658
508.402	9789
508.475	7681
508.547	8744
508.620	8100
508.692	11120
508.765	9219
508.837	5580
508.909	6807
508.982	6808
509.054	9177
509.127	8027
509.199	6851
509.271	5562
509.344	5504
509.416	6460
509.488	6428
509.560	6374
509.633	8177
509.705	11287
509.777	10462
509.849	16339
509.922	12342
509.994	7620
510.066	8125
510.138	6407
510.210	14497
510.283	13516
510.355	10613
510.427	10259
510.499	10145
510.571	9016
510.643	8643
510.715	17617
510.787	19017
510.859	11168
510.931	10855
511.003	17204
511.076	18468
511.148	7449
511.219	7259
511.291	11910
511.363	15888
511.435	8979
511.507	6003
511.579	7897
511.651	8438
511.723	6856
511.795	7047
511.867	7462
511.939	8388
512.010	14365
512.082	17451
512.154	8340
512.226	8936
512.298	13101
512.369	20063
512.441	16190
512.513	18636
512.585	12620
512.656	14012
512.728	13169
512.800	10711
512.871	9305
512.943	10277
513.015	8785
513.086	11185
513.158	12092
513.230	12487
513.301	20470
513.373	27248
513.444	14805
513.516	10882
513.588	10069
513.659	12545
513.731	16617
513.802	12877
513.874	29441
513.945	71091
514.016	30815
514.088	10795
514.159	11670
514.231	16680
514.302	21146
514.374	15133
514.445	11046
514.516	19774
514.588	16597
514.659	10850
514.730	16422
514.802	19796
514.873	12134
514.944	13968
515.016	11769
515.087	15378
515.158	15776
515.229	21456
515.301	11518
515.372	14184
515.443	10957
515.514	10732
515.585	8617
515.656	11638
515.728	10992
515.799	10041
515.870	13422
515.941	14077
516.012	14031
516.083	20222
516.154	22753
516.225	33298
516.296	37857
516.367	37445
516.438	45175
516.509	59910
516.580	88680
516.651	281740
516.722	1162329
516.793	778059
516.864	114209
516.935	85140
517.006	93596
517.077	126434
517.148	264664
517.219	1114785
517.289	2304759
517.360	585404
517.431	124737
517.502	46749
517.573	36983
517.643	31716
517.714	32267
517.785	37283
517.856	42936
517.926	55114
517.997	73766
518.068	99027
518.138	136138
518.209	206509
518.280	703562
518.350	2678633
518.421	1741282
518.492	248231
518.562	90160
518.633	60987
518.703	52081
518.774	73779
518.845	163334
518.915	195532
518.986	73293
519.056	41878
519.127	56292
519.197	77225
519.268	112041
519.338	79460
519.408	24385
519.479	34779
519.549	30838
519.620	20451
519.690	14633
519.760	12827
519.831	13946
519.901	15267
519.971	12954
520.042	13823
520.112	16916
520.182	24547
520.253	32661
520.323	31695
520.393	83538
520.463	225901
520.534	125011
520.604	320254
520.674	130655
520.744	59556
520.814	287056
520.885	321672
520.955	46807
521.025	91610
521.095	60621
521.165	14002
521.235	11131
521.305	10189
521.375	10026
521.445	12430
521.515	18940
521.585	21453
521.655	22776
521.725	16209
521.795	14529
521.865	8053
521.935	12876
522.005	11818
522.075	8393
522.145	10904
522.215	10045
522.285	13805
522.355	17051
522.424	29673
522.494	32586
522.564	22102
522.634	40302
522.704	151585
522.774	86342
522.843	15702
522.913	12979
522.983	19147
523.053	14594
523.122	13397
523.192	18073
523.262	71943
523.331	108159
523.401	21437
523.471	9132
523.540	10803
523.610	7793
523.680	7544
523.749	6368
523.819	9058
523.888	8982
523.958	6686
524.027	6848
524.097	8691
524.166	7768
524.236	9313
524.305	12765
524.375	7310
524.444	6761
524.514	9193
524.583	6367
524.653	9356
524.722	14347
524.791	14421
524.861	8973
524.930	7062
524.999	8488
525.069	14866
525.138	10091
525.207	11230
525.277	9684
525.346	9709
525.415	9977
525.484	11036
525.554	11705
525.623	12371
525.692	12627
525.761	14647
525.830	18231
525.900	22354
525.969	31119
526.038	55944
526.107	102200
526.176	342219
526.245	366415
526.314	114282
526.383	173956
526.452	293653
526.522	374834
526.591	533617
526.660	147122
526.729	75698
526.797	61169
526.867	102026
526.935	435736
527.004	950862
527.073	733769
527.142	84302
527.211	27090
527.280	21702
527.349	23023
527.418	12433
527.487	13627
527.555	14675
527.624	11763
527.693	8182
527.762	9008
527.831	7190
527.899	8016
527.968	8068
528.037	6107
528.106	9703
528.174	23310
528.243	19706
528.312	20359
528.380	40524
528.449	12751
528.518	8301
528.586	4848
528.655	6428
528.723	4627
528.792	5049
528.861	6152
528.929	4831
528.998	6298
529.066	6306
529.135	8887
529.203	7181
529.272	7984
529.340	12179
529.409	12081
529.477	11298
529.545	12450
529.614	19723
529.682	29925
529.751	29507
529.819	42209
529.887	30628
529.956	15092
530.024	15658
530.092	14635
530.161	16049
530.229	23715
530.297	18959
530.365	14215
530.434	13528
530.502	13104
530.570	12124
530.638	9285
530.707	13007
530.775	12633
530.843	9758
530.911	11093
530.979	12418
531.047	11488
531.115	12456
531.183	11072
531.252	11891
531.320	10663
531.388	10595
531.456	12160
531.524	10867
531.592	13152
531.660	16087
531.728	12578
531.796	12994
531.864	12991
531.932	13139
532.000	12340
532.067	14291
532.135	16892
532.203	19067
532.271	20578
532.339	30817
532.407	76665
532.475	65343
532.542	25939
532.610	26479
532.678	30539
532.746	93599
532.814	326130
532.881	128415
532.949	29024
533.017	20146
533.084	15422
533.152	14431
533.220	14242
533.287	16584
533.355	15595
533.423	14561
533.490	13663
533.558	14388
533.625	14334
533.693	14471
533.761	14350
533.828	15147
533.896	14575
533.963	28305
534.031	38519
534.098	47278
534.166	29645
534.233	15882
534.300	16902
534.368	17798
534.435	16882
534.503	21430
534.570	46172
534.637	38559
534.705	22487
534.772	28720
534.840	51141
534.907	149311
534.974	279524
535.041	46999
535.109	18462
535.176	14538
535.243	12983
535.310	13811
535.378	13693
535.445	11345
535.512	9855
535.579	11085
535.646	10851
535.714	11109
535.781	13029
535.848	12911
535.915	13657
535.982	12950
536.049	15257
536.116	14757
536.183	11872
536.250	12764
536.317	12839
536.384	16634
536.451	22955
536.518	27252
536.585	18576
536.652	21828
536.719	31269
536.786	28685
536.853	19258
536.920	25610
536.987	43569
537.053	40124
537.120	128855
537.187	170488
537.254	20271
537.321	12474
537.388	13001
537.454	9329
537.521	9231
537.588	9452
537.654	10731
537.721	12005
537.788	11659
537.855	9806
537.921	10810
537.988	11275
538.055	11483
538.121	11747
538.188	12516
538.254	20377
538.321	47841
538.388	34199
538.454	13271
538.521	11818
538.587	8914
538.654	9437
538.720	10184
538.787	10277
538.853	8670
538.920	12770
538.986	13222
539.053	10453
539.119	11067
539.185	11938
539.252	13654
539.318	25301
539.385	20800
539.451	12608
539.517	13540
539.583	15209
539.650	30014
539.716	112530
539.782	45105
539.849	12057
539.915	12019
539.981	12601
540.047	17874
540.114	15946
540.180	15065
540.246	13991
540.312	20412
540.378	43608
540.444	49962
540.510	38339
540.576	128710
540.643	62280
540.709	13054
540.775	12196
540.841	12699
540.907	22990
540.973	72494
541.039	52333
541.105	29245
541.171	15022
541.237	11531
541.303	12815
541.369	15156
541.435	19912
541.500	39890
541.566	28705
541.632	11485
541.698	9205
541.764	9907
541.830	8497
541.896	7524
541.961	9931
542.027	9923
542.093	10782
542.159	12198
542.224	12486
542.290	21056
542.356	36520
542.421	50981
542.487	24474
542.553	14048
542.618	12750
542.684	11999
542.750	11460
542.815	14059
542.881	22173
542.947	94690
543.012	105833
543.078	14966
543.143	10849
543.209	10329
543.274	10382
543.340	12244
543.405	30516
543.471	75375
543.536	19424
543.602	9884
543.667	8077
543.732	9029
543.798	8204
543.863	9282
543.928	8208
543.994	6721
544.059	8735
544.124	9038
544.190	9120
544.255	10558
544.320	11416
544.386	11365
544.451	18292
544.516	23254
544.581	19503
544.646	52079
544.712	125538
544.777	27322
544.842	12247
544.907	11464
544.972	10258
545.037	9161
545.102	11138
545.168	10612
545.233	13170
545.298	13788
545.363	15189
545.428	18182
545.493	32835
545.558	90933
545.623	47831
545.688	12982
545.753	11874
545.818	11006
545.883	11504
545.947	10597
546.012	11060
546.077	11886
546.142	13480
546.207	12988
546.272	20178
546.337	22903
546.401	17480
546.466	14547
546.531	12762
546.596	14317
546.661	14955
546.725	15457
546.790	13355
546.855	14617
546.919	14905
546.984	16341
547.049	17499
547.113	20220
547.178	21833
547.243	24008
547.307	27410
547.372	33426
547.436	34184
547.501	30369
547.565	33761
547.630	37861
547.695	40780
547.759	33762
547.823	32272
547.888	30862
547.952	30641
548.017	31208
548.081	34628
548.146	37086
548.210	36500
548.274	34239
548.339	34552
548.403	31585
548.468	29384
548.532	28368
548.596	30200
548.660	29548
548.725	34182
548.789	37372
548.853	39154
548.917	33910
548.982	34439
549.046	33540
549.110	26531
549.174	26668
549.238	30637
549.303	31961
549.367	35515
549.431	32777
549.495	31238
549.559	30954
549.623	34860
549.687	41382
549.751	49794
549.815	47944
549.879	45491
549.943	42309
550.007	44973
550.071	45381
550.135	48454
550.199	44453
550.263	39896
550.327	37979
550.391	41267
550.455	42377
550.519	43845
550.582	45788
550.646	58089
550.710	66507
550.774	53723
550.838	53671
550.901	55219
550.965	59206
551.029	63133
551.093	71049
551.156	81990
551.220	111667
551.284	146123
551.347	97622
551.411	82863
551.475	89729
551.538	60597
551.602	54173
551.666	49041
551.729	45530
551.793	45238
551.856	43798
551.920	45244
551.983	45402
552.047	43062
552.110	43693
552.174	42399
552.237	43693
552.301	42220
552.364	40224
552.428	40702
552.491	42651
552.554	46158
552.618	47499
552.681	52090
552.745	59305
552.808	104920
552.871	182443
552.934	119007
552.998	66623
553.061	52542
553.124	45054
553.187	43737
553.251	47972
553.314	48628
553.377	49405
553.440	61866
553.503	142476
553.567	319159
553.630	97368
553.693	46065
553.756	41906
553.819	40089
553.882	37498
553.945	36860
554.008	36490
554.071	36515
554.134	37164
554.197	34647
554.260	32108
554.323	35894
554.386	35702
554.449	36581
554.512	36614
554.575	35412
554.638	35827
554.701	35150
554.764	34515
554.827	32616
554.889	31423
554.952	29368
555.015	27469
555.078	29611
555.141	30928
555.203	29515
555.266	28414
555.329	29402
555.391	28370
555.454	30083
555.517	29573
555.580	27473
555.642	26358
555.705	24648
555.768	25824
555.830	25357
555.893	24143
555.955	23372
556.018	23541
556.080	23278
556.143	23198
556.206	24469
556.268	24732
556.330	26163
556.393	25272
556.455	23134
556.518	26747
556.580	30954
556.643	23118
556.705	21190
556.767	20402
556.830	21565
556.892	24292
556.955	38273
557.017	33812
557.079	22159
557.142	21362
557.204	24639
557.266	49114
557.328	50790
557.391	20403
557.453	19761
557.515	18807
557.577	23170
557.639	29153
557.701	21467
557.764	19472
557.826	21218
557.888	25021
557.950	27780
558.012	29319
558.074	39059
558.136	87635
558.198	298671
558.260	142255
558.322	39075
558.384	37054
558.446	43319
558.508	51342
558.570	64645
558.632	96424
558.694	149898
558.756	157123
558.818	435393
558.880	1428366
558.942	607977
559.003	327883
559.065	207826
559.127	64091
559.189	58423
559.251	62583
559.312	85230
559.374	200918
559.436	840380
559.498	590214
559.559	87874
559.621	61005
559.683	62474
559.744	92890
559.806	327382
559.868	704230
559.929	163581
559.991	59318
560.052	79934
560.114	265831
560.176	223395
560.237	133565
560.299	299708
560.360	84291
560.422	20870
560.483	16253
560.545	14356
560.606	11812
560.667	11841
560.729	11596
560.790	10577
560.852	10639
560.913	11064
560.974	10388
561.036	10702
561.097	9959
561.158	10921
561.220	11661
561.281	11793
561.342	11883
561.403	13960
561.465	18183
561.526	52017
561.587	96274
561.648	27929
561.709	12439
561.771	10681
561.832	10342
561.893	9453
561.954	10187
562.015	9562
562.076	9433
562.137	8787
562.198	8965
562.259	9384
562.320	8268
562.381	11081
562.442	19434
562.503	17533
562.564	9730
562.625	9002
562.686	8217
562.747	9981
562.808	9261
562.869	8970
562.930	8835
562.991	9244
563.051	8915
563.112	8301
563.173	7430
563.234	7166
563.294	8187
563.355	9440
563.416	10043
563.477	9332
563.537	8066
563.598	8657
563.659	8942
563.720	8670
563.780	9071
563.841	10173
563.901	9246
563.962	8372
564.023	7827
564.083	9273
564.144	8654
564.204	8391
564.265	8313
564.325	9123
564.386	15366
564.446	17302
564.507	7447
564.567	7827
564.628	8165
564.688	8124
564.749	6562
564.809	9083
564.869	10061
564.930	9132
564.990	8155
565.050	7468
565.111	6965
565.171	7093
565.231	7053
565.292	8043
565.352	6881
565.412	7629
565.472	8181
565.532	10316
565.593	8209
565.653	8257
565.713	7940
565.773	9105
565.833	12403
565.893	20527
565.953	11218
566.013	7905
566.074	8758
566.134	10900
566.194	15726
566.254	21278
566.314	12951
566.374	9051
566.434	10118
566.494	8374
566.554	7426
566.614	8158
566.673	8081
566.733	8782
566.793	8541
566.853	8197
566.913	8799
566.973	9804
567.033	9215
567.092	11080
567.152	10155
567.212	10427
567.272	9430
567.331	9994
567.391	8980
567.451	9948
567.511	11960
567.570	13750
567.630	10164
567.690	9313
567.749	8505
567.809	9413
567.868	10298
567.928	10722
567.988	10860
568.047	12094
568.107	12776
568.166	16556
568.226	21770
568.285	29419
568.345	26009
568.404	24487
568.464	21648
568.523	19708
568.582	19383
568.642	22151
568.701	25106
568.761	30082
568.820	44181
568.879	47588
568.939	39775
568.998	31331
569.057	24054
569.116	20957
569.176	17350
569.235	15209
569.294	14014
569.353	12724
569.413	10955
569.472	11238
569.531	9839
569.590	8803
569.649	8556
569.708	9171
569.767	9388
569.827	12231
569.886	10813
569.945	7945
570.004	9149
570.063	8835
570.122	9793
570.181	10696
570.240	10566
570.299	11102
570.358	11801
570.417	9404
570.475	7888
570.534	9347
570.593	10206
570.652	9144
570.711	10307
570.770	8532
570.829	10020
570.887	11292
570.946	12665
571.005	10120
571.064	10590
571.122	14755
571.181	14235
571.240	9871
571.299	8455
571.357	7200
571.416	8563
571.475	8749
571.533	9816
571.592	8169
571.650	8254
571.709	7320
571.768	8529
571.826	8900
571.885	7315
571.943	5906
572.002	6661
572.060	7166
572.119	5383
572.177	5909
572.236	6258
572.294	5762
572.352	6275
572.411	6850
572.469	6568
572.528	6301
572.586	5791
572.644	6973
572.703	10941
572.761	8134
572.819	5481
572.877	5522
572.936	4770
572.994	5356
573.052	6081
573.110	6026
573.169	6276
573.227	5989
573.285	5938
573.343	5613
573.401	4922
573.459	5666
573.517	5497
573.576	6589
573.634	5129
573.692	6500
573.750	5583
573.808	6254
573.866	5588
573.924	7521
573.982	7415
574.040	6327
574.098	5499
574.155	5749
574.213	5381
574.271	5663
574.329	5960
574.387	6064
574.445	4785
574.503	5392
574.560	4287
574.618	5091
574.676	4116
574.734	4620
574.792	5123
574.849	4997
574.907	4042
574.965	4353
575.022	3241
575.080	4453
575.138	4493
575.195	6266
575.253	5518
575.311	7427
575.368	5987
575.426	4486
575.483	4765
575.541	4912
575.598	4492
575.656	4323
575.713	5805
575.771	4574
575.828	4474
575.886	4124
575.943	5051
576.001	4969
576.058	4787
576.115	5029
576.173	6547
576.230	6942
576.287	11131
576.345	8351
576.402	4589
576.459	4927
576.517	4778
576.574	5804
576.631	4918
576.688	6136
576.746	4445
576.803	5395
576.860	3859
576.917	5428
576.974	4932
577.031	4844
577.089	4332
577.146	4541
577.203	4530
577.260	4933
577.317	5336
577.374	5824
577.431	5851
577.488	6865
577.545	4733
577.602	5426
577.659	5884
577.716	7522
577.773	10082
577.830	8485
577.886	7344
577.943	5244
578.000	5776
578.057	5887
578.114	7082
578.171	8661
578.227	8872
578.284	10511
578.341	9761
578.398	9519
578.454	8391
578.511	8573
578.568	9458
578.625	6656
578.681	6447
578.738	5455
578.794	6280
578.851	6109
578.908	5536
578.964	5815
579.021	6641
579.077	7103
579.134	7345
579.190	5920
579.247	4964
579.303	4225
579.360	4709
579.416	4935
579.473	3846
579.529	4577
579.586	4171
579.642	4959
579.698	5777
579.755	5268
579.811	6420
579.867	6033
579.924	5753
579.980	6977
580.036	7695
580.093	8868
580.149	12110
580.205	15065
580.261	13207
580.317	11789
580.374	9945
580.430	9739
580.486	7980
580.542	7718
580.598	7682
580.619	7700
580.654	7741
580.692	6830
580.710	6384
580.765	7455
580.767	7498
580.823	6488
580.838	6516
580.879	6588
580.911	6716
580.935	6822
580.984	6422
580.991	6375
581.047	6243
581.057	6221
581.103	6127
581.130	6500
581.159	6885
581.203	6925
581.215	6955
581.270	7249
581.276	7209
581.326	6812
581.349	6389
581.382	5758
581.422	6669
581.438	7057
581.494	6672
581.494	6664
581.550	6410
581.567	6643
581.606	7069
581.640	6652
581.661	6459
581.713	6833
581.717	6857
581.773	5790
581.786	5858
581.829	6231
581.859	6057
581.885	5834
581.932	5801
581.940	5806
581.996	5807
582.004	5923
582.052	6536
582.077	6187
582.107	5819
582.150	5651
582.163	5599
582.219	6053
582.223	6058
582.274	6142
582.296	6255
582.330	6513
582.368	6794
582.386	6913
582.441	7063
582.441	7063
582.497	6241
582.514	6613
582.552	7736
582.587	9475
582.608	10427
582.659	8568
582.663	8432
582.719	7944
582.732	7682
582.774	6752
582.805	7248
582.830	7788
582.877	7165
582.885	7037
582.941	8289
582.950	8299
582.996	8416
583.023	9211
583.052	10167
583.095	10523
583.107	10609
583.162	11097
583.168	11159
583.218	11231
583.240	10979
583.273	10791
583.313	10114
583.328	9903
583.384	9178
583.385	9173
583.439	8629
583.458	8381
583.494	8059
583.531	7719
583.549	7557
583.603	7447
583.605	7447
583.660	8032
583.676	7890
583.715	7388
583.748	7365
583.770	7382
583.820	7212
583.825	7199
583.881	7882
583.893	7666
583.936	6762
583.965	7048
583.991	7494
584.038	7117
584.046	6981
584.101	7028
584.110	7008
584.156	7156
584.183	7458
584.211	7645
584.255	7596
584.266	7671
584.321	7815
584.328	7848
584.376	7906
584.400	8028
584.431	8343
584.472	8069
584.486	7883
584.541	8636
584.545	8650
584.596	8869
584.617	8631
584.651	8626
584.689	9082
584.706	9043
584.761	9327
584.762	9325
584.816	9459
584.834	9462
584.871	9658
584.906	9859
584.926	9705
584.978	9270
584.980	9293
585.035	10154
585.051	10824
585.090	12209
585.123	12578
585.145	13025
585.195	14198
585.200	14318
585.254	17382
585.267	18423
585.309	22423
585.340	26948
585.364	29691
585.412	27226
585.419	27030
585.473	28472
585.484	29500
585.528	34973
585.556	42174
585.583	55004
585.628	89032
585.637	100740
585.692	215782
585.700	241822
585.747	344560
585.772	284865
585.801	185855
585.845	67631
585.856	48570
585.910	26562
585.917	25115
585.965	19808
585.989	17974
586.019	16327
586.061	14867
586.074	14305
586.128	13632
586.133	13552
586.183	13549
586.205	13612
586.237	13260
586.277	12874
586.292	12886
586.346	12261
586.349	12215
586.401	11571
586.421	11972
586.455	12576
586.493	12912
586.509	13161
586.564	13555
586.565	13655
586.618	19236
586.637	19515
586.672	18489
586.709	16071
586.727	15270
586.781	15818
586.781	15818
586.835	12801
586.853	12191
586.889	11744
586.925	11581
586.944	11304
586.996	10820
586.998	10850
587.052	12285
587.068	12496
587.106	12490
587.140	12107
587.161	11968
587.212	12098
587.215	12129
587.269	12781
587.284	12943
587.323	13482
587.356	13673
587.377	13411
587.427	13223
587.431	13312
587.485	14103
587.499	14318
587.539	14728
587.571	15167
587.593	15710
587.643	16890
587.648	16957
587.702	17162
587.715	17285
587.755	18069
587.786	18515
587.810	18813
587.858	19507
587.864	19662
587.917	21153
587.930	21462
587.971	22766
588.001	23879
588.025	25017
588.073	27213
588.079	27610
588.133	31161
588.145	31852
588.187	34734
588.217	37386
588.241	39616
588.288	44403
588.295	45336
588.348	53476
588.360	55122
588.402	61512
588.431	66527
588.456	71362
588.503	81513
588.510	83370
588.564	99849
588.575	103579
588.617	121243
588.646	134635
588.671	150335
588.718	184001
588.725	193621
588.778	280930
588.789	303099
588.832	485428
588.861	633005
588.886	849471
588.932	1315054
588.939	1344798
588.993	1458169
589.004	1446687
589.047	986075
589.075	653935
589.100	487605
589.147	255844
589.154	243252
589.207	183477
589.218	173809
589.261	165332
589.290	163089
589.314	171171
589.361	193997
589.368	204493
589.421	303855
589.433	329781
589.475	570279
589.504	768043
589.528	948595
589.576	1291436
589.582	1258076
589.635	773155
589.647	660159
589.689	352055
589.718	178697
589.742	140884
589.790	87033
589.795	84076
589.849	62963
589.861	58737
589.902	50936
589.932	45573
589.955	41816
590.004	34014
590.009	33664
590.062	31233
590.075	30510
590.115	28033
590.146	26478
590.168	26252
590.218	25674
590.222	25536
590.275	23590
590.289	22974
590.328	22579
590.360	22289
590.381	21839
590.431	20744
590.435	20787
590.488	20975
590.503	21073
590.541	20117
590.574	19245
590.594	19403
590.645	19509
590.647	19532
590.700	19292
590.716	19197
590.753	18610
590.787	18087
590.806	18075
590.859	17765
590.859	17804
590.912	18307
590.930	18394
590.965	18292
591.001	18210
591.018	18097
591.071	17527
591.072	17485
591.124	18167
591.143	18324
591.177	18471
591.214	18630
591.230	18691
591.283	18665
591.285	18628
591.336	19284
591.356	19506
591.389	19338
591.427	18888
591.442	18693
591.495	17688
591.498	17598
591.547	17255
591.569	17038
591.600	17385
591.640	17655
591.653	17568
591.706	17012
591.711	16939
591.759	17862
591.782	18194
591.811	18397
591.853	18710
591.864	18754
591.917	18521
591.924	18477
591.969	18340
591.995	18117
592.022	18322
592.066	18638
592.075	18724
592.127	18952
592.137	18973
592.180	20197
592.208	20873
592.233	19979
592.279	18122
592.285	18357
592.338	20115
592.350	20462
592.390	19783
592.421	19215
592.443	19656
592.491	20472
592.495	20485
592.548	19995
592.562	19825
592.600	19825
592.633	19727
592.653	19854
592.704	19976
592.705	20086
592.775	19825
592.846	20854
592.916	21172
592.987	20697
593.058	21181
593.128	21373
593.199	21351
593.270	21031
593.341	21729
593.411	21698
593.482	21916
593.553	22152
593.623	22721
593.694	21761
593.764	23268
593.835	21457
593.906	22420
593.976	22116
594.047	24084
594.117	25026
594.188	25358
594.258	23659
594.329	24567
594.399	24828
594.470	26004
594.540	24805
594.611	26478
594.681	25576
594.751	25985
594.822	27021
594.892	27959
594.963	28796
595.033	29698
595.103	29198
595.174	30428
595.244	31750
595.314	33763
595.384	31493
595.455	32428
595.525	33757
595.595	34690
595.665	34121
595.736	33733
595.806	33500
595.876	34624
595.946	35445
596.016	36508
596.087	36143
596.157	37773
596.227	36471
596.297	39239
596.367	41640
596.437	44556
596.507	44600
596.577	46262
596.647	45852
596.717	46661
596.787	47705
596.857	47268
596.927	48022
596.997	48363
597.067	48675
597.137	51328
597.207	50936
597.277	50143
597.347	46505
597.417	46282
597.487	47567
597.557	49527
597.626	48890
597.696	51529
597.766	50752
597.836	50569
597.906	45698
597.975	45970
598.045	45698
598.115	46995
598.185	51115
598.254	57966
598.324	60500
598.394	61751
598.464	60624
598.533	59211
598.603	55534
598.672	54467
598.742	56004
598.812	56295
598.881	57758
598.951	56803
599.020	57897
599.090	61025
599.159	61921
599.229	59307
599.299	57984
599.368	60064
599.437	59130
599.507	55891
599.576	54446
599.646	57008
599.715	56298
599.785	54431
599.854	52952
599.924	53209
599.993	53531
600.062	55720
600.132	56804
600.201	60140
600.270	66330
600.340	70106
600.409	68508
600.478	69758
600.547	70493
600.617	65604
600.686	56227
600.755	54883
600.824	52360
600.894	53074
600.963	52994
601.032	54436
601.101	52901
601.170	51729
601.239	51918
601.308	52582
601.378	53559
601.447	54284
601.516	55631
601.585	56917
601.654	58764
601.723	59768
601.792	59791
601.861	64139
601.930	68109
601.999	68845
602.068	66712
602.137	68615
602.206	68618
602.275	69721
602.343	71489
602.412	72600
602.481	70820
602.550	70985
602.619	73732
602.688	73338
602.756	73451
602.825	74104
602.894	75963
602.963	75051
603.032	76024
603.100	76563
603.169	75965
603.238	78616
603.307	75793
603.375	77086
603.444	81022
603.513	75313
603.581	77790
603.650	81363
603.719	69334
603.787	69082
603.856	70775
603.924	73159
603.993	74010
604.061	77667
604.130	79919
604.198	81519
604.267	83933
604.335	84855
604.404	84698
604.472	87711
604.541	87231
604.609	90681
604.678	91481
604.746	93695
604.815	96607
604.883	94804
604.951	93335
605.020	95033
605.088	90883
605.156	88698
605.225	89610
605.293	88825
605.361	90137
605.429	89198
605.498	90977
605.566	92717
605.634	96529
605.702	98578
605.771	100975
605.839	102633
605.907	95456
605.975	98367
606.043	92689
606.111	91866
606.180	97557
606.248	91787
606.316	91267
606.384	93436
606.452	82159
606.520	78189
606.588	77300
606.656	76834
606.724	75086
606.792	70899
606.860	64300
606.928	58347
606.996	56603
607.064	56357
607.132	57016
607.200	61164
607.267	62827
607.335	64167
607.403	64291
607.471	62079
607.539	61295
607.607	61127
607.674	53425
607.742	53563
607.810	53616
607.878	54036
607.946	54517
608.013	57405
608.081	58767
608.149	58388
608.216	60314
608.284	62924
608.352	60907
608.419	60256
608.487	60367
608.555	59904
608.622	60564
608.690	63528
608.757	69783
608.825	70334
608.893	70158
608.960	65355
609.028	63471
609.095	64101
609.163	60959
609.230	54935
609.298	50988
609.365	54852
609.432	58283
609.500	64452
609.567	73622
609.635	84620
609.702	86766
609.769	83418
609.837	64832
609.904	56431
609.971	60776
610.039	71886
610.106	92717
610.173	170088
610.241	369460
610.308	182621
610.375	75561
610.442	59305
610.509	56236
610.577	57722
610.644	57253
610.711	59671
610.778	61650
610.845	63876
610.912	67875
610.980	72965
611.047	75705
611.114	71296
611.181	67115
611.248	66629
611.315	70611
611.382	73848
611.449	73569
611.516	77417
611.583	75931
611.650	76335
611.717	77479
611.784	81369
611.851	86974
611.918	97880
611.984	119364
612.051	170280
612.118	332001
612.185	787574
612.252	405767
612.319	117020
612.386	99767
612.452	92666
612.519	86410
612.586	85584
612.653	86885
612.719	89095
612.786	85004
612.853	79164
612.919	76519
612.986	78171
613.053	72738
613.120	68509
613.186	63731
613.253	68711
613.319	66802
613.386	67610
613.453	68064
613.519	70225
613.586	70470
613.652	76409
613.719	73642
613.785	72186
613.852	70022
613.918	69632
613.985	73241
614.051	81906
614.118	97710
614.184	89574
614.250	70219
614.317	70634
614.383	68211
614.449	68994
614.516	69129
614.582	70563
614.648	67713
614.715	68180
614.781	65438
614.847	65648
614.914	65784
614.980	63876
615.046	64355
615.112	66554
615.179	65222
615.245	68701
615.311	67792
615.377	70843
615.443	70436
615.509	70825
615.575	70993
615.642	72044
615.708	75788
615.774	81247
615.840	90124
615.906	103570
615.972	134028
616.038	204151
616.104	408288
616.170	972382
616.236	670668
616.302	161010
616.368	120107
616.434	91335
616.500	86898
616.565	96507
616.631	114319
616.697	94783
616.763	101847
616.829	150614
616.895	250666
616.961	214378
617.026	93889
617.092	73089
617.158	70518
617.224	68863
617.289	64691
617.355	60063
617.421	58062
617.487	61466
617.552	56593
617.618	57035
617.684	56580
617.749	59689
617.815	53806
617.880	52834
617.946	53485
618.012	55055
618.077	54617
618.143	53214
618.208	53967
618.274	57464
618.339	56610
618.405	46004
618.470	47224
618.536	46546
618.601	46485
618.667	43215
618.732	40671
618.798	40572
618.863	40578
618.928	40682
618.994	42181
619.059	43242
619.124	46799
619.190	42071
619.255	38944
619.320	40905
619.386	39771
619.451	39358
619.516	36986
619.581	38578
619.647	39269
619.712	39530
619.777	36661
619.842	38872
619.907	38831
619.972	40089
620.038	40250
620.103	37846
620.168	36934
620.233	39482
620.298	38346
620.363	39508
620.428	41876
620.493	43385
620.558	42170
620.623	43393
620.688	44111
620.753	42765
620.818	42441
620.883	43581
620.948	42858
621.013	43452
621.078	40322
621.143	41537
621.207	43572
621.272	40692
621.337	39836
621.402	39587
621.467	40083
621.532	40734
621.596	39250
621.661	38205
621.726	37835
621.791	39113
621.855	39565
621.920	39696
621.985	39175
622.049	41470
622.114	40071
622.179	41658
622.243	41741
622.308	42007
622.373	44846
622.437	43554
622.502	40486
622.566	40124
622.631	39329
622.695	42537
622.760	41744
622.824	42322
622.889	41626
622.953	42445
623.018	49784
623.082	48163
623.147	43450
623.211	42904
623.276	42435
623.340	40702
623.404	39103
623.469	39338
623.533	39594
623.597	38558
623.662	37372
623.726	34537
623.790	33235
623.854	32790
623.919	32948
623.983	33777
624.047	34326
624.111	34660
624.176	35943
624.240	35726
624.304	37436
624.368	35200
624.432	35709
624.496	37008
624.560	40502
624.625	40495
624.689	39629
624.753	40593
624.817	38550
624.881	36760
624.945	32635
625.009	33020
625.073	32799
625.137	34922
625.201	39274
625.265	38249
625.329	35002
625.393	35673
625.456	34897
625.520	37063
625.584	37597
625.648	39641
625.712	40915
625.776	48538
625.839	46370
625.903	32257
625.967	29181
626.031	34949
626.095	40554
626.158	33708
626.222	24674
626.286	24582
626.349	22407
626.413	22437
626.477	22792
626.540	22816
626.604	20511
626.668	22815
626.731	20981
626.795	21068
626.858	21235
626.922	20254
626.986	20855
627.049	19609
627.113	21185
627.176	21120
627.240	20140
627.303	20409
627.366	19164
627.430	20212
627.493	20724
627.557	19920
627.620	20804
627.684	20969
627.747	20300
627.810	18242
627.874	16953
627.937	16516
628.000	19253
628.064	18620
628.127	13444
628.190	15858
628.253	14737
628.317	14202
628.380	13348
628.443	12919
628.506	12786
628.569	12828
628.632	11236
628.696	12833
628.759	10795
628.822	11323
628.885	10302
628.948	12211
629.011	10945
629.074	10910
629.137	9659
629.200	9523
629.263	11685
629.326	9907
629.389	9574
629.452	10826
629.515	10441
629.578	9468
629.641	10260
629.704	10645
629.767	10745
629.830	9921
629.892	9823
629.955	8965
630.018	11154
630.081	11472
630.144	12136
630.207	9506
630.269	11456
630.332	10163
630.395	9315
630.458	9287
630.520	8085
630.583	10317
630.646	9590
630.708	9283
630.771	8500
630.834	9980
630.896	8539
630.959	10003
631.021	8505
631.084	9553
631.146	9438
631.209	10572
631.272	8595
631.334	10515
631.397	9126
631.459	9672
631.522	10684
631.584	10279
631.646	10829
631.709	13022
631.771	12884
631.834	12520
631.896	10625
631.958	10007
632.021	9690
632.083	9175
632.145	10160
632.208	9501
632.270	9819
632.332	7830
632.395	7608
632.457	10601
632.519	8648
632.581	9358
632.643	7575
632.706	9018
632.768	7253
632.830	9918
632.892	7918
632.954	9522
633.016	8830
633.078	8677
633.141	8308
633.203	9202
633.265	8958
633.327	9490
633.389	8577
633.451	10499
633.513	9506
633.575	11150
633.637	9607
633.698	9727
633.760	9898
633.822	9799
633.884	10483
633.946	10839
634.008	9935
634.070	11257
634.132	12826
634.193	12192
634.255	12777
634.317	12560
634.379	12821
634.441	11248
634.502	9839
634.564	11361
634.626	9022
634.687	9433
634.749	8108
634.811	9422
634.873	7407
634.934	8058
634.996	8537
635.057	8058
635.119	7301
635.181	8461
635.242	9189
635.304	6988
635.365	10185
635.427	8057
635.488	8460
635.550	8074
635.611	8529
635.673	5787
635.734	9282
635.796	9578
635.857	12034
635.918	10367
635.980	12881
636.041	12243
636.102	14434
636.164	13669
636.225	14205
636.286	10403
636.348	10108
636.409	9242
636.470	8534
636.531	8501
636.593	7058
636.654	8022
636.715	7313
636.776	7567
636.838	6929
636.899	8192
636.960	6819
637.021	7380
637.082	6089
637.143	6788
637.204	5402
637.265	6816
637.326	7082
637.387	7628
637.448	5300
637.509	7291
637.570	6145
637.631	7666
637.692	5164
637.753	5574
637.814	6466
637.875	6732
637.936	6907
637.997	6739
638.058	5351
638.119	7062
638.179	6140
638.240	6126
638.301	5181
638.362	5610
638.423	5014
638.483	6874
638.544	4103
638.605	6374
638.666	4927
638.726	6123
638.787	5973
638.848	5142
638.908	4592
638.969	5807
639.030	4362
639.090	4892
639.151	4271
639.211	6643
639.272	6400
639.332	9874
639.393	6744
639.453	5352
639.514	5914
639.574	5830
639.635	4696
639.695	5811
639.756	4327
639.816	5198
639.877	6410
639.937	9107
639.997	10126
640.058	5633
640.118	3806
640.178	6306
640.239	4376
640.299	4901
640.359	4403
640.420	5695
640.480	6651
640.540	6950
640.600	6743
640.661	6978
640.721	5154
640.781	8327
640.841	3903
640.901	6831
640.961	5603
641.021	6548
641.082	5090
641.142	8155
641.202	6314
641.262	3357
641.322	5469
641.382	3500
641.442	4830
641.502	5179
641.562	4506
641.622	4650
641.682	5216
641.742	6374
641.802	5483
641.861	5776
641.921	4469
641.981	6514
642.041	5923
642.101	6337
642.161	2928
642.221	4740
642.280	4791
642.340	4850
642.400	3030
642.460	5061
642.519	4335
642.579	4428
642.639	4879
642.698	3053
642.758	6338
642.818	4689
642.877	3677
642.937	4709
642.997	4522
643.056	7655
643.116	3536
643.175	6637
643.235	5000
643.294	5776
643.354	6950
643.414	8927
643.473	10609
643.532	15578
643.592	22801
643.651	37835
643.711	62875
643.770	117625
643.830	272548
643.889	551905
643.948	124247
644.008	20809
644.067	11079
644.126	7927
644.186	7161
644.245	7130
644.304	4546
644.363	7949
644.423	4538
644.482	5760
644.541	6072
644.600	5717
644.659	8252
644.719	11374
644.778	17360
644.837	28841
644.896	59643
644.955	132763
645.014	41978
645.073	10303
645.132	6462
645.191	6025
645.250	5361
645.309	7756
645.368	5671
645.427	9871
645.486	13553
645.545	24594
645.604	6878
645.663	6347
645.722	5907
645.781	8117
645.840	10074
645.898	14058
645.957	22693
646.016	33705
646.075	57174
646.134	104952
646.192	277544
646.251	389632
646.310	54536
646.369	14231
646.427	11292
646.486	6822
646.545	4817
646.603	5857
646.662	5399
646.721	5833
646.779	4988
646.838	5780
646.896	7372
646.955	10761
647.014	15596
647.072	30848
647.131	83494
647.189	39748
647.248	5609
647.306	5446
647.365	3847
647.423	2268
647.481	4472
647.540	2075
647.598	2689
647.657	2572
647.715	3683
647.773	2773
647.832	2769
647.890	1474
647.948	1434
648.007	4039
648.065	2008
648.123	2274
648.181	3944
648.240	3986
648.298	3063
648.356	2815
648.414	2174
648.472	2425
648.531	1952
648.589	2831
648.647	2456
648.705	2740
648.763	2491
648.821	2741
648.879	3246
648.937	5275
648.995	6817
649.053	10563
649.111	15866
649.169	25472
649.227	42540
649.285	87405
649.343	238331
649.401	114573
649.459	20474
649.516	13605
649.574	8518
649.632	18520
649.690	21093
649.748	11869
649.806	13476
649.863	27932
649.921	59198
649.979	39321
650.037	5429
650.094	2148
650.152	2353
650.210	1657
650.268	1563
650.325	1786
650.383	1616
650.440	1272
650.498	2284
650.556	2184
650.613	896
650.671	2564
650.728	1382
650.786	2193
650.843	3126
650.901	783
650.958	1869
651.016	1756
651.073	911
651.131	1264
651.188	344
651.246	1406
651.303	54
651.360	885
651.418	501
651.475	1709
651.532	192
651.590	2276
651.647	294
651.704	1380
651.762	91
651.819	1629
651.876	795
651.933	2051
651.990	1387
652.048	786
652.105	313
652.162	1930
652.219	455
652.276	1603
652.333	1601
652.390	708
652.448	1119
652.505	2200
652.562	1829
652.619	2048
652.676	3336
652.733	5300
652.790	1010
652.847	392
652.904	882
652.961	259
653.017	870
653.074	1722
653.131	1104
653.188	773
653.245	25
653.302	748
653.359	571
653.415	1976
653.472	422
653.529	2377
653.586	24
653.642	1162
653.699	1039
653.756	570
653.813	-44
653.869	2194
653.926	111
653.983	492
654.039	923
654.096	323
654.152	1535
654.209	-578
654.266	241
654.322	1167
654.379	818
654.435	1290
654.492	628
654.548	2599
654.605	1871
654.661	1644
654.717	425
654.774	1791
654.830	1273
654.887	769
654.943	335
655.000	1535
655.056	875
655.112	912
655.168	578
655.225	721
655.281	1334
655.337	1263
655.394	106
655.450	726
655.506	689
655.562	2031
655.618	1261
655.675	94
655.731	416
655.787	70
655.843	854
655.899	837
655.955	659
656.011	765
656.067	-876
656.123	1105
656.179	517
656.235	2115
656.291	79
656.347	2092
656.403	-320
656.459	875
656.515	1233
656.571	756
656.627	6
656.683	791
656.739	723
656.795	1430
656.850	-200
656.906	1824
656.962	1056
657.018	676
657.074	1469
657.129	2316
657.185	3118
657.241	7598
657.297	4220
657.352	1639
657.408	-253
657.464	1680
657.519	103
657.575	606
657.630	-750
657.686	119
657.742	116
657.797	535
657.853	-630
657.908	1463
657.964	-510
658.019	759
658.075	544
658.130	658
658.186	-1001
658.241	709
658.297	-216
658.352	1063
658.407	819
658.463	-70
658.518	-189
658.573	892
658.629	-388
658.684	89
658.739	867
658.795	832
658.850	855
658.905	191
658.960	653
659.016	246
659.071	80
659.126	918
659.181	-214
659.236	2672
659.291	2514
659.346	945
659.401	639
659.457	1800
659.512	1809
659.567	2111
659.622	523
659.677	637
659.732	-1333
659.787	66
659.842	-193
659.897	849
659.952	392
660.007	823
660.061	207
660.116	457
660.171	-216
660.226	52
660.281	926
660.336	-312
660.391	461
660.445	-597
660.500	841
660.555	540
660.610	-266
660.664	963
660.719	-47
660.774	1107
660.828	126
660.883	299
660.938	237
660.992	346
661.047	225
661.101	325
661.156	43
661.211	-717
661.265	-421
661.320	374
661.374	-126
661.429	-210
661.483	264
661.538	-279
661.592	-506
661.647	378
661.701	-412
661.755	482
661.810	-102
661.864	67
661.919	-802
661.973	966
662.027	88
662.081	-493
662.136	-1195
662.190	433
662.244	-151
662.299	-35
662.353	-222
662.407	-301
662.461	-353
662.515	754
662.569	-500
662.624	1036
662.678	-45
662.732	346
662.786	-613
662.840	105
662.894	404
662.948	529
663.002	319
663.056	-182
663.110	-391
663.164	561
663.218	-120
663.272	30
663.326	552
663.380	-122
663.434	-435
663.488	641
663.542	36
663.595	175
663.649	-1093
663.703	471
663.757	4
663.811	202
663.864	-364
663.918	579
663.972	236
664.026	19
664.079	355
664.133	441
664.187	73
664.240	115
664.294	-317
664.348	337
664.401	-313
664.455	16
664.508	1030
664.562	-437
664.615	160
664.669	118
664.722	-399
664.776	-417
664.829	-289
664.883	-158
664.936	-1114
664.990	-606
665.043	604
665.097	292
665.150	-57
665.203	166
665.257	-1289
665.310	920
665.363	-221
665.417	391
665.470	267
665.523	-117
665.576	-311
665.630	592
665.683	30
665.736	1145
665.789	105
665.842	-103
665.895	735
665.949	724
666.002	188
666.055	182
666.108	374
666.161	-30
666.214	479
666.267	941
666.320	8
666.373	1307
666.426	330
666.479	700
666.532	54
666.585	-67
666.638	296
666.691	481
666.744	667
666.796	828
666.849	-236
666.902	1071
666.955	412
667.008	428
667.060	-219
667.113	-244
667.166	26
667.219	318
667.271	213
667.324	-55
667.377	-8
667.430	802
667.482	581
667.535	1609
667.587	430
667.640	611
667.693	594
667.745	2462
667.798	2281
667.850	958
667.903	251
667.955	219
668.008	-334
668.060	351
668.113	-349
668.165	1061
668.218	-109
668.270	1143
668.322	-335
668.375	804
668.427	106
668.479	-50
668.532	259
668.584	-432
668.636	-313
668.689	688
668.741	149
668.793	55
668.845	-248
668.898	487
668.950	-179
669.002	465
669.054	160
669.106	409
669.158	-191
669.211	689
669.263	115
669.315	1552
669.367	1381
669.419	1173
669.471	923
669.523	642
669.575	1340
669.627	1380
669.679	420
669.731	1337
669.783	842
669.835	1610
669.886	658
669.938	23
669.990	683
670.042	775
670.094	777
670.146	1312
670.197	1536
670.249	2977
670.301	3267
670.353	7098
670.404	9707
670.456	13862
670.508	20443
670.560	30143
670.611	43692
670.663	72162
670.715	160066
670.766	278164
670.818	102469
670.869	13994
670.921	7125
670.972	5139
671.024	2004
671.075	2552
671.127	906
671.178	1930
671.230	1309
671.281	1442
671.333	734
671.384	2821
671.436	2374
671.487	4153
671.538	4965
671.590	8122
671.641	11112
671.692	21847
671.744	42141
671.795	28538
671.846	7280
671.897	3489
671.949	1750
672.000	1751
672.051	330
672.102	1251
672.153	-273
672.204	832
672.256	-154
672.307	1021
672.358	218
672.409	339
672.460	405
672.511	391
672.562	-77
672.613	696
672.664	59
672.715	425
672.766	-644
672.817	15
672.868	-422
672.919	701
672.970	-622
673.021	135
673.071	-973
673.122	-42
673.173	42
673.224	36
673.275	-571
673.326	429
673.376	-408
673.427	-407
673.478	-475
673.528	76
673.579	-375
673.630	-310
673.680	93
673.731	-156
673.782	-993
673.832	861
673.883	-621
673.934	-757
673.984	-296
674.035	-756
674.085	-298
674.136	-348
674.186	143
674.237	-61
674.287	-414
674.338	210
674.388	-958
674.438	-724
674.489	-651
674.539	205
674.589	-439
674.640	65
674.690	-653
674.740	-500
674.791	394
674.841	392
674.891	362
674.942	141
674.992	-792
675.042	445
675.092	-938
675.142	720
675.193	-242
675.243	117
675.293	-706
675.343	226
675.393	-755
675.443	-64
675.493	-310
675.543	-905
675.593	-142
675.643	522
675.693	-164
675.743	-541
675.793	-587
675.843	-886
675.893	-318
675.943	-128
675.993	-955
676.043	-392
676.093	-731
676.142	556
676.192	-764
676.242	313
676.292	-1354
676.341	246
676.391	-1247
676.441	-883
676.491	-983
676.540	-557
676.590	-267
676.640	-967
676.689	-905
676.739	-429
676.789	-806
676.838	-328
676.888	-656
676.937	-581
676.987	-532
677.037	138
677.086	-862
677.136	263
677.185	-1404
677.235	-328
677.284	-93
677.333	-203
677.383	-469
677.432	-907
677.482	-1099
677.531	-110
677.580	-1906
677.630	-731
677.679	-1023
677.728	-1333
677.778	-443
677.827	-785
677.876	-1124
677.925	-532
677.975	-362
678.024	-622
678.073	-101
678.122	93
678.171	-1236
678.220	-262
678.269	-663
678.319	-433
678.368	-533
678.417	128
678.466	-250
678.515	211
678.564	-803
678.613	-352
678.662	-1298
678.711	-447
678.760	-1176
678.809	136
678.857	-1617
678.906	231
678.955	-1466
679.004	-554
679.053	-1618
679.102	-229
679.151	-1198
679.199	-1098
679.248	-1021
679.297	-298
679.346	-1107
679.394	40
679.443	-1320
679.492	80
679.540	-762
679.589	-419
679.638	-500
679.686	71
679.735	-506
679.784	-863
679.832	-769
679.881	-1039
679.929	-1241
679.978	-474
680.026	-931
680.075	-104
680.123	-832
680.172	-1228
680.220	-801
680.268	-595
680.317	-1899
680.365	-583
680.414	-1312
680.462	-776
680.510	-777
680.559	-958
680.607	-763
680.655	-598
680.703	-1845
680.752	-566
680.800	-1042
680.848	-1402
680.896	-1289
680.945	-730
680.993	-835
681.041	2
681.089	-725
681.137	-1098
681.185	-641
681.233	-1300
681.258	-995
681.281	-710
681.329	-326
681.377	-1589
681.380	-1534
681.425	-646
681.473	-1095
681.502	-454
681.521	-21
681.569	-740
681.617	-524
681.624	-594
681.665	-1065
681.713	-368
681.745	-909
681.761	-1179
681.809	-737
681.857	-442
681.867	-417
681.904	-337
681.952	-1124
681.989	-1285
682.000	-1344
682.048	-920
682.096	-933
682.111	-871
682.143	-755
682.191	-624
682.233	-756
682.239	-777
682.286	-919
682.334	-1342
682.354	-908
682.382	-351
682.430	-809
682.476	-704
682.477	-705
682.525	-588
682.572	-1245
682.598	-963
682.620	-719
682.667	-166
682.715	-1354
682.720	-1256
682.763	-440
682.810	-419
682.841	-398
682.857	-377
682.905	-422
682.952	202
682.963	20
683.000	-692
683.047	-742
683.085	-711
683.095	-699
683.142	-151
683.190	-1367
683.206	-1254
683.237	-1053
683.284	-292
683.328	-535
683.332	-558
683.379	-263
683.426	-787
683.449	-886
683.473	-994
683.521	-281
683.568	-59
683.571	-88
683.615	-567
683.662	-898
683.693	-614
683.709	-461
683.757	-330
683.804	-303
683.814	-464
683.851	-1019
683.898	525
683.936	-876
683.945	-1218
683.992	-408
684.039	-356
684.057	-235
684.086	-45
684.133	-345
684.179	-575
684.180	-590
684.227	-488
684.274	250
684.300	-397
684.321	-920
684.368	-427
684.415	-132
684.422	-160
684.462	-281
684.509	-860
684.543	-340
684.556	-146
684.603	-416
684.649	-18
684.665	-204
684.696	-628
684.743	-393
684.786	-468
684.790	-474
684.837	-194
684.883	-882
684.908	-347
684.930	119
684.977	-536
685.023	-657
685.029	-686
685.070	-934
685.117	-667
685.150	-651
685.164	-612
685.210	-234
685.257	-144
685.272	-49
685.303	65
685.350	-728
685.393	547
685.396	648
685.443	-571
685.490	396
685.514	-61
685.536	-487
685.583	562
685.629	-366
685.636	-323
685.675	12
685.722	-664
685.757	258
685.768	515
685.815	-24
685.861	94
685.878	-162
685.908	-477
685.954	-279
686.000	9
686.000	9
686.047	177
686.093	-436
686.121	-203
686.139	-32
686.185	-61
686.232	-160
686.242	-337
686.278	-932
686.324	-36
686.363	-82
686.370	-77
686.416	-222
686.463	362
686.484	347
686.509	264
686.555	-262
686.601	286
686.606	265
686.647	88
686.693	232
686.727	-335
686.739	-531
686.785	244
686.831	191
686.848	113
686.877	-86
686.923	219
686.969	245
686.969	246
687.015	-1
687.061	228
687.090	233
687.107	191
687.153	282
687.199	-216
687.211	-97
687.245	249
687.291	-462
687.332	-136
687.336	-100
687.382	-365
687.428	-77
687.453	-136
687.474	-162
687.520	-159
687.565	515
687.574	449
687.611	143
687.657	-130
687.695	191
687.702	256
687.748	22
687.794	670
687.816	212
687.839	-251
687.885	437
687.931	149
687.937	158
687.976	92
688.022	562
688.058	302
688.067	265
688.113	-99
688.158	486
688.179	246
688.204	3
688.249	645
688.295	433
688.300	507
688.340	818
688.386	237
688.421	-109
688.431	-172
688.477	-391
688.522	722
688.542	371
688.567	-18
688.613	191
688.658	-5
688.663	33
688.703	376
688.749	-46
688.784	153
688.794	196
688.839	203
688.884	810
688.905	724
688.930	554
688.975	682
689.020	150
689.026	159
689.065	454
689.110	283
689.146	715
689.155	772
689.201	414
689.246	566
689.267	324
689.291	177
689.336	395
689.381	512
689.388	584
689.426	877
689.471	265
689.509	549
689.516	592
689.561	110
689.606	408
689.630	329
689.651	340
689.696	642
689.741	385
689.750	459
689.785	718
689.830	322
689.871	139
689.875	109
689.920	320
689.965	379
689.992	97
690.010	-12
690.054	300
690.099	434
690.112	563
690.144	786
690.189	444
690.233	-54
690.233	-53
690.278	-93
690.323	500
690.354	418
690.367	422
690.412	680
690.457	424
690.474	712
690.501	1060
690.546	834
690.590	1193
690.595	1137
690.635	607
690.680	969
690.716	529
690.724	483
690.769	1196
690.813	1130
690.836	1286
690.857	1623
690.902	2448
690.946	3419
690.957	3561
690.991	4387
691.035	6116
691.077	7638
691.080	7618
691.124	6141
691.168	4172
691.198	3194
691.213	2919
691.257	2447
691.301	1579
691.318	1340
691.346	1137
691.390	919
691.434	718
691.439	658
691.478	598
691.522	1004
691.559	1253
691.567	1276
691.611	1239
691.655	1396
691.680	1133
691.699	847
691.743	822
691.787	347
691.800	376
691.831	770
691.875	831
691.919	931
691.921	929
691.964	752
692.008	1235
692.041	820
692.052	767
692.096	1331
692.139	1088
692.162	1418
692.183	1642
692.227	1525
692.271	1536
692.282	1506
692.315	1456
692.359	1536
692.402	1428
692.403	1434
692.447	1556
692.490	1594
692.523	1779
692.534	1802
692.578	1512
692.622	1231
692.643	1204
692.666	1162
692.709	1063
692.753	718
692.763	747
692.797	1044
692.840	922
692.884	1130
692.884	1137
692.928	830
692.971	1323
693.004	1050
693.015	1012
693.059	1363
693.102	1645
693.124	1766
693.146	1756
693.189	1331
693.233	1624
693.245	1544
693.276	1433
693.320	1448
693.363	1567
693.365	1566
693.407	2004
693.450	2184
693.485	2387
693.493	2412
693.537	2548
693.580	3072
693.605	3142
693.624	3691
693.667	5125
693.710	6495
693.725	7055
693.753	8901
693.797	11784
693.840	15817
693.845	16017
693.883	13127
693.926	9469
693.966	6649
693.970	6483
694.013	5056
694.056	3528
694.086	2384
694.099	2259
694.142	2088
694.185	2058
694.206	1957
694.229	2009
694.272	2213
694.315	2121
694.326	2162
694.358	2159
694.401	2126
694.444	1907
694.446	1892
694.487	1815
694.530	1777
694.566	1754
694.573	1760
694.616	1736
694.659	1733
694.686	1697
694.702	1642
694.745	1492
694.787	1325
694.806	1206
694.830	1198
694.873	1380
694.916	1420
694.926	1424
694.959	1585
695.002	1715
695.044	1954
695.046	1960
695.087	1843
695.130	1432
695.166	1221
695.172	1267
695.215	1584
695.258	1637
695.286	1863
695.301	1914
695.343	1841
695.386	1953
695.406	1891
695.428	1809
695.471	1847
695.514	1651
695.526	1707
695.556	2066
695.599	2146
695.641	2413
695.646	2429
695.684	2240
695.726	1857
695.766	1521
695.769	1527
695.811	1864
695.854	1742
695.886	1922
695.896	1991
695.938	1867
695.981	1955
696.005	1998
696.023	2040
696.065	2167
696.108	2091
696.125	2189
696.150	2336
696.192	2328
696.235	2398
696.245	2381
696.277	2304
696.319	2379
696.361	2293
696.365	2280
696.404	2501
696.446	2741
696.485	2907
696.488	2907
696.530	2670
696.572	2776
696.604	2561
696.614	2515
696.656	2401
696.698	2408
696.724	2311
696.740	2326
696.783	2380
696.825	2590
696.844	2555
696.867	2501
696.909	2472
696.951	2420
696.964	2443
696.992	2624
697.034	2761
697.076	2876
697.083	2886
697.118	2851
697.160	2814
697.202	2663
697.203	2650
697.244	2571
697.286	2443
697.323	2304
697.327	2347
697.369	2532
697.411	2921
697.442	3064
697.453	3098
697.494	3297
697.536	3414
697.562	3526
697.578	3442
697.620	3061
697.661	2778
697.682	2627
697.703	2650
697.744	2709
697.786	2767
697.801	2767
697.828	3027
697.869	3327
697.911	3753
697.921	3817
697.952	3638
697.994	3491
698.035	3299
698.040	3262
698.077	3104
698.118	2890
698.160	2765
698.160	2755
698.201	2859
698.243	2925
698.279	2997
698.284	3006
698.325	3041
698.367	2972
698.399	2957
698.408	3018
698.449	3192
698.491	3449
698.518	3569
698.532	3555
698.573	3505
698.614	3417
698.638	3352
698.656	3349
698.697	3365
698.738	3337
698.757	3315
698.779	3362
698.820	3439
698.862	3504
698.877	3519
698.903	3674
698.944	3899
698.985	4127
698.996	4178
699.026	3887
699.067	3463
699.116	2948
699.235	3622
699.354	3378
699.474	3252
699.593	3423
699.713	3697
699.832	3034
699.951	3451
700.070	3493
700.190	3256
700.309	3373
700.428	2632
700.547	2757
700.667	2913
700.786	3564
700.905	2785
701.024	2733
701.143	2899
701.262	2907
701.381	3535
701.500	3217
701.619	3511
701.738	3468
701.857	4150
701.976	2335
702.095	3378
702.214	3378
702.333	3757
702.452	3145
702.571	2652
702.690	2843
702.809	3080
702.928	2181
703.047	3059
703.165	3242
703.284	3158
703.403	2675
703.522	3140
703.640	2831
703.759	3519
703.878	3163
703.997	2892
704.115	1999
704.234	2896
704.353	2468
704.471	2373
704.590	2965
704.708	2212
704.827	3119
704.946	2450
705.064	2240
705.183	2628
705.301	2429
705.420	3129
705.538	3120
705.656	2810
705.775	4135
705.893	7959
706.012	6019
706.130	2234
706.249	3092
706.367	3502
706.485	2486
706.604	2867
706.722	2313
706.840	3415
706.958	3321
707.077	2736
707.195	3256
707.313	2840
707.431	2709
707.549	2001
707.668	3193
707.786	3031
707.904	3290
708.022	3115
708.140	3111
708.258	2155
708.376	2503
708.494	2977
708.612	3612
708.730	3191
708.848	2958
708.966	3235
709.084	3817
709.202	3525
709.320	2624
709.438	2803
709.556	2013
709.674	2977
709.791	3594
709.909	2395
710.027	3162
710.145	3107
710.263	2876
710.380	2790
710.498	2518
710.616	3292
710.733	2841
710.851	2605
710.969	2843
711.086	2600
711.204	2626
711.322	2302
711.439	2676
711.557	2219
711.674	2949
711.792	2727
711.909	3482
712.027	3328
712.144	2501
712.262	3135
712.379	2764
712.497	4230
712.614	2648
712.732	2839
712.849	3318
712.966	3338
713.084	3688
713.201	2784
713.318	3296
713.436	3015
713.553	3900
713.670	2973
713.787	3678
713.905	2979
714.022	3581
714.139	3359
714.256	5354
714.373	6911
714.490	17048
714.608	53615
714.725	228807
714.842	112049
714.959	7165
715.076	3941
715.193	3840
715.310	3445
715.427	3111
715.544	3012
715.661	2612
715.778	2042
715.895	2531
716.011	2859
716.128	3385
716.245	3525
716.362	3090
716.479	2861
716.596	2273
716.713	2403
716.829	3102
716.946	1694
717.063	2624
717.180	2103
717.296	2423
717.413	2441
717.530	2487
717.646	1710
717.763	1956
717.880	2836
717.996	1955
718.113	1728
718.229	2832
718.346	1997
718.462	2198
718.579	4137
718.695	4348
718.812	3298
718.928	2460
719.045	2248
719.161	2425
719.277	2533
719.394	3632
719.510	3203
719.626	1884
719.743	4219
719.859	6650
719.975	16755
720.092	72983
720.208	86733
720.324	6958
720.440	2941
720.557	3084
720.673	4050
720.789	4859
720.905	5398
721.021	2707
721.137	2365
721.253	2100
721.369	1724
721.486	2578
721.602	2694
721.718	2550
721.834	2217
721.950	2141
722.066	2280
722.181	1686
722.297	1883
722.413	1962
722.529	2513
722.645	2455
722.761	1851
722.877	1638
722.993	2004
723.108	2076
723.224	1820
723.340	1491
723.456	2122
723.571	1932
723.687	1108
723.803	1161
723.918	2181
724.034	818
724.150	1986
724.265	2173
724.381	2587
724.497	2410
724.612	1234
724.728	1254
724.843	2638
724.959	1261
725.074	3561
725.190	2003
725.305	1445
725.421	1182
725.536	1679
725.651	1534
725.767	1876
725.882	2390
725.997	936
726.113	1955
726.228	2183
726.343	944
726.459	1593
726.574	945
726.689	879
726.804	2193
726.920	667
727.035	2061
727.150	1583
727.265	1670
727.380	1412
727.495	1614
727.610	1611
727.725	1534
727.841	2220
727.956	5578
728.071	2560
728.186	1894
728.301	1812
728.416	2094
728.531	1516
728.645	1324
728.760	1813
728.875	1369
728.990	1612
729.105	1275
729.220	849
729.335	1749
729.449	904
729.564	1021
729.679	1000
729.794	970
729.908	701
730.023	768
730.138	1739
730.253	1421
730.367	1100
730.482	1268
730.596	1468
730.711	1669
730.826	2146
730.940	1675
731.055	1718
731.169	1675
731.284	1085
731.398	652
731.513	1286
731.627	1335
731.742	1942
731.856	2014
731.970	1707
732.085	3701
732.199	3855
732.313	7885
732.428	26532
732.542	73151
732.656	21997
732.771	3667
732.885	3434
732.999	3400
733.113	3229
733.227	3270
733.342	3608
733.456	2984
733.570	3141
733.684	2718
733.798	2458
733.912	2635
734.026	3135
734.140	2293
734.254	2762
734.368	3427
734.482	3110
734.596	2508
734.710	2523
734.824	3045
734.938	2593
735.052	2183
735.166	2474
735.280	2264
735.393	2291
735.507	2868
735.621	3408
735.735	3099
735.849	2482
735.962	2280
736.076	2055
736.190	1937
736.303	2576
736.417	2839
736.531	2171
736.644	1486
736.758	1889
736.872	2207
736.985	1787
737.099	1811
737.212	1474
737.326	1610
737.439	1715
737.553	2343
737.666	1979
737.780	2092
737.893	3086
738.007	1773
738.120	1374
738.233	1923
738.347	2454
738.460	2453
738.573	1682
738.687	1822
738.800	2646
738.913	3395
739.026	2360
739.140	2109
739.253	1674
739.366	2623
739.479	1465
739.592	1913
739.705	1551
739.818	2206
739.932	2398
740.045	2240
740.158	1829
740.271	1608
740.384	1771
740.497	1819
740.610	2324
740.723	2510
740.836	957
740.949	2392
741.062	2335
741.174	2757
741.287	2571
741.400	1298
741.513	2068
741.626	1502
741.739	1757
741.851	1326
741.964	1784
742.077	1666
742.189	1742
742.302	2146
742.415	1867
742.527	1576
742.640	1849
742.753	1641
742.865	1541
742.978	1059
743.090	1864
743.203	1700
743.316	1468
743.428	2005
743.541	1551
743.653	1601
743.766	2215
743.878	1932
743.990	1407
744.103	1758
744.215	1183
744.327	1733
744.440	3242
744.552	2924
744.664	1628
744.777	1395
744.889	1067
745.001	1145
745.113	1407
745.226	1013
745.338	965
745.450	1675
745.562	1081
745.674	1560
745.786	1941
745.898	2020
746.010	1603
746.122	1642
746.234	1984
746.347	1494
746.459	1572
746.570	850
746.682	1759
746.794	2299
746.906	1478
747.018	1638
747.130	1133
747.242	666
747.354	323
747.466	1212
747.577	970
747.689	1797
747.801	1732
747.913	749
748.024	1334
748.136	1440
748.248	1064
748.359	958
748.471	1781
748.583	196
748.694	890
748.806	1708
748.918	960
749.029	1653
749.141	2395
749.252	1498
749.364	1162
749.475	2510
749.587	1022
749.698	1357
749.809	1521
749.921	812
750.032	1180
750.144	1187
750.255	792
750.366	810
750.478	1259
750.589	1051
750.700	657
750.811	1561
750.923	1221
751.034	3461
751.145	1854
751.256	768
751.367	1036
751.479	1276
751.590	205
751.701	667
751.812	341
751.923	1326
752.034	1530
752.145	1028
752.256	755
752.367	1799
752.478	993
752.589	1263
752.700	1112
752.811	689
752.922	490
753.032	778
753.143	1273
753.254	411
753.365	2112
753.476	637
753.586	1317
753.697	618
753.808	1605
753.919	381
754.029	-143
754.140	1022
754.251	1291
754.361	850
754.472	1291
754.582	636
754.693	1123
754.804	1360
754.914	875
755.025	801
755.135	1373
755.246	1343
755.356	383
755.466	2197
755.577	1256
755.687	960
755.798	336
755.908	897
756.018	562
756.129	357
756.239	1776
756.349	545
756.460	1181
756.570	932
756.680	6
756.790	696
756.900	859
757.011	644
757.121	565
757.231	692
757.341	1417
757.451	795
757.561	155
757.671	1677
757.781	228
757.891	1407
758.001	453
758.111	1544
758.221	1877
758.331	1730
758.441	1668
758.551	1062
758.661	1683
758.771	728
758.880	978
758.990	877
759.100	1225
759.210	734
759.320	1421
759.429	1113
759.539	1253
759.649	1102
759.758	1339
759.868	2547
759.978	1219
760.087	1721
760.197	1683
760.307	2681
760.416	1116
760.526	733
760.635	1700
760.745	2004
760.854	2204
760.964	1788
761.073	1939
761.182	1493
761.292	1860
761.401	1995
761.511	1345
761.620	1339
761.729	1614
761.839	1743
761.948	1623
762.057	1736
762.166	1336
762.276	795
762.385	2611
762.494	2885
762.603	2004
762.712	2521
762.822	1869
762.931	2315
763.040	1943
763.149	1735
763.258	2263
763.367	2169
763.476	2827
763.585	3024
763.694	2858
763.803	2215
763.912	2600
764.021	3368
764.130	3567
764.238	3885
764.347	4184
764.456	3459
764.565	4999
764.674	4743
764.783	6195
764.891	5552
765.000	7397
765.109	8375
765.217	9080
765.326	12356
765.435	14320
765.543	17169
765.652	21486
765.761	30599
765.869	44372
765.978	70756
766.086	123277
766.195	234151
766.303	459740
766.412	628275
766.520	517812
766.629	233244
766.737	113986
766.846	68383
766.954	45686
767.062	35110
767.171	26372
767.279	19756
767.387	15592
767.496	12513
767.604	11094
767.712	9960
767.820	9127
767.928	8610
768.037	7078
768.145	6884
768.253	8413
768.361	6241
768.469	6786
768.577	7380
768.685	7938
768.793	7581
768.901	7885
769.009	10469
769.117	12879
769.225	18556
769.333	28606
769.441	47989
769.549	92671
769.657	205433
769.765	452696
769.873	513334
769.981	225726
770.088	83919
770.196	44294
770.304	30425
770.412	21200
770.519	15406
770.627	13037
770.735	9990
770.842	8262
770.950	7614
771.058	6659
771.165	6112
771.273	5305
771.380	4488
771.488	5684
771.595	4950
771.703	3895
771.810	3881
771.918	3787
772.025	4196
772.133	3017
772.240	3592
772.348	4411
772.455	4322
772.562	2662
772.670	3222
772.777	4373
772.884	3145
772.991	2974
773.099	3255
773.206	2302
773.313	2616
773.420	2599
773.528	2585
773.635	2253
773.742	2634
773.849	2018
773.956	1914
774.063	2171
774.170	2458
774.277	2551
774.384	2112
774.491	1564
774.598	2384
774.705	2601
774.812	1432
774.919	2706
775.026	2200
775.133	1847
775.239	2422
775.346	902
775.453	1869
775.560	1519
775.667	2153
775.773	920
775.880	2326
775.987	1951
776.093	2294
776.200	1539
776.307	1200
776.413	2405
776.520	1411
776.627	1651
776.733	1378
776.840	552
776.946	2478
777.053	2719
777.159	2467
777.266	1242
777.372	3066
777.478	1987
777.585	1787
777.691	1650
777.798	2641
777.904	1885
778.010	2784
778.117	1865
778.223	1386
778.329	404
778.435	1643
778.542	1773
778.648	846
778.754	691
778.860	791
778.966	961
779.072	236
779.178	939
779.284	570
779.391	501
779.497	182
779.603	3800
779.708	2390
779.815	7066
779.920	26210
780.026	19262
780.132	1989
780.238	1022
780.344	987
780.450	1736
780.556	1066
780.661	982
780.767	1287
780.873	-71
780.979	1597
781.085	404
781.190	799
781.296	75
781.402	-36
781.507	366
781.613	484
781.719	-79
781.824	482
781.930	1200
782.035	544
782.141	926
782.246	-49
782.352	568
782.457	446
782.563	520
782.668	796
782.773	1135
782.879	-269
782.984	1353
783.090	1080
783.195	1587
783.300	656
783.405	1431
783.511	31
783.616	1100
783.721	501
783.826	1271
783.932	370
784.037	865
784.142	433
784.247	-238
784.352	1318
784.457	-90
784.562	954
784.667	814
784.772	353
784.877	-95
784.982	551
785.087	227
785.192	988
785.297	237
785.402	366
785.507	64
785.611	740
785.716	541
785.821	635
785.926	190
786.031	205
786.135	54
786.240	1441
786.345	-1030
786.450	815
786.554	-114
786.659	-16
786.763	-225
786.868	1075
786.973	1564
787.077	-272
787.182	665
787.286	944
787.391	948
787.495	572
787.600	182
787.704	-706
787.809	458
787.913	-1002
788.017	621
788.122	1158
788.226	76
788.330	-549
788.435	-421
788.539	198
788.643	-93
788.747	-158
788.852	-57
788.956	59
789.060	178
789.164	-286
789.268	-672
789.372	450
789.476	322
789.580	-15
789.684	-958
789.788	694
789.892	-34
789.996	383
790.100	-346
790.204	127
790.308	849
790.412	-265
790.516	-334
790.620	491
790.724	-297
790.828	-771
790.931	76
791.035	770
791.139	-327
791.242	-703
791.346	472
791.450	152
791.554	-843
791.657	-899
791.761	692
791.864	584
791.968	298
792.072	-309
792.175	-1125
792.279	124
792.382	446
792.486	-378
792.589	-696
792.693	-142
792.796	-881
792.899	483
793.003	20
793.106	-1226
793.209	-415
793.313	720
793.416	-1812
793.519	756
793.623	1290
793.726	236
793.829	-584
793.932	-894
794.035	-632
794.138	116
794.242	61
794.345	592
794.448	1021
794.551	2173
794.654	12085
794.757	9920
794.860	432
794.963	-447
795.066	-999
795.169	1190
795.272	-978
795.375	-982
795.477	-1418
795.580	701
795.683	-870
795.786	-182
795.889	-1554
795.991	-273
796.094	720
796.197	-1119
796.300	308
796.402	-595
796.505	-455
796.608	-631
796.710	-349
796.813	-1187
796.915	-1039
797.018	-338
797.120	-713
797.223	-2067
797.326	721
797.428	-923
797.530	-323
797.633	-688
797.735	28
797.838	-404
797.940	-138
798.042	-717
798.145	-1623
798.247	-160
798.349	-1496
798.452	-212
798.554	-737
798.656	-1148
798.758	-282
798.860	-992
798.962	-488
799.065	-295
799.167	-950
799.269	82
799.371	810
799.473	-431
799.575	-1779
799.677	-211
799.779	1428
799.881	-1372
799.983	365
800.085	-884
800.187	-200
800.289	-906
800.390	-693
800.492	171
800.594	293
800.696	-828
800.798	-471
800.899	-1309
801.001	-906
801.103	-614
801.205	-384
801.306	-834
801.408	-1746
801.509	-511
801.611	-397
801.713	-374
801.814	-487
801.916	-1272
802.017	-853
802.119	-954
802.220	-252
802.322	-1743
802.423	1344
802.525	-1670
802.626	-693
802.727	134
802.829	205
802.930	-2488
803.031	230
803.133	-1077
803.234	-1404
803.335	-612
803.436	-1537
803.538	-639
803.639	-1672
803.740	-754
803.841	-1653
803.942	-859
804.043	-214
804.144	-1378
804.245	-549
804.346	-1196
804.447	-1620
804.548	-1055
804.649	384
804.750	-823
804.851	-1182
804.952	-1435
805.053	-1295
805.154	-1196
805.255	-326
805.355	-801
805.456	-700
805.557	-1249
805.658	-1560
805.758	-212
805.859	-432
805.960	-1276
806.061	-1680
806.161	-646
806.262	-698
806.362	-606
806.463	-584
806.564	-563
806.664	-1398
806.765	-785
806.865	-356
806.966	-1078
807.066	-1725
807.166	386
807.267	-544
807.367	-729
807.468	-911
807.568	-2099
807.668	-230
807.769	-202
807.869	-981
807.969	-389
808.069	27
808.170	-895
808.270	-652
808.370	-515
808.470	-274
808.570	-1673
808.670	-738
808.770	-80
808.870	-1610
808.970	-340
809.070	-543
809.170	-979
809.271	-756
809.370	-775
809.470	-1430
809.570	-1189
809.670	-1177
809.770	-546
809.870	33
809.970	40
810.070	-314
810.169	-1104
810.269	-1835
810.369	281
810.469	-1257
810.568	-1607
810.668	-131
810.768	-984
810.867	-1069
810.967	-1377
811.066	-627
811.166	-901
811.265	-29
811.365	-1630
811.464	-1518
811.564	-279
811.663	-513
811.763	-2262
811.862	-1320
811.962	187
812.061	-968
812.160	-1066
812.260	-886
812.359	-722
812.458	-1089
812.557	306
812.657	-1147
812.756	-467
812.855	-500
812.954	-1052
813.053	-1066
813.153	-547
813.252	-1649
813.351	-715
813.450	-256
813.549	-1456
813.648	455
813.747	-1325
813.846	-193
813.945	-1379
814.044	-1123
814.143	-857
814.242	-428
814.341	-1449
814.439	-1293
814.538	-213
814.637	-1283
814.736	-711
814.835	-1291
814.933	-1571
815.032	-170
815.131	-798
815.229	-589
815.328	-330
815.427	47
815.525	420
815.624	-515
815.722	-464
815.821	538
815.919	-260
816.018	-719
816.116	1181
816.215	-574
816.313	-153
816.412	147
816.510	375
816.609	1646
816.707	388
816.805	318
816.904	-555
817.002	70
817.100	415
817.198	1035
817.296	-716
817.395	-164
817.493	847
817.591	-211
817.689	568
817.787	769
817.885	1208
817.983	3164
818.081	9442
818.179	25171
818.277	51658
818.375	19930
818.473	3265
818.571	2296
818.669	1604
818.767	1145
818.865	1070
818.963	1501
819.061	3550
819.158	7922
819.256	21436
819.354	57212
819.452	93351
819.549	25667
819.647	5155
819.745	2075
819.842	1681
819.940	16
820.038	210
820.135	-194
820.233	92
820.330	-303
820.428	-647
820.525	864
820.623	237
820.720	-952
820.818	225
820.915	242
821.012	463
821.110	-391
821.207	288
821.304	-454
821.402	206
821.499	312
821.596	608
821.693	297
821.791	-316
821.888	202
821.985	553
822.082	-515
822.179	734
822.276	-173
822.373	-239
822.470	231
822.567	-416
822.664	-180
822.761	-211
822.858	-1159
822.955	-268
823.052	-709
823.149	-852
823.246	-92
823.343	-1233
823.440	563
823.536	-1232
823.633	-142
823.730	-817
823.827	-865
823.923	-1069
824.020	362
824.117	-433
824.213	-1089
824.310	289
824.407	-668
824.503	-373
824.600	971
824.696	-166
824.793	473
824.889	-1309
824.986	-1231
825.082	-1065
825.179	96
825.275	90
825.371	-1010
825.468	-1303
825.564	-1471
825.660	-215
825.757	-491
825.853	369
825.949	-1403
826.045	-518
826.142	-1127
826.238	-201
826.334	-410
826.430	-1578
826.526	-659
826.622	-1199
826.718	-718
826.814	-809
826.910	-196
827.006	-1057
827.102	-1337
827.198	303
827.294	-615
827.390	-236
827.486	-187
827.582	-1952
827.678	-1831
827.774	-264
827.869	-1114
827.965	-27
828.061	-1762
828.157	-1048
828.252	-706
828.348	-1817
828.444	-608
828.539	-1414
828.635	-1294
828.731	-258
828.826	-1576
828.922	55
829.017	-1257
829.113	-302
829.208	-1496
829.304	-1564
829.399	526
829.495	-2036
829.590	-564
829.685	-1532
829.781	-311
829.876	-1468
829.971	-1102
830.066	-1189
830.162	-1514
830.257	-1119
830.352	-1479
830.447	-22
830.543	-1348
830.638	-2319
830.733	-1115
830.828	-1135
830.923	236
831.018	-508
831.113	-1047
831.208	-1517
831.303	-581
831.398	-1184
831.493	-750
831.588	-703
831.683	-1338
831.778	-985
831.873	-1761
831.967	-359
832.062	-1868
832.157	-2141
832.252	-612
832.346	-1596
832.441	128
832.536	-751
832.631	997
832.725	-981
832.820	-1365
832.914	-1252
833.009	-1165
833.104	-992
833.198	-648
833.293	-1166
833.387	-1053
833.482	-1238
833.576	-883
833.670	-375
833.765	-600
833.859	-1710
833.954	-1162
834.048	-1314
834.142	-1213
834.237	-1033
834.331	-1765
834.425	-993
834.519	-1751
834.613	-1242
834.708	-973
834.802	-1256
834.896	-1840
834.990	-1236
835.084	-300
835.178	-1154
835.272	-1234
835.366	-948
835.460	-1239
835.554	-701
835.648	-1521
835.742	-1393
835.836	-876
835.930	-1778
836.024	-713
836.117	-659
836.211	-1285
836.305	-654
836.399	-1235
836.493	-1945
836.586	-552
836.680	-1414
836.774	-782
836.867	186
836.961	-1348
837.055	-1648
837.148	-968
837.242	-1385
837.335	-1066
837.429	-1161
837.522	-1525
837.616	-1236
837.709	-277
837.803	-1471
837.896	-299
837.989	-1168
838.083	-1646
838.176	-1308
838.269	-1585
838.363	-1152
838.456	-1034
838.549	-941
838.642	-518
838.735	900
838.829	-313
838.922	-1447
839.015	-994
839.108	-1025
839.201	-886
839.294	-1176
839.387	-976
839.480	-2434
839.573	-1518
839.666	-1295
839.759	-1786
839.852	-1713
839.945	-881
840.038	-1892
840.131	-1179
840.223	-696
840.316	-817
840.409	-2161
840.502	-1946
840.594	-11
840.687	-2220
840.780	-1261
840.873	-1900
840.965	-1592
841.058	-824
841.150	-933
841.243	-2253
841.336	-925
841.428	-1075
841.521	-1695
841.613	-1778
841.706	-740
841.798	-1444
841.890	-1284
841.983	-1474
842.075	-687
842.167	-1340
842.260	-854
842.352	161
842.444	-1899
842.537	-1016
842.629	-1423
842.721	-1933
842.813	-1204
842.905	-2067
842.997	229
843.090	-1163
843.182	-1204
843.274	-1491
843.366	384
843.458	-476
843.550	-27
843.642	-1467
843.734	-334
843.826	-1953
843.918	-341
844.009	-1202
844.101	-1978
844.193	-1110
844.285	-935
844.377	-1146
844.469	96
844.560	-1628
844.652	-863
844.744	-806
844.835	-2117
844.927	-1036
845.019	-1201
845.110	-1141
845.202	-1056
845.293	-1316
845.385	-2228
845.476	-1256
845.568	-907
845.659	-2381
845.751	-915
845.842	-1038
845.934	-2203
846.025	-1496
846.116	-1306
846.208	-879
846.299	-1504
846.390	-1162
846.482	-1127
846.573	-439
846.664	-850
846.755	-1780
846.846	-1134
846.937	-2217
847.029	-1334
847.120	-1590
847.211	-1437
847.302	-1069
847.393	-2272
847.484	-1214
847.575	-1204
847.666	-1955
847.757	-1270
847.847	-1025
847.938	-215
848.029	-1573
848.120	-871
848.211	-1390
848.302	-1937
848.392	-1112
848.483	-825
848.574	-2113
848.664	-1413
848.755	-1709
848.846	-1348
848.936	-1523
849.027	-1437
849.118	-882
849.208	-1603
849.299	-525
849.389	-39
849.480	2269
849.570	5320
849.661	13981
849.751	18001
849.841	4013
849.932	-979
850.022	-1691
850.112	-1025
850.203	-753
850.293	-2103
850.383	-1169
850.474	-2594
850.564	-1434
850.654	-1198
850.744	-1926
850.834	-1314
850.924	-956
851.014	-1599
851.104	-1050
851.194	-1503
851.284	-1152
851.374	-1252
851.464	-1144
851.554	-1610
851.644	-1416
851.734	-1223
851.824	-1985
851.914	-1423
852.004	-866
852.094	-1351
852.183	-1052
852.273	-1419
852.363	-1372
852.452	-2122
852.542	-1003
852.632	-2036
852.721	-1358
852.811	-1571
852.901	-1146
852.990	-938
853.080	-498
853.169	-1482
853.259	-1257
853.348	-699
853.438	-393
853.527	453
853.617	794
853.706	4078
853.795	9081
853.885	23996
853.974	43745
854.063	85877
854.152	96711
854.242	21454
854.331	2959
854.420	113
854.509	-116
854.598	-837
854.687	-662
854.777	-717
854.866	-1386
854.955	-1029
855.044	-1513
855.133	-1141
855.222	-791
855.311	-1814
855.400	-1799
855.488	-1627
855.577	-1291
855.666	-1450
855.755	-1284
855.844	-309
855.933	-2371
856.021	-987
856.110	-797
856.199	-1200
856.288	-1194
856.376	-1579
856.465	-1722
856.554	-1419
856.642	-1093
856.731	-576
856.819	-1189
856.908	-1640
856.996	-1590
857.085	-1152
857.173	-2020
857.262	-1828
857.350	-1076
857.438	-1923
857.527	-1453
857.615	-1422
857.703	-1311
857.792	-1441
857.880	-1585
857.968	-1924
858.056	-604
858.145	-1436
858.233	-2373
858.321	-2107
858.409	-1466
858.497	-1914
858.585	-1094
858.673	-1321
858.761	-2096
858.849	-1650
858.937	-2054
859.025	-972
859.113	-550
859.201	-1483
859.289	-1282
859.377	-1672
859.465	-1755
859.552	-1433
859.640	-2082
859.728	-771
859.816	-1725
859.903	-828
859.991	-1519
860.079	-1430
860.166	-1819
860.254	-2170
860.342	-1120
860.429	-1972
860.517	-1735
860.604	-930
860.692	-1062
860.779	-1623
860.867	-2181
860.954	-1553
861.042	-808
861.129	-936
861.216	-1234
861.304	-1785
861.391	-1462
861.478	-1628
861.565	-1424
861.653	-891
861.740	-1402
861.827	-1783
861.914	-1484
862.001	-1256
862.089	-1751
862.176	-1240
862.263	-1786
862.350	-1870
862.437	-1957
862.524	-1703
862.611	-2286
862.698	-1591
862.785	-1041
862.871	-730
862.958	-1705
863.045	-1450
863.132	-1553
863.219	-1342
863.306	-2466
863.392	-1639
863.479	-2001
863.566	-1800
863.652	-1362
863.739	-1176
863.826	-1105
863.912	-1417
863.999	-2358
864.086	-1391
864.172	-1264
864.259	-2340
864.345	-915
864.432	-1134
864.518	-1382
864.604	-1421
864.691	-2786
864.777	-937
864.863	-700
864.950	-1522
865.036	-911
865.122	38
865.209	-228
865.295	-349
865.381	-357
865.467	-495
865.553	857
865.639	1458
865.726	4483
865.812	10240
865.898	20658
865.984	29905
866.070	61145
866.156	45363
866.242	8214
866.328	657
866.414	-62
866.499	-77
866.585	-210
866.671	-216
866.757	199
866.843	-385
866.928	-486
867.014	-489
867.100	-234
867.186	-313
867.271	-47
867.357	-94
867.442	-798
867.528	-1264
867.614	-1102
867.699	-484
867.785	-126
867.870	-301
867.956	-437
868.041	-696
868.127	-71
868.212	-1163
868.297	-923
868.383	-284
868.468	-371
868.553	-287
868.639	-724
868.724	800
868.809	-696
868.894	-649
868.979	-1241
869.065	-132
869.150	-1496
869.235	-1563
869.320	-1041
869.405	-120
869.490	-1212
869.575	-1011
869.660	-608
869.745	-648
869.830	-1639
869.915	-1077
870.000	-1822
870.085	-747
870.169	-1195
870.254	60
870.339	-1326
870.424	-1099
870.509	-1408
870.593	-544
870.678	-449
870.763	-1390
870.847	-561
870.932	-1245
871.016	-1055
871.101	-997
871.186	-797
871.270	-955
871.355	-543
871.439	-409
871.523	-914
871.608	-975
871.692	-610
871.777	-1338
871.861	-1114
871.945	-1389
872.030	-984
872.114	-1889
872.198	-525
872.282	-983
872.367	-1044
872.451	-1743
872.535	-872
872.619	-1683
872.703	-807
872.787	-2165
872.871	-1019
872.955	-1079
873.039	-1448
873.123	-1693
873.207	-738
873.291	-2417
873.375	-1881
873.459	-1183
873.543	-1347
873.627	-1313
873.711	-859
873.794	-942
873.878	-1720
873.962	-1996
874.045	-1170
874.129	-506
874.137	-522
874.213	-678
874.245	-986
874.296	-1488
874.352	-1534
874.380	-1557
874.460	-1684
874.464	-1689
874.547	-920
874.568	-812
874.631	-498
874.676	-899
874.714	-1244
874.784	-1451
874.798	-1485
874.881	-383
874.892	-515
874.965	-1448
874.999	-1269
875.048	-1032
875.107	-1118
875.131	-1162
875.215	-1475
875.215	-1475
875.298	-1547
875.323	-1377
875.381	-933
875.430	-657
875.465	-497
875.538	-1366
875.548	-1484
875.631	-1555
875.646	-1711
875.714	-2442
875.753	-1848
875.798	-1137
875.861	-930
875.881	-881
875.964	-936
875.968	-959
876.047	-1323
876.076	-1147
876.130	-799
876.183	-826
876.213	-850
876.291	-952
876.296	-964
876.379	-1245
876.398	-1345
876.462	-1648
876.506	-1526
876.545	-1380
876.613	-767
876.628	-624
876.711	-620
876.721	-604
876.794	-570
876.828	-800
876.877	-1136
876.935	-1197
876.960	-1187
877.043	-529
877.043	-530
877.125	-495
877.150	-502
877.208	-437
877.258	-535
877.291	-652
877.365	-837
877.374	-847
877.456	-212
877.472	-314
877.539	-716
877.579	-305
877.622	104
877.687	394
877.704	448
877.787	-786
877.794	-840
877.869	-1248
877.901	-898
877.952	-454
878.008	-593
878.034	-632
878.115	-854
878.117	-855
878.199	-790
878.222	-650
878.282	-261
878.329	-152
878.364	-134
878.437	-290
878.447	-277
878.529	-911
878.544	-823
878.611	-544
878.651	-575
878.694	-638
878.758	-520
878.776	-488
878.858	-788
878.865	-803
878.941	-848
878.972	-709
879.023	-514
879.078	-544
879.105	-514
879.185	16
879.187	27
879.269	-84
879.292	-252
879.351	-742
879.399	-878
879.433	-929
879.506	-215
879.516	-105
879.598	-366
879.613	-333
879.680	-325
879.720	-461
879.762	-550
879.827	-837
879.844	-862
879.926	44
879.933	98
880.007	397
880.040	512
880.089	746
880.147	857
880.171	1153
880.253	2677
880.254	2679
880.335	4411
880.360	5249
880.417	10363
880.467	15642
880.499	18505
880.574	21996
880.580	21078
880.662	6537
880.680	3776
880.744	1243
880.787	203
880.825	75
880.893	-337
880.907	-370
880.989	-97
881.000	-168
881.070	-555
881.106	-456
881.152	-10
881.213	135
881.233	29
881.315	-389
881.319	-379
881.396	-126
881.426	-182
881.478	-84
881.532	-188
881.559	-299
881.639	-902
881.641	-913
881.722	-470
881.745	-424
881.803	-98
881.852	-259
881.885	-410
881.958	-328
881.966	-313
882.047	-365
882.064	-302
882.129	251
882.171	539
882.210	942
882.277	1343
882.291	1181
882.372	494
882.383	337
882.454	-105
882.489	-320
882.535	-571
882.596	-482
882.616	-406
882.697	-441
882.702	-423
882.778	103
882.808	30
882.859	-414
882.914	-399
882.940	-307
883.020	-358
883.021	-354
883.102	-199
883.127	-180
883.183	-165
883.233	-53
883.264	-90
883.339	-643
883.345	-660
883.426	-649
883.445	-493
883.507	146
883.551	103
883.587	-53
883.657	261
883.668	392
883.749	672
883.763	670
883.830	-244
883.869	-257
883.910	-44
883.975	-405
883.991	-399
884.072	-96
884.081	-47
884.152	593
884.187	640
884.233	329
884.292	186
884.314	149
884.394	-100
884.398	-101
884.475	139
884.504	6
884.555	-167
884.610	-32
884.636	24
884.716	-133
884.716	-128
884.797	218
884.821	202
884.877	-83
884.927	-350
884.958	-236
885.033	9
885.038	-2
885.118	-43
885.139	-82
885.199	-56
885.244	-6
885.279	246
885.350	622
885.359	540
885.439	-100
885.456	-284
885.520	53
885.561	283
885.600	191
885.667	138
885.680	114
885.760	-288
885.773	-290
885.840	419
885.878	657
885.920	702
885.984	932
886.000	918
886.080	512
886.089	449
886.160	-401
886.195	-694
886.240	-340
886.300	165
886.320	298
886.400	680
886.406	697
886.480	768
886.511	742
886.560	846
886.616	1120
886.640	941
886.720	91
886.722	69
886.800	273
886.827	270
886.879	477
886.932	669
886.959	843
887.038	1457
887.039	1455
887.119	297
887.143	63
887.198	285
887.248	321
887.278	365
887.354	409
887.358	406
887.437	346
887.459	309
887.517	499
887.564	597
887.596	586
887.669	643
887.676	609
887.755	62
887.774	-95
887.835	256
887.880	586
887.914	562
887.985	319
887.994	348
888.073	819
888.090	860
888.153	860
888.195	895
888.232	838
888.300	678
888.311	571
888.391	-198
888.405	-350
888.470	-140
888.510	12
888.549	163
888.615	395
888.628	505
888.708	1053
888.720	1152
888.787	856
888.825	632
888.866	628
888.930	639
888.945	662
889.024	750
889.035	754
889.103	679
889.140	619
889.182	712
889.245	892
889.261	933
889.340	1049
889.349	1061
889.419	1006
889.454	954
889.498	715
889.559	387
889.577	533
889.656	1165
889.664	1223
889.735	1326
889.768	1374
889.814	954
889.873	386
889.978	519
890.083	1239
890.187	557
890.292	1220
890.397	743
890.501	370
890.606	612
890.710	1720
890.815	830
890.919	888
891.024	1479
891.128	1121
891.233	1098
891.337	1129
891.442	859
891.546	537
891.650	327
891.755	664
891.859	1584
891.963	760
892.068	503
892.172	870
892.276	742
892.380	834
892.484	1428
892.589	1042
892.693	1409
892.797	880
892.901	933
893.005	268
893.109	-57
893.213	685
893.317	792
893.421	672
893.525	735
893.629	749
893.733	673
893.837	788
893.941	-373
894.045	702
894.148	-604
894.252	316
894.356	438
894.460	1073
894.564	321
894.667	494
894.771	-449
894.875	99
894.978	564
895.082	537
895.186	302
895.289	1476
895.393	662
895.496	1631
895.600	177
895.703	458
895.807	627
895.910	178
896.014	112
896.117	-242
896.221	1091
896.324	352
896.427	691
896.531	194
896.634	179
896.737	868
896.840	852
896.944	337
897.047	-121
897.150	513
897.253	-229
897.356	201
897.460	118
897.563	-607
897.666	446
897.769	-286
897.872	184
897.975	41
898.078	-357
898.181	740
898.284	213
898.387	1012
898.490	118
898.593	109
898.695	-82
898.798	280
898.901	962
899.004	586
899.107	331
899.209	495
899.312	728
899.415	464
899.518	-63
899.620	81
899.723	494
899.826	1683
899.928	1692
900.031	351
900.133	708
900.236	-362
900.338	-62
900.441	177
900.543	769
900.646	322
900.748	-343
900.851	825
900.953	1385
901.055	839
901.158	1348
901.260	-305
901.362	364
901.465	120
901.567	411
901.669	1076
901.771	321
901.873	560
901.976	369
902.078	135
902.180	240
902.282	308
902.384	982
902.486	297
902.588	328
902.690	710
902.792	-60
902.894	501
902.996	629
903.098	673
903.200	-364
903.302	225
903.404	248
903.505	-345
903.607	788
903.709	851
903.811	625
903.913	551
904.014	-252
904.116	362
904.218	412
904.319	-51
904.421	309
904.523	-330
904.624	770
904.726	100
904.827	195
904.929	389
905.030	554
905.132	506
905.233	154
905.335	820
905.436	-208
905.537	-357
905.639	212
905.740	440
905.841	38
905.943	594
906.044	-513
906.145	24
906.247	526
906.348	418
906.449	-204
906.550	-226
906.651	-76
906.752	323
906.854	742
906.955	384
907.056	-56
907.157	300
907.258	117
907.359	360
907.460	802
907.561	183
907.662	-81
907.762	-62
907.863	9
907.964	289
908.065	1340
908.166	-5
908.267	282
908.367	631
908.468	117
908.569	558
908.670	475
908.770	545
908.871	423
908.971	734
909.072	-297
909.173	35
909.273	-468
909.374	129
909.474	-526
909.575	-265
909.675	245
909.776	633
909.876	-608
909.977	629
910.077	947
910.177	719
910.278	591
910.378	1057
910.478	-272
910.579	-10
910.679	29
910.779	571
910.879	731
910.980	117
911.080	-418
911.180	154
911.280	-357
911.380	463
911.480	-155
911.580	73
911.680	416
911.780	-50
911.880	301
911.980	286
912.080	402
912.180	93
912.280	313
912.380	650
912.480	-245
912.580	-109
912.679	-798
912.779	672
912.879	797
912.979	-36
913.078	556
913.178	-319
913.278	56
913.377	568
913.477	173
913.577	-2
913.676	1214
913.776	1031
913.875	-76
913.975	398
914.074	137
914.174	-361
914.273	-741
914.373	443
914.472	598
914.572	-521
914.671	297
914.770	-75
914.870	395
914.969	-438
915.068	-123
915.167	-741
915.267	385
915.366	167
915.465	257
915.564	-321
915.663	-215
915.763	427
915.862	-1
915.961	853
916.060	-291
916.159	945
916.258	-101
916.357	-812
916.456	782
916.555	21
916.654	-66
916.752	309
916.851	501
916.950	-76
917.049	-457
917.148	402
917.247	319
917.345	91
917.444	-156
917.543	79
917.642	701
917.740	209
917.839	605
917.937	47
918.036	519
918.135	-443
918.233	-219
918.332	67
918.430	-523
918.529	-130
918.627	-102
918.726	709
918.824	-517
918.923	26
919.021	171
919.119	-497
919.218	695
919.316	18
919.414	484
919.512	245
919.611	813
919.709	119
919.807	-23
919.905	92
920.003	-403
920.102	475
920.200	13
920.298	221
920.396	303
920.494	689
920.592	407
920.690	48
920.788	122
920.886	985
920.984	942
921.082	-333
921.180	477
921.277	413
921.375	352
921.473	228
921.571	658
921.669	613
921.766	428
921.864	832
921.962	383
922.060	568
922.157	895
922.255	267
922.352	472
922.450	993
922.548	-349
922.645	713
922.743	887
922.840	1948
922.938	2270
923.035	773
923.133	2431
923.230	1880
923.327	1843
923.425	2038
923.522	1946
923.619	1444
923.717	1584
923.814	2194
923.911	993
924.008	2465
924.106	1869
924.203	843
924.300	1416
924.397	1613
924.494	1437
924.591	1809
924.688	1095
924.786	1144
924.883	1591
924.979	1758
925.077	1914
925.173	2363
925.270	1354
925.367	2429
925.464	1889
925.561	2410
925.658	2381
925.755	2422
925.852	2571
925.948	2029
926.045	2474
926.142	2110
926.239	2142
926.335	1665
926.432	2236
926.529	1319
926.625	2077
926.722	1504
926.818	1557
926.915	1754
927.011	923
927.108	1584
927.204	669
927.301	1051
927.397	979
927.494	1678
927.590	837
927.687	1119
927.783	1441
927.879	1730
927.976	624
928.072	1239
928.168	871
928.264	1064
928.361	968
928.457	1866
928.553	909
928.649	1294
928.745	857
928.841	1353
928.937	1885
929.033	884
929.129	892
929.225	1438
929.321	442
929.417	435
929.513	896
929.609	956
929.705	497
929.801	1023
929.897	1306
929.993	836
930.089	998
930.184	179
930.280	1918
930.376	1519
930.471	1126
930.567	788
930.663	1016
930.758	603
930.854	252
930.950	731
931.045	364
931.141	1426
931.236	1216
931.332	434
931.427	937
931.523	1804
931.618	597
931.714	-5
931.809	591
931.905	1298
932.000	-1
932.095	446
932.191	1284
932.286	936
932.381	639
932.476	324
932.572	22
932.667	327
932.762	524
932.857	816
932.952	57
933.047	714
933.142	738
933.237	775
933.332	-54
933.427	1185
933.522	220
933.617	103
933.712	960
933.807	465
933.902	92
933.997	1264
934.092	617
934.187	448
934.282	1041
934.376	808
934.471	154
934.566	529
934.661	621
934.755	441
934.850	1445
934.945	1273
935.039	179
935.134	1035
935.228	1059
935.323	1403
935.417	-227
935.512	-172
935.606	758
935.701	286
935.795	714
935.890	1106
935.984	192
936.079	343
936.173	-285
936.267	415
936.362	814
936.456	574
936.550	49
936.644	1235
936.738	-54
936.833	1440
936.927	951
937.021	669
937.115	891
937.209	273
937.303	949
937.397	851
937.491	345
937.585	374
937.679	124
937.773	284
937.867	629
937.961	1139
938.055	737
938.149	970
938.243	172
938.337	68
938.430	360
938.524	736
938.618	685
938.712	906
938.805	743
938.899	-74
938.993	431
939.086	170
939.180	584
939.274	1543
939.367	683
939.461	503
939.554	61
939.648	572
939.741	20
939.835	198
939.928	834
940.022	742
940.115	532
940.208	946
940.302	46
940.395	1176
940.488	-459
940.582	25
940.675	-444
940.768	437
940.861	396
940.954	1012
941.048	-296
941.141	580
941.234	-333
941.327	1277
941.420	1884
941.513	1176
941.606	247
941.699	712
941.792	306
941.885	190
941.978	269
942.071	447
942.164	643
942.257	-173
942.349	331
942.442	189
942.535	-242
942.628	-270
942.721	783
942.813	-69
942.906	766
942.999	-379
943.091	-210
943.184	-31
943.277	-930
943.369	598
943.462	319
943.554	246
943.647	-321
943.739	967
943.832	-177
943.924	-638
944.017	216
944.109	-760
944.201	-118
944.294	651
944.386	-565
944.478	-141
944.571	658
944.663	428
944.755	195
944.847	-142
944.940	213
945.032	-581
945.124	-400
945.216	1578
945.308	-72
945.400	855
945.492	173
945.584	183
945.676	284
945.768	-27
945.860	226
945.952	-276
946.044	-308
946.136	-228
946.228	-651
946.320	-190
946.412	382
946.503	706
946.595	422
946.687	-608
946.779	-643
946.870	115
946.962	-674
947.054	267
947.145	153
947.237	-22
947.329	-154
947.420	-846
947.512	-398
947.603	52
947.695	-592
947.786	-727
947.878	-648
947.969	-21
948.061	468
948.152	-491
948.243	34
948.335	-97
948.426	-69
948.517	-602
948.609	125
948.700	287
948.791	-226
948.882	-118
948.973	-1069
949.065	-895
949.156	-583
949.247	-379
949.338	386
949.429	-706
949.520	-491
949.611	-1857
949.702	327
949.793	-260
949.884	-147
949.975	-800
950.066	-904
950.157	-550
950.247	-1214
950.338	-500
950.429	-631
950.520	-699
950.611	-215
950.701	175
950.792	-211
950.883	58
950.973	-21
951.064	-632
951.155	-876
951.245	109
951.336	108
951.427	-1020
951.517	509
951.608	-32
951.698	-722
951.788	-648
951.879	-453
951.969	-1180
952.060	-19
952.150	-590
952.240	-115
952.331	-1753
952.421	1076
952.511	-664
952.602	-762
952.692	321
952.782	83
952.872	-748
952.962	-947
953.052	-668
953.143	-1767
953.233	-385
953.323	-369
953.413	-583
953.503	-589
953.593	-477
953.683	223
953.773	-608
953.863	-98
953.953	-1057
954.042	-564
954.132	-816
954.222	-276
954.312	-591
954.402	-1525
954.492	258
954.581	-328
954.671	-824
954.761	-510
954.850	447
954.940	-203
955.030	-544
955.119	-560
955.209	-137
955.298	-908
955.388	-577
955.477	-69
955.567	-1389
955.656	63
955.746	194
955.835	-496
955.925	-837
956.014	-391
956.103	-269
956.193	-524
956.282	-388
956.371	-152
956.461	-507
956.550	-890
956.639	-206
956.728	-1053
956.817	-244
956.906	-468
956.995	555
957.085	-778
957.174	-261
957.263	-371
957.352	-972
957.441	-833
957.530	-524
957.619	-37
957.708	-258
957.796	-514
957.885	21
957.974	-1228
958.063	-764
958.152	-1160
958.241	-590
958.329	-942
958.418	-594
958.507	-459
958.596	771
958.684	-1321
958.773	-651
958.861	-467
958.950	195
959.039	199
959.127	30
959.216	375
959.304	-1031
959.393	-47
959.481	-100
959.570	2
959.658	-806
959.746	-477
959.835	-111
959.923	-399
960.011	-515
960.100	-518
960.188	-505
960.276	-873
960.365	-17
960.453	-942
960.541	-1114
960.629	-878
960.717	-431
960.805	-1547
960.893	-571
960.981	-1347
961.069	-10
961.158	23
961.245	-807
961.333	-880
961.421	-542
961.509	-250
961.597	-1430
961.685	-856
961.773	-1172
961.861	-1516
961.949	-369
962.036	-1720
962.124	-307
962.212	-1163
962.299	-662
962.387	-1416
962.475	-224
962.562	-1274
962.650	-646
962.738	-838
962.825	-1474
962.913	-757
963.000	-824
963.088	-1319
963.175	-1607
963.263	-743
963.350	-712
963.438	-498
963.525	-581
963.612	-305
963.700	2511
963.787	2593
963.874	-760
963.962	-803
964.049	-820
964.136	-813
964.223	-1105
964.310	-1506
964.398	-540
964.485	-1329
964.572	-1111
964.659	-3
964.746	-457
964.833	-1130
964.920	-851
965.007	-274
965.094	-991
965.181	-714
965.268	-478
965.355	-934
965.441	-181
965.528	-1430
965.615	784
965.702	-1549
965.789	-1258
965.875	-797
965.962	-1090
966.049	-1468
966.136	-749
966.222	-1491
966.309	-690
966.395	-1453
966.482	-560
966.569	-788
966.655	-335
966.742	-1500
966.828	-535
966.915	-1572
967.001	-596
967.087	-1250
967.174	-643
967.260	-580
967.347	-138
967.433	7
967.519	1349
967.605	-839
967.692	-857
967.778	-778
967.864	-1106
967.950	-1133
968.036	5
968.123	-742
968.209	-1333
968.295	-1681
968.381	154
968.467	-273
968.553	-2301
968.639	171
968.725	-1080
968.811	-104
968.897	-837
968.983	-886
969.069	-1000
969.154	-1379
969.240	-591
969.326	-1099
969.412	-1500
969.497	-1628
969.583	-1567
969.669	-686
969.755	-1098
969.840	-819
969.926	-634
970.012	-711
970.097	255
970.183	-1135
970.268	-661
970.354	-1121
970.439	-1155
970.525	414
970.610	-1270
970.696	-308
970.781	-907
970.866	-2085
970.952	425
971.037	-1357
971.122	-1806
971.208	-276
971.293	-990
971.378	-1854
971.463	-399
971.549	-311
971.634	-949
971.719	-1231
971.804	-529
971.889	-640
971.974	-1365
972.059	-850
972.144	-1125
972.229	-285
972.314	-1347
972.399	-74
972.484	-1268
972.569	-870
972.654	-1872
972.739	514
972.824	-1172
972.908	-1215
972.993	-894
973.078	-1118
973.163	-1898
973.247	-707
973.332	-1912
973.417	250
973.501	-1382
973.586	-1123
973.671	-1151
973.755	-484
973.840	-521
973.924	-846
974.009	-908
974.093	-1475
974.178	38
974.262	-646
974.346	-1402
974.431	-1002
974.515	-1427
974.600	-799
974.684	-921
974.768	-1548
974.852	-1141
974.937	-929
975.021	-450
975.105	-1382
975.189	-569
975.273	-649
975.358	-1738
975.442	-1764
975.526	-482
975.610	-1623
975.694	-1615
975.778	-162
975.862	-1613
975.946	-2493
976.030	431
976.114	-1559
976.198	-900
976.281	-975
976.365	-820
976.449	-1232
976.533	-1154
976.617	-1474
976.700	-895
976.784	-1169
976.868	-1561
976.951	-816
977.035	-997
977.119	-1172
977.202	-1205
977.286	-1224
977.369	-858
977.453	-520
977.536	-1588
977.620	-1329
977.703	-877
977.787	-469
977.870	-822
977.953	-345
978.037	-2450
978.120	-1111
978.203	-1034
978.287	-1225
978.370	-832
978.453	-949
978.536	-790
978.620	-150
978.703	-1004
978.786	-996
978.869	-1671
978.952	-2160
979.035	986
979.118	-466
979.201	-1829
979.284	-722
979.367	-1765
979.450	-1032
979.533	-1078
979.616	-1354
979.699	-1010
979.782	-723
979.865	-1742
979.948	-792
980.030	-1608
980.113	-1286
980.196	-1190
980.279	-756
980.361	-2018
980.444	-1501
980.526	-1022
980.609	-633
980.692	-898
980.774	-519
980.857	-2081
980.939	-222
981.022	-324
981.104	-1331
981.187	-858
981.269	-712
981.352	-579
981.434	-1930
981.516	-1565
981.599	-516
981.681	-113
981.763	-747
981.846	-732
981.928	-1177
982.010	-1169
982.092	-1177
982.174	-463
982.256	-1790
982.339	-665
982.421	-902
982.503	-298
982.585	-2194
982.667	-835
982.749	-919
982.831	-1662
982.913	-1011
982.995	-433
983.077	-1107
983.158	-243
983.240	-1987
983.322	-560
983.404	-408
983.486	-1080
983.568	-1199
983.649	-1127
983.731	-1319
983.813	-963
983.894	-1260
983.976	-1569
984.058	-1442
984.139	-599
984.221	-1422
984.302	-303
984.384	-834
984.465	-1404
984.547	-868
984.628	-1653
984.710	-181
984.791	-1241
984.872	-1194
984.954	-949
985.035	-769
985.116	-1734
985.198	-782
985.279	202
985.360	-1320
985.441	-784
985.522	-694
985.604	-1101
985.685	-2446
985.766	-405
985.847	242
985.928	-1240
986.009	-1678
986.090	-1076
986.171	-924
986.252	-673
986.333	-590
986.414	-1150
986.495	-1628
986.576	-450
986.656	-646
986.737	-1365
986.818	-1423
986.899	-1595
986.980	-1186
987.060	-468
987.141	-1619
987.222	-699
987.302	-1489
987.383	-602
987.464	-961
987.544	-52
987.625	-1344
987.705	-553
987.786	-732
987.866	-1343
987.947	-835
988.027	-1784
988.108	-1129
988.188	95
988.268	-1152
988.349	-855
988.429	-1393
988.509	-424
988.589	-1320
988.670	-2758
988.750	218
988.830	-1354
988.910	-273
988.990	-832
989.070	-1494
989.151	-980
989.231	-1635
989.311	-476
989.391	-1063
989.471	-739
989.551	-715
989.631	-1914
989.711	-533
989.791	-1253
989.870	-1569
989.950	-137
990.030	-1271
990.110	-517
990.190	-995
990.269	-1061
990.349	-1624
990.429	-1048
990.509	-1477
990.588	-1739
990.668	-1326
990.747	-1613
990.827	-1051
990.907	-154
990.986	-1562
991.066	-905
991.145	-1756
991.225	-773
991.304	-2074
991.383	-648
991.463	-1473
991.542	-749
991.622	-1802
991.701	-547
991.780	-485
991.859	-1939
991.939	-1793
992.018	-1753
992.097	-1068
992.176	-1646
992.256	-1213
992.335	-1542
992.414	-1317
992.493	-1765
992.572	-1245
992.651	-963
992.730	-1472
992.809	-1181
992.888	-1975
992.967	-690
993.046	-1552
993.125	-1125
993.203	-1799
993.282	-762
993.361	-2197
993.440	-621
993.519	-2337
993.597	-514
993.676	-2077
993.755	-803
993.834	-800
993.912	-2232
993.991	-217
994.069	-2119
994.148	-2316
994.226	-1349
994.305	-760
994.384	-1725
994.462	-1404
994.540	-2395
994.619	-2385
994.697	-773
994.776	-1268
994.854	-369
994.932	-1836
995.011	-973
995.089	-2045
995.167	-821
995.245	-1120
995.324	-2698
995.402	-1095
995.480	-1239
995.558	-737
995.636	-1448
995.714	-1419
995.792	-66
995.870	-2651
995.948	-1371
996.026	-1462
996.104	-1784
996.182	-632
996.260	-1574
996.338	-947
996.416	-2120
996.494	-1616
996.572	-721
996.649	-1432
996.727	-2644
996.805	-855
996.883	-1260
996.960	-2108
997.038	-998
997.116	-731
997.193	-2120
997.271	-450
997.348	-2176
997.426	-1759
997.504	-2034
997.581	-1062
997.658	-1511
997.736	-2383
997.813	-2158
997.891	-884
997.968	-2059
998.046	-1788
998.123	-1695
998.200	-1189
998.277	-2305
998.355	-1619
998.432	-2379
998.509	-1311
998.586	-1143
998.663	-905
998.741	-1430
998.818	-1260
998.895	-1929
998.972	-1219
999.049	-1058
999.126	-1830
999.203	-1345
999.280	-1607
999.357	-2241
999.434	-2072
999.511	-1513
999.587	-1528
999.664	-1895
999.741	-1747
999.818	-1256
999.895	-2445
999.971	-1566
1000.048	-1121
1000.125	-295
1000.202	-2447
1000.278	-1337
1000.355	-1233
1000.431	-1796
1000.508	-1944
1000.584	-1607
1000.661	-1180
1000.738	-2387
1000.814	-2100
1000.890	-921
1000.967	-1078
1001.043	-1196
1001.120	-2906
1001.196	-1597
1001.272	-2074
1001.349	-1852
1001.425	-1395
1001.501	-2281
1001.577	-2715
1001.654	-1356
1001.730	-1794
1001.806	-1105
1001.882	-2640
1001.958	-1379
1002.034	-1297
1002.110	-1308
1002.186	-1700
1002.262	-787
1002.338	-1331
1002.414	-996
1002.490	-1570
1002.566	-2016
1002.642	-1444
1002.718	-887
1002.794	-1706
1002.870	-1858
1002.945	-2331
1003.021	-1897
1003.097	-2203
1003.173	-864
1003.248	-1988
1003.324	-1700
1003.400	-1632
1003.475	-2521
1003.551	-2399
1003.626	-1420
1003.702	-2231
1003.777	-1807
1003.853	-2356
1003.928	-2143
1004.004	-1372
1004.079	-1989
1004.155	-1890
1004.230	-2512
1004.305	-1069
1004.381	-2010
1004.456	-1923
1004.531	-2411
1004.607	-1355
1004.682	-1620
1004.757	-1816
1004.832	-1864
1004.907	-2256
1004.982	-1100
1005.057	-1969
1005.133	-1836
1005.208	-1482
1005.283	-2279
1005.358	-1673
1005.433	-2359
1005.508	-2085
1005.583	-2611
1005.657	-1890
1005.732	-2152
1005.807	-2036
1005.882	-2367
1005.957	-2147
1006.032	-1559
1006.106	-1664
1006.181	-1823
1006.256	-1172
1006.331	-2350
1006.405	-1414
1006.480	-1426
1006.554	-2239
1006.629	-1205
1006.704	-2078
1006.778	-1161
1006.853	-1449
1006.927	-2075
1007.002	-1960
1007.076	-2252
1007.150	-2211
1007.225	-1673
1007.299	-1954
1007.373	-1506
1007.448	-2124
1007.522	-798
1007.596	-1484
1007.671	-2506
1007.745	-1452
1007.819	-2439
1007.893	-2406
1007.967	-1409
1008.041	-2698
1008.115	-1073
1008.190	-1382
1008.264	-1814
1008.338	-3603
1008.412	-2281
1008.486	-1649
1008.560	-1910
1008.633	-2096
1008.707	-2512
1008.781	-1321
1008.855	-1568
1008.929	-1971
1009.003	-2370
1009.076	-2554
1009.150	-2293
1009.224	-1721
1009.298	-2017
1009.371	-2307
1009.445	-2108
1009.519	-1393
1009.592	-2974
1009.666	-2038
1009.739	-1896
1009.813	-2504
1009.886	-1471
1009.960	-3033
1010.033	-1702
1010.107	-1364
1010.180	-2534
1010.253	-2732
1010.327	-2526
1010.400	-1732
1010.473	-2247
1010.547	-1028
1010.620	-1252
1010.693	-1375
1010.766	-2619
1010.840	-1752
1010.913	-1652
1010.986	-2851
1011.059	-2010
1011.132	-3025
1011.205	-1208
1011.278	-1943
1011.351	-1784
1011.424	-1307
1011.497	-2490
1011.570	-1610
1011.643	-2621
1011.716	-2196
1011.789	-2032
1011.862	-2029
1011.934	-1041
1012.007	-2831
1012.080	-1828
1012.153	-1523
1012.225	-1443
1012.298	-2667
1012.371	-2526
1012.443	-1901
1012.516	-2300
1012.588	-1897
1012.661	-2083
1012.733	-2086
1012.806	-1520
1012.879	-2102
1012.951	-1910
1013.023	-2786
1013.096	-1402
1013.168	-1923
1013.241	-1317
1013.313	-2113
1013.385	-2105
1013.458	-2209
1013.530	-1560
1013.602	-1810
1013.674	-2302
1013.746	-2965
1013.819	-2583
1013.891	-1590
1013.963	-1480
1014.035	-2141
1014.107	-1180
1014.179	-1738
1014.251	-2453
1014.323	-1395
1014.395	-2126
1014.467	-1826
1014.539	-1539
1014.611	-2327
1014.683	-2181
1014.754	-1568
1014.826	-2144
1014.898	-2070
1014.970	-2385
1015.042	-1633
1015.113	-2050
1015.185	-2290
1015.257	-2800
1015.328	-2718
1015.400	-2508
1015.471	-2001
1015.543	-1722
1015.615	-2143
1015.686	-2461
1015.757	-2125
1015.829	-2011
1015.901	-1882
1015.972	-2281
1016.043	-1772
1016.115	-2093
1016.186	-1800
1016.257	-2634
1016.328	-2308
1016.400	-864
1016.471	-2442
1016.542	-1520
1016.613	-1972
1016.685	-2301
1016.756	-1644
1016.827	-2426
1016.898	-3401
1016.969	-1253
1017.040	-2224
1017.111	-2525
1017.182	-1842
1017.253	-2163
1017.324	-1912
1017.395	-1471
1017.466	-1582
1017.537	-2093
1017.608	-2204
1017.678	-1936
1017.749	-2372
1017.820	-2069
1017.891	-1734
1017.961	-1885
1018.032	-2491
1018.103	-2031
1018.173	-2379
1018.244	-1768
1018.315	-1885
1018.385	-1407
1018.456	-1527
1018.526	-2008
1018.597	-1823
1018.667	-1685
1018.738	-2222
1018.808	-1766
1018.878	-1996
1018.949	-2304
1019.019	-1814
1019.089	-2600
1019.160	-1724
1019.230	-2615
1019.300	-1456
1019.371	-2556
1019.441	-1805
1019.511	-2484
1019.581	-2225
1019.651	-2044
1019.721	-2389
1019.791	-1120
1019.861	-2101
1019.931	-2573
1020.001	-2920
1020.071	-1824
1020.141	-3023
1020.211	-2657
1020.281	-2565
1020.351	-2748
1020.421	-1898
1020.491	-1573
1020.560	-2435
1020.630	-2073
1020.700	-1691
1020.770	-2758
1020.839	-2017
1020.909	-2561
1020.979	-1951
1021.048	-1829
1021.118	-2632
1021.187	-1708
1021.257	-2010
1021.326	-1750
1021.396	-2142
1021.465	-1917
1021.535	-1877
1021.604	-2430
1021.674	-1319
1021.743	-2480
1021.812	-2472
1021.882	-2846
1021.951	-2620
1022.020	-2859
1022.089	-1166
1022.159	-2672
1022.228	-2063
1022.297	-2478
1022.366	-2687
1022.435	-2097
1022.504	-2150
1022.573	-2077
1022.642	-2096
1022.711	-2554
1022.781	-1708
1022.849	-2301
1022.918	-2237
1022.987	-1746
1023.056	-2692
1023.125	-2445
1023.194	-2481
1023.263	-1998
1023.331	-1785
1023.400	-1562
1023.469	-2937
1023.538	-1336
1023.606	-2039
1023.675	-2305
1023.744	-2171
1023.812	-2299
1023.881	-2088
1023.949	-1775
1024.018	-2383
1024.086	-2189
1024.155	-2264
1024.223	-2713
1024.292	-2204
1024.360	-2362
1024.429	-2682
1024.497	-2227
1024.565	-1870
1024.634	-2107
1024.702	-2374
1024.770	-2179
1024.838	-2489
1024.907	-2078
1024.975	-2524
1025.043	-2674
1025.111	-2878
1025.179	-1581
1025.247	-2634
1025.315	-1741
1025.383	-2388
1025.451	-1949
1025.519	-1951
1025.587	-2476
1025.655	-1648
1025.723	-2443
1025.791	-2072
1025.859	-2055
1025.927	-1528
1025.995	-2248
1026.062	-1579
1026.130	-2402
1026.198	-2868
1026.266	-2254
1026.333	-1185
1026.401	-1991
1026.469	-2068
1026.536	-2134
1026.604	-2319
1026.671	-2626
1026.739	-2027
1026.806	-2378
1026.874	-2674
1026.941	-2198
1027.009	-1913
1027.076	-2575
1027.144	-1432
1027.211	-2461
1027.278	-2351
1027.345	-1940
1027.413	-1990
1027.480	-2525
1027.547	-2423
1027.614	-2763
1027.682	-2053
1027.749	-2486
1027.816	-2510
1027.883	-1806
1027.950	-2235
1028.017	-2164
1028.084	-1429
1028.151	-1519
1028.218	-3062
1028.285	-1066
1028.352	-3041
1028.419	-2612
1028.486	-2594
1028.553	-2296
1028.619	-2243
1028.686	-2275
1028.753	-2595
1028.820	-2587
1028.886	-2788
1028.953	-2311
1029.020	-2334
1029.086	-2156
1029.153	-2677
1029.220	-2010
1029.286	-2066
1029.353	-2210
1029.419	-2312
1029.486	-2053
1029.552	-2588
1029.619	-2433
1029.685	-2547
1029.751	-2070
1029.818	-1139
1029.884	-2281
1029.951	-1423
1030.017	-2196
1030.083	-2558
1030.149	-2330
1030.216	-2904
1030.282	-1767
1030.348	-2592
1030.414	-2429
1030.480	-2196
1030.546	-2833
1030.612	-2075
1030.678	-3197
1030.744	-1637
1030.810	-3520
1030.876	-1813
1030.942	-2236
1031.008	-1249
1031.074	-2528
1031.140	-2469
1031.206	-1851
1031.272	-2419
1031.337	-1621
1031.403	-1500
1031.469	-2918
1031.534	-2254
1031.600	-2090
1031.666	-3033
1031.731	-3046
1031.797	-2077
1031.863	-2520
1031.928	-3150
1031.994	-2634
1032.059	-2177
1032.125	-2004
1032.190	-2909
1032.256	-2452
1032.321	-2839
1032.386	-2500
1032.452	-1524
1032.517	-2122
1032.582	-3128
1032.647	-2179
1032.713	-2406
1032.778	-2447
1032.843	-2230
1032.908	-2550
1032.974	-2034
1033.039	-2731
1033.104	-1760
1033.169	-1711
1033.234	-1038
1033.299	-476
1033.364	-1801
1033.429	-2164
1033.494	-2202
1033.559	-2199
1033.624	-2780
1033.688	-1854
1033.753	-2480
1033.818	-1900
1033.883	-2091
1033.948	-1512
1034.013	-1437
1034.077	-1664
1034.142	-1457
1034.207	-1650
1034.271	-306
1034.336	-561
1034.400	-232
1034.465	-1214
1034.530	-1223
1034.594	-1770
1034.658	-2680
1034.723	-2581
1034.787	-2243
1034.852	-1705
1034.916	-2107
1034.981	-2325
1035.045	-1769
1035.109	-2957
1035.173	-2522
1035.238	-2185
1035.302	-2702
1035.366	-1997
1035.430	-2960
1035.495	-2472
1035.559	-2598
1035.623	-2830
1035.687	-2389
1035.751	-1991
1035.815	-1753
1035.879	-2467
1035.943	-2123
1036.007	-2801
1036.071	-2095
1036.135	-3015
1036.198	-1434
1036.262	-2596
1036.326	-2577
1036.390	-1673
1036.454	-1965
1036.517	7
1036.581	-924
1036.645	-725
1036.709	-642
1036.772	-2902
1036.836	-2402
1036.900	-2001
1036.963	-2584
1037.026	-2437
1037.090	-2140
1037.154	-1680
1037.217	-1648
1037.280	-2717
1037.344	-1953
1037.407	-2833
1037.471	-3551
1037.534	-2213
1037.597	-1220
1037.661	-2190
1037.724	-2067
1037.787	-3020
1037.850	-2758
1037.913	-2247
1037.977	-1882
1038.040	-2135
1038.103	-1460
1038.166	-1865
1038.229	-2134
1038.292	-2460
1038.355	-2357
1038.418	-2878
1038.481	-1796
1038.544	-2881
1038.607	-1942
1038.670	-1578
1038.732	-2374
1038.795	-2522
1038.858	-2281
1038.921	-1691
1038.984	-1750
1039.046	-2628
1039.109	-2847
1039.172	-2561
1039.234	-2073
1039.297	-2477
1039.360	-2099
1039.422	-2928
1039.485	-3022
1039.547	-3288
1039.610	-2944
1039.672	-2651
1039.734	-2381
1039.797	-2885
1039.859	-2455
1039.922	-3109
1039.984	-1999
1040.046	-3019
1040.109	-2168
1040.171	-3099
1040.233	-3032
1040.295	-2846
1040.358	-2769
1040.420	-2410
1040.482	-2631
1040.544	-3472
1040.606	-1974
1040.668	-2213
1040.730	-2759
1040.792	-2768
1040.854	-2382
1040.916	-2950
1040.978	-2693
1041.040	-1586
1041.102	-1716
1041.164	-2234
1041.225	-3043
1041.287	-3135
1041.349	-1881
1041.411	-2483
1041.472	-2208
1041.534	-1767
1041.596	-2154
1041.657	-1949
1041.719	-2797
1041.781	-2241
1041.842	-2918
1041.904	-2544
1041.965	-1997
1042.027	-1059
1042.088	-2272
1042.150	-2127
1042.211	-2680
1042.272	-1834
1042.334	-2464
1042.395	-1977
1042.456	-2643
1042.518	-2456
1042.579	-2110
1042.640	-2208
1042.701	-2968
1042.763	-1801
1042.824	-3226
1042.885	-2687
1042.946	-1618
1043.007	-2608
1043.068	-2667
1043.129	-1802
1043.190	-2534
1043.251	-2228
1043.312	-2327
1043.373	-2014
1043.434	-2555
1043.495	-2223
1043.556	-2230
1043.616	-1795
1043.677	-2636
1043.738	-2246
1043.799	-2716
1043.859	-2043
1043.920	-2548
1043.981	-2906
1044.041	-1941
1044.102	-2952
1044.162	-2179
1044.223	-2404
1044.284	-3400
1044.344	-2635
1044.405	-2515
1044.465	-2079
1044.525	-3149
1044.586	-3324
1044.646	-2378
1044.707	-2241
1044.767	-2146
1044.827	-2995
1044.887	-2147
1044.948	-1539
1045.008	-2568
1045.068	-2701
1045.128	-1620
1045.188	-1680
1045.249	-1787
1045.309	-1019
1045.369	-1841
1045.429	-2041
1045.489	-2260
1045.549	-1856
1045.609	-1651
1045.669	-2681
1045.729	-3214
1045.789	-1908
1045.848	-1931
1045.908	-1904
1045.968	-2190
1046.028	-1789
1046.088	-2111
1046.147	-2046
1046.207	-2281
1046.267	-1736
1046.326	-1744
1046.386	-2147
1046.446	-900
1046.505	-1117
1046.565	-1271
1046.624	-1070
1046.684	-844
1046.743	-1197
1046.803	-1010
1046.862	-1074
1046.922	0
