'Start Wavelength	183.907
'End Wavelength	1046.922
'Gate Delay	5.000
'Gate Width (ms)	1.050
'Laser Output Level	0.000
'X Position	0.000
'Y Position	0.000
'Z Position	0.000
'Grid Point Number	1.000
'Shot Number	100.000
183.907	558.000
183.977	-254.000
184.047	668
184.116	698
184.186	640
184.256	510
184.325	550
184.395	969
184.465	418
184.534	105
184.604	892
184.674	1317
184.743	517
184.813	387
184.883	553
184.952	307
185.022	580
185.092	163
185.161	121
185.231	577
185.301	945
185.370	127
185.440	460
185.509	262
185.579	-292
185.649	549
185.718	1014
185.788	365
185.857	-224
185.927	278
185.996	-206
186.066	718
186.136	657
186.205	506
186.275	616
186.344	274
186.414	234
186.483	109
186.553	697
186.622	507
186.692	-2
186.761	-320
186.831	494
186.900	813
186.970	311
187.039	610
187.109	683
187.178	504
187.248	10
187.317	834
187.387	447
187.456	103
187.526	909
187.595	639
187.664	565
187.734	261
187.803	1104
187.873	650
187.942	664
188.012	710
188.081	601
188.150	346
188.220	705
188.289	746
188.358	455
188.428	384
188.497	-229
188.567	277
188.636	428
188.705	302
188.775	530
188.844	912
188.913	479
188.983	348
189.052	603
189.121	-159
189.191	462
189.260	1231
189.329	385
189.399	316
189.468	167
189.537	603
189.606	205
189.676	797
189.745	1209
189.814	724
189.883	813
189.953	1050
190.022	1263
190.091	1145
190.161	2166
190.230	812
190.299	849
190.368	467
190.437	433
190.507	873
190.576	593
190.645	639
190.714	454
190.783	425
190.853	198
190.922	621
190.991	242
191.060	-71
191.129	759
191.198	875
191.268	1278
191.337	558
191.406	1252
191.475	142
191.544	467
191.613	719
191.682	884
191.752	-26
191.821	880
191.890	138
191.959	1051
192.028	519
192.097	684
192.166	729
192.235	163
192.304	897
192.373	509
192.442	718
192.511	1287
192.580	572
192.650	-6
192.719	-42
192.788	221
192.857	884
192.926	897
192.995	1077
193.064	1919
193.133	868
193.202	1368
193.271	1720
193.340	1435
193.409	1413
193.478	1113
193.547	1890
193.615	1838
193.684	2123
193.753	1290
193.822	1908
193.891	1098
193.960	1370
194.029	588
194.098	1224
194.167	664
194.236	754
194.305	1299
194.374	745
194.443	881
194.512	1019
194.580	1035
194.649	1304
194.718	1205
194.787	950
194.856	843
194.925	954
194.994	831
195.062	1064
195.131	1929
195.200	571
195.269	712
195.338	1331
195.407	309
195.475	475
195.544	1102
195.613	1775
195.682	1336
195.751	1331
195.819	1355
195.888	966
195.957	2027
196.026	1295
196.094	1104
196.163	1886
196.232	1578
196.301	1094
196.369	1779
196.438	1284
196.507	809
196.576	1072
196.644	1347
196.713	357
196.782	1208
196.850	705
196.919	1222
196.988	1160
197.056	1011
197.125	1121
197.194	1037
197.262	716
197.331	1120
197.400	1493
197.468	802
197.537	725
197.606	1646
197.674	1776
197.743	2063
197.812	1503
197.880	2227
197.949	1749
198.017	2229
198.086	1860
198.155	1455
198.223	1673
198.292	2668
198.360	1489
198.429	1311
198.497	1577
198.566	2146
198.635	2256
198.703	1185
198.772	1626
198.840	3283
198.909	3043
198.977	1254
199.046	1204
199.114	1441
199.183	1443
199.251	106
199.320	682
199.388	1295
199.457	2093
199.525	672
199.594	1432
199.662	968
199.731	1259
199.799	1200
199.867	851
199.936	1156
200.004	954
200.073	1259
200.141	736
200.210	1360
200.278	169
200.346	1617
200.415	1229
200.483	1576
200.552	1498
200.620	1472
200.688	1006
200.757	914
200.825	1156
200.893	414
200.962	1782
201.030	1072
201.098	1260
201.167	1403
201.235	1692
201.303	1294
201.372	1714
201.440	941
201.508	1179
201.577	834
201.645	969
201.713	1648
201.781	1371
201.850	1379
201.918	1094
201.986	817
202.055	1244
202.123	1487
202.191	1593
202.259	1520
202.327	1301
202.396	614
202.464	1333
202.532	1570
202.600	3163
202.669	2377
202.737	947
202.805	2122
202.873	1234
202.941	1535
203.009	1220
203.078	1452
203.146	1119
203.214	1299
203.282	1198
203.350	1256
203.418	1291
203.487	1876
203.555	1226
203.623	1621
203.691	1325
203.759	1188
203.827	1329
203.895	1789
203.963	1450
204.031	1201
204.099	1078
204.168	1916
204.236	1920
204.304	1495
204.372	1802
204.440	1560
204.508	1531
204.576	1044
204.644	2013
204.712	971
204.780	1093
204.848	1389
204.916	1079
204.984	1688
205.052	1827
205.120	1760
205.188	2258
205.256	1126
205.324	1259
205.392	720
205.460	2021
205.528	1408
205.596	1496
205.664	1950
205.732	1768
205.799	3899
205.867	4549
205.935	1176
206.003	2481
206.071	1848
206.139	2164
206.207	1608
206.275	1518
206.343	1138
206.411	1811
206.478	1585
206.546	1743
206.614	1657
206.682	1647
206.750	2057
206.818	1172
206.885	2224
206.953	478
207.021	1731
207.089	2151
207.157	1463
207.225	1543
207.292	1139
207.360	1950
207.428	2606
207.496	1545
207.563	1679
207.631	1771
207.699	2391
207.767	1941
207.834	1668
207.902	1750
207.970	2213
208.038	1798
208.105	2484
208.173	2443
208.241	2242
208.309	2276
208.376	2345
208.444	3156
208.512	2193
208.579	1628
208.647	1981
208.715	2399
208.782	2118
208.850	2380
208.918	1627
208.985	1913
209.053	2687
209.120	2136
209.188	1850
209.256	2285
209.323	1831
209.391	2454
209.459	2486
209.526	2423
209.594	1804
209.661	2305
209.729	1758
209.796	2551
209.864	2598
209.932	1721
209.999	3395
210.067	2734
210.134	1185
210.202	2133
210.269	3440
210.337	3100
210.404	1796
210.472	3216
210.539	2957
210.607	2454
210.674	3061
210.742	2717
210.809	2267
210.877	2523
210.944	2545
211.012	2301
211.079	3450
211.146	2532
211.214	2981
211.281	2410
211.349	3215
211.416	3054
211.484	2660
211.551	2803
211.618	2918
211.686	3293
211.753	3530
211.821	2618
211.888	2817
211.955	2589
212.023	2353
212.090	2493
212.157	2517
212.225	3101
212.292	5225
212.359	7077
212.427	12988
212.494	6745
212.561	4147
212.629	3838
212.696	4176
212.763	3067
212.831	2767
212.898	3178
212.965	2722
213.032	1927
213.100	2836
213.167	2610
213.234	3437
213.301	3333
213.369	2674
213.436	2874
213.503	2693
213.570	2661
213.638	3368
213.705	2731
213.772	2878
213.839	3349
213.906	2571
213.973	2669
214.041	2254
214.108	3503
214.175	2955
214.242	3483
214.309	3877
214.376	3057
214.444	3071
214.511	3003
214.578	3612
214.645	3589
214.712	3598
214.779	3718
214.846	3178
214.913	3604
214.980	3850
215.048	4086
215.115	4072
215.182	4017
215.249	2807
215.316	3234
215.383	2726
215.450	3456
215.517	3535
215.584	3161
215.651	2628
215.718	3582
215.785	3596
215.852	2867
215.919	4174
215.986	4277
216.053	3025
216.120	2653
216.187	3341
216.254	3549
216.321	3093
216.388	3859
216.455	3624
216.522	3523
216.589	3506
216.656	5104
216.722	5305
216.789	4477
216.856	4175
216.923	4236
216.990	3931
217.057	3524
217.124	4878
217.191	4514
217.258	4493
217.324	5108
217.391	3982
217.458	4232
217.525	4310
217.592	4218
217.659	3428
217.725	3879
217.792	5002
217.859	4755
217.926	3255
217.993	3261
218.059	3467
218.126	3483
218.193	3598
218.260	2950
218.327	2869
218.393	3370
218.460	3246
218.527	2718
218.594	3644
218.660	4644
218.727	4691
218.794	3035
218.860	3444
218.927	3198
218.994	3542
219.061	3161
219.127	3680
219.194	4320
219.261	2648
219.327	3018
219.394	2942
219.461	2422
219.527	2884
219.594	3243
219.661	3371
219.727	3208
219.794	3410
219.860	3069
219.927	3998
219.994	4546
220.060	5706
220.127	4343
220.193	3937
220.260	4650
220.326	5944
220.393	6646
220.460	7537
220.526	6040
220.593	6118
220.659	5777
220.726	6103
220.792	10451
220.859	8790
220.925	10257
220.992	9672
221.058	11486
221.125	10971
221.191	9137
221.258	5171
221.324	4707
221.391	3618
221.457	3077
221.524	4361
221.590	5474
221.657	11165
221.723	7815
221.789	7951
221.856	7734
221.922	5185
221.989	4971
222.055	4198
222.121	3175
222.188	5387
222.254	4594
222.321	3559
222.387	3459
222.453	3411
222.520	3529
222.586	3270
222.652	3502
222.719	3685
222.785	3997
222.851	3615
222.918	3253
222.984	3530
223.050	3367
223.116	2904
223.183	3267
223.249	2883
223.315	3226
223.382	3284
223.448	3673
223.514	2602
223.580	3065
223.647	2784
223.713	2545
223.779	2992
223.845	3503
223.911	3473
223.978	3325
224.044	3677
224.110	3174
224.176	3982
224.242	3096
224.309	2905
224.375	3081
224.441	3557
224.507	2841
224.573	2849
224.639	2632
224.705	2560
224.772	2843
224.838	3413
224.904	3471
224.970	3290
225.036	2866
225.102	3049
225.168	2780
225.234	3429
225.300	2510
225.366	2340
225.432	3120
225.499	4046
225.565	3608
225.631	4081
225.697	4536
225.763	5113
225.829	4532
225.895	5041
225.961	6397
226.027	5874
226.093	6084
226.159	6819
226.225	10161
226.291	15287
226.357	17328
226.423	11413
226.489	8384
226.554	6434
226.620	6959
226.686	8081
226.752	11614
226.818	15824
226.884	22984
226.950	18474
227.016	10431
227.082	7709
227.148	6495
227.214	7031
227.279	5890
227.345	5221
227.411	4997
227.477	5878
227.543	5116
227.609	6126
227.674	5660
227.740	4395
227.806	5140
227.872	4586
227.938	4214
228.003	5700
228.069	4427
228.135	3749
228.201	3701
228.267	3891
228.332	4880
228.398	4532
228.464	4250
228.530	3759
228.595	4108
228.661	3496
228.727	4710
228.792	4026
228.858	3999
228.924	2768
228.990	4334
229.055	3561
229.121	3965
229.187	3347
229.252	3797
229.318	3230
229.384	3650
229.449	3754
229.515	2416
229.581	2291
229.646	3654
229.712	3910
229.777	6396
229.843	5557
229.909	6266
229.974	7075
230.040	5835
230.105	4958
230.171	5552
230.236	6458
230.302	8234
230.368	7026
230.433	5179
230.499	5776
230.564	6576
230.630	4973
230.695	4723
230.761	5271
230.826	3890
230.892	6185
230.957	4407
231.023	4437
231.088	4601
231.154	4374
231.219	4398
231.284	5945
231.350	5341
231.415	3709
231.481	4059
231.546	3764
231.612	3692
231.677	3259
231.742	3803
231.808	4512
231.873	3362
231.939	2842
232.004	5295
232.069	4498
232.135	4038
232.200	3627
232.265	3482
232.331	4082
232.396	3645
232.461	3577
232.527	2851
232.592	3163
232.657	3630
232.723	4172
232.788	3602
232.853	3753
232.918	3883
232.984	3407
233.049	3644
233.114	3360
233.179	4324
233.245	4610
233.310	5216
233.375	3085
233.440	3030
233.506	3108
233.571	3117
233.636	3394
233.701	3113
233.766	3956
233.832	3577
233.897	3367
233.962	3024
234.027	4348
234.092	3198
234.157	3593
234.222	3618
234.288	4523
234.353	8836
234.418	7023
234.483	6940
234.548	6523
234.613	5378
234.678	5952
234.743	6103
234.808	9779
234.873	6467
234.938	5860
235.004	5349
235.069	4530
235.134	4604
235.199	5049
235.264	4836
235.329	4572
235.394	5803
235.459	5769
235.524	4784
235.589	5525
235.654	4893
235.719	4091
235.784	4926
235.849	4841
235.913	6538
235.978	5887
236.043	6042
236.108	5458
236.173	4731
236.238	5733
236.303	5038
236.368	4405
236.433	6401
236.498	7193
236.563	8707
236.627	15750
236.692	34017
236.757	27508
236.822	14739
236.887	11023
236.952	9785
237.017	8888
237.081	10065
237.146	11327
237.211	20406
237.276	36532
237.341	43780
237.405	24595
237.470	14150
237.535	10000
237.600	7943
237.664	7369
237.729	6741
237.794	7974
237.859	11599
237.923	8237
237.988	6449
238.053	6863
238.118	7219
238.182	12651
238.247	10438
238.312	6298
238.376	6100
238.441	5195
238.506	5793
238.570	3668
238.635	4623
238.700	3941
238.764	4324
238.829	7047
238.893	6535
238.958	5798
239.023	5755
239.087	4883
239.152	4568
239.216	4707
239.281	4515
239.346	4052
239.410	4358
239.475	4810
239.539	10955
239.604	6660
239.668	5376
239.733	3801
239.797	5476
239.862	7299
239.926	7428
239.991	4468
240.055	4247
240.120	4592
240.184	3741
240.249	4162
240.313	3611
240.378	4186
240.442	7191
240.507	8712
240.571	4447
240.635	6314
240.700	5445
240.764	3664
240.829	4114
240.893	3109
240.957	3400
241.022	6650
241.086	8737
241.151	4222
241.215	3821
241.279	5165
241.344	5594
241.408	6754
241.472	6415
241.537	7004
241.601	6182
241.665	5893
241.730	6702
241.794	6441
241.858	6512
241.922	6319
241.987	6104
242.051	5921
242.115	5152
242.179	6427
242.244	5213
242.308	6412
242.372	5975
242.436	6958
242.501	5743
242.565	5736
242.629	5460
242.693	5510
242.757	4503
242.822	5245
242.886	5183
242.950	6370
243.014	4655
243.078	5970
243.142	5483
243.206	5267
243.271	6142
243.335	5837
243.399	8682
243.463	24813
243.527	40498
243.591	14007
243.655	8583
243.719	6654
243.783	6967
243.847	8887
243.911	9860
243.975	10135
244.040	7081
244.104	6335
244.168	4676
244.232	7355
244.296	8052
244.360	8573
244.424	6137
244.488	4269
244.552	5278
244.615	4750
244.679	3861
244.743	5976
244.807	4924
244.871	4107
244.935	4814
244.999	4117
245.063	4981
245.127	5620
245.191	7743
245.255	6134
245.319	6231
245.383	4280
245.446	5725
245.510	4159
245.574	4252
245.638	4822
245.702	5300
245.766	9705
245.829	6415
245.893	4479
245.957	5368
246.021	6209
246.085	6425
246.149	7068
246.212	13669
246.276	16970
246.340	9169
246.404	6005
246.467	7645
246.531	8550
246.595	6865
246.659	6415
246.722	5506
246.786	7239
246.850	8508
246.913	8164
246.977	5355
247.041	5363
247.104	5668
247.168	6601
247.232	12990
247.295	22899
247.359	10986
247.423	7406
247.486	9917
247.550	7492
247.614	6085
247.677	6733
247.741	5520
247.804	4868
247.868	6806
247.932	12471
247.995	19743
248.059	9136
248.122	5745
248.186	8736
248.249	14036
248.313	36830
248.376	33283
248.440	21781
248.503	10557
248.567	10462
248.630	11852
248.694	14743
248.757	22856
248.821	38030
248.884	23523
248.948	23098
249.011	29926
249.075	42984
249.138	32829
249.202	16103
249.265	11890
249.328	11895
249.392	10504
249.455	9530
249.519	9363
249.582	9869
249.645	13223
249.709	10943
249.772	10128
249.835	8627
249.899	9014
249.962	8985
250.025	8088
250.089	17248
250.152	19025
250.215	10876
250.279	8459
250.342	9142
250.405	9267
250.468	7783
250.532	10100
250.595	17065
250.658	53623
250.721	64008
250.785	26218
250.848	16502
250.911	11777
250.974	12455
251.038	16146
251.101	24354
251.164	14428
251.227	14622
251.290	14002
251.354	22279
251.417	66468
251.480	54612
251.543	51609
251.606	108096
251.669	71788
251.732	34267
251.795	35586
251.859	37876
251.922	70493
251.985	36522
252.048	19333
252.111	14320
252.174	14752
252.237	25811
252.300	43658
252.363	52115
252.426	80941
252.489	33991
252.552	18762
252.615	15024
252.678	17555
252.741	36527
252.804	50639
252.867	84364
252.930	49109
252.993	27026
253.056	17473
253.119	13446
253.182	11799
253.245	15754
253.308	12401
253.371	10746
253.434	10166
253.497	11615
253.559	20155
253.622	13130
253.685	14113
253.748	12329
253.811	7961
253.874	10345
253.937	8476
254.000	9423
254.062	16425
254.125	19383
254.188	19036
254.251	14013
254.314	8379
254.376	13745
254.439	13246
254.502	10661
254.565	16768
254.628	22165
254.690	11024
254.753	7235
254.816	6511
254.878	7744
254.941	16032
255.004	14688
255.067	6333
255.129	6200
255.192	5568
255.255	5112
255.317	5320
255.380	4596
255.443	4157
255.505	4311
255.568	3892
255.631	4324
255.693	5223
255.756	4009
255.819	5178
255.881	4018
255.944	4064
256.006	4309
256.069	4638
256.132	4989
256.194	5613
256.257	7964
256.319	6674
256.382	7359
256.444	7628
256.507	5696
256.569	6387
256.632	7323
256.694	10175
256.757	26628
256.819	54762
256.882	24069
256.944	12037
257.007	10821
257.069	9233
257.132	7549
257.194	8307
257.257	6973
257.319	7344
257.381	9195
257.444	20967
257.506	66849
257.569	59877
257.631	25590
257.693	16306
257.756	10502
257.818	8227
257.880	7620
257.943	6623
258.005	6189
258.067	5720
258.130	5953
258.192	7238
258.254	8704
258.317	6438
258.379	6473
258.441	12841
258.503	10900
258.566	11927
258.628	11682
258.690	5664
258.753	7920
258.815	10017
258.877	8051
258.939	7369
259.001	7171
259.064	7460
259.126	6963
259.188	7508
259.250	7022
259.312	7804
259.375	10226
259.437	7709
259.499	6794
259.561	6096
259.623	6898
259.685	6364
259.747	6601
259.809	12168
259.872	14956
259.934	27651
259.996	23767
260.058	10041
260.120	6183
260.182	5210
260.244	5991
260.306	4230
260.368	5346
260.430	5606
260.492	11242
260.554	13848
260.616	7708
260.678	17626
260.740	14284
260.802	6046
260.864	6676
260.926	4803
260.988	6693
261.050	6677
261.112	17059
261.174	24199
261.236	12090
261.298	6917
261.359	10619
261.421	10202
261.483	5926
261.545	5486
261.607	4614
261.669	5398
261.731	6668
261.793	11772
261.854	7094
261.916	7129
261.978	6900
262.040	6791
262.102	5984
262.164	6091
262.225	5436
262.287	6256
262.349	10395
262.411	7420
262.472	5788
262.534	6469
262.596	8111
262.658	5409
262.719	3706
262.781	5279
262.843	8699
262.904	5656
262.966	5310
263.028	7323
263.090	28480
263.151	50487
263.213	19624
263.275	12630
263.336	6008
263.398	5320
263.459	4475
263.521	4428
263.583	10287
263.644	6995
263.706	4180
263.767	3605
263.829	4218
263.891	2721
263.952	3235
264.014	3166
264.075	9277
264.137	15923
264.198	7478
264.260	4089
264.321	4449
264.383	11921
264.444	22910
264.506	8086
264.567	6187
264.629	14471
264.690	20911
264.752	8477
264.813	6681
264.875	3955
264.936	5843
264.998	4265
265.059	4556
265.120	5025
265.182	8527
265.243	33792
265.305	28332
265.366	9317
265.427	5798
265.489	5549
265.550	4066
265.611	6253
265.673	4720
265.734	4136
265.795	5295
265.857	4366
265.918	5242
265.979	13272
266.040	52011
266.102	37795
266.163	12722
266.224	10645
266.286	6476
266.347	5071
266.408	4221
266.469	4113
266.530	3624
266.592	4109
266.653	7267
266.714	9947
266.775	4912
266.836	3492
266.898	3751
266.959	7360
267.020	5279
267.081	4741
267.142	4782
267.203	4043
267.264	3210
267.326	5288
267.387	4623
267.448	3540
267.509	4282
267.570	4619
267.631	3381
267.692	3720
267.753	4064
267.814	3544
267.875	9335
267.936	14067
267.997	12114
268.058	10162
268.119	5903
268.180	5354
268.241	4168
268.302	4661
268.363	3061
268.424	3665
268.485	4454
268.546	3339
268.607	3539
268.668	3495
268.729	3154
268.790	3755
268.851	4710
268.912	9977
268.972	9607
269.033	5819
269.094	3317
269.155	4252
269.216	4057
269.277	3470
269.338	3492
269.398	4304
269.459	4462
269.520	6411
269.581	7518
269.642	7435
269.702	5639
269.763	6202
269.824	4823
269.885	6145
269.945	7356
270.006	5884
270.067	3733
270.128	4197
270.188	4107
270.249	3940
270.310	3638
270.370	4060
270.431	3412
270.492	3086
270.553	3648
270.613	7554
270.674	13212
270.734	5860
270.795	4586
270.856	5540
270.916	4116
270.977	4628
271.038	5680
271.098	5405
271.159	7750
271.219	6475
271.280	4114
271.340	4092
271.401	4322
271.462	6326
271.522	4719
271.583	4510
271.643	4677
271.704	4232
271.764	6074
271.825	13163
271.885	38432
271.946	40547
272.006	15104
272.066	25611
272.127	32594
272.187	10677
272.248	7428
272.308	8565
272.369	25174
272.429	11928
272.489	10882
272.550	9664
272.610	11287
272.671	6913
272.731	7293
272.791	8623
272.852	5787
272.912	5867
272.972	4433
273.033	3536
273.093	5610
273.153	6373
273.214	6090
273.274	5934
273.334	21925
273.394	29160
273.455	10753
273.515	14092
273.575	24857
273.635	10676
273.696	16081
273.756	28843
273.816	10635
273.876	6891
273.936	11899
273.997	15052
274.057	5565
274.117	5627
274.177	11740
274.237	42025
274.297	26488
274.358	16918
274.418	25379
274.478	15939
274.538	7272
274.598	6371
274.658	13588
274.718	14985
274.778	6903
274.838	5148
274.898	10481
274.958	21300
275.018	31513
275.078	17259
275.138	7745
275.198	5937
275.258	4832
275.318	5596
275.378	9418
275.438	9287
275.498	6412
275.558	13687
275.618	24467
275.678	19119
275.738	12998
275.798	9752
275.858	7318
275.918	5057
275.978	5831
276.038	5218
276.098	5192
276.157	9517
276.217	20168
276.277	8784
276.337	7363
276.397	4813
276.457	5695
276.517	5411
276.576	4107
276.636	3734
276.696	5649
276.756	13632
276.815	8122
276.875	4168
276.935	5014
276.995	4796
277.055	4519
277.114	3966
277.174	7155
277.234	17358
277.293	6919
277.353	4903
277.413	4689
277.472	3861
277.532	4090
277.592	5225
277.651	12194
277.711	16248
277.771	8145
277.830	25497
277.890	16670
277.950	17012
278.009	37216
278.069	12806
278.128	15796
278.188	17240
278.248	10238
278.307	20613
278.367	11367
278.426	5797
278.486	5097
278.545	4460
278.605	5027
278.664	4031
278.724	6237
278.783	15731
278.843	28813
278.902	9031
278.962	7051
279.021	6707
279.081	6696
279.140	7952
279.199	8744
279.259	8552
279.318	6667
279.378	8739
279.437	16174
279.496	46657
279.556	103568
279.615	59068
279.675	20017
279.734	14666
279.793	22384
279.853	30642
279.912	12292
279.971	7909
280.031	7197
280.090	15535
280.149	20754
280.208	19987
280.268	73550
280.327	52417
280.386	15015
280.445	16156
280.505	12865
280.564	7505
280.623	7005
280.682	11590
280.742	14222
280.801	5679
280.860	4941
280.919	4691
280.978	5400
281.037	4293
281.097	3462
281.156	4242
281.215	4296
281.274	6292
281.333	21513
281.392	12702
281.451	5107
281.510	4195
281.569	3943
281.628	3044
281.688	4148
281.747	4527
281.806	4344
281.865	3175
281.924	3657
281.983	3822
282.042	2479
282.101	3019
282.160	3687
282.219	2688
282.278	5131
282.337	12085
282.396	7573
282.454	3983
282.513	5951
282.572	18287
282.631	8727
282.690	4769
282.749	3269
282.808	4669
282.867	5113
282.926	4216
282.985	3591
283.043	3737
283.102	3106
283.161	4258
283.220	11470
283.279	17457
283.338	6390
283.396	4503
283.455	4301
283.514	5072
283.573	6538
283.631	5139
283.690	4399
283.749	4565
283.808	9206
283.866	8423
283.925	3696
283.984	4625
284.043	6164
284.101	5965
284.160	4912
284.219	5742
284.277	5696
284.336	8817
284.395	24632
284.453	17234
284.512	7655
284.570	9860
284.629	8326
284.688	7598
284.746	7606
284.805	8727
284.863	10285
284.922	13235
284.981	16141
285.039	24880
285.098	46611
285.156	105271
285.215	178471
285.273	170466
285.332	101043
285.390	53704
285.449	33717
285.507	24427
285.566	18095
285.624	14256
285.683	11600
285.741	9835
285.799	8012
285.858	7473
285.916	6642
285.975	5484
286.033	4980
286.091	5042
286.150	4343
286.208	4786
286.267	5636
286.325	5800
286.383	7970
286.442	6171
286.500	5163
286.558	4482
286.616	4544
286.675	5998
286.733	5393
286.791	4477
286.850	6003
286.908	7384
286.966	9779
287.024	5061
287.083	4486
287.141	3674
287.199	4959
287.257	5079
287.315	4501
287.374	6125
287.432	14421
287.490	8177
287.548	5756
287.606	4638
287.664	4718
287.723	6528
287.781	7587
287.839	5299
287.897	6041
287.955	8498
288.013	14375
288.071	33758
288.129	115011
288.187	220942
288.245	102790
288.303	37083
288.361	22154
288.419	16904
288.477	12518
288.535	9556
288.593	7681
288.651	6703
288.709	5170
288.767	4499
288.825	3795
288.883	4302
288.941	3961
288.999	3757
289.057	3619
289.115	4314
289.173	3965
289.231	4356
289.289	3390
289.346	4358
289.404	4397
289.462	6592
289.520	6534
289.578	3613
289.636	3684
289.694	3417
289.751	3765
289.809	3289
289.867	3329
289.925	4888
289.983	5150
290.040	3959
290.098	4172
290.156	4275
290.214	4496
290.271	3437
290.329	3359
290.387	3052
290.444	3500
290.502	2402
290.560	3652
290.617	3750
290.675	3321
290.733	2841
290.790	3188
290.848	3669
290.906	3728
290.963	3178
291.021	3002
291.078	4512
291.136	5800
291.194	15328
291.251	22717
291.309	6599
291.366	3570
291.424	3536
291.481	4303
291.539	3754
291.596	3332
291.654	2113
291.711	2485
291.769	4284
291.826	5496
291.884	4765
291.941	3181
291.999	3128
292.056	4200
292.114	3585
292.171	2543
292.228	2883
292.286	4539
292.343	6661
292.401	6874
292.458	4337
292.515	3889
292.573	4428
292.630	4280
292.687	4012
292.745	5174
292.802	6491
292.859	16164
292.917	22637
292.974	11143
293.031	5511
293.089	4037
293.146	4005
293.203	3375
293.260	2859
293.318	4695
293.375	6991
293.432	5323
293.489	4120
293.546	4372
293.604	7389
293.661	17525
293.718	38771
293.775	17540
293.832	8343
293.889	6669
293.947	6064
294.004	5110
294.061	6732
294.118	13532
294.175	26384
294.232	31242
294.289	12228
294.346	8540
294.403	9177
294.460	6094
294.517	5249
294.574	4532
294.631	4507
294.688	7374
294.745	16760
294.802	49679
294.859	47683
294.916	17179
294.973	9554
295.030	7729
295.087	6559
295.144	5454
295.201	4869
295.258	5171
295.315	7896
295.372	19824
295.429	29315
295.486	13924
295.542	11645
295.599	29428
295.656	38432
295.713	27056
295.770	28086
295.827	12759
295.883	7900
295.940	7675
295.997	10213
296.054	8584
296.111	5924
296.167	6079
296.224	4694
296.281	4296
296.338	4357
296.394	4902
296.451	7403
296.508	16230
296.564	25481
296.621	20441
296.678	42613
296.734	48326
296.791	19650
296.848	11457
296.904	13153
296.961	23917
297.018	34675
297.074	23687
297.131	10927
297.187	8833
297.244	13889
297.301	40316
297.357	55024
297.414	20236
297.470	10477
297.527	8426
297.583	7209
297.640	7412
297.696	6568
297.753	4849
297.809	4750
297.866	4302
297.922	4498
297.979	3789
298.035	5228
298.092	8576
298.148	22066
298.204	17505
298.261	11975
298.317	22430
298.374	45185
298.430	24392
298.486	12007
298.543	8707
298.599	9764
298.656	11187
298.712	17378
298.768	34572
298.824	23468
298.881	10883
298.937	7119
298.993	5938
299.050	7443
299.106	7520
299.162	6234
299.218	6255
299.275	5259
299.331	8348
299.387	14296
299.443	40151
299.500	33418
299.556	13762
299.612	8419
299.668	7887
299.724	6664
299.780	6414
299.837	6721
299.893	11560
299.949	30184
300.005	31228
300.061	31896
300.117	49095
300.173	23120
300.229	12216
300.285	14283
300.341	14391
300.397	8467
300.453	6626
300.510	5794
300.566	5586
300.622	6926
300.678	12500
300.734	24785
300.790	28536
300.845	33815
300.901	20361
300.957	27387
301.013	19799
301.069	9943
301.125	7668
301.181	7685
301.237	6227
301.293	5341
301.349	5471
301.405	4903
301.461	5900
301.516	7219
301.572	7193
301.628	10070
301.684	9895
301.740	15560
301.796	21615
301.851	15359
301.907	25018
301.963	26498
302.019	48048
302.074	107260
302.130	96686
302.186	44504
302.242	20388
302.297	14707
302.353	15137
302.409	24981
302.464	21098
302.520	19228
302.576	37796
302.631	39473
302.687	22993
302.743	11499
302.798	8920
302.854	7395
302.910	8084
302.965	9296
303.021	13167
303.076	12451
303.132	14750
303.187	16042
303.243	10085
303.299	7325
303.354	6348
303.410	6287
303.465	6922
303.521	6080
303.576	6395
303.632	8732
303.687	15467
303.743	36234
303.798	28301
303.853	13844
303.909	8913
303.964	8186
304.020	11305
304.075	14855
304.130	13747
304.186	21523
304.241	21314
304.297	16354
304.352	10662
304.358	10368
304.407	7981
304.449	7221
304.463	6973
304.518	7970
304.539	7784
304.573	7483
304.629	8214
304.630	8302
304.684	12557
304.720	23829
304.739	29584
304.794	39541
304.811	33626
304.850	18962
304.902	10559
304.905	10051
304.960	8348
304.992	8102
305.015	7929
305.071	7851
305.083	7561
305.126	6465
305.173	5989
305.181	5929
305.236	4969
305.264	5806
305.292	6688
305.347	7404
305.354	7392
305.402	7311
305.445	7551
305.457	7624
305.512	9318
305.535	9296
305.567	9232
305.622	10437
305.626	10750
305.678	18077
305.716	32109
305.733	37280
305.788	39533
305.807	35652
305.843	28445
305.897	37107
305.898	37207
305.953	34883
305.988	24873
306.008	19097
306.063	12473
306.078	11260
306.118	8938
306.168	6434
306.173	6239
306.228	5856
306.259	5760
306.283	5738
306.338	5576
306.349	5649
306.393	6061
306.440	6738
306.448	6817
306.503	7036
306.530	7711
306.558	9941
306.613	18949
306.620	20175
306.668	27971
306.711	35371
306.723	35987
306.778	27798
306.801	22397
306.833	15699
306.888	8844
306.892	8515
306.943	6591
306.982	6502
306.997	6587
307.052	5912
307.072	5914
307.107	6515
307.162	8550
307.163	8583
307.217	12554
307.253	14208
307.272	14333
307.327	15474
307.343	14742
307.381	12760
307.434	11192
307.436	11449
307.491	20864
307.524	29687
307.546	32630
307.600	33497
307.614	31076
307.655	20447
307.704	11864
307.710	11656
307.765	13065
307.795	15509
307.819	19021
307.874	29535
307.885	30157
307.929	25342
307.975	21116
307.984	21830
308.038	30594
308.065	38754
308.093	62654
308.148	125193
308.156	137635
308.202	216885
308.246	268097
308.257	258698
308.312	152584
308.336	109259
308.366	82965
308.421	49282
308.426	46427
308.475	31305
308.517	22149
308.530	20682
308.585	17484
308.607	16399
308.639	16137
308.694	16882
308.697	17020
308.748	26707
308.787	36211
308.803	36341
308.857	30996
308.877	28248
308.912	24722
308.967	22451
308.967	22431
309.021	29576
309.058	36671
309.076	46096
309.130	81296
309.148	95592
309.185	167641
309.238	286847
309.239	288236
309.293	329519
309.328	325333
309.348	283188
309.402	148834
309.418	113988
309.457	80628
309.508	46433
309.511	45518
309.566	35490
309.598	30562
309.620	30538
309.674	31565
309.688	32281
309.729	31744
309.778	29474
309.783	29011
309.837	23838
309.868	21157
309.892	24691
309.946	35609
309.959	38832
310.001	52932
310.049	66331
310.055	64258
310.109	39818
310.139	26291
310.163	21231
310.218	12586
310.229	11071
310.272	9335
310.319	8124
310.326	8050
310.381	7713
310.409	7473
310.435	7418
310.489	7299
310.499	7321
310.543	7424
310.589	7684
310.598	7789
310.652	8454
310.679	8613
310.706	7867
310.760	6259
310.769	6054
310.814	5617
310.859	5088
310.868	5065
310.923	5104
310.948	5076
310.977	5700
311.031	7124
311.038	7295
311.085	6736
311.128	6187
311.139	6221
311.193	6354
311.218	6441
311.247	5960
311.301	5022
311.308	4898
311.356	5385
311.398	5844
311.410	5831
311.464	5823
311.488	5799
311.518	5669
311.572	5445
311.578	5424
311.626	6891
311.668	8161
311.680	8284
311.734	8735
311.758	8938
311.788	8946
311.842	8961
311.847	8952
311.896	11107
311.937	13041
311.950	13053
312.004	12968
312.027	12887
312.058	10586
312.112	6478
312.117	6066
312.165	5875
312.207	5716
312.297	10750
312.386	8953
312.476	7673
312.566	12416
312.656	7950
312.745	5139
312.835	6861
312.925	7256
313.015	6648
313.104	6999
313.194	5346
313.284	5369
313.374	7367
313.463	7407
313.553	5724
313.643	5068
313.732	5271
313.822	4392
313.912	5580
314.001	6493
314.091	8425
314.180	11875
314.270	8317
314.360	8041
314.449	8065
314.539	5263
314.628	5213
314.718	6295
314.808	7675
314.897	5871
314.987	4901
315.076	6043
315.166	7730
315.255	8114
315.345	7308
315.434	7986
315.524	7317
315.613	7816
315.703	8842
315.792	9247
315.881	10174
315.971	8375
316.060	12515
316.150	20798
316.239	22716
316.328	10773
316.418	5504
316.507	5339
316.597	7496
316.686	7071
316.775	9908
316.865	22903
316.954	8218
317.043	3825
317.133	4735
317.222	4426
317.311	4621
317.400	5119
317.490	6211
317.579	7161
317.668	5626
317.757	6603
317.847	9112
317.936	14878
318.025	15954
318.114	9759
318.203	8141
318.293	14193
318.382	30896
318.471	24152
318.560	34927
318.649	75958
318.738	22373
318.828	8028
318.917	10819
319.006	13408
319.095	31882
319.184	86463
319.273	53036
319.362	21639
319.451	8237
319.540	7801
319.629	13373
319.718	26477
319.807	16291
319.896	27913
319.985	105827
320.074	46912
320.163	11119
320.252	16030
320.341	14675
320.430	14916
320.519	13440
320.608	9665
320.697	7543
320.786	7210
320.875	8323
320.964	10028
321.053	15298
321.142	20387
321.230	25278
321.319	17976
321.408	43118
321.497	22774
321.586	17244
321.675	20749
321.764	24076
321.852	15339
321.941	23682
322.030	18220
322.119	18948
322.207	41850
322.296	36365
322.385	19352
322.474	17940
322.562	46707
322.651	34205
322.740	17567
322.829	25190
322.917	31152
323.006	18938
323.095	13815
323.183	12412
323.272	18481
323.361	29849
323.449	88927
323.538	38304
323.626	58548
323.715	46080
323.804	17116
323.892	53499
323.981	36119
324.069	11659
324.158	28647
324.246	35127
324.335	10527
324.424	16158
324.512	8511
324.601	10711
324.689	20456
324.778	41317
324.866	24408
324.954	9755
325.043	6814
325.131	13238
325.220	24284
325.308	28470
325.397	19348
325.485	14829
325.574	5504
325.662	5409
325.750	5421
325.839	5217
325.927	4624
326.015	7279
326.104	9421
326.192	15964
326.280	5873
326.369	5641
326.457	7891
326.545	12608
326.634	6887
326.722	3330
326.810	4666
326.898	4701
326.987	6004
327.075	11432
327.163	13850
327.251	8500
327.340	14047
327.428	24177
327.516	5763
327.604	4761
327.692	5749
327.781	6613
327.869	11196
327.957	8030
328.045	6491
328.133	4600
328.221	5937
328.309	6452
328.397	5250
328.485	6585
328.574	8487
328.662	24431
328.750	18341
328.838	8572
328.926	5551
329.014	5776
329.102	8238
329.190	21326
329.278	16446
329.366	5239
329.454	4958
329.542	6178
329.630	6123
329.718	6420
329.806	8788
329.893	10833
329.981	15871
330.069	30798
330.157	102162
330.245	265063
330.333	168849
330.421	35252
330.509	17352
330.597	33135
330.684	28231
330.772	12895
330.860	17193
330.948	23955
331.036	10671
331.123	4873
331.211	5323
331.299	9029
331.387	16505
331.475	33896
331.562	10275
331.650	5030
331.738	5923
331.825	7796
331.913	4440
332.001	4652
332.089	7318
332.176	14170
332.264	28726
332.352	27276
332.439	9602
332.527	6464
332.614	5216
332.702	7137
332.790	6115
332.877	12238
332.965	27951
333.052	9200
333.140	6903
333.228	13932
333.315	5773
333.403	7245
333.490	15735
333.578	16497
333.665	13074
333.753	10807
333.840	4915
333.928	6903
334.015	19031
334.103	33368
334.190	108601
334.278	36104
334.365	9801
334.452	6766
334.540	4873
334.627	7497
334.715	10702
334.802	19666
334.889	94115
334.977	115605
335.064	14732
335.151	6415
335.239	7742
335.326	13330
335.413	49564
335.501	85210
335.588	11966
335.675	6856
335.762	8559
335.850	18153
335.937	10799
336.024	25029
336.111	107389
336.199	55377
336.286	9516
336.373	4669
336.460	3848
336.547	4414
336.635	6457
336.722	5685
336.809	5643
336.896	10287
336.983	31857
337.070	84232
337.157	123462
337.245	76390
337.332	59186
337.419	9396
337.506	5971
337.593	8428
337.680	26970
337.767	88995
337.854	28210
337.941	27126
338.028	25957
338.115	12208
338.202	12674
338.289	21728
338.376	68016
338.463	30876
338.550	46997
338.637	60883
338.724	15806
338.811	22942
338.898	6053
338.984	5269
339.071	7458
339.158	6741
339.245	16257
339.332	13552
339.419	13436
339.506	15452
339.593	3297
339.679	3392
339.766	3389
339.853	5718
339.940	11245
340.027	5166
340.113	3997
340.200	5889
340.287	5183
340.374	5878
340.460	11078
340.547	5145
340.634	7307
340.720	27941
340.807	21923
340.894	4257
340.980	4567
341.067	4760
341.154	4687
341.240	6574
341.327	14824
341.414	6661
341.500	5706
341.587	4670
341.674	3458
341.760	9159
341.847	12060
341.933	5327
342.020	2766
342.106	3142
342.193	3692
342.279	8719
342.366	6428
342.452	10446
342.539	5666
342.625	12563
342.712	32375
342.798	16294
342.885	6859
342.971	2485
343.058	2057
343.144	3205
343.230	3393
343.317	3758
343.403	3813
343.490	2450
343.576	2714
343.662	3607
343.749	4095
343.835	6765
343.921	13066
344.008	62968
344.094	168240
344.180	44613
344.267	12255
344.353	38926
344.439	50620
344.525	19627
344.612	11228
344.698	12236
344.784	7741
344.870	4196
344.957	4224
345.043	7322
345.129	5023
345.215	9097
345.301	6001
345.387	4429
345.474	2833
345.560	3208
345.646	4366
345.732	4231
345.818	4332
345.904	4449
345.990	4336
346.076	5061
346.162	10556
346.249	4832
346.335	3686
346.421	4438
346.507	15337
346.593	61660
346.679	19985
346.765	6372
346.851	3129
346.937	3435
347.023	3360
347.108	3677
347.194	3956
347.280	3766
347.366	4809
347.452	14969
347.538	69242
347.624	55676
347.710	46455
347.796	9341
347.882	4618
347.967	4545
348.053	7478
348.139	6030
348.225	2964
348.311	2832
348.397	2452
348.482	3468
348.568	5058
348.654	2945
348.740	1786
348.825	3492
348.911	6739
348.997	29536
349.083	72866
349.168	14390
349.254	3807
349.340	4467
349.425	3407
349.511	4685
349.597	6221
349.682	10815
349.768	38173
349.854	23466
349.939	5396
350.025	3454
350.110	3994
350.196	2638
350.282	2171
350.367	2510
350.453	5489
350.538	7287
350.624	4717
350.709	6058
350.795	2849
350.880	3082
350.966	4703
351.051	6329
351.137	4944
351.222	3461
351.308	10424
351.393	35392
351.479	11159
351.564	3264
351.649	3299
351.735	3799
351.820	2120
351.906	3749
351.991	5249
352.076	18666
352.162	35416
352.247	7866
352.332	4068
352.418	8276
352.503	12748
352.588	44455
352.673	43617
352.759	9843
352.844	4372
352.929	4202
353.014	5515
353.100	4354
353.185	4882
353.270	9806
353.355	11643
353.441	4408
353.526	5036
353.611	9716
353.696	12221
353.781	7274
353.866	3909
353.952	4114
354.037	9046
354.122	20587
354.207	20213
354.292	9876
354.377	3661
354.462	3153
354.547	4606
354.632	5243
354.717	6890
354.802	5655
354.887	3025
354.972	3328
355.057	2423
355.142	2587
355.227	4222
355.312	6144
355.397	14461
355.482	34195
355.567	21552
355.652	12086
355.737	14070
355.822	43365
355.907	45367
355.991	7392
356.076	3664
356.161	3394
356.246	3077
356.331	4526
356.416	10913
356.501	69924
356.585	92154
356.670	14121
356.755	7767
356.840	10534
356.924	43457
357.009	180436
357.094	85119
357.179	16101
357.263	10405
357.348	7967
357.433	10531
357.517	9081
357.602	7480
357.687	6033
357.771	9542
357.856	37348
357.941	27846
358.025	39121
358.110	180778
358.195	106618
358.279	15528
358.364	9241
358.448	28027
358.533	82790
358.617	65300
358.702	63188
358.787	26371
358.871	11763
358.956	10976
359.040	4194
359.125	2654
359.209	3782
359.294	16353
359.378	34066
359.462	11410
359.547	5752
359.631	5300
359.716	3240
359.800	4042
359.885	7747
359.969	4775
360.053	3412
360.138	4224
360.222	6067
360.306	10422
360.391	10902
360.475	17898
360.559	44597
360.644	31350
360.728	26947
360.812	36703
360.896	122139
360.981	56806
361.065	29476
361.149	8218
361.233	6368
361.318	5993
361.402	5647
361.486	5189
361.570	3858
361.654	5917
361.739	14953
361.823	66460
361.907	128208
361.991	27194
362.075	10276
362.159	21623
362.243	16288
362.327	9678
362.411	9341
362.495	7439
362.580	6323
362.664	3545
362.748	3521
362.832	3916
362.916	4797
363.000	15280
363.084	60448
363.168	140076
363.252	38945
363.336	11264
363.420	16443
363.503	71161
363.587	102136
363.671	17627
363.755	9325
363.839	12316
363.923	6852
364.007	10758
364.091	15772
364.175	25271
364.258	116182
364.342	69606
364.426	22405
364.510	13651
364.594	15944
364.677	22722
364.761	96712
364.845	85704
364.929	22468
365.013	18090
365.096	12881
365.180	19111
365.264	30417
365.347	127611
365.431	65876
365.515	16071
365.598	5796
365.682	4967
365.766	12727
365.849	19514
365.933	7348
366.017	9880
366.100	10766
366.184	2731
366.267	3590
366.351	3672
366.435	3768
366.518	2256
366.602	2979
366.685	2923
366.769	4800
366.852	10829
366.936	17847
367.019	9540
367.103	9303
367.186	20721
367.270	7007
367.353	2221
367.436	3811
367.520	2868
367.603	4636
367.687	5291
367.770	13937
367.853	9216
367.937	25482
368.020	54640
368.104	13992
368.187	8867
368.270	13985
368.353	14863
368.437	17949
368.520	46590
368.603	30504
368.687	31637
368.770	71310
368.853	19895
368.936	15306
369.020	19399
369.103	7431
369.186	3943
369.269	4260
369.352	8154
369.436	13955
369.519	8761
369.602	4963
369.685	4757
369.768	5927
369.851	5020
369.934	3796
370.018	4710
370.101	10903
370.184	10200
370.267	8472
370.350	12222
370.433	21061
370.516	49459
370.599	67042
370.682	17610
370.765	31573
370.848	40566
370.931	83012
371.014	39142
371.097	8617
371.180	4768
371.263	2860
371.346	2578
371.429	3621
371.511	4133
371.594	7406
371.677	15058
371.760	22399
371.843	15024
371.926	59829
372.009	172601
372.091	62138
372.174	30452
372.257	80853
372.340	38718
372.423	24970
372.505	35116
372.588	15192
372.671	19869
372.754	75850
372.836	47634
372.919	35715
373.002	79819
373.085	25172
373.167	11780
373.250	30021
373.332	77604
373.415	93992
373.498	218852
373.580	92422
373.663	82601
373.746	144989
373.828	36327
373.911	14050
373.993	16236
374.076	69864
374.159	77371
374.241	23724
374.324	63524
374.406	50282
374.489	52506
374.571	175734
374.654	84589
374.736	31796
374.819	102988
374.901	145038
374.983	169964
375.066	35744
375.148	12147
375.231	52792
375.313	120722
375.395	48128
375.478	10504
375.560	6465
375.643	6952
375.725	26431
375.807	125294
375.890	116597
375.972	49140
376.054	22816
376.136	38549
376.219	20565
376.301	30139
376.383	112826
376.465	50568
376.548	22788
376.630	28963
376.712	91471
376.794	52009
376.877	7088
376.959	3926
377.041	5204
377.123	15663
377.205	22039
377.287	4617
377.369	3379
377.452	3015
377.534	3449
377.616	3698
377.698	3463
377.780	2360
377.862	3536
377.944	2209
378.026	2839
378.108	2956
378.190	2495
378.272	2340
378.354	2105
378.436	2358
378.518	7323
378.600	31096
378.682	25547
378.764	41602
378.846	40795
378.928	11780
379.010	14429
379.091	8700
379.173	4248
379.255	3859
379.337	6152
379.419	18114
379.501	65848
379.583	32218
379.664	6930
379.746	13619
379.828	41473
379.910	60131
379.991	57770
380.073	10998
380.155	6319
380.237	5396
380.318	3823
380.400	4430
380.482	7307
380.564	14336
380.645	11857
380.727	12218
380.809	8271
380.890	5582
380.972	4802
381.053	3355
381.135	6656
381.217	12559
381.298	45295
381.380	27051
381.461	18362
381.543	81004
381.624	125413
381.706	26478
381.787	11877
381.869	12204
381.951	34334
382.032	154389
382.113	114183
382.195	23786
382.276	13393
382.358	23744
382.439	82817
382.521	91250
382.602	154973
382.684	70624
382.765	107300
382.846	110835
382.928	98872
383.009	62414
383.090	43466
383.172	133776
383.253	225351
383.334	98108
383.416	125518
383.497	74583
383.578	25239
383.659	41470
383.741	125298
383.822	331893
383.903	199653
383.984	79475
384.066	151212
384.147	107568
384.228	22609
384.309	12706
384.390	10775
384.471	7956
384.553	8290
384.634	12005
384.715	12924
384.796	6397
384.877	8967
384.958	36513
385.039	53817
385.120	19469
385.201	8880
385.282	11727
385.363	12993
385.444	10393
385.525	16765
385.606	63061
385.687	65769
385.768	17504
385.849	17759
385.930	65604
386.011	143396
386.092	44743
386.173	9839
386.254	7414
386.335	8140
386.416	7843
386.496	25164
386.577	48976
386.658	21130
386.739	12166
386.820	11512
386.901	10065
386.981	8695
387.062	4971
387.143	8754
387.224	39852
387.304	45280
387.385	15471
387.466	10014
387.547	14102
387.627	9400
387.708	14610
387.789	71520
387.869	107425
387.950	32325
388.031	6483
388.111	6705
388.192	19577
388.273	31546
388.353	18105
388.434	8951
388.514	13473
388.595	71292
388.676	106650
388.756	50269
388.837	40172
388.917	28921
388.998	6954
389.078	5799
389.159	4788
389.239	4718
389.320	7525
389.400	7647
389.480	15581
389.561	50944
389.641	28728
389.722	8691
389.802	13262
389.883	19898
389.963	57575
390.043	43797
390.124	15337
390.204	14272
390.284	48508
390.365	37087
390.445	48184
390.525	128426
390.605	123619
390.686	36689
390.766	10882
390.846	6081
390.927	3318
391.007	4420
391.087	5813
391.167	6979
391.247	4476
391.328	9355
391.408	17128
391.488	14382
391.568	4217
391.648	6402
391.728	8773
391.808	8209
391.888	9082
391.969	23023
392.049	45692
392.129	23728
392.209	19417
392.289	55436
392.369	36369
392.449	34553
392.529	20951
392.609	10870
392.689	12712
392.769	49108
392.849	50429
392.929	30047
393.009	77779
393.089	57138
393.169	19244
393.248	46918
393.328	261433
393.408	355092
393.488	79530
393.568	18120
393.648	11323
393.728	8246
393.807	7712
393.887	8762
393.967	7855
394.047	11824
394.127	16450
394.206	28478
394.286	90256
394.366	395839
394.446	522748
394.525	156859
394.605	38150
394.685	25597
394.764	46908
394.844	83335
394.924	63632
395.003	18013
395.083	10154
395.163	9752
395.242	8797
395.322	9529
395.402	7326
395.481	10774
395.561	29249
395.640	87769
395.720	61008
395.799	96444
395.879	91411
395.958	50303
396.038	141781
396.117	523209
396.197	675637
396.276	256821
396.356	81672
396.435	51193
396.515	27960
396.594	20189
396.673	24728
396.753	62415
396.832	263692
396.912	247064
396.991	66201
397.070	15571
397.150	8379
397.229	7581
397.308	6379
397.388	8551
397.467	5753
397.546	5219
397.625	3695
397.705	7065
397.784	7522
397.863	4436
397.942	3821
398.022	4966
398.101	22736
398.180	87704
398.259	52530
398.338	12613
398.417	6582
398.497	5395
398.576	5194
398.655	3942
398.734	3585
398.813	5021
398.892	22730
398.971	91940
399.050	53401
399.129	6160
399.208	3037
399.287	4022
399.366	2997
399.445	3558
399.524	3078
399.603	3521
399.682	6299
399.761	22352
399.840	91009
399.919	84827
399.998	13435
400.077	2697
400.156	1479
400.235	4599
400.313	3774
400.392	4812
400.471	19199
400.550	38849
400.629	12523
400.708	5841
400.786	5993
400.865	19914
400.944	24194
401.023	10409
401.102	1792
401.180	1703
401.259	2567
401.338	4148
401.416	5458
401.495	4738
401.574	4383
401.652	4578
401.731	4910
401.810	4836
401.888	2687
401.967	1332
402.046	2384
402.124	4169
402.203	6923
402.281	3905
402.360	6064
402.438	25404
402.517	21223
402.596	6519
402.674	5896
402.753	4018
402.831	2291
402.910	3123
402.988	9311
403.066	33762
403.145	23490
403.223	11531
403.302	26376
403.380	20732
403.459	18361
403.537	8587
403.615	3712
403.694	826
403.772	2615
403.850	1428
403.929	1682
404.007	2113
404.085	5378
404.164	5093
404.242	4113
404.320	17183
404.398	62079
404.477	69349
404.555	117115
404.633	127145
404.711	54744
404.789	32313
404.868	7230
404.946	2804
405.024	2627
405.102	1874
405.180	1453
405.258	1501
405.336	2897
405.415	1981
405.493	7055
405.571	6772
405.649	1173
405.727	2134
405.805	5001
405.883	4195
405.961	5283
406.039	8761
406.117	4199
406.195	4922
406.273	20011
406.351	94484
406.429	71558
406.507	13798
406.585	5206
406.663	3192
406.740	3883
406.818	4354
406.896	2834
406.974	3388
407.052	6672
407.130	47872
407.208	87575
407.285	21025
407.363	3545
407.441	2961
407.519	2194
407.596	3136
407.674	7232
407.752	23366
407.830	32891
407.907	16929
407.985	4207
408.063	2503
408.141	1995
408.218	6389
408.296	5961
408.373	2422
408.451	3066
408.529	3302
408.606	953
408.684	2059
408.762	1451
408.839	372
408.917	682
408.994	1459
409.072	540
409.149	1138
409.227	1876
409.304	2163
409.382	1252
409.459	718
409.537	1588
409.614	2439
409.692	1170
409.769	1702
409.846	2967
409.924	4422
410.001	3887
410.079	3505
410.156	3064
410.233	2327
410.311	3094
410.388	1403
410.465	2070
410.543	3399
410.620	1782
410.697	2114
410.775	3115
410.852	324
410.929	2944
411.006	5089
411.083	2033
411.161	7398
411.238	10074
411.315	5875
411.392	1693
411.469	3302
411.547	5087
411.624	1966
411.701	2524
411.778	2990
411.855	5801
411.932	4288
412.009	2138
412.086	2425
412.163	2148
412.240	3651
412.317	6068
412.394	6728
412.471	2273
412.548	1040
412.625	1711
412.702	3852
412.779	7578
412.856	5662
412.933	1302
413.010	2170
413.087	4284
413.164	17510
413.241	32669
413.318	9313
413.395	4863
413.471	6047
413.548	2996
413.625	2662
413.702	3125
413.779	4366
413.855	785
413.932	951
414.009	210
414.086	1180
414.162	1533
414.239	3818
414.316	16690
414.393	47261
414.469	20167
414.546	2651
414.623	1241
414.699	1092
414.776	2463
414.853	1378
414.929	1896
415.006	2379
415.082	4170
415.159	4102
415.236	2628
415.312	1979
415.389	3481
415.465	6026
415.542	3334
415.618	1688
415.695	4205
415.771	2449
415.848	2783
415.924	2710
416.000	2237
416.077	2142
416.153	-396
416.230	189
416.306	695
416.383	835
416.459	1291
416.535	823
416.612	481
416.688	1522
416.764	703
416.841	-98
416.917	728
416.993	1813
417.069	2416
417.146	4868
417.222	8298
417.298	5155
417.374	746
417.451	2163
417.527	1488
417.603	3539
417.679	2553
417.755	2255
417.831	343
417.908	1060
417.984	16
418.060	677
418.136	3769
418.212	7430
418.288	2909
418.364	2571
418.440	1267
418.516	3509
418.592	6533
418.668	10658
418.744	13037
418.820	11240
418.896	2824
418.972	1051
419.048	1255
419.124	4685
419.200	4490
419.276	1175
419.352	981
419.428	975
419.504	1459
419.579	2997
419.655	1868
419.731	1680
419.807	6380
419.883	14764
419.959	12505
420.034	3748
420.110	5598
420.186	26082
420.262	26367
420.337	5273
420.413	1607
420.489	1659
420.565	1709
420.640	448
420.716	1792
420.792	741
420.867	1644
420.943	898
421.019	3425
421.094	3383
421.170	1413
421.245	390
421.321	1250
421.397	467
421.472	2832
421.548	9810
421.623	9530
421.699	3898
421.774	1475
421.850	1467
421.925	3710
422.001	3635
422.076	1966
422.152	2268
422.227	4413
422.302	5991
422.378	6428
422.453	10220
422.529	25965
422.604	109230
422.679	296961
422.755	181669
422.830	40712
422.905	12655
422.981	5746
423.056	3538
423.131	3117
423.207	3284
423.282	2268
423.357	7518
423.432	4976
423.508	3997
423.583	11635
423.658	12018
423.733	3628
423.808	4816
423.883	4015
423.959	3651
424.034	2259
424.109	2557
424.184	203
424.259	974
424.334	1158
424.409	976
424.484	741
424.559	1742
424.634	860
424.709	2194
424.784	3681
424.859	2546
424.934	3229
425.009	15917
425.084	33117
425.159	16009
425.234	2952
425.309	1376
425.384	6930
425.459	17329
425.534	6636
425.609	1931
425.683	2188
425.758	1722
425.833	1967
425.908	3139
425.983	8282
426.058	31341
426.132	18434
426.207	4172
426.282	6247
426.357	7697
426.431	1756
426.506	1744
426.581	1640
426.655	2070
426.730	1056
426.805	1854
426.879	1972
426.954	2073
427.029	4890
427.103	25139
427.178	82935
427.253	48469
427.327	7062
427.402	7694
427.476	22033
427.551	12857
427.625	4361
427.700	3492
427.774	2106
427.849	3110
427.923	1669
427.998	1021
428.072	1625
428.147	5189
428.221	12296
428.296	32364
428.370	18419
428.444	4490
428.519	8447
428.593	19229
428.667	18933
428.742	20797
428.816	16569
428.890	29447
428.965	47622
429.039	23657
429.113	24079
429.188	10759
429.262	2014
429.336	3519
429.410	14424
429.485	13139
429.559	16038
429.633	16233
429.707	4794
429.781	6750
429.855	38968
429.930	60011
430.004	47203
430.078	90446
430.152	77318
430.226	47008
430.300	52222
430.374	10796
430.448	5861
430.522	23708
430.596	87908
430.670	55742
430.744	47379
430.818	100675
430.892	31578
430.966	5158
431.040	2030
431.114	1253
431.188	758
431.262	1551
431.336	2006
431.410	7006
431.484	23134
431.557	17529
431.631	2490
431.705	1224
431.779	3904
431.853	21767
431.927	21329
432.000	3036
432.074	1542
432.148	3584
432.222	4335
432.295	2067
432.369	1136
432.443	3747
432.516	24897
432.590	86455
432.664	44480
432.737	6165
432.811	1817
432.885	727
432.958	732
433.032	852
433.106	212
433.179	147
433.253	961
433.326	458
433.400	914
433.473	1093
433.547	8
433.620	944
433.694	2464
433.767	4553
433.841	850
433.914	1281
433.988	961
434.061	1160
434.134	1197
434.208	353
434.281	-218
434.355	272
434.428	1461
434.501	1127
434.575	78
434.648	1385
434.721	-444
434.795	495
434.868	64
434.941	172
435.014	-396
435.088	520
435.161	1347
435.234	3362
435.307	3694
435.381	1861
435.454	333
435.527	1457
435.600	201
435.673	746
435.746	481
435.819	572
435.892	-159
435.966	637
436.039	411
436.112	1373
436.185	-111
436.258	182
436.331	-414
436.404	811
436.477	40
436.550	440
436.623	-358
436.696	128
436.769	710
436.842	1462
436.915	1493
436.987	2084
437.060	1160
437.133	1245
437.206	363
437.279	1629
437.352	-401
437.425	941
437.498	826
437.570	4388
437.643	4948
437.716	1650
437.789	671
437.861	2585
437.934	11058
438.007	7076
438.080	1201
438.152	2116
438.225	4394
438.298	31412
438.370	121697
438.443	71278
438.516	15548
438.588	4186
438.661	1323
438.734	2288
438.806	1740
438.879	1865
438.951	2567
439.024	6032
439.096	2916
439.169	1445
439.241	1102
439.314	2086
439.386	3098
439.459	4963
439.531	7467
439.604	4507
439.676	1035
439.749	872
439.821	657
439.893	855
439.966	860
440.038	1876
440.110	2819
440.183	1583
440.255	464
440.327	1896
440.400	12173
440.472	68532
440.544	63544
440.617	11174
440.689	4666
440.761	4886
440.833	9527
440.905	6916
440.978	1682
441.050	871
441.122	484
441.194	433
441.266	607
441.338	389
441.411	1901
441.483	15666
441.555	35429
441.627	11441
441.699	4353
441.771	5899
441.843	1773
441.915	1565
441.987	831
442.059	230
442.131	1487
442.203	4159
442.275	3743
442.347	4130
442.419	1956
442.491	5566
442.563	17291
442.635	15142
442.706	20167
442.778	19739
442.850	3481
442.922	2291
442.994	2105
443.066	4763
443.137	3197
443.209	1506
443.281	1496
443.353	3792
443.425	11787
443.496	32346
443.568	35631
443.640	14469
443.711	4151
443.783	2464
443.855	1434
443.926	381
443.998	1220
444.070	3445
444.141	2876
444.213	3460
444.285	4398
444.356	4136
444.428	4006
444.499	2270
444.571	-217
444.642	-34
444.714	959
444.785	2843
444.857	4574
444.928	17117
445.000	11860
445.071	9510
445.143	12890
445.214	5000
445.285	6132
445.357	23357
445.428	32884
445.500	68004
445.571	55929
445.642	23961
445.714	15986
445.785	29348
445.856	9534
445.928	4998
445.999	4285
446.070	4212
446.141	2686
446.213	4402
446.284	2844
446.355	3748
446.426	1953
446.497	1528
446.569	4474
446.640	6926
446.711	4762
446.782	1872
446.853	2501
446.924	3191
446.995	1603
447.066	2368
447.138	6159
447.209	4959
447.280	637
447.351	607
447.422	316
447.493	1936
447.564	3308
447.635	3600
447.706	1845
447.777	863
447.847	-91
447.918	-236
447.989	2292
448.060	4086
448.131	10771
448.202	11375
448.273	5987
448.344	3438
448.414	788
448.485	1653
448.556	854
448.627	547
448.698	1677
448.768	1178
448.839	1130
448.910	4620
448.981	6434
449.051	2021
449.122	774
449.193	978
449.263	1686
449.334	1441
449.405	1378
449.475	5639
449.546	5370
449.616	6421
449.687	6792
449.758	2965
449.828	2488
449.899	1145
449.969	970
450.040	1672
450.110	2439
450.181	3401
450.251	969
450.322	1800
450.392	1650
450.463	1827
450.533	127
450.604	1169
450.674	1063
450.744	2308
450.815	1076
450.885	1219
450.955	1479
451.026	805
451.096	1104
451.166	2663
451.237	5288
451.307	19373
451.377	9132
451.447	1707
451.518	968
451.588	1244
451.658	989
451.728	3051
451.799	16770
451.869	24561
451.939	7544
452.009	2260
452.079	908
452.149	1555
452.219	4431
452.289	21281
452.360	21528
452.430	4358
452.500	1888
452.570	2557
452.640	3636
452.710	9760
452.780	20550
452.850	11613
452.920	10522
452.990	4815
453.060	2008
453.129	3272
453.199	5989
453.269	18465
453.339	58631
453.409	98846
453.479	77996
453.549	120028
453.619	135916
453.688	68285
453.758	12028
453.828	4473
453.898	2764
453.968	2427
454.037	1594
454.087	1773
454.107	1823
454.168	1687
454.177	1640
454.247	1947
454.249	1955
454.316	1597
454.330	1742
454.386	2319
454.411	5133
454.456	9098
454.492	13738
454.525	17667
454.574	10074
454.595	6866
454.655	3455
454.665	2932
454.734	2915
454.736	3060
454.804	7092
454.817	9800
454.873	18914
454.898	22158
454.943	26758
454.979	18468
455.013	11391
455.060	6550
455.082	4976
455.141	5919
455.152	6004
455.221	15139
455.222	15547
455.291	32891
455.303	32095
455.360	27480
455.384	35020
455.430	45749
455.465	41421
455.499	37290
455.546	28355
455.569	23526
455.627	16739
455.638	15721
455.707	4142
455.708	4157
455.777	2839
455.789	2833
455.846	2728
455.869	2535
455.916	2139
455.950	2002
455.985	1745
456.031	2495
456.054	2808
456.112	2290
456.124	2194
456.193	2615
456.193	2594
456.262	3004
456.274	3316
456.332	4286
456.355	4357
456.401	4052
456.436	3847
456.470	3466
456.516	2030
456.540	1507
456.597	1690
456.609	1693
456.678	1458
456.678	1442
456.747	1271
456.759	1239
456.817	982
456.840	1001
456.886	1083
456.920	1413
456.955	1710
457.001	2050
457.024	2409
457.082	3115
457.093	3311
457.162	5049
457.163	5093
457.232	6513
457.243	6423
457.301	4797
457.324	3688
457.370	2467
457.405	2303
457.439	2132
457.485	2061
457.508	2110
457.566	1913
457.577	1872
457.646	3373
457.647	3388
457.715	3118
457.727	3261
457.784	3644
457.808	3821
457.853	4524
457.889	5161
457.922	5095
457.969	4623
457.991	4704
458.050	5094
458.060	5141
458.129	6265
458.130	6311
458.198	6131
458.211	5948
458.267	4576
458.292	3737
458.336	2942
458.372	2698
458.405	2805
458.453	3592
458.474	4361
458.533	6352
458.543	6606
458.611	9934
458.614	10079
458.680	8593
458.694	7732
458.749	5258
458.775	4303
458.818	3552
458.855	2933
458.887	2526
458.936	2803
458.955	2935
459.016	3062
459.024	3063
459.093	3830
459.097	3835
459.162	3907
459.177	3972
459.230	4211
459.257	4551
459.299	4861
459.338	4907
459.368	5140
459.418	6030
459.437	5859
459.499	4638
459.505	4603
459.574	4162
459.579	4173
459.643	3819
459.659	3555
459.711	3243
459.740	3620
459.780	4477
459.820	5093
459.849	5318
459.900	5683
459.917	5662
459.981	5817
459.986	5780
460.054	4779
460.061	4755
460.123	5188
460.141	5230
460.191	5956
460.222	6512
460.260	6949
460.302	7619
460.328	7325
460.382	6625
460.397	6623
460.462	6112
460.465	6170
460.534	7709
460.543	7931
460.602	18180
460.623	22235
460.671	37867
460.703	51255
460.739	50643
460.783	48992
460.808	41370
460.864	11401
460.876	9661
460.944	6042
460.945	5991
461.013	5614
461.024	5480
461.081	5332
461.104	5587
461.150	5614
461.184	5676
461.218	5553
461.264	4560
461.286	4485
461.345	4932
461.355	4942
461.423	5566
461.425	5565
461.491	5725
461.505	5897
461.559	11051
461.585	13340
461.628	24829
461.665	35742
461.696	42195
461.745	55983
461.764	48465
461.825	16854
461.832	16316
461.901	8382
461.905	8138
461.969	6423
461.985	6205
462.037	6609
462.065	6580
462.105	6879
462.145	7305
462.173	11263
462.225	19413
462.241	22328
462.305	34283
462.310	33390
462.378	21033
462.385	18987
462.446	9397
462.465	6892
462.514	6471
462.545	6782
462.582	7045
462.625	7183
462.650	6842
462.705	6194
462.718	6455
462.785	7912
462.786	7990
462.854	12403
462.865	13141
462.922	16796
462.945	18481
462.990	13713
463.025	9223
463.058	7858
463.104	6071
463.126	6115
463.184	6107
463.194	6144
463.262	6799
463.264	6830
463.330	7625
463.344	7669
463.398	7867
463.424	8162
463.466	8519
463.504	8807
463.533	8653
463.583	8204
463.601	8628
463.663	9954
463.669	10176
463.737	12950
463.743	13190
463.805	20165
463.823	22265
463.873	36376
463.903	45013
463.940	51365
463.982	59609
464.008	47993
464.062	20782
464.076	18893
464.142	7878
464.144	7814
464.211	7398
464.221	7399
464.279	8238
464.301	8539
464.347	8995
464.381	9225
464.414	10301
464.461	12078
464.482	13338
464.540	16707
464.550	16042
464.617	10975
464.620	10783
464.685	11120
464.699	11147
464.753	13591
464.779	14887
464.820	15868
464.859	16912
464.888	17688
464.938	18686
464.956	18875
465.018	19506
465.023	19210
465.091	15108
465.098	14629
465.158	14337
465.177	14319
465.226	14346
465.257	14246
465.293	14625
465.336	15037
465.361	16059
465.416	18301
465.428	19321
465.495	24922
465.496	25093
465.563	45813
465.575	49371
465.631	66718
465.654	74433
465.698	48865
465.734	26419
465.765	22116
465.813	15309
465.833	14975
465.893	14795
465.900	14911
465.968	15867
465.972	15908
466.035	15663
466.052	15533
466.102	16595
466.131	17195
466.170	17264
466.210	17278
466.237	17569
466.290	18006
466.304	18419
466.369	20053
466.372	20137
466.439	21692
466.449	21864
466.506	23416
466.528	23957
466.573	29371
466.607	33390
466.641	49925
466.687	72792
466.708	82715
466.766	109977
466.775	102714
466.842	46643
466.845	43880
466.909	30707
466.925	27579
466.977	26450
467.004	25901
467.044	26038
467.083	26063
467.111	27530
467.163	30155
467.178	31041
467.242	34467
467.245	34350
467.312	30568
467.321	30010
467.379	29502
467.400	29230
467.446	30746
467.480	31740
467.559	29239
467.638	23791
467.717	23847
467.796	25396
467.875	26182
467.955	26448
468.034	33441
468.113	77283
468.192	128641
468.271	45411
468.350	20250
468.429	18844
468.508	17800
468.588	17375
468.667	19076
468.746	21763
468.825	19805
468.904	17488
468.983	20521
469.062	31982
469.141	42605
469.220	20794
469.299	16527
469.378	19293
469.456	21929
469.535	21520
469.614	20819
469.693	20942
469.772	25547
469.851	36438
469.930	30231
470.009	18609
470.088	16083
470.166	17688
470.245	19649
470.324	23104
470.403	19822
470.482	17498
470.560	15990
470.639	16431
470.718	18926
470.797	18034
470.875	18325
470.954	26230
471.033	34529
471.111	15707
471.190	14189
471.269	12484
471.347	13804
471.426	14884
471.505	18285
471.583	20284
471.662	18021
471.740	16603
471.819	15559
471.898	15432
471.976	15068
472.055	15274
472.133	17238
472.212	22994
472.290	27214
472.369	17892
472.447	15052
472.526	12919
472.604	14138
472.683	14677
472.761	15437
472.839	14979
472.918	13915
472.996	14602
473.075	17345
473.153	17440
473.231	14335
473.310	17107
473.388	17015
473.466	16207
473.545	16879
473.623	20090
473.701	20491
473.780	15166
473.858	14038
473.936	15157
474.014	14494
474.093	15385
474.171	22582
474.249	38080
474.327	30002
474.405	13624
474.484	12822
474.562	12674
474.640	13974
474.718	16728
474.796	18408
474.874	16526
474.952	14723
475.030	14891
475.108	15985
475.187	19423
475.265	18894
475.343	19338
475.421	20760
475.499	16712
475.577	16820
475.655	19817
475.733	39832
475.811	77746
475.889	75361
475.966	58435
476.044	15105
476.122	14579
476.200	16762
476.278	15513
476.356	14490
476.434	13993
476.512	14756
476.590	16607
476.667	17115
476.745	13364
476.823	13761
476.901	14257
476.979	15249
477.056	13820
477.134	14105
477.212	13923
477.290	14386
477.367	13272
477.445	12130
477.523	12747
477.601	12942
477.678	11972
477.756	17055
477.834	20065
477.911	13473
477.989	13423
478.066	11945
478.144	14640
478.222	14713
478.299	13562
478.377	16092
478.454	12263
478.532	11506
478.609	11883
478.687	12765
478.764	11510
478.842	12040
478.919	13171
478.997	12760
479.074	11154
479.152	13851
479.229	20338
479.307	14700
479.384	9695
479.461	9836
479.539	12062
479.616	15129
479.694	12603
479.771	14874
479.848	15142
479.926	20582
480.003	25554
480.080	11936
480.157	10081
480.235	9936
480.312	11316
480.389	12972
480.467	22919
480.544	33803
480.621	17663
480.698	12610
480.775	15793
480.853	18048
480.930	13803
481.007	13258
481.084	15491
481.161	17136
481.238	16721
481.315	11270
481.392	11536
481.470	12820
481.547	11954
481.624	12683
481.701	11655
481.778	12882
481.855	14170
481.932	20996
482.009	39933
482.086	35477
482.163	12062
482.240	12065
482.317	15474
482.393	16011
482.470	11637
482.547	12391
482.624	11684
482.701	12067
482.778	12446
482.855	9613
482.932	10052
483.009	9615
483.085	11061
483.162	12341
483.239	13781
483.316	10131
483.393	9898
483.469	10710
483.546	12608
483.623	16295
483.699	12046
483.776	12581
483.853	14855
483.930	20476
484.006	53732
484.083	116467
484.160	62335
484.236	67365
484.313	59974
484.389	42586
484.466	36530
484.543	34755
484.619	33740
484.696	34451
484.772	37935
484.849	42407
484.925	34775
485.002	33734
485.078	34978
485.155	34999
485.231	32374
485.308	31091
485.384	32933
485.461	37019
485.537	63293
485.614	92834
485.690	39952
485.766	29934
485.843	30292
485.919	36597
485.995	41020
486.072	29217
486.148	27930
486.224	27827
486.301	28513
486.377	32857
486.453	34681
486.530	32039
486.606	40223
486.682	48577
486.758	56522
486.835	72772
486.911	52361
486.987	82041
487.063	81521
487.139	75825
487.215	62431
487.292	38583
487.368	31134
487.444	31779
487.520	35105
487.596	34079
487.672	32885
487.748	40431
487.824	56116
487.900	40339
487.976	30029
488.052	31555
488.128	37919
488.204	34690
488.280	31111
488.356	34482
488.432	66646
488.508	131545
488.584	53485
488.660	27201
488.736	27364
488.812	27612
488.888	33543
488.964	37600
489.039	60962
489.115	101366
489.191	78835
489.267	30869
489.343	27993
489.418	24106
489.494	22630
489.570	21696
489.646	24441
489.722	24899
489.797	25399
489.873	34279
489.949	85245
490.024	96523
490.100	27451
490.176	23424
490.251	24760
490.327	31051
490.403	24612
490.478	21955
490.554	18721
490.629	20340
490.705	18963
490.781	22077
490.856	20894
490.932	23519
491.007	23202
491.083	24043
491.158	22670
491.234	27135
491.309	62820
491.385	85361
491.460	27338
491.536	24634
491.611	21915
491.686	20244
491.762	26387
491.837	40143
491.913	74172
491.988	96284
492.063	137403
492.139	60941
492.214	40683
492.289	18706
492.365	16339
492.440	20168
492.515	21629
492.590	22594
492.666	17616
492.741	21375
492.816	40700
492.891	26639
492.967	17300
493.042	15245
493.117	17372
493.192	19196
493.267	26959
493.342	83186
493.418	155522
493.493	40342
493.568	15027
493.643	14255
493.718	19551
493.793	29131
493.868	32916
493.943	19533
494.018	16171
494.093	15525
494.168	16374
494.243	13413
494.318	12765
494.393	13338
494.468	14425
494.543	13519
494.618	14362
494.693	14759
494.768	14636
494.842	16566
494.917	12383
494.992	14762
495.067	13739
495.142	12789
495.217	14814
495.292	13959
495.366	16760
495.441	21856
495.516	27108
495.591	29966
495.665	69089
495.740	193985
495.815	129762
495.890	29816
495.964	22229
496.039	23432
496.114	22093
496.188	22930
496.263	24499
496.338	22666
496.412	24756
496.487	29934
496.561	27741
496.636	30020
496.710	26666
496.785	27854
496.860	35063
496.934	30322
497.009	27844
497.083	29644
497.158	30676
497.232	34902
497.307	43950
497.381	41475
497.455	44617
497.530	62329
497.604	52095
497.679	50838
497.753	68874
497.827	96441
497.902	95108
497.976	101147
498.050	146807
498.125	494905
498.199	732396
498.273	160118
498.348	105159
498.422	92915
498.496	82574
498.570	76024
498.645	65513
498.719	64313
498.793	65341
498.867	81854
498.941	101079
499.016	179963
499.090	613532
499.164	346105
499.238	47277
499.312	34355
499.386	35812
499.460	36422
499.534	32817
499.609	36779
499.683	53333
499.757	57715
499.831	78616
499.905	343317
499.979	496757
500.053	82733
500.127	63411
500.201	40741
500.275	29375
500.349	27485
500.422	31318
500.496	38715
500.570	63767
500.644	167910
500.718	456123
500.792	160008
500.866	29309
500.940	35481
501.013	33392
501.087	27421
501.161	40397
501.235	58759
501.309	107636
501.382	335160
501.456	432932
501.530	81732
501.603	129475
501.677	72013
501.751	22801
501.825	25516
501.898	40141
501.972	140208
502.046	136706
502.119	29602
502.193	49353
502.266	160786
502.340	113683
502.413	58265
502.487	149880
502.561	103628
502.634	34233
502.708	18328
502.781	17477
502.855	14485
502.928	12586
503.002	13831
503.075	13406
503.149	15924
503.222	15940
503.295	18537
503.369	23596
503.442	30501
503.516	79825
503.589	281507
503.662	245701
503.736	63677
503.809	117490
503.882	127488
503.956	128164
504.029	165694
504.102	42133
504.175	34641
504.249	19789
504.322	19168
504.395	21496
504.468	13732
504.542	15063
504.615	12860
504.688	11344
504.761	10144
504.834	13402
504.907	13895
504.980	22647
505.053	15367
505.127	15469
505.200	21943
505.273	24531
505.346	18114
505.419	11374
505.492	11383
505.565	9020
505.638	8886
505.711	10336
505.784	10155
505.857	9684
505.930	10671
506.003	9552
506.076	12007
506.149	17056
506.221	26054
506.294	20705
506.367	40689
506.440	183401
506.513	153749
506.586	27430
506.659	16381
506.731	10661
506.804	11666
506.877	18027
506.950	16355
507.022	10790
507.095	13276
507.168	21629
507.241	12212
507.313	9060
507.386	10009
507.459	13819
507.531	10891
507.604	8568
507.677	10103
507.749	7946
507.822	10834
507.894	19841
507.967	31987
508.040	19958
508.112	15788
508.185	15146
508.257	13642
508.330	18131
508.402	16106
508.475	14657
508.547	16628
508.620	15233
508.692	26897
508.765	20997
508.837	11934
508.909	11635
508.982	11306
509.054	13260
509.127	11317
509.199	10424
509.271	10904
509.344	11384
509.416	11054
509.488	11037
509.560	11971
509.633	11313
509.705	13107
509.777	14374
509.849	17240
509.922	15886
509.994	13896
510.066	12810
510.138	13489
510.210	24238
510.283	27722
510.355	22280
510.427	18097
510.499	16907
510.571	16537
510.643	16371
510.715	21288
510.787	22081
510.859	16832
510.931	18336
511.003	21604
511.076	22422
511.148	16903
511.219	17016
511.291	23354
511.363	37080
511.435	17789
511.507	14326
511.579	13910
511.651	13065
511.723	13609
511.795	13427
511.867	14346
511.939	15858
512.010	34263
512.082	38076
512.154	15061
512.226	15167
512.298	17751
512.369	31749
512.441	26063
512.513	22579
512.585	18273
512.656	17587
512.728	19375
512.800	16419
512.871	15006
512.943	16640
513.015	14381
513.086	14731
513.158	15664
513.230	15593
513.301	19061
513.373	23364
513.444	15617
513.516	13064
513.588	14418
513.659	14139
513.731	17599
513.802	15371
513.874	21753
513.945	44219
514.016	24154
514.088	14717
514.159	15762
514.231	18077
514.302	26594
514.374	22019
514.445	21229
514.516	40420
514.588	42320
514.659	20740
514.730	38446
514.802	36903
514.873	27554
514.944	34231
515.016	28606
515.087	25512
515.158	29266
515.229	48457
515.301	33727
515.372	49642
515.443	42040
515.514	28857
515.585	20867
515.656	18071
515.728	15195
515.799	15030
515.870	14737
515.941	14478
516.012	15382
516.083	19185
516.154	22113
516.225	22330
516.296	21586
516.367	19456
516.438	19964
516.509	24208
516.580	30529
516.651	57963
516.722	231463
516.793	194754
516.864	41507
516.935	38619
517.006	38929
517.077	47905
517.148	81999
517.219	208044
517.289	500590
517.360	269632
517.431	128436
517.502	28204
517.573	23270
517.643	20587
517.714	23645
517.785	25301
517.856	22861
517.926	27010
517.997	28144
518.068	35475
518.138	44821
518.209	54344
518.280	132505
518.350	605266
518.421	430676
518.492	57555
518.562	29595
518.633	27995
518.703	23432
518.774	25798
518.845	31867
518.915	37754
518.986	28872
519.056	28659
519.127	41176
519.197	64564
519.268	178361
519.338	195850
519.408	38304
519.479	29876
519.549	27155
519.620	17739
519.690	15039
519.760	14481
519.831	15330
519.901	16590
519.971	14636
520.042	15519
520.112	19931
520.182	19018
520.253	20979
520.323	17588
520.393	20684
520.463	36025
520.534	23878
520.604	49015
520.674	31880
520.744	23375
520.814	48462
520.885	59477
520.955	51558
521.025	230164
521.095	158411
521.165	24382
521.235	18991
521.305	15999
521.375	14235
521.445	13634
521.515	16291
521.585	17924
521.655	21297
521.725	16361
521.795	16912
521.865	13046
521.935	19768
522.005	24455
522.075	13936
522.145	15408
522.215	16697
522.285	25126
522.355	31583
522.424	62966
522.494	68017
522.564	31041
522.634	28620
522.704	88309
522.774	59947
522.843	15979
522.913	13147
522.983	15752
523.053	14492
523.122	14020
523.192	14977
523.262	38735
523.331	62244
523.401	18600
523.471	10591
523.540	11880
523.610	9804
523.680	8865
523.749	10224
523.819	13889
523.888	17045
523.958	11098
524.027	10963
524.097	12695
524.166	10984
524.236	11501
524.305	13458
524.375	10648
524.444	11306
524.514	12222
524.583	11401
524.653	17270
524.722	19159
524.791	14028
524.861	11626
524.930	10474
524.999	10838
525.069	15139
525.138	14176
525.207	18009
525.277	14632
525.346	11714
525.415	11480
525.484	11401
525.554	14666
525.623	14887
525.692	10368
525.761	11645
525.830	10377
525.900	10327
525.969	13155
526.038	17219
526.107	17017
526.176	36773
526.245	43063
526.314	26722
526.383	31386
526.452	37046
526.522	46992
526.591	82262
526.660	59032
526.729	33018
526.797	27089
526.867	42875
526.935	197879
527.004	259988
527.073	133468
527.142	25366
527.211	13305
527.280	12566
527.349	15452
527.418	9162
527.487	9576
527.555	8547
527.624	8382
527.693	7733
527.762	8992
527.831	8096
527.899	8361
527.968	9290
528.037	8136
528.106	10501
528.174	17658
528.243	19293
528.312	21085
528.380	35532
528.449	14529
528.518	10030
528.586	6763
528.655	7470
528.723	8439
528.792	7535
528.861	8338
528.929	8338
528.998	7758
529.066	6370
529.135	7646
529.203	7436
529.272	7835
529.340	8513
529.409	8638
529.477	8279
529.545	11370
529.614	15811
529.682	13238
529.751	20130
529.819	17424
529.887	15251
529.956	8284
530.024	9760
530.092	7715
530.161	8954
530.229	13895
530.297	10261
530.365	8608
530.434	6472
530.502	7375
530.570	7351
530.638	6412
530.707	8537
530.775	9457
530.843	7794
530.911	7654
530.979	7465
531.047	7057
531.115	8966
531.183	7723
531.252	8123
531.320	7733
531.388	7642
531.456	8578
531.524	6975
531.592	8520
531.660	9459
531.728	8167
531.796	7995
531.864	6872
531.932	8780
532.000	8018
532.067	8176
532.135	9536
532.203	10647
532.271	11174
532.339	16357
532.407	36911
532.475	35537
532.542	16427
532.610	16171
532.678	18662
532.746	46213
532.814	189273
532.881	80886
532.949	15533
533.017	10313
533.084	10136
533.152	9384
533.220	8334
533.287	9748
533.355	9245
533.423	8128
533.490	7625
533.558	8171
533.625	9776
533.693	11366
533.761	10554
533.828	11858
533.896	11156
533.963	17302
534.031	23964
534.098	27607
534.166	20033
534.233	11623
534.300	11808
534.368	11801
534.435	11234
534.503	10915
534.570	11242
534.637	10418
534.705	9055
534.772	10277
534.840	10547
534.907	18293
534.974	31657
535.041	14141
535.109	14598
535.176	9754
535.243	8549
535.310	8385
535.378	8748
535.445	7463
535.512	7342
535.579	8568
535.646	8115
535.714	9356
535.781	12989
535.848	12517
535.915	13251
535.982	13894
536.049	13859
536.116	14657
536.183	11840
536.250	11474
536.317	11453
536.384	12943
536.451	15372
536.518	15557
536.585	12717
536.652	15732
536.719	19812
536.786	17022
536.853	14478
536.920	18343
536.987	28981
537.053	24549
537.120	68718
537.187	108811
537.254	17809
537.321	10637
537.388	10671
537.454	8446
537.521	8672
537.588	8659
537.654	10218
537.721	12422
537.788	11984
537.855	9390
537.921	9140
537.988	10889
538.055	10262
538.121	9407
538.188	11253
538.254	12954
538.321	23750
538.388	19886
538.454	10869
538.521	9204
538.587	9005
538.654	8667
538.720	8376
538.787	8594
538.853	8888
538.920	12810
538.986	12995
539.053	12095
539.119	11630
539.185	10575
539.252	11977
539.318	15091
539.385	15510
539.451	14312
539.517	13834
539.583	14522
539.650	20702
539.716	70217
539.782	36539
539.849	11340
539.915	10655
539.981	10255
540.047	13179
540.114	12461
540.180	12004
540.246	11308
540.312	14273
540.378	23897
540.444	29331
540.510	23026
540.576	71336
540.643	44339
540.709	11974
540.775	11472
540.841	10733
540.907	14744
540.973	25587
541.039	22053
541.105	19400
541.171	12868
541.237	11251
541.303	12079
541.369	13512
541.435	13111
541.500	21845
541.566	17953
541.632	10577
541.698	9040
541.764	9312
541.830	9786
541.896	9805
541.961	10398
542.027	9815
542.093	11085
542.159	11056
542.224	11829
542.290	16494
542.356	22889
542.421	27249
542.487	16313
542.553	12382
542.618	14832
542.684	13770
542.750	12224
542.815	13634
542.881	18535
542.947	56266
543.012	69980
543.078	13130
543.143	10624
543.209	12293
543.274	10806
543.340	13123
543.405	20433
543.471	46735
543.536	18989
543.602	11132
543.667	9953
543.732	11469
543.798	9730
543.863	10924
543.928	9528
543.994	8809
544.059	10488
544.124	10287
544.190	9519
544.255	10810
544.320	10028
544.386	9966
544.451	13823
544.516	15483
544.581	15533
544.646	31019
544.712	77163
544.777	25993
544.842	15015
544.907	16993
544.972	15149
545.037	13505
545.102	14621
545.168	15012
545.233	15419
545.298	16411
545.363	19146
545.428	19849
545.493	24615
545.558	53315
545.623	39091
545.688	16478
545.753	15810
545.818	14701
545.883	15908
545.947	14851
546.012	15420
546.077	18408
546.142	16339
546.207	14396
546.272	17631
546.337	18312
546.401	16037
546.466	15580
546.531	14209
546.596	15931
546.661	15569
546.725	15614
546.790	12819
546.855	14704
546.919	12481
546.984	14165
547.049	14453
547.113	17849
547.178	16458
547.243	17182
547.307	17959
547.372	17897
547.436	24868
547.501	17616
547.565	15793
547.630	18288
547.695	19918
547.759	22225
547.823	22128
547.888	16639
547.952	15954
548.017	15524
548.081	18266
548.146	25425
548.210	26165
548.274	15925
548.339	15484
548.403	14296
548.468	13748
548.532	13926
548.596	14270
548.660	14749
548.725	15041
548.789	18005
548.853	23053
548.917	17557
548.982	22343
549.046	30514
549.110	16445
549.174	15812
549.238	14495
549.303	13955
549.367	16374
549.431	15438
549.495	14242
549.559	13935
549.623	14244
549.687	16521
549.751	23122
549.815	20531
549.879	18192
549.943	15554
550.007	18249
550.071	18763
550.135	21692
550.199	20179
550.263	17401
550.327	18346
550.391	26455
550.455	22705
550.519	17493
550.582	18173
550.646	21542
550.710	25528
550.774	20305
550.838	18667
550.901	19256
550.965	20895
551.029	21313
551.093	24757
551.156	28388
551.220	51547
551.284	75350
551.347	33726
551.411	58441
551.475	100423
551.538	30375
551.602	18600
551.666	18939
551.729	16084
551.793	16983
551.856	17244
551.920	17498
551.983	17174
552.047	16528
552.110	16207
552.174	16023
552.237	15803
552.301	16497
552.364	15792
552.428	15637
552.491	15363
552.554	16374
552.618	16420
552.681	17556
552.745	16858
552.808	21307
552.871	28357
552.934	23104
552.998	18021
553.061	20907
553.124	19119
553.187	19282
553.251	20781
553.314	23163
553.377	22901
553.440	29475
553.503	65743
553.567	181276
553.630	63185
553.693	20407
553.756	17511
553.819	16359
553.882	16148
553.945	15449
554.008	15723
554.071	13752
554.134	15402
554.197	14062
554.260	13625
554.323	14965
554.386	15450
554.449	14701
554.512	15151
554.575	13426
554.638	15290
554.701	13981
554.764	12859
554.827	14015
554.889	13996
554.952	12294
555.015	12592
555.078	13171
555.141	13671
555.203	12075
555.266	12743
555.329	13909
555.391	13210
555.454	12941
555.517	14563
555.580	13320
555.642	12635
555.705	11990
555.768	13030
555.830	13485
555.893	12940
555.955	13385
556.018	12551
556.080	13347
556.143	13355
556.206	12544
556.268	14657
556.330	15440
556.393	14021
556.455	13964
556.518	20753
556.580	26014
556.643	14664
556.705	13277
556.767	11579
556.830	12827
556.892	12664
556.955	17471
557.017	17556
557.079	14284
557.142	12560
557.204	13433
557.266	21884
557.328	24880
557.391	13896
557.453	12500
557.515	12848
557.577	14056
557.639	16192
557.701	12652
557.764	10931
557.826	11776
557.888	13467
557.950	13128
558.012	12320
558.074	13299
558.136	16423
558.198	31162
558.260	25475
558.322	15245
558.384	14285
558.446	15401
558.508	16583
558.570	20046
558.632	26094
558.694	42263
558.756	32909
558.818	47883
558.880	154948
558.942	92791
559.003	36410
559.065	29557
559.127	16129
559.189	14691
559.251	16535
559.312	18170
559.374	26224
559.436	77777
559.498	78423
559.559	19953
559.621	16382
559.683	17565
559.744	23197
559.806	45043
559.868	80984
559.929	35590
559.991	20821
560.052	20511
560.114	31251
560.176	34128
560.237	23509
560.299	37781
560.360	23139
560.422	16572
560.483	16266
560.545	14888
560.606	15328
560.667	15274
560.729	14543
560.790	14363
560.852	14845
560.913	14770
560.974	14387
561.036	14039
561.097	14638
561.158	14864
561.220	14949
561.281	14546
561.342	14876
561.403	17450
561.465	19087
561.526	29798
561.587	49616
561.648	23495
561.709	15743
561.771	14978
561.832	14821
561.893	15076
561.954	14864
562.015	14549
562.076	14881
562.137	14930
562.198	14491
562.259	15560
562.320	14280
562.381	14839
562.442	18920
562.503	20162
562.564	14998
562.625	15257
562.686	15166
562.747	15066
562.808	16731
562.869	14999
562.930	19582
562.991	19693
563.051	18455
563.112	17403
563.173	17490
563.234	15604
563.294	15498
563.355	16697
563.416	16751
563.477	15653
563.537	15984
563.598	17812
563.659	17646
563.720	17021
563.780	16336
563.841	17331
563.901	16601
563.962	15848
564.023	16488
564.083	17375
564.144	17316
564.204	17048
564.265	17768
564.325	20425
564.386	32488
564.446	40272
564.507	19015
564.567	17954
564.628	17929
564.688	17066
564.749	16405
564.809	19228
564.869	22591
564.930	19422
564.990	17273
565.050	16910
565.111	17536
565.171	16586
565.231	17810
565.292	18595
565.352	16713
565.412	17321
565.472	18530
565.532	19171
565.593	18923
565.653	19148
565.713	19756
565.773	20629
565.833	20564
565.893	24121
565.953	21445
566.013	21324
566.074	21879
566.134	27118
566.194	37025
566.254	43648
566.314	32927
566.374	26618
566.434	25826
566.494	27266
566.554	28082
566.614	29318
566.673	29893
566.733	31414
566.793	34901
566.853	36011
566.913	37546
566.973	38877
567.033	38487
567.092	37351
567.152	37196
567.212	38780
567.272	39464
567.331	42153
567.391	42680
567.451	45486
567.511	50677
567.570	54280
567.630	43433
567.690	39432
567.749	40996
567.809	43618
567.868	47486
567.928	55315
567.988	63811
568.047	74685
568.107	88451
568.166	114873
568.226	163974
568.285	236033
568.345	246846
568.404	213808
568.464	186365
568.523	173716
568.582	170179
568.642	179894
568.701	204060
568.761	262435
568.820	379392
568.879	444819
568.939	387775
568.998	307820
569.057	245110
569.116	197260
569.176	161556
569.235	133310
569.294	113769
569.353	97656
569.413	84788
569.472	75879
569.531	66077
569.590	59607
569.649	54569
569.708	49729
569.767	45598
569.827	44295
569.886	41749
569.945	37032
570.004	34876
570.063	33157
570.122	32136
570.181	32392
570.240	31248
570.299	32047
570.358	28719
570.417	26512
570.475	24934
570.534	23527
570.593	23117
570.652	22861
570.711	24702
570.770	22325
570.829	22609
570.887	22954
570.946	22024
571.005	20387
571.064	18629
571.122	19647
571.181	20928
571.240	20441
571.299	18483
571.357	18463
571.416	20950
571.475	20523
571.533	23151
571.592	18626
571.650	18179
571.709	16601
571.768	15579
571.826	16605
571.885	15987
571.943	16070
572.002	15801
572.060	16293
572.119	13978
572.177	13935
572.236	14177
572.294	13763
572.352	13727
572.411	12944
572.469	13267
572.528	13799
572.586	14064
572.644	13740
572.703	18661
572.761	15995
572.819	13816
572.877	14429
572.936	13882
572.994	13387
573.052	13005
573.110	13895
573.169	13318
573.227	11668
573.285	13134
573.343	12459
573.401	12266
573.459	13873
573.517	12014
573.576	13176
573.634	13288
573.692	13486
573.750	14014
573.808	14349
573.866	13834
573.924	15910
573.982	18112
574.040	14148
574.098	13578
574.155	12599
574.213	11815
574.271	12268
574.329	12606
574.387	12090
574.445	11973
574.503	12624
574.560	11465
574.618	11110
574.676	11912
574.734	11522
574.792	12219
574.849	11969
574.907	11557
574.965	11157
575.022	10378
575.080	12316
575.138	12114
575.195	11329
575.253	12057
575.311	12831
575.368	12314
575.426	11782
575.483	12473
575.541	12371
575.598	11237
575.656	12536
575.713	12329
575.771	11991
575.828	12431
575.886	11678
575.943	12908
576.001	12912
576.058	13009
576.115	13204
576.173	14611
576.230	16569
576.287	18317
576.345	16346
576.402	13677
576.459	13960
576.517	13275
576.574	15088
576.631	15707
576.688	13554
576.746	13826
576.803	13998
576.860	12909
576.917	13422
576.974	14938
577.031	13247
577.089	13247
577.146	14440
577.203	13643
577.260	14786
577.317	15669
577.374	16199
577.431	15609
577.488	15633
577.545	14383
577.602	13684
577.659	14320
577.716	14728
577.773	15711
577.830	15278
577.886	14121
577.943	14224
578.000	13324
578.057	16426
578.114	16367
578.171	17355
578.227	20366
578.284	21901
578.341	20029
578.398	18117
578.454	16568
578.511	17268
578.568	17477
578.625	17683
578.681	14619
578.738	13877
578.794	15162
578.851	14368
578.908	13887
578.964	14518
579.021	14931
579.077	14403
579.134	15001
579.190	14062
579.247	13796
579.303	13544
579.360	13139
579.416	13880
579.473	13630
579.529	13141
579.586	13896
579.642	14236
579.698	14195
579.755	15098
579.811	15870
579.867	15348
579.924	15863
579.980	16073
580.036	18095
580.093	19976
580.149	23774
580.205	31013
580.261	27367
580.317	23429
580.374	21763
580.430	21056
580.486	21237
580.542	18012
580.598	18341
580.619	17557
580.654	16217
580.692	16204
580.710	16223
580.765	16171
580.767	16186
580.823	15617
580.838	15658
580.879	15815
580.911	15611
580.935	15511
580.984	16209
580.991	16319
581.047	16756
581.057	16774
581.103	16951
581.130	17617
581.159	18356
581.203	19885
581.215	20307
581.270	19186
581.276	19183
581.326	19262
581.349	18665
581.382	17796
581.422	17440
581.438	17314
581.494	17921
581.494	17905
581.550	17583
581.567	17379
581.606	16889
581.640	17044
581.661	17183
581.713	17808
581.717	17868
581.773	16454
581.786	16646
581.829	17314
581.859	17154
581.885	17018
581.932	17481
581.940	17590
581.996	18356
582.004	18347
582.052	18184
582.077	17897
582.107	17680
582.150	17036
582.163	16851
582.219	17965
582.223	17977
582.274	18103
582.296	18250
582.330	18570
582.368	19448
582.386	19850
582.441	18208
582.441	18210
582.497	19097
582.514	18977
582.552	18994
582.587	19584
582.608	19873
582.659	19448
582.663	19415
582.719	19516
582.732	19267
582.774	18508
582.805	19104
582.830	19581
582.877	19304
582.885	19291
582.941	19450
582.950	19573
582.996	20164
583.023	20631
583.052	21152
583.095	21813
583.107	22085
583.162	24738
583.168	25087
583.218	27697
583.240	26726
583.273	25326
583.313	24468
583.328	24121
583.384	23496
583.385	23500
583.439	23633
583.458	23268
583.494	22600
583.531	22301
583.549	22199
583.603	22064
583.605	22056
583.660	22774
583.676	22526
583.715	21944
583.748	22765
583.770	23325
583.820	23418
583.825	23438
583.881	22863
583.893	23153
583.936	23904
583.965	23832
583.991	23728
584.038	23789
584.046	23879
584.101	24133
584.110	24200
584.156	24298
584.183	24505
584.211	24574
584.255	24777
584.266	24848
584.321	25016
584.328	24911
584.376	24298
584.400	24944
584.431	25757
584.472	25803
584.486	25783
584.541	26405
584.545	26386
584.596	26053
584.617	26288
584.651	26716
584.689	27185
584.706	27461
584.761	28471
584.762	28486
584.816	29107
584.834	29182
584.871	29660
584.906	29714
584.926	29680
584.978	30332
584.980	30359
585.035	30893
585.051	31122
585.090	31516
585.123	31966
585.145	32379
585.195	33291
585.200	33372
585.254	34830
585.267	35104
585.309	36363
585.340	37916
585.364	39023
585.412	39139
585.419	38951
585.473	38168
585.484	38083
585.528	38948
585.556	40130
585.583	41641
585.628	44440
585.637	45540
585.692	55058
585.700	57313
585.747	71535
585.772	73699
585.801	67044
585.845	51114
585.856	48481
585.910	44318
585.917	43990
585.965	44257
585.989	44347
586.019	44716
586.061	45153
586.074	45107
586.128	46032
586.133	46169
586.183	48809
586.205	49576
586.237	50092
586.277	50891
586.292	51278
586.346	52319
586.349	52400
586.401	53197
586.421	53995
586.455	55879
586.493	57605
586.509	58963
586.564	64637
586.565	64901
586.618	80199
586.637	84099
586.672	84078
586.709	74796
586.727	69787
586.781	65460
586.781	65450
586.835	67517
586.853	68245
586.889	69279
586.925	70812
586.944	71715
586.996	73519
586.998	73554
587.052	76476
587.068	77346
587.106	79978
587.140	82566
587.161	83978
587.212	87521
587.215	87717
587.269	91785
587.284	93248
587.323	96165
587.356	98576
587.377	100689
587.427	105499
587.431	105861
587.485	111983
587.499	113670
587.539	118542
587.571	123016
587.593	126088
587.643	133269
587.648	133988
587.702	142441
587.715	144884
587.755	154045
587.786	161713
587.810	167051
587.858	177579
587.864	179009
587.917	195075
587.930	199147
587.971	214135
588.001	226167
588.025	236351
588.073	258332
588.079	261311
588.133	288176
588.145	295190
588.187	324188
588.217	345390
588.241	363935
588.288	404730
588.295	411205
588.348	470268
588.360	483739
588.402	541099
588.431	583834
588.456	625340
588.503	710987
588.510	725922
588.564	857295
588.575	887060
588.617	1032347
588.646	1137063
588.671	1256515
588.718	1495101
588.725	1542938
588.778	1925036
588.789	1998263
588.832	2269708
588.861	2423992
588.886	2405829
588.932	2275254
588.939	2225967
588.993	1785161
589.004	1737734
589.047	2106840
589.075	2368334
589.100	2440014
589.147	2453064
589.154	2414929
589.207	2046513
589.218	1969914
589.261	1777817
589.290	1661320
589.314	1654411
589.361	1665089
589.368	1691526
589.421	1933104
589.433	1984366
589.475	2211977
589.504	2343341
589.528	2285868
589.576	2072853
589.582	2067304
589.635	2119008
589.647	2137326
589.689	2183097
589.718	2143263
589.742	1916976
589.790	1432057
589.795	1394998
589.849	1055535
589.861	980141
589.902	832902
589.932	730306
589.955	672712
590.004	556042
590.009	547700
590.062	466235
590.075	447323
590.115	403515
590.146	371174
590.168	353546
590.218	316746
590.222	314219
590.275	284221
590.289	276701
590.328	257364
590.360	242310
590.381	234138
590.431	215644
590.435	214551
590.488	197618
590.503	193098
590.541	183064
590.574	174508
590.594	169678
590.645	158161
590.647	157763
590.700	147982
590.716	145250
590.753	140040
590.787	135336
590.806	132977
590.859	126708
590.859	126589
590.912	119592
590.930	117437
590.965	113790
591.001	110195
591.018	108760
591.071	104277
591.072	104229
591.124	99298
591.143	97498
591.177	95729
591.214	93937
591.230	92924
591.283	89742
591.285	89602
591.336	87827
591.356	87203
591.389	85193
591.427	82722
591.442	81831
591.495	78353
591.498	78103
591.547	76069
591.569	75089
591.600	73998
591.640	72493
591.653	72026
591.706	70250
591.711	70025
591.759	69626
591.782	69380
591.811	69233
591.853	69238
591.864	68803
591.917	66096
591.924	65671
591.969	63634
591.995	62568
592.022	61950
592.066	60762
592.075	60714
592.127	60357
592.137	60266
592.180	63600
592.208	65756
592.233	63582
592.279	59109
592.285	58753
592.338	55608
592.350	54863
592.390	53194
592.421	51911
592.443	51979
592.491	52047
592.495	52031
592.548	51434
592.562	51237
592.600	50213
592.633	49290
592.653	48984
592.704	47867
592.705	48143
592.775	48299
592.846	47694
592.916	47260
592.987	46686
593.058	47040
593.128	43363
593.199	42747
593.270	41575
593.341	40823
593.411	39810
593.482	39106
593.553	39451
593.623	38978
593.694	38373
593.764	39177
593.835	38054
593.906	36380
593.976	35732
594.047	36782
594.117	38864
594.188	41249
594.258	33993
594.329	33128
594.399	32696
594.470	33825
594.540	31054
594.611	32841
594.681	30728
594.751	32580
594.822	33138
594.892	33963
594.963	33184
595.033	32730
595.103	32001
595.174	33151
595.244	39380
595.314	50979
595.384	35815
595.455	30698
595.525	30066
595.595	30707
595.665	30039
595.736	29876
595.806	29718
595.876	29081
595.946	28096
596.016	27469
596.087	29327
596.157	28328
596.227	27886
596.297	29635
596.367	28954
596.437	30480
596.507	34891
596.577	46093
596.647	33327
596.717	28086
596.787	27153
596.857	28635
596.927	27943
596.997	26523
597.067	27176
597.137	30075
597.207	29896
597.277	27929
597.347	27438
597.417	26827
597.487	26117
597.557	27838
597.626	27685
597.696	29121
597.766	32906
597.836	41035
597.906	34049
597.975	26837
598.045	25673
598.115	25718
598.185	25222
598.254	27398
598.324	27599
598.394	27331
598.464	27082
598.533	26867
598.603	24678
598.672	26865
598.742	25984
598.812	25754
598.881	25388
598.951	26824
599.020	24541
599.090	24737
599.159	25435
599.229	25721
599.299	24339
599.368	23873
599.437	24195
599.507	24480
599.576	25071
599.646	25678
599.715	26564
599.785	24618
599.854	24184
599.924	26806
599.993	26983
600.062	24303
600.132	24068
600.201	24394
600.270	26512
600.340	26219
600.409	24184
600.478	25395
600.547	24462
600.617	25030
600.686	23926
600.755	24143
600.824	23249
600.894	24125
600.963	22471
601.032	22564
601.101	22783
601.170	23100
601.239	21397
601.308	22468
601.378	23107
601.447	21951
601.516	20796
601.585	21518
601.654	22387
601.723	22552
601.792	21778
601.861	23854
601.930	25209
601.999	27380
602.068	23066
602.137	22777
602.206	22838
602.275	23194
602.343	24574
602.412	27254
602.481	22913
602.550	21580
602.619	21099
602.688	22744
602.756	21884
602.825	22350
602.894	22000
602.963	22205
603.032	21729
603.100	21420
603.169	21191
603.238	23379
603.307	21535
603.375	21392
603.444	22270
603.513	21849
603.581	21073
603.650	22591
603.719	20787
603.787	20653
603.856	21204
603.924	21679
603.993	21032
604.061	21815
604.130	21554
604.198	22600
604.267	21321
604.335	22038
604.404	22183
604.472	21756
604.541	22120
604.609	22351
604.678	21363
604.746	22259
604.815	21838
604.883	22000
604.951	21856
605.020	21925
605.088	22490
605.156	22812
605.225	21501
605.293	22095
605.361	22234
605.429	21979
605.498	21744
605.566	22772
605.634	22104
605.702	23085
605.771	23271
605.839	23421
605.907	21998
605.975	21788
606.043	21747
606.111	22747
606.180	22962
606.248	24868
606.316	28794
606.384	23714
606.452	26144
606.520	26704
606.588	23881
606.656	21361
606.724	20315
606.792	20780
606.860	18923
606.928	17577
606.996	17186
607.064	18075
607.132	17470
607.200	18656
607.267	18534
607.335	18714
607.403	17828
607.471	18808
607.539	18347
607.607	17656
607.674	17545
607.742	17750
607.810	18806
607.878	18615
607.946	17609
608.013	17369
608.081	18510
608.149	18498
608.216	18122
608.284	18712
608.352	17447
608.419	18747
608.487	22379
608.555	23659
608.622	17556
608.690	17937
608.757	17628
608.825	19801
608.893	19545
608.960	20993
609.028	24782
609.095	27435
609.163	22756
609.230	18666
609.298	18267
609.365	16433
609.432	16174
609.500	18268
609.567	19324
609.635	20826
609.702	20968
609.769	21405
609.837	21970
609.904	21254
609.971	19608
610.039	21773
610.106	25954
610.173	42487
610.241	88570
610.308	136026
610.375	109669
610.442	39026
610.509	21786
610.577	20653
610.644	18916
610.711	18339
610.778	18681
610.845	18622
610.912	18459
610.980	20428
611.047	25546
611.114	27049
611.181	19409
611.248	17728
611.315	18719
611.382	18673
611.449	18116
611.516	18976
611.583	18419
611.650	19372
611.717	19006
611.784	19923
611.851	20451
611.918	22793
611.984	23673
612.051	30385
612.118	53955
612.185	130322
612.252	156817
612.319	37291
612.386	23525
612.452	21710
612.519	22715
612.586	27775
612.653	27530
612.719	21365
612.786	20569
612.853	19903
612.919	18409
612.986	19022
613.053	18241
613.120	17463
613.186	17433
613.253	18985
613.319	17300
613.386	17540
613.453	18961
613.519	19377
613.586	21845
613.652	29398
613.719	25401
613.785	24621
613.852	18670
613.918	19346
613.985	20277
614.051	25441
614.118	45733
614.184	70249
614.250	25191
614.317	18218
614.383	18097
614.449	17914
614.516	17211
614.582	18657
614.648	17382
614.715	17909
614.781	17714
614.847	18816
614.914	19141
614.980	20298
615.046	19226
615.112	20094
615.179	21267
615.245	26013
615.311	35181
615.377	68702
615.443	111335
615.509	61772
615.575	32394
615.642	26143
615.708	25459
615.774	27318
615.840	31351
615.906	42330
615.972	70556
616.038	150557
616.104	244603
616.170	242075
616.236	287950
616.302	78467
616.368	38311
616.434	30527
616.500	26961
616.565	27480
616.631	28028
616.697	28038
616.763	24788
616.829	29180
616.895	42807
616.961	51878
617.026	32485
617.092	22829
617.158	21274
617.224	20117
617.289	19771
617.355	19618
617.421	19345
617.487	20385
617.552	18216
617.618	17432
617.684	18202
617.749	18771
617.815	17361
617.880	17438
617.946	17065
618.012	18762
618.077	17522
618.143	17722
618.208	17263
618.274	17479
618.339	18982
618.405	17695
618.470	17940
618.536	17753
618.601	19975
618.667	20283
618.732	18129
618.798	18561
618.863	16979
618.928	17161
618.994	18243
619.059	19900
619.124	24352
619.190	23424
619.255	18116
619.320	17763
619.386	17461
619.451	16170
619.516	15953
619.581	16290
619.647	17460
619.712	17636
619.777	16975
619.842	17057
619.907	17382
619.972	17798
620.038	17831
620.103	17296
620.168	16527
620.233	16963
620.298	16301
620.363	16795
620.428	16023
620.493	16936
620.558	15688
620.623	16962
620.688	17561
620.753	16280
620.818	15886
620.883	17005
620.948	16873
621.013	16698
621.078	16783
621.143	16040
621.207	19800
621.272	18574
621.337	19617
621.402	20224
621.467	23591
621.532	28755
621.596	23418
621.661	21355
621.726	18904
621.791	19001
621.855	20033
621.920	20682
621.985	22148
622.049	24678
622.114	23152
622.179	22431
622.243	21523
622.308	21161
622.373	22006
622.437	21837
622.502	20393
622.566	20464
622.631	20217
622.695	20910
622.760	20410
622.824	20563
622.889	19844
622.953	22391
623.018	27633
623.082	33363
623.147	21772
623.211	20924
623.276	21339
623.340	20405
623.404	18616
623.469	19212
623.533	18807
623.597	18470
623.662	19748
623.726	19156
623.790	18150
623.854	17597
623.919	18907
623.983	18491
624.047	19479
624.111	18338
624.176	18189
624.240	20185
624.304	21009
624.368	20290
624.432	18631
624.496	19556
624.560	20182
624.625	21470
624.689	19997
624.753	18338
624.817	17801
624.881	18458
624.945	18821
625.009	19615
625.073	18279
625.137	18462
625.201	21669
625.265	23760
625.329	18286
625.393	18638
625.456	18729
625.520	18982
625.584	20799
625.648	24125
625.712	32048
625.776	69588
625.839	102221
625.903	61538
625.967	22189
626.031	30030
626.095	54252
626.158	32215
626.222	17226
626.286	15312
626.349	14200
626.413	15101
626.477	16246
626.540	15830
626.604	15113
626.668	14298
626.731	14011
626.795	15244
626.858	15456
626.922	15329
626.986	14398
627.049	14533
627.113	14303
627.176	14590
627.240	14217
627.303	14661
627.366	13416
627.430	15048
627.493	14217
627.557	14503
627.620	15363
627.684	14049
627.747	13982
627.810	14612
627.874	14787
627.937	13759
628.000	13889
628.064	14555
628.127	13224
628.190	11726
628.253	13539
628.317	13191
628.380	12313
628.443	11936
628.506	13919
628.569	13979
628.632	11887
628.696	12705
628.759	12847
628.822	12414
628.885	12427
628.948	12302
629.011	11994
629.074	12143
629.137	11734
629.200	11904
629.263	12919
629.326	12262
629.389	11836
629.452	11565
629.515	12320
629.578	11964
629.641	12413
629.704	12348
629.767	12686
629.830	11466
629.892	11243
629.955	11905
630.018	12072
630.081	12375
630.144	14885
630.207	12760
630.269	13115
630.332	12956
630.395	13185
630.458	11365
630.520	10429
630.583	12447
630.646	10731
630.708	10253
630.771	10667
630.834	10199
630.896	9359
630.959	10511
631.021	9245
631.084	10491
631.146	11403
631.209	13884
631.272	11672
631.334	10710
631.397	10091
631.459	10393
631.522	9899
631.584	10367
631.646	9831
631.709	10944
631.771	12652
631.834	12663
631.896	9790
631.958	9395
632.021	9119
632.083	9127
632.145	10049
632.208	10043
632.270	11165
632.332	10139
632.395	8711
632.457	10081
632.519	9183
632.581	9282
632.643	8578
632.706	9654
632.768	9296
632.830	9648
632.892	8582
632.954	8841
633.016	9519
633.078	9010
633.141	8740
633.203	9187
633.265	9149
633.327	9310
633.389	8571
633.451	9916
633.513	11559
633.575	12197
633.637	11667
633.698	11875
633.760	9199
633.822	9057
633.884	8729
633.946	9606
634.008	9232
634.070	9854
634.132	10299
634.193	10983
634.255	9405
634.317	8894
634.379	9246
634.441	9359
634.502	8898
634.564	9173
634.626	8118
634.687	8979
634.749	8961
634.811	8870
634.873	7866
634.934	8347
634.996	7674
635.057	8471
635.119	7725
635.181	8123
635.242	8557
635.304	7234
635.365	9044
635.427	7844
635.488	7742
635.550	7104
635.611	7762
635.673	7680
635.734	8454
635.796	9057
635.857	8763
635.918	7910
635.980	7802
636.041	8680
636.102	8121
636.164	8685
636.225	8932
636.286	8305
636.348	8271
636.409	7642
636.470	7293
636.531	7844
636.593	8169
636.654	9534
636.715	7094
636.776	7508
636.838	6727
636.899	8147
636.960	7397
637.021	6937
637.082	6639
637.143	8348
637.204	7160
637.265	6835
637.326	7112
637.387	6978
637.448	5952
637.509	7586
637.570	6551
637.631	7161
637.692	5805
637.753	6901
637.814	6571
637.875	6432
637.936	6006
637.997	6178
638.058	6663
638.119	7728
638.179	6186
638.240	7358
638.301	6656
638.362	6627
638.423	5833
638.483	6984
638.544	6276
638.605	6759
638.666	5743
638.726	6495
638.787	5594
638.848	6795
638.908	5972
638.969	6902
639.030	6324
639.090	6249
639.151	5439
639.211	6716
639.272	8734
639.332	12356
639.393	10854
639.453	6889
639.514	6971
639.574	6438
639.635	5553
639.695	7140
639.756	5760
639.816	6131
639.877	6020
639.937	9471
639.997	14398
640.058	9110
640.118	6052
640.178	6013
640.239	5396
640.299	5819
640.359	4806
640.420	6238
640.480	4934
640.540	6405
640.600	5778
640.661	6232
640.721	5121
640.781	8076
640.841	7240
640.901	6653
640.961	5403
641.021	6374
641.082	6363
641.142	9605
641.202	8263
641.262	5582
641.322	5910
641.382	5223
641.442	5294
641.502	5978
641.562	5277
641.622	5338
641.682	5456
641.742	5863
641.802	5308
641.861	5834
641.921	6159
641.981	6649
642.041	6207
642.101	7615
642.161	7789
642.221	5099
642.280	4616
642.340	4769
642.400	5309
642.460	5857
642.519	5506
642.579	4706
642.639	5170
642.698	3915
642.758	5629
642.818	4987
642.877	4643
642.937	6079
642.997	5801
643.056	8209
643.116	7295
643.175	5691
643.235	5417
643.294	5318
643.354	4454
643.414	6343
643.473	6085
643.532	6251
643.592	7498
643.651	10283
643.711	14241
643.770	24792
643.830	48896
643.889	144130
643.948	84734
644.008	10830
644.067	6986
644.126	5616
644.186	5935
644.245	5893
644.304	4063
644.363	5971
644.423	5343
644.482	5621
644.541	4595
644.600	4008
644.659	5604
644.719	4975
644.778	7786
644.837	7590
644.896	10954
644.955	24119
645.014	19201
645.073	7861
645.132	5728
645.191	5658
645.250	4469
645.309	5583
645.368	4845
645.427	5793
645.486	5200
645.545	8426
645.604	5896
645.663	5053
645.722	3985
645.781	5011
645.840	5783
645.898	5302
645.957	6562
646.016	8037
646.075	12529
646.134	20431
646.192	42710
646.251	109246
646.310	37172
646.369	7694
646.427	5966
646.486	4954
646.545	4493
646.603	5330
646.662	4338
646.721	5005
646.779	3724
646.838	3380
646.896	5016
646.955	5280
647.014	5362
647.072	6630
647.131	13017
647.189	15670
647.248	4880
647.306	5085
647.365	4310
647.423	3454
647.481	5306
647.540	2644
647.598	4182
647.657	4149
647.715	3921
647.773	3861
647.832	4514
647.890	3463
647.948	3851
648.007	5587
648.065	3409
648.123	4129
648.181	5840
648.240	6197
648.298	6213
648.356	4891
648.414	4506
648.472	5139
648.531	5403
648.589	4843
648.647	4239
648.705	4721
648.763	3926
648.821	4335
648.879	4167
648.937	5028
648.995	4230
649.053	5310
649.111	5398
649.169	7399
649.227	9593
649.285	15398
649.343	38813
649.401	47423
649.459	15998
649.516	17621
649.574	8555
649.632	16446
649.690	30142
649.748	13945
649.806	7579
649.863	17086
649.921	14473
649.979	13529
650.037	4798
650.094	3349
650.152	4129
650.210	3745
650.268	3988
650.325	4096
650.383	4149
650.440	3420
650.498	4152
650.556	4449
650.613	3525
650.671	3689
650.728	3309
650.786	5153
650.843	3465
650.901	2225
650.958	2904
651.016	4039
651.073	3332
651.131	3265
651.188	2661
651.246	4051
651.303	3053
651.360	4243
651.418	2801
651.475	4002
651.532	1734
651.590	3612
651.647	2129
651.704	3741
651.762	3223
651.819	3305
651.876	3244
651.933	3420
651.990	3755
652.048	3219
652.105	2615
652.162	3771
652.219	2762
652.276	3311
652.333	3198
652.390	2264
652.448	3317
652.505	3584
652.562	2959
652.619	4163
652.676	5579
652.733	8730
652.790	4458
652.847	2316
652.904	2734
652.961	2830
653.017	1846
653.074	3103
653.131	2894
653.188	2584
653.245	2943
653.302	3066
653.359	2432
653.415	3381
653.472	1754
653.529	3189
653.586	2120
653.642	3837
653.699	3319
653.756	2729
653.813	1582
653.869	3775
653.926	1728
653.983	2444
654.039	2332
654.096	2690
654.152	3561
654.209	2249
654.266	3019
654.322	3642
654.379	3063
654.435	3755
654.492	3229
654.548	4421
654.605	7939
654.661	6679
654.717	2899
654.774	3550
654.830	3440
654.887	3352
654.943	3427
655.000	4518
655.056	2898
655.112	3415
655.168	2914
655.225	3737
655.281	4198
655.337	4021
655.394	7292
655.450	7668
655.506	5628
655.562	6372
655.618	9563
655.675	3531
655.731	3164
655.787	3135
655.843	4007
655.899	3241
655.955	4097
656.011	3874
656.067	2890
656.123	4596
656.179	3900
656.235	5675
656.291	3851
656.347	5331
656.403	3663
656.459	4212
656.515	4330
656.571	4032
656.627	3594
656.683	3349
656.739	3674
656.795	3143
656.850	3134
656.906	3866
656.962	3957
657.018	2707
657.074	1807
657.129	3572
657.185	3147
657.241	3408
657.297	2756
657.352	3066
657.408	2271
657.464	3928
657.519	2496
657.575	2284
657.630	2205
657.686	3240
657.742	2424
657.797	2888
657.853	2205
657.908	3708
657.964	2223
658.019	2812
658.075	2440
658.130	2671
658.186	1865
658.241	2458
658.297	2028
658.352	2228
658.407	2889
658.463	2570
658.518	2789
658.573	2314
658.629	1558
658.684	2031
658.739	2527
658.795	2216
658.850	2088
658.905	2763
658.960	2891
659.016	2002
659.071	2032
659.126	2879
659.181	2426
659.236	4862
659.291	6419
659.346	4055
659.401	3126
659.457	4797
659.512	5014
659.567	5270
659.622	2964
659.677	3307
659.732	1818
659.787	3338
659.842	2951
659.897	4339
659.952	4034
660.007	2831
660.061	2078
660.116	2017
660.171	1918
660.226	3233
660.281	2552
660.336	1891
660.391	2973
660.445	2513
660.500	2373
660.555	2294
660.610	1175
660.664	3257
660.719	2078
660.774	2687
660.828	2394
660.883	3002
660.938	2949
660.992	2171
661.047	2153
661.101	2198
661.156	1567
661.211	2647
661.265	2060
661.320	3356
661.374	1938
661.429	2748
661.483	2620
661.538	1926
661.592	1815
661.647	3058
661.701	3465
661.755	2800
661.810	2525
661.864	2081
661.919	2023
661.973	2779
662.027	2082
662.081	1611
662.136	1529
662.190	2792
662.244	2944
662.299	3232
662.353	2639
662.407	2249
662.461	2201
662.515	2740
662.569	2696
662.624	3527
662.678	2477
662.732	2843
662.786	2586
662.840	2971
662.894	3002
662.948	2286
663.002	2376
663.056	2973
663.110	2040
663.164	1953
663.218	2580
663.272	2611
663.326	2737
663.380	2785
663.434	2612
663.488	2132
663.542	2752
663.595	2800
663.649	1562
663.703	3260
663.757	2736
663.811	1891
663.864	2268
663.918	2712
663.972	1460
664.026	3057
664.079	2186
664.133	3469
664.187	2534
664.240	2968
664.294	2533
664.348	3442
664.401	2538
664.455	3096
664.508	1875
664.562	2664
664.615	2200
664.669	2166
664.722	2646
664.776	2961
664.829	2187
664.883	2917
664.936	2247
664.990	3570
665.043	3401
665.097	2759
665.150	4002
665.203	2316
665.257	2111
665.310	3788
665.363	2426
665.417	3905
665.470	2679
665.523	2935
665.576	3131
665.630	3484
665.683	2740
665.736	2601
665.789	3083
665.842	2570
665.895	2707
665.949	3426
666.002	2344
666.055	2694
666.108	3435
666.161	3132
666.214	1961
666.267	3123
666.320	3549
666.373	3296
666.426	2617
666.479	3113
666.532	2519
666.585	3745
666.638	3958
666.691	2798
666.744	4149
666.796	4118
666.849	3372
666.902	4297
666.955	2198
667.008	2551
667.060	2285
667.113	1852
667.166	3097
667.219	3558
667.271	2228
667.324	2279
667.377	2370
667.430	2997
667.482	2596
667.535	4062
667.587	3063
667.640	3875
667.693	2972
667.745	5035
667.798	5220
667.850	4416
667.903	2713
667.955	3487
668.008	2581
668.060	4619
668.113	2553
668.165	3764
668.218	2891
668.270	4025
668.322	2151
668.375	2828
668.427	3001
668.479	2771
668.532	2709
668.584	3886
668.636	3062
668.689	3839
668.741	2329
668.793	3140
668.845	2451
668.898	3541
668.950	2766
669.002	3735
669.054	3257
669.106	3632
669.158	3282
669.211	3083
669.263	3433
669.315	4072
669.367	5049
669.419	4297
669.471	4728
669.523	4440
669.575	5553
669.627	5811
669.679	4548
669.731	3730
669.783	4038
669.835	4511
669.886	4610
669.938	5049
669.990	3977
670.042	3217
670.094	3833
670.146	4393
670.197	4587
670.249	6513
670.301	7430
670.353	9665
670.404	12516
670.456	20133
670.508	31753
670.560	51805
670.611	89213
670.663	159154
670.715	307829
670.766	732610
670.818	488125
670.869	81100
670.921	27226
670.972	16700
671.024	12953
671.075	10864
671.127	7267
671.178	6598
671.230	6005
671.281	6155
671.333	5429
671.384	4699
671.436	4304
671.487	5235
671.538	4720
671.590	4530
671.641	5611
671.692	6414
671.744	8393
671.795	10284
671.846	5355
671.897	4674
671.949	4454
672.000	4072
672.051	3071
672.102	4902
672.153	3080
672.204	3507
672.256	3158
672.307	3926
672.358	3268
672.409	3919
672.460	3234
672.511	3153
672.562	2902
672.613	4427
672.664	2982
672.715	3387
672.766	2863
672.817	3253
672.868	2660
672.919	3270
672.970	2330
673.021	3494
673.071	2329
673.122	3124
673.173	2660
673.224	3077
673.275	2407
673.326	2967
673.376	3483
673.427	2909
673.478	2494
673.528	3018
673.579	2425
673.630	2514
673.680	2880
673.731	2566
673.782	2392
673.832	2764
673.883	3037
673.934	2202
673.984	2484
674.035	3180
674.085	2564
674.136	2899
674.186	3086
674.237	4183
674.287	4193
674.338	5117
674.388	2498
674.438	2412
674.489	2829
674.539	3133
674.589	2744
674.640	2590
674.690	3031
674.740	2725
674.791	3749
674.841	3384
674.891	2821
674.942	3417
674.992	2032
675.042	2975
675.092	2517
675.142	2464
675.193	1977
675.243	2724
675.293	3129
675.343	2930
675.393	2651
675.443	2976
675.493	2126
675.543	2106
675.593	1717
675.643	3346
675.693	2107
675.743	2592
675.793	1631
675.843	2222
675.893	2562
675.943	3342
675.993	1621
676.043	2249
676.093	2729
676.142	2157
676.192	2307
676.242	2445
676.292	2247
676.341	2086
676.391	1792
676.441	2664
676.491	1626
676.540	1650
676.590	1413
676.640	3098
676.689	2832
676.739	2321
676.789	1420
676.838	2316
676.888	1612
676.937	2378
676.987	1397
677.037	2124
677.086	2554
677.136	2104
677.185	2018
677.235	1781
677.284	1357
677.333	1931
677.383	1279
677.432	2154
677.482	1784
677.531	2242
677.580	1837
677.630	2321
677.679	1086
677.728	2001
677.778	1571
677.827	1193
677.876	1459
677.925	1285
677.975	1440
678.024	2571
678.073	1904
678.122	2231
678.171	1423
678.220	2480
678.269	2127
678.319	2658
678.368	1628
678.417	3088
678.466	1931
678.515	3042
678.564	2376
678.613	2374
678.662	2218
678.711	2612
678.760	2049
678.809	1969
678.857	1631
678.906	2562
678.955	995
679.004	3279
679.053	2240
679.102	2121
679.151	2216
679.199	2400
679.248	2023
679.297	2737
679.346	2217
679.394	2528
679.443	2973
679.492	2542
679.540	1974
679.589	1891
679.638	1643
679.686	3386
679.735	1549
679.784	2045
679.832	2144
679.881	1598
679.929	1886
679.978	1718
680.026	1131
680.075	2433
680.123	1085
680.172	2919
680.220	2050
680.268	1689
680.317	1985
680.365	1994
680.414	1664
680.462	2402
680.510	573
680.559	2060
680.607	1443
680.655	1719
680.703	1798
680.752	1761
680.800	1613
680.848	1119
680.896	1481
680.945	2164
680.993	1238
681.041	2077
681.089	2090
681.137	2242
681.185	1546
681.233	2187
681.258	1725
681.281	1273
681.329	2214
681.377	1142
681.380	1204
681.425	2073
681.473	2078
681.502	2176
681.521	2224
681.569	2174
681.617	2686
681.624	2586
681.665	1799
681.713	1740
681.745	1923
681.761	1992
681.809	2256
681.857	2727
681.867	2621
681.904	2191
681.952	1634
681.989	1917
682.000	1988
682.048	863
682.096	3314
682.111	2868
682.143	1857
682.191	2271
682.233	2105
682.239	2070
682.286	1726
682.334	2359
682.354	2363
682.382	2300
682.430	1234
682.476	2375
682.477	2388
682.525	2393
682.572	1943
682.598	1971
682.620	1955
682.667	1647
682.715	1556
682.720	1733
682.763	3299
682.810	2565
682.841	3074
682.857	3279
682.905	2426
682.952	2972
682.963	2775
683.000	2058
683.047	2569
683.085	3015
683.095	3121
683.142	2973
683.190	2605
683.206	2835
683.237	3184
683.284	1954
683.328	2782
683.332	2845
683.379	2815
683.426	2854
683.449	2602
683.473	2348
683.521	3120
683.568	2206
683.571	2288
683.615	3112
683.662	1808
683.693	2708
683.709	3233
683.757	2132
683.804	3370
683.814	3164
683.851	2304
683.898	3018
683.936	2661
683.945	2574
683.992	2792
684.039	2743
684.057	2824
684.086	2969
684.133	3109
684.179	2727
684.180	2702
684.227	2659
684.274	3087
684.300	3367
684.321	3496
684.368	3401
684.415	2422
684.422	2465
684.462	2878
684.509	2809
684.543	3028
684.556	3044
684.603	2998
684.649	2610
684.665	2727
684.696	3062
684.743	3556
684.786	2859
684.790	2789
684.837	3488
684.883	3194
684.908	3876
684.930	4532
684.977	4228
685.023	4631
685.029	4631
685.070	4290
685.117	3548
685.150	2903
685.164	2741
685.210	4184
685.257	3749
685.272	4035
685.303	4473
685.350	3839
685.393	4302
685.396	4344
685.443	3805
685.490	4472
685.514	4473
685.536	4407
685.583	5110
685.629	4479
685.636	4479
685.675	4332
685.722	4523
685.757	4253
685.768	4198
685.815	4249
685.861	4894
685.878	4831
685.908	4710
685.954	4352
686.000	4770
686.000	4776
686.047	4994
686.093	5828
686.121	5874
686.139	5852
686.185	5238
686.232	5752
686.242	5760
686.278	5380
686.324	5016
686.363	4237
686.370	4163
686.416	4213
686.463	4639
686.484	4873
686.509	5059
686.555	4340
686.601	4411
686.606	4410
686.647	4441
686.693	4561
686.727	4504
686.739	4501
686.785	4708
686.831	4416
686.848	4492
686.877	4539
686.923	3819
686.969	4736
686.969	4740
687.015	4218
687.061	4320
687.090	4163
687.107	4083
687.153	4669
687.199	4068
687.211	4128
687.245	4311
687.291	4495
687.332	4911
687.336	4966
687.382	5007
687.428	5160
687.453	5094
687.474	4859
687.520	5000
687.565	4420
687.574	4447
687.611	4778
687.657	4948
687.695	5480
687.702	5576
687.748	4589
687.794	5543
687.816	5450
687.839	5315
687.885	5095
687.931	5286
687.937	5278
687.976	5109
688.022	4521
688.058	4547
688.067	4621
688.113	4476
688.158	5092
688.179	5003
688.204	4768
688.249	5382
688.295	5171
688.300	5178
688.340	5380
688.386	5237
688.421	5397
688.431	5432
688.477	5068
688.522	5531
688.542	5382
688.567	5301
688.613	5703
688.658	5286
688.663	5345
688.703	5537
688.749	4984
688.784	4984
688.794	5073
688.839	5195
688.884	6320
688.905	5821
688.930	4970
688.975	5249
689.020	4699
689.026	4716
689.065	5413
689.110	5768
689.146	5969
689.155	5923
689.201	5451
689.246	5850
689.267	5658
689.291	5649
689.336	5819
689.381	5769
689.388	5845
689.426	6156
689.471	5853
689.509	6027
689.516	6028
689.561	5502
689.606	5404
689.630	5124
689.651	5002
689.696	5330
689.741	5326
689.750	5305
689.785	5330
689.830	5649
689.871	6017
689.875	6044
689.920	5545
689.965	5886
689.992	5541
690.010	5420
690.054	5980
690.099	6189
690.112	6274
690.144	6345
690.189	5725
690.233	5763
690.233	5772
690.278	6096
690.323	6029
690.354	6340
690.367	6421
690.412	6319
690.457	5863
690.474	6058
690.501	6426
690.546	6384
690.590	6839
690.595	6748
690.635	6137
690.680	6395
690.716	6785
690.724	6979
690.769	7812
690.813	8072
690.836	8456
690.857	8853
690.902	9591
690.946	10639
690.957	10938
690.991	14734
691.035	19877
691.077	26132
691.080	26432
691.124	29367
691.168	30279
691.198	31570
691.213	29650
691.257	24409
691.301	18940
691.318	16879
691.346	15148
691.390	12678
691.434	9543
691.439	9257
691.478	9160
691.522	8880
691.559	8561
691.567	8509
691.611	8165
691.655	7524
691.680	7147
691.699	7084
691.743	7533
691.787	7444
691.800	7332
691.831	7032
691.875	7309
691.919	7609
691.921	7585
691.964	7389
692.008	7701
692.041	7265
692.052	7199
692.096	7785
692.139	8292
692.162	8350
692.183	8081
692.227	7725
692.271	7317
692.282	7117
692.315	7042
692.359	7351
692.402	7631
692.403	7647
692.447	7796
692.490	7674
692.523	7782
692.534	7837
692.578	7812
692.622	7901
692.643	7746
692.666	7528
692.709	7707
692.753	7328
692.763	7331
692.797	7389
692.840	7210
692.884	7137
692.884	7154
692.928	7144
692.971	7763
693.004	7806
693.015	7718
693.059	7549
693.102	7518
693.124	7349
693.146	7558
693.189	7866
693.233	8485
693.245	8608
693.276	8767
693.320	9337
693.363	9126
693.365	9117
693.407	9633
693.450	9982
693.485	10400
693.493	10658
693.537	11787
693.580	13061
693.605	13592
693.624	14798
693.667	17904
693.710	21186
693.725	22335
693.753	28560
693.797	38637
693.840	50014
693.845	51135
693.883	58167
693.926	63915
693.966	69007
693.970	67673
694.013	53765
694.056	39876
694.086	30396
694.099	28911
694.142	23760
694.185	18927
694.206	16489
694.229	15600
694.272	14196
694.315	12416
694.326	12050
694.358	11960
694.401	11135
694.444	10830
694.446	10775
694.487	10362
694.530	10331
694.566	9659
694.573	9523
694.616	9101
694.659	8484
694.686	8247
694.702	8253
694.745	7813
694.787	7681
694.806	7558
694.830	7580
694.873	7709
694.916	7509
694.926	7517
694.959	7678
695.002	7667
695.044	7697
695.046	7684
695.087	8044
695.130	8247
695.166	8468
695.172	8464
695.215	8328
695.258	8074
695.286	8060
695.301	8232
695.343	8413
695.386	8590
695.406	8745
695.428	8505
695.471	8004
695.514	7132
695.526	6950
695.556	7421
695.599	7964
695.641	8582
695.646	8622
695.684	8183
695.726	7628
695.766	7160
695.769	7204
695.811	7656
695.854	7932
695.886	8215
695.896	8167
695.938	7671
695.981	7338
696.005	7102
696.023	7220
696.065	7601
696.108	7756
696.125	7859
696.150	7910
696.192	7765
696.235	7928
696.245	7917
696.277	8123
696.319	8274
696.361	8289
696.365	8293
696.404	8348
696.446	8200
696.485	8225
696.488	8276
696.530	8322
696.572	8641
696.604	8836
696.614	8787
696.656	8355
696.698	8061
696.724	7787
696.740	7890
696.783	8132
696.825	8542
696.844	8617
696.867	8546
696.909	8405
696.951	8249
696.964	8225
696.992	8201
697.034	7948
697.076	7773
697.083	7709
697.118	7737
697.160	7938
697.202	7925
697.203	7904
697.244	8132
697.286	8324
697.323	8461
697.327	8454
697.369	8179
697.411	7989
697.442	7706
697.453	7712
697.494	7752
697.536	7775
697.562	7775
697.578	7835
697.620	7856
697.661	7903
697.682	7948
697.703	8169
697.744	8461
697.786	8863
697.801	8940
697.828	9069
697.869	9276
697.911	9504
697.921	9521
697.952	9196
697.994	8783
698.035	8366
698.040	8292
698.077	8194
698.118	7994
698.160	7896
698.160	7874
698.201	8188
698.243	8440
698.279	8690
698.284	8709
698.325	8650
698.367	8583
698.399	8523
698.408	8515
698.449	8319
698.491	8190
698.518	8036
698.532	8041
698.573	8041
698.614	8007
698.638	7975
698.656	8062
698.697	8184
698.738	8332
698.757	8380
698.779	8382
698.820	8333
698.862	8282
698.877	8239
698.903	8565
698.944	9048
698.985	9530
698.996	9637
699.026	9591
699.067	9491
699.116	9345
699.235	8268
699.354	8146
699.474	8761
699.593	9238
699.713	10329
699.832	9090
699.951	10170
700.070	8193
700.190	8603
700.309	8550
700.428	9218
700.547	9075
700.667	8683
700.786	9279
700.905	9422
701.024	7012
701.143	9444
701.262	7249
701.381	7112
701.500	7772
701.619	9062
701.738	7604
701.857	8188
701.976	7499
702.095	7958
702.214	8039
702.333	9847
702.452	8018
702.571	7812
702.690	7501
702.809	7191
702.928	7487
703.047	7843
703.165	6863
703.284	7469
703.403	6640
703.522	8949
703.640	8978
703.759	8787
703.878	12564
703.997	9354
704.115	8049
704.234	7213
704.353	6643
704.471	7726
704.590	6864
704.708	6564
704.827	6706
704.946	7130
705.064	7837
705.183	6905
705.301	7729
705.420	10649
705.538	10088
705.656	9372
705.775	9255
705.893	13756
706.012	24004
706.130	10988
706.249	8272
706.367	9479
706.485	9216
706.604	9690
706.722	9297
706.840	10737
706.958	11464
707.077	10403
707.195	8656
707.313	8657
707.431	7617
707.549	7824
707.668	8228
707.786	9019
707.904	7976
708.022	7978
708.140	7328
708.258	7763
708.376	8089
708.494	8362
708.612	7905
708.730	11131
708.848	11623
708.966	10031
709.084	9721
709.202	9676
709.320	9149
709.438	9695
709.556	8781
709.674	10542
709.791	9838
709.909	9219
710.027	8429
710.145	9426
710.263	9144
710.380	9468
710.498	9591
710.616	9176
710.733	9200
710.851	9981
710.969	10074
711.086	8800
711.204	9799
711.322	8612
711.439	9100
711.557	9984
711.674	9389
711.792	8917
711.909	9205
712.027	10364
712.144	8478
712.262	9059
712.379	8636
712.497	11672
712.614	13050
712.732	12070
712.849	10470
712.966	11157
713.084	12972
713.201	11434
713.318	10403
713.436	10668
713.553	10401
713.670	10930
713.787	10609
713.905	12822
714.022	10537
714.139	10559
714.256	10938
714.373	11203
714.490	10646
714.608	13865
714.725	35200
714.842	76606
714.959	16361
715.076	9734
715.193	9422
715.310	9494
715.427	8631
715.544	10323
715.661	8639
715.778	9502
715.895	9575
716.011	10286
716.128	9638
716.245	8443
716.362	9600
716.479	11575
716.596	9124
716.713	9230
716.829	8963
716.946	10322
717.063	7740
717.180	8417
717.296	7978
717.413	8540
717.530	7231
717.646	8728
717.763	8375
717.880	8055
717.996	7522
718.113	8069
718.229	7746
718.346	8247
718.462	7357
718.579	9035
718.695	12535
718.812	14642
718.928	11295
719.045	10843
719.161	7012
719.277	7654
719.394	6747
719.510	7936
719.626	7275
719.743	8922
719.859	7893
719.975	8474
720.092	12229
720.208	30378
720.324	15520
720.440	8522
720.557	8037
720.673	11564
720.789	16386
720.905	29971
721.021	23611
721.137	7559
721.253	7269
721.369	7687
721.486	8933
721.602	11338
721.718	8653
721.834	6603
721.950	6893
722.066	6866
722.181	6694
722.297	6795
722.413	6824
722.529	6239
722.645	6192
722.761	6187
722.877	6027
722.993	6635
723.108	6156
723.224	6908
723.340	6249
723.456	7110
723.571	5738
723.687	6695
723.803	5013
723.918	5320
724.034	5843
724.150	6231
724.265	6223
724.381	10276
724.497	20280
724.612	7361
724.728	5726
724.843	5890
724.959	6883
725.074	10305
725.190	18870
725.305	7647
725.421	6689
725.536	5479
725.651	4694
725.767	5421
725.882	5329
725.997	5218
726.113	5159
726.228	5564
726.343	5064
726.459	5380
726.574	5521
726.689	5168
726.804	4588
726.920	6153
727.035	5448
727.150	6308
727.265	3805
727.380	6518
727.495	4949
727.610	5501
727.725	4719
727.841	6276
727.956	8399
728.071	13139
728.186	6232
728.301	5364
728.416	4605
728.531	5298
728.645	4691
728.760	5351
728.875	5839
728.990	6241
729.105	5154
729.220	5038
729.335	5331
729.449	5766
729.564	4923
729.679	4558
729.794	4191
729.908	5186
730.023	5146
730.138	4484
730.253	3448
730.367	4445
730.482	4447
730.596	4634
730.711	4291
730.826	4447
730.940	3199
731.055	5414
731.169	4452
731.284	5084
731.398	3994
731.513	5002
731.627	4618
731.742	4969
731.856	6229
731.970	4380
732.085	4436
732.199	4999
732.313	4348
732.428	5767
732.542	11161
732.656	13327
732.771	4881
732.885	4533
732.999	3760
733.113	4698
733.227	4165
733.342	4384
733.456	3584
733.570	4261
733.684	3824
733.798	4235
733.912	3519
734.026	4086
734.140	3375
734.254	4783
734.368	6198
734.482	11566
734.596	3814
734.710	3970
734.824	2967
734.938	4191
735.052	3337
735.166	4593
735.280	4039
735.393	3672
735.507	3906
735.621	3787
735.735	7823
735.849	7536
735.962	3919
736.076	3884
736.190	3671
736.303	5201
736.417	7867
736.531	5124
736.644	3385
736.758	3364
736.872	2665
736.985	3299
737.099	3436
737.212	4056
737.326	3208
737.439	3451
737.553	3100
737.666	4038
737.780	2975
737.893	3627
738.007	3266
738.120	3156
738.233	3712
738.347	3786
738.460	3061
738.573	3195
738.687	3670
738.800	3522
738.913	3838
739.026	4551
739.140	3097
739.253	3957
739.366	2468
739.479	2330
739.592	2599
739.705	2873
739.818	3426
739.932	3381
740.045	3491
740.158	4234
740.271	2497
740.384	4079
740.497	3559
740.610	3971
740.723	4016
740.836	4116
740.949	4550
741.062	5077
741.174	5157
741.287	3923
741.400	3766
741.513	4913
741.626	4708
741.739	5133
741.851	3052
741.964	4475
742.077	3489
742.189	3995
742.302	5643
742.415	6722
742.527	4661
742.640	3880
742.753	2811
742.865	3270
742.978	3196
743.090	2712
743.203	2390
743.316	2639
743.428	1968
743.541	3205
743.653	2426
743.766	3105
743.878	2520
743.990	3366
744.103	5200
744.215	7425
744.327	4294
744.440	3279
744.552	4377
744.664	4729
744.777	2297
744.889	2821
745.001	2899
745.113	2071
745.226	2534
745.338	3859
745.450	2055
745.562	3039
745.674	2025
745.786	2555
745.898	2177
746.010	2727
746.122	2252
746.234	3159
746.347	2382
746.459	3032
746.570	2886
746.682	4169
746.794	7935
746.906	6857
747.018	3133
747.130	2951
747.242	2433
747.354	2706
747.466	3157
747.577	2832
747.689	1556
747.801	2856
747.913	2769
748.024	2771
748.136	1827
748.248	3098
748.359	2259
748.471	1860
748.583	1826
748.694	2698
748.806	3298
748.918	3066
749.029	2882
749.141	3397
749.252	3244
749.364	3069
749.475	4493
749.587	6120
749.698	2841
749.809	3569
749.921	2271
750.032	2951
750.144	1541
750.255	2305
750.366	1508
750.478	1951
750.589	1978
750.700	2323
750.811	2517
750.923	3691
751.034	4929
751.145	8569
751.256	3347
751.367	2572
751.479	2855
751.590	2271
751.701	2419
751.812	2507
751.923	2377
752.034	2974
752.145	1957
752.256	2654
752.367	1648
752.478	2374
752.589	2023
752.700	2622
752.811	1394
752.922	2174
753.032	2036
753.143	3583
753.254	1555
753.365	2623
753.476	1543
753.586	2196
753.697	1441
753.808	2523
753.919	1759
754.029	2166
754.140	2236
754.251	2518
754.361	2087
754.472	2851
754.582	1671
754.693	2339
754.804	1659
754.914	2347
755.025	1866
755.135	2390
755.246	2243
755.356	1963
755.466	2333
755.577	3235
755.687	2476
755.798	2519
755.908	2339
756.018	3125
756.129	2251
756.239	2782
756.349	2520
756.460	2965
756.570	2152
756.680	2377
756.790	2430
756.900	3247
757.011	3298
757.121	3362
757.231	1913
757.341	2902
757.451	1876
757.561	2921
757.671	2121
757.781	3099
757.891	2974
758.001	2798
758.111	3092
758.221	3608
758.331	1885
758.441	2657
758.551	2845
758.661	4529
758.771	2550
758.880	3672
758.990	2831
759.100	3211
759.210	2280
759.320	3767
759.429	3420
759.539	3596
759.649	2149
759.758	3790
759.868	3033
759.978	3476
760.087	2930
760.197	3303
760.307	2866
760.416	3771
760.526	3000
760.635	3776
760.745	2746
760.854	4299
760.964	2662
761.073	3680
761.182	3908
761.292	4129
761.401	3399
761.511	4645
761.620	3755
761.729	4036
761.839	3422
761.948	3750
762.057	3269
762.166	4616
762.276	4188
762.385	5433
762.494	4043
762.603	4834
762.712	4885
762.822	5151
762.931	4404
763.040	5300
763.149	5570
763.258	5813
763.367	5653
763.476	6472
763.585	6684
763.694	7289
763.803	6516
763.912	7839
764.021	7397
764.130	7875
764.238	8496
764.347	9399
764.456	8902
764.565	10474
764.674	11143
764.783	12338
764.891	13040
765.000	14710
765.109	16571
765.217	18956
765.326	23043
765.435	27067
765.543	33022
765.652	40545
765.761	50894
765.869	71046
765.978	102078
766.086	158670
766.195	269055
766.303	488225
766.412	768597
766.520	713297
766.629	638360
766.737	344334
766.846	191374
766.954	121346
767.062	85949
767.171	63504
767.279	48839
767.387	38127
767.496	30682
767.604	26610
767.712	23172
767.820	20910
767.928	18327
768.037	17760
768.145	16606
768.253	16126
768.361	15046
768.469	15160
768.577	14508
768.685	16015
768.793	16256
768.901	18058
769.009	19950
769.117	23839
769.225	30764
769.333	41770
769.441	63852
769.549	105612
769.657	203398
769.765	431882
769.873	679303
769.981	580421
770.088	292070
770.196	133612
770.304	77470
770.412	54872
770.519	38733
770.627	30643
770.735	23485
770.842	20664
770.950	16585
771.058	16375
771.165	13087
771.273	12306
771.380	10502
771.488	9761
771.595	8549
771.703	8858
771.810	8210
771.918	7620
772.025	7497
772.133	7622
772.240	5878
772.348	6643
772.455	5999
772.562	5741
772.670	4698
772.777	5392
772.884	4754
772.991	4237
773.099	4550
773.206	4549
773.313	3261
773.420	4732
773.528	4764
773.635	4147
773.742	3368
773.849	4698
773.956	3026
774.063	3436
774.170	2620
774.277	4357
774.384	3426
774.491	2994
774.598	3653
774.705	4118
774.812	3480
774.919	4259
775.026	3104
775.133	3443
775.239	2362
775.346	2887
775.453	2343
775.560	2371
775.667	2955
775.773	2532
775.880	3022
775.987	2906
776.093	2779
776.200	2924
776.307	2502
776.413	3360
776.520	2421
776.627	3027
776.733	3389
776.840	2636
776.946	4041
777.053	6162
777.159	12637
777.266	11090
777.372	10169
777.478	12365
777.585	7168
777.691	4049
777.798	2507
777.904	3331
778.010	3613
778.117	4433
778.223	2674
778.329	2241
778.435	1974
778.542	2806
778.648	1549
778.754	2525
778.860	1772
778.966	2135
779.072	2374
779.178	2785
779.284	1611
779.391	1845
779.497	1718
779.603	3551
779.708	3796
779.815	10096
779.920	28373
780.026	91652
780.132	33769
780.238	4609
780.344	2825
780.450	2692
780.556	2070
780.661	2154
780.767	2294
780.873	2434
780.979	1979
781.085	1821
781.190	1773
781.296	2080
781.402	804
781.507	1581
781.613	1779
781.719	1729
781.824	1386
781.930	2294
782.035	1566
782.141	1822
782.246	343
782.352	2268
782.457	1698
782.563	2540
782.668	752
782.773	1085
782.879	1980
782.984	1295
783.090	1571
783.195	2154
783.300	2436
783.405	2701
783.511	1388
783.616	2301
783.721	1788
783.826	1510
783.932	1172
784.037	2653
784.142	912
784.247	1233
784.352	1852
784.457	1688
784.562	1908
784.667	1254
784.772	899
784.877	1881
784.982	1275
785.087	805
785.192	1239
785.297	2029
785.402	1451
785.507	1234
785.611	1492
785.716	1532
785.821	1029
785.926	747
786.031	574
786.135	1478
786.240	864
786.345	1045
786.450	959
786.554	1681
786.659	638
786.763	696
786.868	576
786.973	1754
787.077	242
787.182	1055
787.286	-32
787.391	696
787.495	-79
787.600	1760
787.704	1167
787.809	1267
787.913	338
788.017	1581
788.122	1128
788.226	1379
788.330	163
788.435	1163
788.539	590
788.643	1551
788.747	616
788.852	735
788.956	470
789.060	1335
789.164	1124
789.268	1478
789.372	809
789.476	757
789.580	483
789.684	582
789.788	661
789.892	964
789.996	922
790.100	560
790.204	1165
790.308	1042
790.412	1084
790.516	965
790.620	705
790.724	1715
790.828	742
790.931	766
791.035	742
791.139	1157
791.242	488
791.346	1643
791.450	542
791.554	1384
791.657	769
791.761	2125
791.864	640
791.968	885
792.072	879
792.175	653
792.279	465
792.382	1501
792.486	1614
792.589	516
792.693	1317
792.796	596
792.899	1164
793.003	965
793.106	296
793.209	1195
793.313	692
793.416	891
793.519	-51
793.623	1743
793.726	1848
793.829	2334
793.932	543
794.035	1485
794.138	1441
794.242	1182
794.345	1655
794.448	3325
794.551	5473
794.654	15814
794.757	44522
794.860	20657
794.963	2241
795.066	1058
795.169	1367
795.272	1926
795.375	1787
795.477	641
795.580	464
795.683	305
795.786	837
795.889	1159
795.991	1044
796.094	1737
796.197	507
796.300	625
796.402	-180
796.505	959
796.608	131
796.710	1156
796.813	484
796.915	1539
797.018	690
797.120	-20
797.223	-1062
797.326	790
797.428	279
797.530	191
797.633	-372
797.735	1098
797.838	885
797.940	2282
798.042	-229
798.145	269
798.247	818
798.349	-42
798.452	91
798.554	265
798.656	-866
798.758	1416
798.860	167
798.962	112
799.065	-390
799.167	-272
799.269	973
799.371	508
799.473	554
799.575	-16
799.677	784
799.779	1751
799.881	309
799.983	1769
800.085	5
800.187	582
800.289	-90
800.390	450
800.492	197
800.594	1367
800.696	405
800.798	405
800.899	-135
801.001	163
801.103	89
801.205	670
801.306	-465
801.408	117
801.509	470
801.611	2
801.713	135
801.814	187
801.916	59
802.017	815
802.119	-280
802.220	765
802.322	-669
802.423	1321
802.525	144
802.626	259
802.727	188
802.829	777
802.930	-1086
803.031	796
803.133	-15
803.234	250
803.335	-405
803.436	139
803.538	-537
803.639	478
803.740	-827
803.841	393
803.942	-691
804.043	223
804.144	-424
804.245	-288
804.346	72
804.447	468
804.548	159
804.649	1123
804.750	-102
804.851	-90
804.952	-284
805.053	721
805.154	-790
805.255	180
805.355	-743
805.456	360
805.557	-650
805.658	60
805.758	-440
805.859	253
805.960	-395
806.061	418
806.161	-790
806.262	114
806.362	62
806.463	-587
806.564	500
806.664	-28
806.765	-394
806.865	1693
806.966	627
807.066	327
807.166	-194
807.267	1211
807.367	51
807.468	476
807.568	-553
807.668	852
807.769	761
807.869	45
807.969	29
808.069	333
808.170	-50
808.270	-402
808.370	-66
808.470	735
808.570	-217
808.670	381
808.770	-735
808.870	-362
808.970	450
809.070	-191
809.170	-326
809.271	1091
809.370	254
809.470	362
809.570	-37
809.670	298
809.770	-313
809.870	91
809.970	-174
810.070	-178
810.169	494
810.269	-58
810.369	418
810.469	-235
810.568	-528
810.668	-383
810.768	-614
810.867	67
810.967	-77
811.066	493
811.166	-456
811.265	186
811.365	-997
811.464	335
811.564	-252
811.663	852
811.763	-569
811.862	-524
811.962	324
812.061	108
812.160	29
812.260	-47
812.359	110
812.458	658
812.557	2005
812.657	4743
812.756	1923
812.855	1065
812.954	-200
813.053	1533
813.153	207
813.252	297
813.351	-338
813.450	685
813.549	-189
813.648	1791
813.747	-675
813.846	671
813.945	-415
814.044	122
814.143	517
814.242	1119
814.341	-348
814.439	709
814.538	227
814.637	1499
814.736	-145
814.835	1475
814.933	-96
815.032	854
815.131	494
815.229	1210
815.328	1077
815.427	857
815.525	974
815.624	954
815.722	311
815.821	1285
815.919	891
816.018	888
816.116	1543
816.215	1965
816.313	1965
816.412	2712
816.510	2517
816.609	3704
816.707	1859
816.805	3771
816.904	2709
817.002	4300
817.100	3898
817.198	5547
817.296	5276
817.395	6392
817.493	7700
817.591	10079
817.689	12493
817.787	18537
817.885	26859
817.983	46369
818.081	88348
818.179	187415
818.277	419981
818.375	596706
818.473	298748
818.571	115207
818.669	62251
818.767	48895
818.865	43454
818.963	46880
819.061	59450
819.158	93033
819.256	162684
819.354	325016
819.452	641889
819.549	706198
819.647	361002
819.745	156657
819.842	85482
819.940	56341
820.038	39067
820.135	30288
820.233	22324
820.330	17894
820.428	13605
820.525	11266
820.623	10134
820.720	8582
820.818	7720
820.915	8707
821.012	5904
821.110	5619
821.207	4862
821.304	4839
821.402	4427
821.499	5398
821.596	6279
821.693	6038
821.791	3215
821.888	2970
821.985	3629
822.082	5317
822.179	3323
822.276	3444
822.373	2776
822.470	1943
822.567	912
822.664	1342
822.761	1697
822.858	1403
822.955	981
823.052	1795
823.149	433
823.246	1011
823.343	908
823.440	1397
823.536	629
823.633	828
823.730	-305
823.827	855
823.923	430
824.020	1949
824.117	904
824.213	1980
824.310	1850
824.407	993
824.503	920
824.600	-110
824.696	-615
824.793	490
824.889	77
824.986	275
825.082	-46
825.179	182
825.275	-247
825.371	4
825.468	456
825.564	28
825.660	-329
825.757	640
825.853	-125
825.949	-38
826.045	-911
826.142	48
826.238	-496
826.334	58
826.430	-284
826.526	593
826.622	-971
826.718	-178
826.814	-597
826.910	442
827.006	124
827.102	-318
827.198	-699
827.294	-337
827.390	-245
827.486	458
827.582	-1435
827.678	-361
827.774	-618
827.869	-650
827.965	82
828.061	-1135
828.157	-1206
828.252	-11
828.348	-1589
828.444	-361
828.539	-1167
828.635	-249
828.731	-488
828.826	-986
828.922	-1493
829.017	-1403
829.113	-509
829.208	-323
829.304	-1652
829.399	1465
829.495	-1072
829.590	583
829.685	-1221
829.781	314
829.876	-1027
829.971	-567
830.066	-784
830.162	-865
830.257	-993
830.352	-649
830.447	33
830.543	327
830.638	-841
830.733	288
830.828	-690
830.923	-465
831.018	-689
831.113	-137
831.208	-1534
831.303	-36
831.398	-640
831.493	-52
831.588	-1104
831.683	-355
831.778	-643
831.873	-444
831.967	-485
832.062	-282
832.157	-1731
832.252	232
832.346	-871
832.441	-37
832.536	513
832.631	870
832.725	959
832.820	215
832.914	-1034
833.009	-530
833.104	-246
833.198	211
833.293	-118
833.387	-599
833.482	-794
833.576	-790
833.670	-683
833.765	-875
833.859	-1054
833.954	626
834.048	-1029
834.142	-535
834.237	-806
834.331	-1113
834.425	-1332
834.519	-1014
834.613	-534
834.708	-291
834.802	-657
834.896	-976
834.990	-1495
835.084	-775
835.178	-1512
835.272	-509
835.366	-1541
835.460	-355
835.554	-838
835.648	-396
835.742	-1783
835.836	259
835.930	-785
836.024	-197
836.117	-1341
836.211	71
836.305	137
836.399	774
836.493	-892
836.586	82
836.680	-1402
836.774	-469
836.867	-806
836.961	-1102
837.055	-873
837.148	180
837.242	-209
837.335	554
837.429	-997
837.522	-155
837.616	-564
837.709	697
837.803	1185
837.896	-421
837.989	-822
838.083	906
838.176	-81
838.269	2668
838.363	-403
838.456	-889
838.549	316
838.642	-245
838.735	1339
838.829	1381
838.922	-955
839.015	-518
839.108	-693
839.201	-266
839.294	-874
839.387	-247
839.480	-1016
839.573	146
839.666	-551
839.759	2
839.852	-1215
839.945	-553
840.038	-432
840.131	-259
840.223	-1187
840.316	-168
840.409	-1766
840.502	-626
840.594	-565
840.687	-492
840.780	-1119
840.873	-603
840.965	-689
841.058	351
841.150	-165
841.243	1693
841.336	-197
841.428	-92
841.521	-1217
841.613	-674
841.706	-387
841.798	-274
841.890	-580
841.983	-1004
842.075	-973
842.167	-198
842.260	-559
842.352	-156
842.444	414
842.537	955
842.629	3954
842.721	648
842.813	-528
842.905	-1002
842.997	-642
843.090	-340
843.182	-295
843.274	1242
843.366	3347
843.458	9903
843.550	11081
843.642	2239
843.734	-106
843.826	553
843.918	191
844.009	297
844.101	-1562
844.193	32
844.285	-704
844.377	781
844.469	861
844.560	1394
844.652	1749
844.744	870
844.835	-768
844.927	-120
845.019	-1033
845.110	-618
845.202	-1022
845.293	-776
845.385	-1430
845.476	-754
845.568	-408
845.659	-578
845.751	-20
845.842	-692
845.934	-1689
846.025	-887
846.116	-532
846.208	-525
846.299	-584
846.390	-29
846.482	-558
846.573	-296
846.664	-659
846.755	239
846.846	497
846.937	-999
847.029	-1028
847.120	-702
847.211	-1873
847.302	-383
847.393	-1453
847.484	-428
847.575	-1067
847.666	-500
847.757	-729
847.847	-1336
847.938	-510
848.029	-821
848.120	-901
848.211	-720
848.302	-1186
848.392	-385
848.483	-558
848.574	-860
848.664	-1035
848.755	-507
848.846	-1436
848.936	-406
849.027	-930
849.118	-1297
849.208	-583
849.299	-685
849.389	-932
849.480	375
849.570	67
849.661	1173
849.751	1002
849.841	1069
849.932	-1565
850.022	-418
850.112	-700
850.203	-332
850.293	-1200
850.383	-984
850.474	-1269
850.564	-1078
850.654	-801
850.744	-835
850.834	-135
850.924	-159
851.014	-612
851.104	-795
851.194	-1248
851.284	-1233
851.374	-884
851.464	-356
851.554	-807
851.644	-127
851.734	306
851.824	682
851.914	93
852.004	484
852.094	410
852.183	-901
852.273	-595
852.363	-1016
852.452	-1294
852.542	-1380
852.632	-238
852.721	112
852.811	-1562
852.901	-386
852.990	-428
853.080	-1270
853.169	-1206
853.259	-813
853.348	-1348
853.438	-1302
853.527	-1569
853.617	-131
853.706	145
853.795	-117
853.885	2167
853.974	4746
854.063	9819
854.152	22718
854.242	17498
854.331	1636
854.420	-666
854.509	-97
854.598	-869
854.687	-884
854.777	-985
854.866	-702
854.955	-693
855.044	-786
855.133	-1709
855.222	-5
855.311	-1243
855.400	-126
855.488	-617
855.577	-1189
855.666	-1480
855.755	-252
855.844	-269
855.933	-421
856.021	-769
856.110	-67
856.199	-1657
856.288	-1183
856.376	-1007
856.465	-1397
856.554	-352
856.642	-1112
856.731	-1187
856.819	181
856.908	-1088
856.996	-573
857.085	-848
857.173	-710
857.262	-1470
857.350	-661
857.438	-1645
857.527	-918
857.615	-1123
857.703	-1105
857.792	-1253
857.880	-513
857.968	-1732
858.056	-942
858.145	-971
858.233	-352
858.321	-1681
858.409	-126
858.497	-1170
858.585	-1699
858.673	-933
858.761	-1085
858.849	-1423
858.937	-884
859.025	-658
859.113	-512
859.201	-1518
859.289	7
859.377	-1238
859.465	-830
859.552	-1653
859.640	-788
859.728	-1462
859.816	-1050
859.903	-892
859.991	-983
860.079	-1099
860.166	-1316
860.254	-1358
860.342	-915
860.429	-1885
860.517	-932
860.604	-1144
860.692	-863
860.779	-1809
860.867	-445
860.954	-1328
861.042	-1053
861.129	-1471
861.216	-1377
861.304	-1131
861.391	-834
861.478	-837
861.565	-482
861.653	-815
861.740	-1393
861.827	-1635
861.914	-907
862.001	-1174
862.089	-476
862.176	-1572
862.263	-940
862.350	-1186
862.437	-1222
862.524	-1688
862.611	-114
862.698	-792
862.785	-31
862.871	26
862.958	-430
863.045	-1637
863.132	-741
863.219	-1399
863.306	-1709
863.392	-1643
863.479	-545
863.566	-1288
863.652	-1208
863.739	-1094
863.826	-752
863.912	-138
863.999	-1335
864.086	-1536
864.172	-892
864.259	-1099
864.345	-360
864.432	-265
864.518	-546
864.604	-1743
864.691	-1243
864.777	-715
864.863	-1030
864.950	-1227
865.036	-785
865.122	-688
865.209	-656
865.295	-1289
865.381	-710
865.467	-1174
865.553	-1017
865.639	-1330
865.726	-482
865.812	113
865.898	1543
865.984	3391
866.070	6690
866.156	13213
866.242	6190
866.328	74
866.414	-945
866.499	-884
866.585	-626
866.671	-1566
866.757	-1215
866.843	-1593
866.928	-1230
867.014	-1149
867.100	-527
867.186	-1911
867.271	-446
867.357	-1023
867.442	216
867.528	125
867.614	-676
867.699	-65
867.785	497
867.870	230
867.956	1677
868.041	1089
868.127	-107
868.212	333
868.297	1216
868.383	93
868.468	-106
868.553	496
868.639	847
868.724	1222
868.809	3938
868.894	17
868.979	-906
869.065	-742
869.150	-679
869.235	-1593
869.320	-1577
869.405	-326
869.490	-1093
869.575	-812
869.660	-1136
869.745	-919
869.830	-1198
869.915	-933
870.000	-919
870.085	-975
870.169	-595
870.254	-421
870.339	-877
870.424	-1903
870.509	-940
870.593	-1731
870.678	-470
870.763	-1797
870.847	-676
870.932	-1713
871.016	-216
871.101	-292
871.186	-623
871.270	-1480
871.355	-1098
871.439	-1238
871.523	-1582
871.608	-1495
871.692	-114
871.777	-540
871.861	-788
871.945	-1360
872.030	-1288
872.114	-1249
872.198	-796
872.282	-1367
872.367	-909
872.451	-1777
872.535	-1401
872.619	-1496
872.703	-537
872.787	-1350
872.871	-1031
872.955	-1961
873.039	-1288
873.123	-1803
873.207	-730
873.291	-1806
873.375	-692
873.459	-1410
873.543	-1494
873.627	-1883
873.711	-549
873.794	-1635
873.878	-414
873.962	-1626
874.045	-1092
874.129	-2388
874.137	-2277
874.213	-1171
874.245	-1292
874.296	-1491
874.352	-695
874.380	-313
874.460	-1270
874.464	-1308
874.547	-1589
874.568	-1448
874.631	-1079
874.676	-723
874.714	-387
874.784	-529
874.798	-569
874.881	436
874.892	160
874.965	-1726
874.999	-1572
875.048	-1392
875.107	-1376
875.131	-1354
875.215	-725
875.215	-725
875.298	-1189
875.323	-1015
875.381	-523
875.430	-750
875.465	-921
875.538	-655
875.548	-629
875.631	-1735
875.646	-1588
875.714	-887
875.753	-953
875.798	-947
875.861	-1041
875.881	-1114
875.964	-1134
875.968	-1093
876.047	-227
876.076	-551
876.130	-1190
876.183	-881
876.213	-690
876.291	-1130
876.296	-1163
876.379	-509
876.398	-595
876.462	-942
876.506	-760
876.545	-480
876.613	-665
876.628	-744
876.711	-908
876.721	-917
876.794	-1047
876.828	-881
876.877	-496
876.935	-781
876.960	-919
877.043	-534
877.043	-534
877.125	-345
877.150	-106
877.208	406
877.258	-678
877.291	-1377
877.365	-95
877.374	73
877.456	-464
877.472	-390
877.539	-254
877.579	-524
877.622	-868
877.687	-396
877.704	-160
877.787	-111
877.794	-66
877.869	-44
877.901	-303
877.952	-551
878.008	-311
878.034	-224
878.115	-901
878.117	-912
878.199	-335
878.222	-260
878.282	-3
878.329	185
878.364	273
878.437	-438
878.447	-535
878.529	-48
878.544	-58
878.611	63
878.651	-85
878.694	-362
878.758	-133
878.776	-15
878.858	234
878.865	235
878.941	16
878.972	-111
879.023	-257
879.078	-389
879.105	-420
879.185	146
879.187	160
879.269	-249
879.292	-140
879.351	68
879.399	-137
879.433	-240
879.506	-132
879.516	-129
879.598	-665
879.613	-638
879.680	-305
879.720	-109
879.762	-89
879.827	-586
879.844	-631
879.926	-373
879.933	-288
880.007	270
880.040	1
880.089	-254
880.147	162
880.171	389
880.253	803
880.254	802
880.335	1140
880.360	1309
880.417	1824
880.467	2089
880.499	2644
880.574	4726
880.580	4729
880.662	2667
880.680	2000
880.744	468
880.787	600
880.825	535
880.893	-448
880.907	-518
880.989	453
881.000	473
881.070	265
881.106	88
881.152	268
881.213	583
881.233	485
881.315	36
881.319	-2
881.396	10
881.426	215
881.478	328
881.532	11
881.559	-97
881.639	218
881.641	229
881.722	-204
881.745	-105
881.803	952
881.852	1344
881.885	873
881.958	406
881.966	473
882.047	441
882.064	588
882.129	701
882.171	356
882.210	565
882.277	1587
882.291	1633
882.372	657
882.383	594
882.454	386
882.489	347
882.535	222
882.596	447
882.616	631
882.697	384
882.702	420
882.778	940
882.808	682
882.859	357
882.914	796
882.940	816
883.020	-212
883.021	-206
883.102	605
883.127	623
883.183	371
883.233	486
883.264	594
883.339	777
883.345	796
883.426	824
883.445	747
883.507	697
883.551	941
883.587	917
883.657	451
883.668	445
883.749	1043
883.763	952
883.830	319
883.869	256
883.910	362
883.975	477
883.991	469
884.072	802
884.081	721
884.152	584
884.187	821
884.233	752
884.292	741
884.314	921
884.394	1447
884.398	1438
884.475	766
884.504	726
884.555	1007
884.610	1003
884.636	852
884.716	635
884.716	642
884.797	357
884.821	503
884.877	983
884.927	837
884.958	831
885.033	1378
885.038	1389
885.118	827
885.139	820
885.199	1260
885.244	1447
885.279	1403
885.350	1301
885.359	1350
885.439	1677
885.456	1723
885.520	1297
885.561	951
885.600	956
885.667	1214
885.680	1200
885.760	787
885.773	791
885.840	1352
885.878	1331
885.920	1204
885.984	1367
886.000	1432
886.080	1205
886.089	1227
886.160	1487
886.195	1481
886.240	1387
886.300	1468
886.320	1546
886.400	1396
886.406	1407
886.480	1669
886.511	1576
886.560	1595
886.616	1838
886.640	1875
886.720	1599
886.722	1589
886.800	1615
886.827	1558
886.879	1317
886.932	1132
886.959	1169
887.038	1204
887.039	1224
887.119	2086
887.143	2307
887.198	2155
887.248	2102
887.278	1993
887.354	1506
887.358	1516
887.437	1729
887.459	1709
887.517	1905
887.564	2180
887.596	2165
887.669	1796
887.676	1739
887.755	1299
887.774	1089
887.835	1323
887.880	1708
887.914	1929
887.985	1977
887.994	1930
888.073	1859
888.090	1740
888.153	1764
888.195	1921
888.232	1901
888.300	1676
888.311	1749
888.391	2389
888.405	2453
888.470	2086
888.510	1945
888.549	2304
888.615	2774
888.628	2700
888.708	2247
888.720	2156
888.787	1790
888.825	1589
888.866	1595
888.930	1540
888.945	1641
889.024	2203
889.035	2260
889.103	2033
889.140	1913
889.182	2135
889.245	2394
889.261	2388
889.340	2375
889.349	2357
889.419	2469
889.454	2531
889.498	2227
889.559	1745
889.577	1989
889.656	3058
889.664	3151
889.735	2623
889.768	2361
889.814	2511
889.873	2683
889.978	2426
890.083	2732
890.187	2259
890.292	2457
890.397	1730
890.501	2847
890.606	2636
890.710	3457
890.815	2773
890.919	3582
891.024	1881
891.128	2719
891.233	2283
891.337	2638
891.442	2739
891.546	3226
891.650	2396
891.755	2381
891.859	3269
891.963	2462
892.068	2117
892.172	2080
892.276	2064
892.380	1866
892.484	2294
892.589	2475
892.693	1712
892.797	2560
892.901	1731
893.005	2487
893.109	1122
893.213	2150
893.317	1154
893.421	3244
893.525	2463
893.629	1969
893.733	2160
893.837	2477
893.941	2474
894.045	3658
894.148	3687
894.252	7556
894.356	5852
894.460	3429
894.564	2184
894.667	2581
894.771	1384
894.875	2691
894.978	2512
895.082	2440
895.186	1738
895.289	2325
895.393	2326
895.496	2599
895.600	2207
895.703	2336
895.807	1595
895.910	2315
896.014	2120
896.117	2098
896.221	2239
896.324	2238
896.427	2290
896.531	2560
896.634	1840
896.737	2168
896.840	2430
896.944	1527
897.047	1865
897.150	2437
897.253	1375
897.356	2260
897.460	2493
897.563	1699
897.666	2060
897.769	2457
897.872	2062
897.975	2516
898.078	1670
898.181	2174
898.284	1360
898.387	2471
898.490	1380
898.593	2024
898.695	1730
898.798	2399
898.901	2000
899.004	2784
899.107	1666
899.209	2005
899.312	2323
899.415	1537
899.518	980
899.620	2377
899.723	1228
899.826	2436
899.928	2850
900.031	2758
900.133	1673
900.236	1690
900.338	1351
900.441	2400
900.543	1510
900.646	1955
900.748	1380
900.851	2094
900.953	1747
901.055	2805
901.158	1618
901.260	2214
901.362	1639
901.465	1857
901.567	1527
901.669	1989
901.771	1493
901.873	2390
901.976	1625
902.078	1712
902.180	1189
902.282	2308
902.384	1141
902.486	2100
902.588	1541
902.690	2599
902.792	2462
902.894	3298
902.996	2272
903.098	1656
903.200	1560
903.302	2827
903.404	2358
903.505	2721
903.607	2288
903.709	1645
903.811	1975
903.913	2248
904.014	2256
904.116	2385
904.218	1942
904.319	2497
904.421	2291
904.523	3847
904.624	2199
904.726	2217
904.827	2095
904.929	3818
905.030	1354
905.132	2151
905.233	1869
905.335	2498
905.436	1620
905.537	1865
905.639	2268
905.740	2693
905.841	1841
905.943	2197
906.044	1574
906.145	2268
906.247	1859
906.348	1796
906.449	1414
906.550	1681
906.651	1982
906.752	2111
906.854	1822
906.955	1412
907.056	1748
907.157	2027
907.258	869
907.359	1958
907.460	1937
907.561	2314
907.662	1813
907.762	1744
907.863	1158
907.964	3393
908.065	2136
908.166	2263
908.267	1277
908.367	1589
908.468	1262
908.569	2158
908.670	2180
908.770	2296
908.871	2424
908.971	2217
909.072	2827
909.173	2102
909.273	1321
909.374	2601
909.474	1619
909.575	2410
909.675	2188
909.776	2019
909.876	675
909.977	2185
910.077	1372
910.177	2412
910.278	1710
910.378	2669
910.478	414
910.579	1905
910.679	1627
910.779	1969
910.879	1651
910.980	1502
911.080	1200
911.180	1801
911.280	913
911.380	1982
911.480	1616
911.580	1606
911.680	2197
911.780	1365
911.880	1797
911.980	1884
912.080	1177
912.180	2465
912.280	745
912.380	2105
912.480	2117
912.580	2463
912.679	1344
912.779	1337
912.879	832
912.979	2021
913.078	1366
913.178	2033
913.278	1385
913.377	1762
913.477	1465
913.577	2156
913.676	2107
913.776	1615
913.875	1287
913.975	1905
914.074	1293
914.174	1615
914.273	466
914.373	1878
914.472	929
914.572	1552
914.671	1584
914.770	1208
914.870	1629
914.969	1172
915.068	727
915.167	2653
915.267	731
915.366	2131
915.465	1172
915.564	1700
915.663	1362
915.763	1505
915.862	1371
915.961	1294
916.060	1469
916.159	1344
916.258	514
916.357	2214
916.456	1353
916.555	1767
916.654	368
916.752	2698
916.851	1140
916.950	1573
917.049	1639
917.148	1360
917.247	1575
917.345	1764
917.444	2081
917.543	1320
917.642	1413
917.740	1499
917.839	1209
917.937	1357
918.036	1525
918.135	1478
918.233	492
918.332	2379
918.430	1002
918.529	1409
918.627	1519
918.726	1617
918.824	1524
918.923	901
919.021	841
919.119	1711
919.218	1463
919.316	1346
919.414	786
919.512	1957
919.611	1913
919.709	1585
919.807	1493
919.905	1154
920.003	1497
920.102	1428
920.200	738
920.298	2423
920.396	1455
920.494	1826
920.592	1498
920.690	2021
920.788	1568
920.886	1865
920.984	1583
921.082	584
921.180	1814
921.277	1581
921.375	1784
921.473	1157
921.571	783
921.669	1450
921.766	1207
921.864	1959
921.962	1450
922.060	1205
922.157	1462
922.255	1503
922.352	954
922.450	2578
922.548	1783
922.645	1978
922.743	1477
922.840	1154
922.938	1396
923.035	1533
923.133	1890
923.230	1458
923.327	1543
923.425	2042
923.522	1164
923.619	1857
923.717	2224
923.814	1790
923.911	766
924.008	2350
924.106	1296
924.203	2450
924.300	1579
924.397	1863
924.494	1405
924.591	1346
924.688	1028
924.786	1016
924.883	1039
924.979	1613
925.077	1116
925.173	1678
925.270	1162
925.367	1628
925.464	1136
925.561	1302
925.658	1336
925.755	2644
925.852	1360
925.948	1272
926.045	2651
926.142	3402
926.239	2788
926.335	2504
926.432	1645
926.529	2907
926.625	3533
926.722	2991
926.818	1521
926.915	1851
927.011	1877
927.108	1977
927.204	1800
927.301	1743
927.397	1193
927.494	1662
927.590	1706
927.687	1678
927.783	316
927.879	1660
927.976	904
928.072	1616
928.168	1357
928.264	854
928.361	1296
928.457	1973
928.553	1273
928.649	1041
928.745	1631
928.841	1992
928.937	1152
929.033	1068
929.129	2250
929.225	980
929.321	1299
929.417	878
929.513	1536
929.609	1320
929.705	777
929.801	1465
929.897	1414
929.993	1638
930.089	786
930.184	1246
930.280	1931
930.376	2166
930.471	722
930.567	1314
930.663	853
930.758	1293
930.854	526
930.950	861
931.045	917
931.141	1497
931.236	624
931.332	1562
931.427	1185
931.523	1938
931.618	1100
931.714	1543
931.809	1217
931.905	1479
932.000	1020
932.095	1217
932.191	1207
932.286	1550
932.381	1429
932.476	2004
932.572	752
932.667	1479
932.762	1281
932.857	2003
932.952	998
933.047	1120
933.142	1692
933.237	1341
933.332	1241
933.427	1707
933.522	1310
933.617	1332
933.712	474
933.807	1722
933.902	1379
933.997	1599
934.092	1607
934.187	1188
934.282	1314
934.376	670
934.471	1180
934.566	1439
934.661	814
934.755	1748
934.850	1099
934.945	1165
935.039	1153
935.134	1467
935.228	1023
935.323	2155
935.417	1127
935.512	1725
935.606	1095
935.701	1375
935.795	159
935.890	1286
935.984	1171
936.079	889
936.173	897
936.267	1725
936.362	809
936.456	925
936.550	190
936.644	1303
936.738	976
936.833	940
936.927	318
937.021	2135
937.115	1091
937.209	660
937.303	1298
937.397	792
937.491	908
937.585	1186
937.679	1276
937.773	1082
937.867	252
937.961	2071
938.055	532
938.149	1196
938.243	653
938.337	2148
938.430	1232
938.524	1882
938.618	2197
938.712	3020
938.805	1163
938.899	2118
938.993	675
939.086	2473
939.180	2687
939.274	5094
939.367	1935
939.461	1665
939.554	566
939.648	1672
939.741	584
939.835	950
939.928	1432
940.022	1551
940.115	906
940.208	1006
940.302	136
940.395	1810
940.488	240
940.582	703
940.675	457
940.768	966
940.861	1075
940.954	1517
941.048	439
941.141	1020
941.234	1297
941.327	1627
941.420	2060
941.513	1966
941.606	1596
941.699	1553
941.792	245
941.885	1938
941.978	738
942.071	1071
942.164	98
942.257	524
942.349	97
942.442	806
942.535	854
942.628	1761
942.721	1807
942.813	1108
942.906	1130
942.999	1340
943.091	761
943.184	1561
943.277	722
943.369	632
943.462	216
943.554	1413
943.647	17
943.739	263
943.832	703
943.924	772
944.017	445
944.109	574
944.201	666
944.294	810
944.386	940
944.478	1554
944.571	330
944.663	1050
944.755	855
944.847	1308
944.940	497
945.032	301
945.124	177
945.216	1877
945.308	536
945.400	1461
945.492	875
945.584	351
945.676	823
945.768	1595
945.860	1058
945.952	559
946.044	1108
946.136	899
946.228	264
946.320	685
946.412	670
946.503	984
946.595	202
946.687	514
946.779	-167
946.870	820
946.962	775
947.054	224
947.145	1159
947.237	1114
947.329	907
947.420	1676
947.512	314
947.603	835
947.695	154
947.786	464
947.878	469
947.969	948
948.061	-25
948.152	691
948.243	607
948.335	129
948.426	813
948.517	86
948.609	555
948.700	1338
948.791	-183
948.882	562
948.973	441
949.065	175
949.156	727
949.247	747
949.338	-57
949.429	179
949.520	526
949.611	1372
949.702	600
949.793	846
949.884	494
949.975	-180
950.066	-281
950.157	516
950.247	-201
950.338	228
950.429	326
950.520	1345
950.611	714
950.701	1947
950.792	1135
950.883	1253
950.973	763
951.064	994
951.155	75
951.245	1182
951.336	266
951.427	1026
951.517	1273
951.608	463
951.698	185
951.788	828
951.879	-38
951.969	432
952.060	277
952.150	236
952.240	835
952.331	59
952.421	524
952.511	-274
952.602	840
952.692	157
952.782	830
952.872	633
952.962	404
953.052	1431
953.143	878
953.233	791
953.323	460
953.413	37
953.503	-323
953.593	403
953.683	-127
953.773	251
953.863	-185
953.953	619
954.042	681
954.132	456
954.222	1271
954.312	794
954.402	624
954.492	1657
954.581	2153
954.671	2113
954.761	560
954.850	1463
954.940	287
955.030	141
955.119	263
955.209	631
955.298	-465
955.388	59
955.477	138
955.567	893
955.656	844
955.746	1792
955.835	764
955.925	460
956.014	536
956.103	963
956.193	336
956.282	1175
956.371	760
956.461	430
956.550	647
956.639	731
956.728	165
956.817	1158
956.906	374
956.995	833
957.085	-162
957.174	1008
957.263	204
957.352	744
957.441	589
957.530	750
957.619	693
957.708	372
957.796	1343
957.885	858
957.974	1162
958.063	645
958.152	-146
958.241	1427
958.329	933
958.418	982
958.507	650
958.596	2089
958.684	729
958.773	1685
958.861	857
958.950	1468
959.039	1034
959.127	2272
959.216	1907
959.304	1610
959.393	1057
959.481	2302
959.570	895
959.658	2007
959.746	1329
959.835	2049
959.923	2974
960.011	3392
960.100	1048
960.188	2131
960.276	712
960.365	1394
960.453	1235
960.541	1444
960.629	129
960.717	1629
960.805	242
960.893	1243
960.981	117
961.069	1333
961.158	801
961.245	956
961.333	663
961.421	281
961.509	241
961.597	1170
961.685	527
961.773	962
961.861	215
961.949	497
962.036	463
962.124	1207
962.212	-490
962.299	866
962.387	536
962.475	974
962.562	577
962.650	456
962.738	584
962.825	586
962.913	-526
963.000	601
963.088	486
963.175	225
963.263	330
963.350	1164
963.438	167
963.525	501
963.612	2018
963.700	5779
963.787	12769
963.874	11752
963.962	1419
964.049	134
964.136	-805
964.223	847
964.310	729
964.398	480
964.485	301
964.572	546
964.659	904
964.746	3107
964.833	486
964.920	899
965.007	570
965.094	-81
965.181	-225
965.268	1102
965.355	542
965.441	9
965.528	-618
965.615	842
965.702	-252
965.789	328
965.875	-48
965.962	431
966.049	251
966.136	-280
966.222	-543
966.309	415
966.395	-230
966.482	1077
966.569	-864
966.655	18
966.742	-68
966.828	-287
966.915	-601
967.001	439
967.087	226
967.174	330
967.260	247
967.347	1640
967.433	3494
967.519	8138
967.605	6287
967.692	824
967.778	-934
967.864	-519
967.950	-767
968.036	-162
968.123	112
968.209	-242
968.295	-504
968.381	352
968.467	107
968.553	-140
968.639	497
968.725	-489
968.811	821
968.897	2119
968.983	235
969.069	79
969.154	-312
969.240	376
969.326	-462
969.412	-449
969.497	-563
969.583	-2
969.669	-382
969.755	-38
969.840	161
969.926	-64
970.012	-1123
970.097	459
970.183	202
970.268	186
970.354	657
970.439	1878
970.525	4935
970.610	3448
970.696	233
970.781	610
970.866	-1258
970.952	-550
971.037	-591
971.122	-515
971.208	-925
971.293	107
971.378	-959
971.463	546
971.549	-79
971.634	491
971.719	257
971.804	342
971.889	127
971.974	312
972.059	134
972.144	37
972.229	-184
972.314	512
972.399	595
972.484	-733
972.569	-75
972.654	369
972.739	1726
972.824	3883
972.908	1381
972.993	-251
973.078	-401
973.163	-236
973.247	532
973.332	-1107
973.417	-368
973.501	-864
973.586	-39
973.671	-627
973.755	-188
973.840	1003
973.924	-170
974.009	704
974.093	102
974.178	468
974.262	1116
974.346	2363
974.431	1093
974.515	-24
974.600	-69
974.684	-128
974.768	-732
974.852	77
974.937	-850
975.021	9
975.105	-291
975.189	-140
975.273	-622
975.358	-348
975.442	-866
975.526	-181
975.610	-946
975.694	-376
975.778	-121
975.862	-482
975.946	-1051
976.030	622
976.114	-838
976.198	-133
976.281	-505
976.365	-188
976.449	-412
976.533	-477
976.617	-846
976.700	-472
976.784	-668
976.868	-195
976.951	308
977.035	1040
977.119	45
977.202	-919
977.286	124
977.369	-145
977.453	-412
977.536	-152
977.620	-1102
977.703	502
977.787	-1105
977.870	1357
977.953	58
978.037	-606
978.120	-111
978.203	386
978.287	1645
978.370	2040
978.453	-170
978.536	294
978.620	625
978.703	307
978.786	1132
978.869	88
978.952	-1760
979.035	139
979.118	-570
979.201	-528
979.284	-957
979.367	-96
979.450	-851
979.533	370
979.616	-937
979.699	-659
979.782	-660
979.865	-37
979.948	-782
980.030	-518
980.113	-387
980.196	-1283
980.279	-992
980.361	-1199
980.444	-1101
980.526	95
980.609	-900
980.692	-379
980.774	-763
980.857	-251
980.939	-554
981.022	-408
981.104	-1048
981.187	-498
981.269	-1381
981.352	-1079
981.434	-1293
981.516	-214
981.599	-434
981.681	-144
981.763	-1327
981.846	40
981.928	-1218
982.010	-829
982.092	-1400
982.174	-476
982.256	-1034
982.339	-771
982.421	-963
982.503	-238
982.585	-1220
982.667	-445
982.749	-519
982.831	-993
982.913	-1817
982.995	372
983.077	-1221
983.158	67
983.240	-1121
983.322	-767
983.404	-365
983.486	-981
983.568	-685
983.649	-42
983.731	-506
983.813	-1020
983.894	-426
983.976	-1224
984.058	-647
984.139	-329
984.221	-1211
984.302	-496
984.384	-893
984.465	-1262
984.547	-1613
984.628	-1267
984.710	-1782
984.791	-941
984.872	-1640
984.954	-730
985.035	-1189
985.116	-1412
985.198	-788
985.279	-424
985.360	-1044
985.441	-697
985.522	-1573
985.604	-871
985.685	-1508
985.766	124
985.847	-917
985.928	-1521
986.009	-2137
986.090	-1125
986.171	-404
986.252	-481
986.333	-549
986.414	-776
986.495	-768
986.576	-1124
986.656	-1113
986.737	-1478
986.818	-992
986.899	-918
986.980	-1110
987.060	-839
987.141	-1146
987.222	-877
987.302	-1407
987.383	-683
987.464	-1883
987.544	-917
987.625	-1280
987.705	-1221
987.786	-1273
987.866	-1172
987.947	-1445
988.027	-1660
988.108	-1556
988.188	-1636
988.268	-871
988.349	-585
988.429	-1109
988.509	-1248
988.589	-1470
988.670	-2313
988.750	-876
988.830	-1109
988.910	-932
988.990	-601
989.070	-1752
989.151	-381
989.231	-1226
989.311	-240
989.391	-2101
989.471	-642
989.551	-1716
989.631	-654
989.711	-1020
989.791	-781
989.870	-1882
989.950	-943
990.030	-1141
990.110	-1069
990.190	-1963
990.269	-1307
990.349	-1877
990.429	-698
990.509	-1510
990.588	-1549
990.668	-1381
990.747	-701
990.827	-1167
990.907	-871
990.986	-1043
991.066	-684
991.145	-1734
991.225	-788
991.304	-1062
991.383	-677
991.463	-1302
991.542	-743
991.622	-1042
991.701	-1357
991.780	-1194
991.859	-1047
991.939	-1238
992.018	-1648
992.097	-812
992.176	-1277
992.256	-1001
992.335	-2000
992.414	-1591
992.493	-1347
992.572	-412
992.651	-704
992.730	-1582
992.809	-1181
992.888	-1703
992.967	-1481
993.046	-1576
993.125	-1487
993.203	-1574
993.282	-859
993.361	-1383
993.440	-963
993.519	-2349
993.597	-603
993.676	-1571
993.755	-522
993.834	-875
993.912	-1405
993.991	-887
994.069	-1790
994.148	-1590
994.226	-2480
994.305	-1474
994.384	-1701
994.462	-591
994.540	-1739
994.619	-1769
994.697	-1643
994.776	-1357
994.854	-1422
994.932	-1189
995.011	-359
995.089	-1506
995.167	-1159
995.245	-1034
995.324	-1656
995.402	-1860
995.480	-703
995.558	-1618
995.636	-1658
995.714	-1165
995.792	-585
995.870	-1575
995.948	-1295
996.026	-1662
996.104	-1567
996.182	-1447
996.260	-1699
996.338	-1294
996.416	-2124
996.494	-1628
996.572	-727
996.649	-902
996.727	-1982
996.805	-1512
996.883	-1904
996.960	-1477
997.038	-1570
997.116	-851
997.193	-2019
997.271	-1092
997.348	-2442
997.426	-1544
997.504	-881
997.581	-1451
997.658	-2076
997.736	-2653
997.813	-1354
997.891	-1608
997.968	-899
998.046	-2103
998.123	-945
998.200	-1407
998.277	-1929
998.355	-1616
998.432	-2356
998.509	-2159
998.586	-1020
998.663	-2315
998.741	-1542
998.818	-1721
998.895	-1596
998.972	-1800
999.049	-1353
999.126	-1559
999.203	-1257
999.280	-1915
999.357	-916
999.434	-2272
999.511	-1205
999.587	-832
999.664	-1636
999.741	-2111
999.818	-839
999.895	-2054
999.971	-1562
1000.048	-1857
1000.125	-1687
1000.202	-2286
1000.278	-1748
1000.355	-2127
1000.431	-2231
1000.508	-1949
1000.584	-1873
1000.661	-2108
1000.738	-2222
1000.814	-1521
1000.890	-1631
1000.967	-1514
1001.043	-1247
1001.120	-1991
1001.196	-1090
1001.272	-2190
1001.349	-1194
1001.425	-1452
1001.501	-1383
1001.577	-2630
1001.654	-1949
1001.730	-1780
1001.806	-1681
1001.882	-2502
1001.958	-1777
1002.034	-970
1002.110	-1839
1002.186	-2289
1002.262	-1868
1002.338	-1763
1002.414	-1335
1002.490	-2486
1002.566	-1947
1002.642	-2708
1002.718	-878
1002.794	-1758
1002.870	-1098
1002.945	-1827
1003.021	-963
1003.097	-2166
1003.173	-1053
1003.248	-1774
1003.324	-1949
1003.400	-1169
1003.475	-2989
1003.551	-1863
1003.626	-1441
1003.702	-2251
1003.777	-2007
1003.853	-2028
1003.928	-1566
1004.004	-1364
1004.079	-1534
1004.155	-2796
1004.230	-1842
1004.305	-2001
1004.381	-1596
1004.456	-1891
1004.531	-1970
1004.607	-2593
1004.682	-1333
1004.757	-3364
1004.832	-1930
1004.907	-2317
1004.982	-1447
1005.057	-1788
1005.133	-2375
1005.208	-2024
1005.283	-2268
1005.358	-1150
1005.433	-1786
1005.508	-1895
1005.583	-2135
1005.657	-1269
1005.732	-1396
1005.807	-2628
1005.882	-1144
1005.957	-2267
1006.032	-1716
1006.106	-2111
1006.181	-1839
1006.256	-1637
1006.331	-1766
1006.405	-1570
1006.480	-1435
1006.554	-1614
1006.629	-1911
1006.704	-2314
1006.778	-1580
1006.853	-1903
1006.927	-2256
1007.002	-2553
1007.076	-1888
1007.150	-1779
1007.225	-1519
1007.299	-2117
1007.373	-2707
1007.448	-1967
1007.522	-1159
1007.596	-1639
1007.671	-1402
1007.745	-1483
1007.819	-2154
1007.893	-2887
1007.967	-1847
1008.041	-2623
1008.115	-2088
1008.190	-2574
1008.264	-1169
1008.338	-2765
1008.412	-2408
1008.486	-1980
1008.560	-1656
1008.633	-2323
1008.707	-1989
1008.781	-2387
1008.855	-1778
1008.929	-2559
1009.003	-1488
1009.076	-2602
1009.150	-1284
1009.224	-2246
1009.298	-1907
1009.371	-2566
1009.445	-1801
1009.519	-2333
1009.592	-2676
1009.666	-2011
1009.739	-2087
1009.813	-2639
1009.886	-1250
1009.960	-2747
1010.033	-1688
1010.107	-2433
1010.180	-2171
1010.253	-2903
1010.327	-1803
1010.400	-2141
1010.473	-1767
1010.547	-2066
1010.620	-2665
1010.693	-2102
1010.766	-1977
1010.840	-2456
1010.913	-2201
1010.986	-2172
1011.059	-2169
1011.132	-2618
1011.205	-1574
1011.278	-2022
1011.351	-1718
1011.424	-2549
1011.497	-1963
1011.570	-3142
1011.643	-2271
1011.716	-1977
1011.789	-1534
1011.862	-1955
1011.934	-1760
1012.007	-3136
1012.080	-1306
1012.153	-2143
1012.225	-2306
1012.298	-2305
1012.371	-2055
1012.443	-1895
1012.516	-2491
1012.588	-1803
1012.661	-1395
1012.733	-2529
1012.806	-1674
1012.879	-1585
1012.951	-1750
1013.023	-2105
1013.096	-1795
1013.168	-2684
1013.241	-1174
1013.313	-2966
1013.385	-2020
1013.458	-2782
1013.530	-2153
1013.602	-1972
1013.674	-1623
1013.746	-2389
1013.819	-1738
1013.891	-2023
1013.963	-2180
1014.035	-2543
1014.107	-1540
1014.179	-3016
1014.251	-2224
1014.323	-2186
1014.395	-1821
1014.467	-2784
1014.539	-2013
1014.611	-2277
1014.683	-2158
1014.754	-2008
1014.826	-2653
1014.898	-2107
1014.970	-1644
1015.042	-2774
1015.113	-1847
1015.185	-1446
1015.257	-1963
1015.328	-2434
1015.400	-2316
1015.471	-1932
1015.543	-2509
1015.615	-1661
1015.686	-1797
1015.757	-2098
1015.829	-1727
1015.901	-2626
1015.972	-1229
1016.043	-1588
1016.115	-1475
1016.186	-2596
1016.257	-2946
1016.328	-2211
1016.400	-1916
1016.471	-2257
1016.542	-2348
1016.613	-1595
1016.685	-1998
1016.756	-3248
1016.827	-2271
1016.898	-2753
1016.969	-1568
1017.040	-2641
1017.111	-2331
1017.182	-2065
1017.253	-1931
1017.324	-2739
1017.395	-2916
1017.466	-1971
1017.537	-1685
1017.608	-2159
1017.678	-2273
1017.749	-2351
1017.820	-2140
1017.891	-2544
1017.961	-1858
1018.032	-2711
1018.103	-1531
1018.173	-2519
1018.244	-1785
1018.315	-2892
1018.385	-1176
1018.456	-3693
1018.526	-1600
1018.597	-1964
1018.667	-2026
1018.738	-2579
1018.808	-2104
1018.878	-1730
1018.949	-2125
1019.019	-1914
1019.089	-2000
1019.160	-2201
1019.230	-2806
1019.300	-2268
1019.371	-2129
1019.441	-2263
1019.511	-1491
1019.581	-2741
1019.651	-1793
1019.721	-2089
1019.791	-2406
1019.861	-1271
1019.931	-2241
1020.001	-2254
1020.071	-1790
1020.141	-1694
1020.211	-1699
1020.281	-2705
1020.351	-2416
1020.421	-2110
1020.491	-1564
1020.560	-2484
1020.630	-2226
1020.700	-1640
1020.770	-2134
1020.839	-2190
1020.909	-1786
1020.979	-2905
1021.048	-1951
1021.118	-2716
1021.187	-1378
1021.257	-2190
1021.326	-1399
1021.396	-2248
1021.465	-2454
1021.535	-2726
1021.604	-2723
1021.674	-2525
1021.743	-1991
1021.812	-2337
1021.882	-1834
1021.951	-1741
1022.020	-2487
1022.089	-2574
1022.159	-2202
1022.228	-2524
1022.297	-2362
1022.366	-3222
1022.435	-1648
1022.504	-1931
1022.573	-2455
1022.642	-1944
1022.711	-1891
1022.781	-2839
1022.849	-1901
1022.918	-2386
1022.987	-2202
1023.056	-2217
1023.125	-2293
1023.194	-2305
1023.263	-2423
1023.331	-2134
1023.400	-2309
1023.469	-2724
1023.538	-2100
1023.606	-2496
1023.675	-2477
1023.744	-2591
1023.812	-2732
1023.881	-2246
1023.949	-806
1024.018	-2401
1024.086	-2551
1024.155	-2314
1024.223	-2652
1024.292	-2140
1024.360	-2015
1024.429	-3047
1024.497	-2099
1024.565	-2808
1024.634	-2445
1024.702	-1751
1024.770	-2686
1024.838	-2853
1024.907	-2104
1024.975	-1763
1025.043	-1474
1025.111	-2549
1025.179	-2077
1025.247	-2169
1025.315	-2878
1025.383	-2061
1025.451	-1519
1025.519	-1709
1025.587	-1943
1025.655	-2290
1025.723	-2227
1025.791	-3203
1025.859	-2211
1025.927	-2011
1025.995	-2251
1026.062	-2709
1026.130	-2038
1026.198	-2688
1026.266	-1762
1026.333	-2912
1026.401	-1565
1026.469	-2511
1026.536	-2669
1026.604	-2309
1026.671	-1920
1026.739	-2547
1026.806	-1715
1026.874	-2746
1026.941	-1932
1027.009	-1971
1027.076	-2354
1027.144	-2647
1027.211	-2992
1027.278	-2276
1027.345	-1353
1027.413	-2582
1027.480	-2284
1027.547	-1800
1027.614	-2985
1027.682	-2811
1027.749	-2027
1027.816	-2392
1027.883	-2197
1027.950	-2841
1028.017	-1809
1028.084	-2034
1028.151	-2455
1028.218	-2630
1028.285	-1772
1028.352	-2370
1028.419	-2575
1028.486	-2354
1028.553	-2678
1028.619	-2653
1028.686	-1977
1028.753	-2788
1028.820	-3028
1028.886	-3100
1028.953	-2736
1029.020	-2137
1029.086	-2781
1029.153	-2423
1029.220	-2159
1029.286	-2377
1029.353	-2288
1029.419	-2266
1029.486	-2743
1029.552	-3083
1029.619	-1634
1029.685	-2479
1029.751	-1778
1029.818	-1853
1029.884	-2175
1029.951	-1620
1030.017	-2954
1030.083	-2418
1030.149	-2241
1030.216	-3266
1030.282	-1085
1030.348	-3219
1030.414	-2884
1030.480	-2677
1030.546	-2875
1030.612	-2911
1030.678	-2652
1030.744	-2758
1030.810	-2195
1030.876	-2773
1030.942	-1516
1031.008	-2797
1031.074	-3388
1031.140	-2364
1031.206	-2049
1031.272	-3149
1031.337	-2126
1031.403	-3022
1031.469	-2411
1031.534	-3031
1031.600	-1987
1031.666	-1976
1031.731	-2469
1031.797	-2778
1031.863	-1988
1031.928	-2770
1031.994	-2212
1032.059	-2411
1032.125	-3011
1032.190	-3093
1032.256	-2218
1032.321	-3093
1032.386	-2230
1032.452	-2504
1032.517	-2617
1032.582	-2720
1032.647	-2138
1032.713	-2607
1032.778	-2824
1032.843	-3179
1032.908	-1944
1032.974	-2765
1033.039	-3361
1033.104	-2247
1033.169	-2290
1033.234	-3163
1033.299	-1940
1033.364	-2903
1033.429	-2146
1033.494	-2845
1033.559	-2015
1033.624	-3111
1033.688	-2737
1033.753	-2612
1033.818	-2917
1033.883	-2868
1033.948	-2858
1034.013	-2694
1034.077	-2208
1034.142	-2854
1034.207	-2366
1034.271	-2351
1034.336	-2577
1034.400	-2827
1034.465	-2092
1034.530	-2577
1034.594	-2081
1034.658	-2798
1034.723	-2453
1034.787	-2523
1034.852	-2817
1034.916	-2583
1034.981	-2252
1035.045	-2535
1035.109	-3042
1035.173	-2399
1035.238	-2308
1035.302	-2609
1035.366	-2634
1035.430	-3407
1035.495	-2682
1035.559	-2058
1035.623	-1574
1035.687	-2965
1035.751	-2365
1035.815	-2251
1035.879	-2509
1035.943	-1450
1036.007	-2868
1036.071	-2676
1036.135	-2450
1036.198	-3000
1036.262	-3203
1036.326	-2512
1036.390	-2707
1036.454	-2678
1036.517	-2701
1036.581	-2715
1036.645	-1907
1036.709	-2443
1036.772	-2307
1036.836	-2583
1036.900	-3059
1036.963	-3614
1037.026	-3017
1037.090	-3227
1037.154	-2231
1037.217	-2559
1037.280	-2234
1037.344	-3255
1037.407	-3213
1037.471	-1997
1037.534	-2378
1037.597	-2116
1037.661	-2573
1037.724	-3594
1037.787	-2539
1037.850	-2915
1037.913	-2961
1037.977	-2808
1038.040	-2793
1038.103	-2104
1038.166	-3280
1038.229	-2228
1038.292	-1918
1038.355	-2911
1038.418	-2208
1038.481	-2830
1038.544	-2723
1038.607	-3152
1038.670	-1795
1038.732	-3044
1038.795	-2332
1038.858	-2677
1038.921	-2659
1038.984	-2227
1039.046	-3538
1039.109	-2188
1039.172	-2535
1039.234	-3952
1039.297	-2503
1039.360	-2713
1039.422	-3008
1039.485	-3387
1039.547	-3366
1039.610	-3235
1039.672	-2430
1039.734	-3179
1039.797	-2330
1039.859	-3034
1039.922	-2674
1039.984	-2728
1040.046	-2543
1040.109	-3037
1040.171	-3014
1040.233	-2774
1040.295	-3247
1040.358	-3361
1040.420	-3015
1040.482	-3521
1040.544	-2194
1040.606	-2932
1040.668	-3221
1040.730	-2784
1040.792	-2848
1040.854	-3030
1040.916	-2443
1040.978	-2971
1041.040	-2551
1041.102	-3161
1041.164	-2115
1041.225	-3470
1041.287	-3335
1041.349	-3324
1041.411	-3157
1041.472	-2953
1041.534	-2304
1041.596	-2797
1041.657	-2468
1041.719	-2993
1041.781	-2559
1041.842	-3106
1041.904	-2635
1041.965	-2631
1042.027	-1316
1042.088	-3134
1042.150	-2788
1042.211	-2885
1042.272	-1785
1042.334	-2793
1042.395	-2663
1042.456	-2756
1042.518	-2774
1042.579	-3133
1042.640	-2058
1042.701	-3621
1042.763	-2627
1042.824	-2928
1042.885	-2636
1042.946	-2880
1043.007	-2879
1043.068	-3243
1043.129	-2980
1043.190	-3126
1043.251	-2566
1043.312	-3364
1043.373	-3194
1043.434	-3393
1043.495	-2887
1043.556	-3307
1043.616	-2483
1043.677	-3311
1043.738	-2474
1043.799	-2993
1043.859	-2175
1043.920	-3036
1043.981	-2076
1044.041	-3173
1044.102	-2222
1044.162	-2412
1044.223	-3153
1044.284	-3151
1044.344	-1937
1044.405	-2711
1044.465	-1846
1044.525	-2825
1044.586	-1987
1044.646	-2360
1044.707	-1786
1044.767	-2593
1044.827	-2629
1044.887	-2729
1044.948	-1896
1045.008	-2502
1045.068	-2853
1045.128	-2538
1045.188	-1974
1045.249	-2860
1045.309	-2467
1045.369	-3178
1045.429	-2466
1045.489	-3284
1045.549	-2420
1045.609	-2759
1045.669	-2391
1045.729	-2720
1045.789	-3305
1045.848	-2392
1045.908	-2090
1045.968	-3128
1046.028	-2121
1046.088	-2232
1046.147	-2019
1046.207	-2387
1046.267	-2223
1046.326	-2567
1046.386	-2044
1046.446	-2554
1046.505	-1714
1046.565	-1893
1046.624	-1481
1046.684	-2376
1046.743	-1150
1046.803	-1339
1046.862	-1212
1046.922	0
