'Start Wavelength	183.907
'End Wavelength	1046.922
'Gate Delay	5.000
'Gate Width (ms)	1.050
'Laser Output Level	0.000
'X Position	0.000
'Y Position	0.000
'Z Position	0.000
'Grid Point Number	1.000
'Shot Number	100.000
183.907	663.000
183.977	-258.000
184.047	29
184.116	38
184.186	69
184.256	45
184.325	-180
184.395	59
184.465	926
184.534	239
184.604	387
184.674	517
184.743	499
184.813	583
184.883	417
184.952	1167
185.022	445
185.092	441
185.161	-13
185.231	461
185.301	269
185.370	704
185.440	298
185.509	-180
185.579	333
185.649	182
185.718	748
185.788	267
185.857	-79
185.927	-411
185.996	48
186.066	102
186.136	27
186.205	942
186.275	675
186.344	793
186.414	647
186.483	-127
186.553	2133
186.622	1517
186.692	1267
186.761	-363
186.831	243
186.900	-140
186.970	12
187.039	774
187.109	2132
187.178	827
187.248	673
187.317	633
187.387	694
187.456	836
187.526	1198
187.595	588
187.664	1531
187.734	721
187.803	366
187.873	837
187.942	1098
188.012	739
188.081	269
188.150	1043
188.220	1701
188.289	1839
188.358	1031
188.428	1494
188.497	-202
188.567	1238
188.636	815
188.705	530
188.775	2
188.844	8
188.913	2050
188.983	668
189.052	94
189.121	343
189.191	1258
189.260	1062
189.329	1165
189.399	995
189.468	804
189.537	882
189.606	727
189.676	774
189.745	1223
189.814	1439
189.883	505
189.953	530
190.022	746
190.091	3770
190.161	5238
190.230	2059
190.299	587
190.368	952
190.437	1213
190.507	783
190.576	1069
190.645	408
190.714	231
190.783	733
190.853	1667
190.922	568
190.991	1209
191.060	1632
191.129	153
191.198	1485
191.268	598
191.337	719
191.406	1682
191.475	598
191.544	1108
191.613	686
191.682	979
191.752	512
191.821	792
191.890	1281
191.959	855
192.028	865
192.097	738
192.166	994
192.235	879
192.304	737
192.373	696
192.442	104
192.511	1041
192.580	986
192.650	94
192.719	1259
192.788	1043
192.857	899
192.926	690
192.995	1725
193.064	1346
193.133	1595
193.202	2838
193.271	2211
193.340	1695
193.409	2469
193.478	2480
193.547	2728
193.615	3136
193.684	3672
193.753	3111
193.822	1720
193.891	729
193.960	1988
194.029	1773
194.098	2255
194.167	449
194.236	929
194.305	1000
194.374	1704
194.443	1338
194.512	1113
194.580	924
194.649	2002
194.718	2232
194.787	1356
194.856	607
194.925	1236
194.994	1296
195.062	2646
195.131	1606
195.200	2491
195.269	2404
195.338	2023
195.407	1310
195.475	1512
195.544	1800
195.613	2223
195.682	1828
195.751	2297
195.819	3020
195.888	1828
195.957	2314
196.026	2582
196.094	2901
196.163	2639
196.232	2580
196.301	1827
196.369	2834
196.438	2237
196.507	1583
196.576	1392
196.644	1491
196.713	1834
196.782	837
196.850	1146
196.919	1484
196.988	1613
197.056	1676
197.125	1508
197.194	1115
197.262	1348
197.331	614
197.400	1271
197.468	2014
197.537	1793
197.606	1648
197.674	2978
197.743	5611
197.812	2459
197.880	5266
197.949	3082
198.017	3817
198.086	3215
198.155	2573
198.223	2422
198.292	5376
198.360	2282
198.429	2297
198.497	2355
198.566	2963
198.635	6201
198.703	1905
198.772	2327
198.840	5905
198.909	6995
198.977	2453
199.046	2464
199.114	1284
199.183	1599
199.251	1769
199.320	1234
199.388	1557
199.457	1414
199.525	895
199.594	848
199.662	1146
199.731	1654
199.799	1302
199.867	1702
199.936	1346
200.004	1438
200.073	1482
200.141	1541
200.210	1437
200.278	1431
200.346	1631
200.415	1659
200.483	3069
200.552	2424
200.620	816
200.688	1633
200.757	1706
200.825	1157
200.893	1757
200.962	1358
201.030	818
201.098	1252
201.167	2465
201.235	1460
201.303	1569
201.372	2631
201.440	1749
201.508	2185
201.577	1503
201.645	2748
201.713	1610
201.781	768
201.850	3001
201.918	1977
201.986	1809
202.055	1560
202.123	2376
202.191	903
202.259	2303
202.327	1308
202.396	1407
202.464	1625
202.532	2472
202.600	11340
202.669	6102
202.737	1879
202.805	1366
202.873	1847
202.941	2622
203.009	1949
203.078	1663
203.146	1872
203.214	1108
203.282	1444
203.350	1934
203.418	1670
203.487	1876
203.555	1270
203.623	990
203.691	1879
203.759	1572
203.827	1263
203.895	1671
203.963	2373
204.031	1475
204.099	1766
204.168	1540
204.236	2610
204.304	2227
204.372	2296
204.440	2194
204.508	1774
204.576	1953
204.644	1853
204.712	1036
204.780	1992
204.848	1965
204.916	1465
204.984	1749
205.052	1877
205.120	1487
205.188	1222
205.256	2209
205.324	2216
205.392	733
205.460	1962
205.528	1659
205.596	2708
205.664	1528
205.732	1488
205.799	7298
205.867	9909
205.935	2701
206.003	2708
206.071	1468
206.139	1502
206.207	2129
206.275	1768
206.343	1861
206.411	1910
206.478	1626
206.546	2735
206.614	2271
206.682	2450
206.750	1973
206.818	3022
206.885	3474
206.953	816
207.021	2382
207.089	2550
207.157	1519
207.225	2038
207.292	1599
207.360	1664
207.428	2496
207.496	1701
207.563	2510
207.631	2322
207.699	2276
207.767	3027
207.834	1004
207.902	2016
207.970	1397
208.038	2013
208.105	1904
208.173	2935
208.241	3367
208.309	3358
208.376	3181
208.444	6816
208.512	3117
208.579	2307
208.647	2962
208.715	3251
208.782	1940
208.850	1874
208.918	1537
208.985	2987
209.053	3061
209.120	2925
209.188	1816
209.256	2760
209.323	2499
209.391	4477
209.459	3545
209.526	2746
209.594	1335
209.661	2195
209.729	2139
209.796	2733
209.864	2575
209.932	2130
209.999	3156
210.067	3343
210.134	3857
210.202	3627
210.269	4838
210.337	4599
210.404	2929
210.472	2494
210.539	2860
210.607	3677
210.674	4272
210.742	3012
210.809	2459
210.877	3230
210.944	4054
211.012	3316
211.079	4231
211.146	3205
211.214	3114
211.281	3695
211.349	3967
211.416	3224
211.484	4222
211.551	3267
211.618	2602
211.686	3590
211.753	2328
211.821	4035
211.888	2805
211.955	3729
212.023	2606
212.090	3709
212.157	3563
212.225	3285
212.292	6425
212.359	11299
212.427	32491
212.494	15698
212.561	5014
212.629	4562
212.696	4049
212.763	4795
212.831	3129
212.898	4021
212.965	2614
213.032	3611
213.100	3775
213.167	4053
213.234	5338
213.301	3536
213.369	3092
213.436	3584
213.503	3386
213.570	3059
213.638	3317
213.705	2796
213.772	2193
213.839	5399
213.906	6517
213.973	4738
214.041	3280
214.108	4120
214.175	3782
214.242	3154
214.309	3890
214.376	2953
214.444	3874
214.511	4237
214.578	3189
214.645	3778
214.712	4426
214.779	4330
214.846	4016
214.913	4311
214.980	4485
215.048	5884
215.115	5678
215.182	5539
215.249	4319
215.316	3903
215.383	4022
215.450	3746
215.517	3964
215.584	3020
215.651	2611
215.718	4045
215.785	4961
215.852	4142
215.919	5375
215.986	5444
216.053	3855
216.120	2257
216.187	4072
216.254	4678
216.321	3787
216.388	5406
216.455	4306
216.522	3615
216.589	6456
216.656	10341
216.722	11054
216.789	5850
216.856	6168
216.923	4130
216.990	4664
217.057	5219
217.124	6162
217.191	5308
217.258	6906
217.324	8224
217.391	7961
217.458	5542
217.525	5008
217.592	3957
217.659	4025
217.725	5660
217.792	8953
217.859	7821
217.926	4227
217.993	3003
218.059	3773
218.126	3816
218.193	2914
218.260	3305
218.327	2506
218.393	3473
218.460	3399
218.527	3004
218.594	4387
218.660	9321
218.727	10140
218.794	4203
218.860	4296
218.927	2443
218.994	3181
219.061	3047
219.127	4476
219.194	8551
219.261	4367
219.327	2685
219.394	2762
219.461	2671
219.527	3303
219.594	6624
219.661	5086
219.727	2431
219.794	3615
219.860	2536
219.927	3853
219.994	6309
220.060	14085
220.127	8569
220.193	4757
220.260	2955
220.326	7102
220.393	9294
220.460	11971
220.526	8238
220.593	5310
220.659	6217
220.726	7421
220.792	16424
220.859	13840
220.925	14089
220.992	19989
221.058	21025
221.125	22584
221.191	17997
221.258	8086
221.324	4817
221.391	5553
221.457	4419
221.524	4632
221.590	6105
221.657	19953
221.723	15089
221.789	13248
221.856	13074
221.922	6221
221.989	5067
222.055	3659
222.121	3547
222.188	6136
222.254	4863
222.321	3638
222.387	3041
222.453	3362
222.520	2704
222.586	2610
222.652	3835
222.719	2760
222.785	3880
222.851	3103
222.918	3470
222.984	2502
223.050	2993
223.116	2525
223.183	3954
223.249	2572
223.315	2400
223.382	2235
223.448	1840
223.514	2124
223.580	1757
223.647	1804
223.713	1933
223.779	2476
223.845	2942
223.911	3026
223.978	1853
224.044	4058
224.110	2914
224.176	3285
224.242	1665
224.309	2397
224.375	1775
224.441	2297
224.507	2121
224.573	2114
224.639	3583
224.705	2292
224.772	2368
224.838	2166
224.904	3931
224.970	2813
225.036	3281
225.102	3253
225.168	4464
225.234	3602
225.300	3045
225.366	3714
225.432	3050
225.499	3031
225.565	3005
225.631	3719
225.697	3472
225.763	4878
225.829	4399
225.895	5279
225.961	9591
226.027	7346
226.093	5759
226.159	6940
226.225	9255
226.291	18822
226.357	33948
226.423	17602
226.489	11724
226.554	7057
226.620	6914
226.686	8456
226.752	13691
226.818	16649
226.884	44719
226.950	42845
227.016	15072
227.082	10436
227.148	8188
227.214	8520
227.279	6795
227.345	4904
227.411	5954
227.477	6822
227.543	15389
227.609	17340
227.674	8812
227.740	5514
227.806	4951
227.872	4328
227.938	5349
228.003	7526
228.069	4551
228.135	4059
228.201	3383
228.267	3732
228.332	4852
228.398	7371
228.464	6262
228.530	2800
228.595	3338
228.661	3127
228.727	8090
228.792	7099
228.858	4203
228.924	3430
228.990	5918
229.055	4187
229.121	6543
229.187	4898
229.252	5242
229.318	3937
229.384	4810
229.449	6628
229.515	2292
229.581	1871
229.646	5030
229.712	5100
229.777	12558
229.843	14615
229.909	10069
229.974	9427
230.040	8700
230.105	7056
230.171	6761
230.236	7804
230.302	11433
230.368	11237
230.433	5178
230.499	6137
230.564	6682
230.630	4277
230.695	4010
230.761	4537
230.826	2777
230.892	8143
230.957	5382
231.023	4200
231.088	3991
231.154	4175
231.219	4710
231.284	7102
231.350	8858
231.415	3580
231.481	3388
231.546	3182
231.612	3235
231.677	2841
231.742	2164
231.808	5263
231.873	3399
231.939	2495
232.004	8620
232.069	9008
232.135	4038
232.200	4076
232.265	4397
232.331	2986
232.396	3090
232.461	2268
232.527	3113
232.592	2902
232.657	4395
232.723	6750
232.788	5950
232.853	4629
232.918	4253
232.984	3157
233.049	4418
233.114	5422
233.179	6293
233.245	9781
233.310	12215
233.375	3994
233.440	4288
233.506	4214
233.571	4332
233.636	3519
233.701	3468
233.766	7449
233.832	10559
233.897	5470
233.962	4418
234.027	6821
234.092	5786
234.157	4234
234.222	4787
234.288	7089
234.353	22338
234.418	20434
234.483	12656
234.548	8712
234.613	7217
234.678	6306
234.743	7280
234.808	23534
234.873	16860
234.938	8676
235.004	6111
235.069	5876
235.134	5857
235.199	5600
235.264	4851
235.329	3225
235.394	4800
235.459	7121
235.524	5853
235.589	6155
235.654	3297
235.719	3390
235.784	5487
235.849	5010
235.913	12734
235.978	14377
236.043	16706
236.108	6733
236.173	5779
236.238	7156
236.303	5423
236.368	4779
236.433	8540
236.498	15539
236.563	9476
236.627	15360
236.692	58640
236.757	49195
236.822	18703
236.887	15451
236.952	11945
237.017	9272
237.081	10561
237.146	11668
237.211	21795
237.276	54878
237.341	110393
237.405	50607
237.470	20321
237.535	15070
237.600	10247
237.664	7387
237.729	6685
237.794	7733
237.859	15471
237.923	12325
237.988	8284
238.053	11455
238.118	12070
238.182	28082
238.247	28926
238.312	13888
238.376	10677
238.441	7724
238.506	7985
238.570	4710
238.635	6134
238.700	4994
238.764	4814
238.829	13495
238.893	18770
238.958	9552
239.023	9471
239.087	5591
239.152	7244
239.216	4545
239.281	5485
239.346	5341
239.410	4560
239.475	6371
239.539	26274
239.604	23805
239.668	7870
239.733	6031
239.797	9142
239.862	22327
239.926	27976
239.991	12476
240.055	7211
240.120	5558
240.184	5197
240.249	5054
240.313	5395
240.378	4913
240.442	16701
240.507	29566
240.571	10117
240.635	13287
240.700	18649
240.764	7028
240.829	5224
240.893	3941
240.957	5006
241.022	14964
241.086	29516
241.151	15136
241.215	5612
241.279	8078
241.344	15178
241.408	8925
241.472	6233
241.537	7283
241.601	6480
241.665	5156
241.730	5572
241.794	6609
241.858	5498
241.922	6886
241.987	5853
242.051	5223
242.115	4108
242.179	5560
242.244	3772
242.308	6491
242.372	5923
242.436	6197
242.501	6074
242.565	5103
242.629	4677
242.693	6165
242.757	3423
242.822	5150
242.886	6030
242.950	6330
243.014	6242
243.078	6990
243.142	6802
243.206	5796
243.271	6983
243.335	5777
243.399	9099
243.463	31936
243.527	99259
243.591	33094
243.655	14204
243.719	8262
243.783	9396
243.847	13618
243.911	17502
243.975	22171
244.040	16731
244.104	8466
244.168	6187
244.232	10742
244.296	15752
244.360	16236
244.424	9775
244.488	8665
244.552	7777
244.615	5143
244.679	5382
244.743	8160
244.807	10072
244.871	5594
244.935	5761
244.999	4940
245.063	5997
245.127	7770
245.191	10583
245.255	11139
245.319	9647
245.383	8986
245.446	7346
245.510	5713
245.574	7349
245.638	7884
245.702	7105
245.766	20736
245.829	12834
245.893	8088
245.957	7024
246.021	8531
246.085	8728
246.149	10480
246.212	25636
246.276	47473
246.340	20036
246.404	12415
246.467	12542
246.531	20464
246.595	13072
246.659	10023
246.722	10230
246.786	12692
246.850	13440
246.913	18745
246.977	8410
247.041	7589
247.104	9441
247.168	9398
247.232	25511
247.295	61324
247.359	31051
247.423	12952
247.486	23155
247.550	15059
247.614	10428
247.677	14980
247.741	10621
247.804	8714
247.868	9520
247.932	23191
247.995	56710
248.059	21578
248.122	10261
248.186	12651
248.249	19328
248.313	87422
248.376	98985
248.440	63696
248.503	22473
248.567	17793
248.630	23179
248.694	32026
248.757	39842
248.821	98986
248.884	55866
248.948	45951
249.011	72401
249.075	112946
249.138	100767
249.202	35585
249.265	22349
249.328	24637
249.392	17869
249.455	15541
249.519	12807
249.582	14750
249.645	25665
249.709	19078
249.772	11493
249.835	11975
249.899	13198
249.962	13037
250.025	11866
250.089	33070
250.152	48862
250.215	22010
250.279	15817
250.342	15160
250.405	14330
250.468	12743
250.532	16209
250.595	25121
250.658	86184
250.721	159133
250.785	55943
250.848	29941
250.911	19091
250.974	17004
251.038	24241
251.101	58578
251.164	27838
251.227	25247
251.290	22721
251.354	29711
251.417	122842
251.480	134269
251.543	77922
251.606	233723
251.669	184880
251.732	64719
251.795	72361
251.859	73757
251.922	149102
251.985	92694
252.048	33040
252.111	25475
252.174	23659
252.237	43604
252.300	114483
252.363	100308
252.426	208181
252.489	92380
252.552	42251
252.615	29407
252.678	30752
252.741	79194
252.804	93982
252.867	201087
252.930	132020
252.993	72778
253.056	40932
253.119	28542
253.182	21511
253.245	33610
253.308	26774
253.371	26514
253.434	24130
253.497	22494
253.559	51128
253.622	36439
253.685	36989
253.748	41636
253.811	20166
253.874	23060
253.937	23200
254.000	17739
254.062	32175
254.125	59556
254.188	40750
254.251	39502
254.314	18951
254.376	31293
254.439	38050
254.502	30151
254.565	34552
254.628	65631
254.690	36645
254.753	20964
254.816	16583
254.878	18607
254.941	37743
255.004	45194
255.067	16078
255.129	17053
255.192	10808
255.255	9134
255.317	12027
255.380	9112
255.443	6510
255.505	7473
255.568	7888
255.631	7848
255.693	8308
255.756	6338
255.819	7809
255.881	6627
255.944	6866
256.006	5674
256.069	5979
256.132	6433
256.194	8587
256.257	25847
256.319	19182
256.382	18654
256.444	10814
256.507	9139
256.569	7797
256.632	8365
256.694	13351
256.757	27985
256.819	88665
256.882	35247
256.944	15829
257.007	13601
257.069	15178
257.132	9783
257.194	8180
257.257	8060
257.319	7953
257.381	8586
257.444	21023
257.506	101442
257.569	116454
257.631	56547
257.693	35740
257.756	16922
257.818	16524
257.880	9976
257.943	9690
258.005	7662
258.067	8409
258.130	8127
258.192	10617
258.254	22571
258.317	13473
258.379	10003
258.441	27778
258.503	29499
258.566	29536
258.628	43749
258.690	12163
258.753	11073
258.815	21254
258.877	11508
258.939	8187
259.001	7963
259.064	7461
259.126	9373
259.188	14496
259.250	9929
259.312	11543
259.375	25799
259.437	20376
259.499	9076
259.561	7846
259.623	8493
259.685	8253
259.747	9161
259.809	26368
259.872	55543
259.934	73980
259.996	73386
260.058	21327
260.120	10854
260.182	9152
260.244	7736
260.306	6441
260.368	7268
260.430	6976
260.492	13277
260.554	25522
260.616	22111
260.678	41177
260.740	64362
260.802	17226
260.864	13318
260.926	10380
260.988	10224
261.050	9040
261.112	18662
261.174	51700
261.236	47413
261.298	15156
261.359	24009
261.421	38473
261.483	12501
261.545	10909
261.607	7188
261.669	6904
261.731	15117
261.793	41823
261.854	19971
261.916	12041
261.978	9230
262.040	10975
262.102	8803
262.164	15838
262.225	14250
262.287	8759
262.349	22643
262.411	21119
262.472	9827
262.534	16257
262.596	38996
262.658	13571
262.719	7592
262.781	11393
262.843	34858
262.904	17025
262.966	11324
263.028	13338
263.090	54435
263.151	158088
263.213	52288
263.275	27269
263.336	13692
263.398	9961
263.459	7485
263.521	8689
263.583	22430
263.644	16643
263.706	7126
263.767	5552
263.829	5365
263.891	5195
263.952	4240
264.014	4721
264.075	7514
264.137	17692
264.198	11778
264.260	5898
264.321	5626
264.383	14567
264.444	33233
264.506	11009
264.567	8299
264.629	11391
264.690	23561
264.752	11750
264.813	7647
264.875	5720
264.936	7006
264.998	5405
265.059	4064
265.120	5151
265.182	9071
265.243	38000
265.305	41335
265.366	12299
265.427	7690
265.489	6989
265.550	4672
265.611	6601
265.673	6715
265.734	5380
265.795	4938
265.857	3976
265.918	4479
265.979	11213
266.040	65527
266.102	60800
266.163	17047
266.224	15018
266.286	9531
266.347	6305
266.408	7379
266.469	7450
266.530	6309
266.592	5375
266.653	12759
266.714	25403
266.775	8993
266.836	5997
266.898	5544
266.959	7924
267.020	7293
267.081	6839
267.142	4748
267.203	4984
267.264	4372
267.326	6530
267.387	5764
267.448	4668
267.509	4945
267.570	5040
267.631	4210
267.692	4095
267.753	5694
267.814	4700
267.875	12473
267.936	32645
267.997	13440
268.058	11131
268.119	7661
268.180	7335
268.241	6810
268.302	4842
268.363	5447
268.424	6292
268.485	6547
268.546	5044
268.607	3266
268.668	4791
268.729	4279
268.790	5341
268.851	6088
268.912	17331
268.972	23267
269.033	11529
269.094	6061
269.155	4929
269.216	5151
269.277	5836
269.338	4837
269.398	5349
269.459	7257
269.520	9478
269.581	12830
269.642	15976
269.702	10157
269.763	7591
269.824	6496
269.885	9200
269.945	14823
270.006	7173
270.067	4058
270.128	4976
270.188	5458
270.249	5029
270.310	4685
270.370	5692
270.431	5773
270.492	4175
270.553	6547
270.613	13790
270.674	30205
270.734	14539
270.795	7338
270.856	10718
270.916	9322
270.977	6264
271.038	7856
271.098	8092
271.159	12885
271.219	14618
271.280	6847
271.340	6512
271.401	7737
271.462	20552
271.522	12320
271.583	8602
271.643	8332
271.704	7459
271.764	9703
271.825	22119
271.885	75340
271.946	121116
272.006	35881
272.066	46999
272.127	95653
272.187	29292
272.248	15382
272.308	16629
272.369	62305
272.429	38101
272.489	22294
272.550	23219
272.610	22344
272.671	18510
272.731	15474
272.791	27190
272.852	16215
272.912	13144
272.972	9377
273.033	7844
273.093	14036
273.153	13726
273.214	10670
273.274	11136
273.334	36301
273.394	86726
273.455	34290
273.515	28722
273.575	71560
273.635	29957
273.696	37882
273.756	89976
273.816	36134
273.876	19805
273.936	33228
273.997	62725
274.057	18374
274.117	13913
274.177	20820
274.237	96009
274.297	92772
274.358	55502
274.418	67237
274.478	52026
274.538	20571
274.598	16743
274.658	48746
274.718	65905
274.778	27551
274.838	14640
274.898	27461
274.958	89980
275.018	89175
275.078	60639
275.138	22702
275.198	13072
275.258	10649
275.318	12852
275.378	21934
275.438	24452
275.498	16348
275.558	37024
275.618	87126
275.678	63137
275.738	32553
275.798	23897
275.858	13114
275.918	9383
275.978	10821
276.038	10971
276.098	8821
276.157	17149
276.217	52581
276.277	24926
276.337	17596
276.397	10041
276.457	12919
276.517	9122
276.576	7563
276.636	7159
276.696	12591
276.756	28726
276.815	24707
276.875	12009
276.935	12035
276.995	12046
277.055	7846
277.114	9356
277.174	13180
277.234	44953
277.293	20283
277.353	11676
277.413	8797
277.472	10331
277.532	10961
277.592	12092
277.651	36734
277.711	79061
277.771	28218
277.830	83653
277.890	75087
277.950	46743
278.009	149432
278.069	59486
278.128	50161
278.188	78613
278.248	32740
278.307	78922
278.367	55080
278.426	18082
278.486	13375
278.545	9802
278.605	9562
278.664	9499
278.724	11547
278.783	29023
278.843	87920
278.902	28276
278.962	14872
279.021	15669
279.081	19237
279.140	20026
279.199	14849
279.259	15002
279.318	15818
279.378	19504
279.437	35161
279.496	127814
279.556	327291
279.615	293720
279.675	80814
279.734	46367
279.793	61892
279.853	106241
279.912	40855
279.971	22451
280.031	20600
280.090	36484
280.149	71710
280.208	52418
280.268	204942
280.327	249612
280.386	62740
280.445	44355
280.505	43097
280.564	21176
280.623	17113
280.682	24542
280.742	40092
280.801	15159
280.860	10712
280.919	9740
280.978	8667
281.037	8387
281.097	8057
281.156	8326
281.215	8939
281.274	11918
281.333	49316
281.392	44768
281.451	12012
281.510	9049
281.569	8549
281.628	7659
281.688	7239
281.747	9066
281.806	8110
281.865	6137
281.924	6381
281.983	7332
282.042	5231
282.101	5331
282.160	6001
282.219	5713
282.278	7425
282.337	26886
282.396	20666
282.454	8466
282.513	11513
282.572	39336
282.631	24963
282.690	9008
282.749	7887
282.808	9340
282.867	8200
282.926	10004
282.985	6685
283.043	5344
283.102	7002
283.161	8801
283.220	18666
283.279	50829
283.338	17387
283.396	9927
283.455	9248
283.514	9799
283.573	14575
283.631	11116
283.690	9172
283.749	8422
283.808	17498
283.866	22411
283.925	9612
283.984	9024
284.043	11964
284.101	12876
284.160	8319
284.219	10606
284.277	10720
284.336	17115
284.395	53765
284.453	51161
284.512	18569
284.570	22282
284.629	19843
284.688	18426
284.746	19620
284.805	21537
284.863	28431
284.922	35275
284.981	39894
285.039	56848
285.098	101703
285.156	250992
285.215	585721
285.273	596483
285.332	299176
285.390	148821
285.449	93480
285.507	63247
285.566	45605
285.624	33463
285.683	25788
285.741	20986
285.799	17379
285.858	17258
285.916	15155
285.975	11744
286.033	10877
286.091	10151
286.150	9272
286.208	9800
286.267	10784
286.325	11174
286.383	17129
286.442	14703
286.500	8128
286.558	8087
286.616	8121
286.675	11237
286.733	10584
286.791	8632
286.850	10753
286.908	12624
286.966	22726
287.024	10058
287.083	7713
287.141	7483
287.199	7328
287.257	11728
287.315	9114
287.374	10033
287.432	23145
287.490	17608
287.548	10230
287.606	8251
287.664	7900
287.723	10416
287.781	13943
287.839	8521
287.897	9945
287.955	12064
288.013	18368
288.071	42240
288.129	154365
288.187	473919
288.245	216837
288.303	64472
288.361	37798
288.419	29202
288.477	20571
288.535	14858
288.593	11340
288.651	9394
288.709	7060
288.767	6447
288.825	7354
288.883	5931
288.941	6255
288.999	6085
289.057	5821
289.115	4878
289.173	5750
289.231	7014
289.289	7660
289.346	6488
289.404	7682
289.462	12904
289.520	12398
289.578	6938
289.636	4378
289.694	4890
289.751	3778
289.809	4443
289.867	5445
289.925	6830
289.983	9045
290.040	4780
290.098	4561
290.156	5968
290.214	7327
290.271	5054
290.329	4491
290.387	3916
290.444	4368
290.502	3358
290.560	3857
290.617	5011
290.675	4507
290.733	4173
290.790	5569
290.848	4677
290.906	6473
290.963	6133
291.021	5419
291.078	5512
291.136	6358
291.194	17077
291.251	43553
291.309	14432
291.366	5900
291.424	5704
291.481	5620
291.539	5984
291.596	5750
291.654	3856
291.711	3397
291.769	5050
291.826	13620
291.884	8848
291.941	5198
291.999	5133
292.056	6459
292.114	6585
292.171	4291
292.228	5797
292.286	6981
292.343	13076
292.401	16780
292.458	11589
292.515	7912
292.573	8719
292.630	8612
292.687	8320
292.745	7065
292.802	8383
292.859	19685
292.917	47677
292.974	30996
293.031	10183
293.089	6033
293.146	6520
293.203	6157
293.260	4598
293.318	7104
293.375	8610
293.432	5569
293.489	5747
293.546	5885
293.604	10354
293.661	32408
293.718	92637
293.775	42901
293.832	18694
293.889	14342
293.947	15449
294.004	10413
294.061	9934
294.118	20370
294.175	41949
294.232	40504
294.289	18775
294.346	10177
294.403	9687
294.460	8803
294.517	7722
294.574	7081
294.631	6446
294.688	9188
294.745	23452
294.802	90380
294.859	85598
294.916	30736
294.973	18741
295.030	15646
295.087	14331
295.144	9532
295.201	8173
295.258	7706
295.315	11625
295.372	34128
295.429	76933
295.486	31253
295.542	15414
295.599	26559
295.656	46268
295.713	37239
295.770	66168
295.827	26093
295.883	12256
295.940	10457
295.997	16968
296.054	18463
296.111	8971
296.167	6969
296.224	5998
296.281	5511
296.338	5196
296.394	5806
296.451	9094
296.508	25758
296.564	54820
296.621	34586
296.678	71676
296.734	118085
296.791	39187
296.848	20167
296.904	21224
296.961	42198
297.018	74414
297.074	58446
297.131	21388
297.187	15866
297.244	25212
297.301	76598
297.357	155871
297.414	54080
297.470	20548
297.527	14569
297.583	12056
297.640	11607
297.696	8390
297.753	7275
297.809	5497
297.866	5029
297.922	6189
297.979	5780
298.035	7430
298.092	13632
298.148	41710
298.204	44334
298.261	21234
298.317	31653
298.374	96915
298.430	61633
298.486	25357
298.543	18541
298.599	15258
298.656	17109
298.712	24789
298.768	56663
298.824	43509
298.881	15924
298.937	10268
298.993	8384
299.050	11601
299.106	10654
299.162	8245
299.218	9162
299.275	8302
299.331	10270
299.387	22455
299.443	81133
299.500	95303
299.556	34122
299.612	17338
299.668	15012
299.724	18077
299.780	20863
299.837	13114
299.893	19423
299.949	60767
300.005	81514
300.061	61641
300.117	118410
300.173	60532
300.229	25160
300.285	25894
300.341	30421
300.397	17424
300.453	10018
300.510	10149
300.566	10948
300.622	14498
300.678	35334
300.734	69304
300.790	64418
300.845	89430
300.901	51202
300.957	65088
301.013	53826
301.069	21277
301.125	14729
301.181	15559
301.237	11533
301.293	8429
301.349	8440
301.405	7007
301.461	7768
301.516	10255
301.572	10080
301.628	18845
301.684	18085
301.740	24629
301.796	44617
301.851	29347
301.907	46306
301.963	52151
302.019	82393
302.074	237179
302.130	242059
302.186	104539
302.242	42167
302.297	29652
302.353	26634
302.409	46670
302.464	43947
302.520	33001
302.576	76284
302.631	97361
302.687	50144
302.743	22212
302.798	13142
302.854	10354
302.910	10083
302.965	12502
303.021	22023
303.076	21921
303.132	26280
303.187	32821
303.243	17579
303.299	10368
303.354	7929
303.410	7705
303.465	6751
303.521	6720
303.576	8102
303.632	12270
303.687	23788
303.743	74062
303.798	69363
303.853	24323
303.909	13240
303.964	11907
304.020	15828
304.075	25571
304.130	21152
304.186	38679
304.241	41374
304.297	32055
304.352	18049
304.358	17321
304.407	11409
304.449	10454
304.463	10140
304.518	9776
304.539	9956
304.573	10225
304.629	11156
304.630	11329
304.684	20373
304.720	42636
304.739	53565
304.794	94152
304.811	79809
304.850	44502
304.902	19949
304.905	18451
304.960	13044
304.992	11997
305.015	11306
305.071	10805
305.083	10318
305.126	8462
305.173	6671
305.181	6410
305.236	6504
305.264	6959
305.292	7566
305.347	9731
305.354	9913
305.402	10677
305.445	10648
305.457	10728
305.512	13152
305.535	14157
305.567	15387
305.622	15788
305.626	16324
305.678	33024
305.716	63949
305.733	73616
305.788	93354
305.807	80941
305.843	62205
305.897	81711
305.898	81825
305.953	87405
305.988	56363
306.008	40091
306.063	23525
306.078	20842
306.118	15675
306.168	10868
306.173	10507
306.228	8833
306.259	8349
306.283	8103
306.338	7426
306.349	7456
306.393	7883
306.440	8793
306.448	8929
306.503	9445
306.530	10558
306.558	15327
306.613	31894
306.620	34626
306.668	56401
306.711	80544
306.723	81502
306.778	65902
306.801	49176
306.833	31342
306.888	15145
306.892	14452
306.943	11235
306.982	9930
306.997	9623
307.052	9197
307.072	8784
307.107	9538
307.162	13083
307.163	13133
307.217	19865
307.253	23746
307.272	24218
307.327	25886
307.343	24424
307.381	21452
307.434	19527
307.436	20326
307.491	43496
307.524	63870
307.546	67838
307.600	72290
307.614	66030
307.655	40915
307.704	18500
307.710	17967
307.765	21317
307.795	25727
307.819	30725
307.874	47176
307.885	48140
307.929	38368
307.975	25491
307.984	25764
308.038	35366
308.065	43277
308.093	82044
308.148	176441
308.156	197424
308.202	313906
308.246	405632
308.257	394183
308.312	205428
308.336	136672
308.366	103599
308.421	70477
308.426	66848
308.475	41742
308.517	27185
308.530	25398
308.585	21490
308.607	20490
308.639	21109
308.694	23676
308.697	23922
308.748	44835
308.787	65810
308.803	64510
308.857	49591
308.877	41830
308.912	36423
308.967	33087
308.967	33035
309.021	46791
309.058	59213
309.076	76890
309.130	138507
309.148	162132
309.185	305193
309.238	535759
309.239	537588
309.293	599598
309.328	559391
309.348	476932
309.402	213690
309.418	148689
309.457	104431
309.508	64166
309.511	63701
309.566	65198
309.598	67770
309.620	85967
309.674	138730
309.688	152589
309.729	141023
309.778	113113
309.783	110327
309.837	74559
309.868	56568
309.892	70153
309.946	106667
309.959	117277
310.001	151596
310.049	184953
310.055	177942
310.109	100254
310.139	56175
310.163	44704
310.218	26173
310.229	23062
310.272	18970
310.319	14787
310.326	14429
310.381	12212
310.409	11234
310.435	10899
310.489	10152
310.499	10133
310.543	10892
310.589	11448
310.598	11447
310.652	11646
310.679	11432
310.706	10246
310.760	8344
310.769	7997
310.814	7754
310.859	7617
310.868	7744
310.923	8520
310.948	8908
310.977	10462
311.031	13504
311.038	13915
311.085	13152
311.128	11965
311.139	11713
311.193	10529
311.218	9934
311.247	9366
311.301	8383
311.308	8234
311.356	8257
311.398	8380
311.410	8262
311.464	7587
311.488	7273
311.518	7673
311.572	8388
311.578	8466
311.626	14097
311.668	19103
311.680	18749
311.734	16668
311.758	15701
311.788	15266
311.842	14480
311.847	14367
311.896	18301
311.937	21681
311.950	21556
312.004	20765
312.027	20328
312.058	17493
312.112	12372
312.117	11837
312.165	10829
312.207	9936
312.297	13968
312.386	11926
312.476	13646
312.566	34935
312.656	15516
312.745	7771
312.835	9935
312.925	12128
313.015	11372
313.104	11563
313.194	8689
313.284	10614
313.374	15528
313.463	14085
313.553	9520
313.643	8744
313.732	7184
313.822	7405
313.912	9170
314.001	13732
314.091	13106
314.180	17298
314.270	17840
314.360	20176
314.449	17143
314.539	9883
314.628	9285
314.718	10773
314.808	14997
314.897	9710
314.987	9790
315.076	16120
315.166	20626
315.255	17868
315.345	18148
315.434	16340
315.524	15683
315.613	18848
315.703	28826
315.792	39825
315.881	124691
315.971	42960
316.060	35990
316.150	44560
316.239	44765
316.328	18052
316.418	10622
316.507	11769
316.597	17108
316.686	15474
316.775	22557
316.865	47513
316.954	12710
317.043	8643
317.133	11561
317.222	9410
317.311	9977
317.400	10704
317.490	18020
317.579	23120
317.668	17121
317.757	27798
317.847	63042
317.936	220978
318.025	88672
318.114	51391
318.203	31880
318.293	38280
318.382	79477
318.471	59492
318.560	69755
318.649	114202
318.738	27105
318.828	21953
318.917	24065
319.006	25552
319.095	58061
319.184	149286
319.273	96199
319.362	55105
319.451	19479
319.540	18149
319.629	42446
319.718	77134
319.807	32359
319.896	52835
319.985	189773
320.074	74269
320.163	19985
320.252	30954
320.341	22981
320.430	21558
320.519	36770
320.608	20653
320.697	16026
320.786	17248
320.875	24548
320.964	33743
321.053	53303
321.142	76445
321.230	80272
321.319	53504
321.408	131210
321.497	51770
321.586	53234
321.675	52619
321.764	51797
321.852	33555
321.941	74552
322.030	51516
322.119	50857
322.207	136613
322.296	76377
322.385	42697
322.474	52113
322.562	169156
322.651	80945
322.740	59162
322.829	77046
322.917	68331
323.006	46162
323.095	39635
323.183	26178
323.272	40571
323.361	70438
323.449	199230
323.538	66115
323.626	137269
323.715	83668
323.804	34485
323.892	124342
323.981	75577
324.069	23919
324.158	63629
324.246	61506
324.335	26850
324.424	49403
324.512	15701
324.601	20131
324.689	23293
324.778	28163
324.866	45702
324.954	14717
325.043	16397
325.131	31418
325.220	48097
325.308	58074
325.397	43398
325.485	28803
325.574	11169
325.662	10583
325.750	13970
325.839	9876
325.927	9005
326.015	14429
326.104	19839
326.192	29344
326.280	10917
326.369	10877
326.457	19427
326.545	39876
326.634	16400
326.722	8063
326.810	10657
326.898	9733
326.987	13292
327.075	35207
327.163	32574
327.251	13334
327.340	11418
327.428	12587
327.516	10193
327.604	11434
327.692	11093
327.781	12788
327.869	22640
327.957	15758
328.045	17761
328.133	8186
328.221	12148
328.309	11639
328.397	9977
328.485	15044
328.574	24807
328.662	88511
328.750	42825
328.838	15226
328.926	9965
329.014	9507
329.102	17191
329.190	39227
329.278	27631
329.366	6850
329.454	6823
329.542	7581
329.630	7296
329.718	7944
329.806	13084
329.893	10506
329.981	10095
330.069	13175
330.157	38582
330.245	115905
330.333	57013
330.421	15383
330.509	25016
330.597	106051
330.684	64041
330.772	18988
330.860	21534
330.948	27581
331.036	13689
331.123	7023
331.211	7750
331.299	11058
331.387	23652
331.475	45449
331.562	14366
331.650	8050
331.738	10981
331.825	13785
331.913	7773
332.001	7378
332.089	11760
332.176	24813
332.264	61384
332.352	47158
332.439	16263
332.527	11669
332.614	10010
332.702	13365
332.790	13009
332.877	30627
332.965	61895
333.052	21116
333.140	22817
333.228	57374
333.315	16125
333.403	12734
333.490	36712
333.578	38485
333.665	73592
333.753	32520
333.840	12601
333.928	15052
334.015	40233
334.103	58309
334.190	188600
334.278	48801
334.365	23892
334.452	20286
334.540	13806
334.627	16411
334.715	25228
334.802	50110
334.889	223258
334.977	229670
335.064	39814
335.151	17884
335.239	16317
335.326	23728
335.413	89352
335.501	121599
335.588	20224
335.675	14749
335.762	16664
335.850	28523
335.937	27131
336.024	63565
336.111	247850
336.199	110985
336.286	27017
336.373	13769
336.460	10201
336.547	10040
336.635	13714
336.722	13213
336.809	11669
336.896	21035
336.983	58344
337.070	133733
337.157	195883
337.245	145405
337.332	101524
337.419	14493
337.506	9618
337.593	13008
337.680	39271
337.767	117338
337.854	36742
337.941	39968
338.028	51905
338.115	18417
338.202	21588
338.289	41832
338.376	147812
338.463	46964
338.550	68145
338.637	72485
338.724	28447
338.811	42582
338.898	11101
338.984	8829
339.071	10702
339.158	15310
339.245	47447
339.332	27939
339.419	31745
339.506	29959
339.593	8342
339.679	9535
339.766	9004
339.853	14850
339.940	37567
340.027	12258
340.113	12264
340.200	18756
340.287	12871
340.374	18459
340.460	32525
340.547	14132
340.634	26797
340.720	101576
340.807	58398
340.894	10445
340.980	9868
341.067	10218
341.154	13172
341.240	20174
341.327	52061
341.414	14699
341.500	14261
341.587	11039
341.674	10967
341.760	32305
341.847	40060
341.933	12319
342.020	5390
342.106	6100
342.193	13291
342.279	26954
342.366	19743
342.452	34898
342.539	19898
342.625	45180
342.712	113974
342.798	44667
342.885	18452
342.971	4989
343.058	6213
343.144	8181
343.230	8355
343.317	8520
343.403	7381
343.490	6049
343.576	6326
343.662	9425
343.749	12079
343.835	16375
343.921	37557
344.008	211289
344.094	488568
344.180	102531
344.267	39313
344.353	130148
344.439	129762
344.525	53656
344.612	19112
344.698	17056
344.784	12650
344.870	8668
344.957	10054
345.043	18844
345.129	14562
345.215	31774
345.301	16042
345.387	10397
345.474	6256
345.560	6353
345.646	8850
345.732	9288
345.818	11578
345.904	10881
345.990	12827
346.076	11749
346.162	21740
346.249	10651
346.335	8459
346.421	12764
346.507	53086
346.593	194081
346.679	43310
346.765	11599
346.851	11598
346.937	11325
347.023	8850
347.108	12245
347.194	11064
347.280	10386
347.366	15810
347.452	54816
347.538	237407
347.624	159411
347.710	124791
347.796	19310
347.882	9753
347.967	8834
348.053	11495
348.139	9613
348.225	8492
348.311	8963
348.397	7667
348.482	12843
348.568	15696
348.654	7556
348.740	15175
348.825	17140
348.911	23911
348.997	103126
349.083	207437
349.168	31277
349.254	11199
349.340	10597
349.425	7857
349.511	14982
349.597	16439
349.682	38022
349.768	130348
349.854	58098
349.939	10221
350.025	7889
350.110	7580
350.196	6859
350.282	5214
350.367	6198
350.453	14007
350.538	15290
350.624	14034
350.709	13087
350.795	7417
350.880	9004
350.966	9869
351.051	14305
351.137	11599
351.222	11537
351.308	38314
351.393	110854
351.479	26420
351.564	8748
351.649	9650
351.735	6746
351.820	7199
351.906	9004
351.991	14018
352.076	71345
352.162	104315
352.247	20957
352.332	14336
352.418	26897
352.503	35446
352.588	159101
352.673	127407
352.759	27803
352.844	13848
352.929	15691
353.014	22327
353.100	13383
353.185	23253
353.270	39266
353.355	38951
353.441	11649
353.526	12564
353.611	35277
353.696	41971
353.781	24085
353.866	11166
353.952	12497
354.037	35767
354.122	82194
354.207	73219
354.292	25291
354.377	10525
354.462	9306
354.547	16556
354.632	12324
354.717	17519
354.802	24923
354.887	10974
354.972	8124
355.057	6630
355.142	7332
355.227	12538
355.312	23455
355.397	54296
355.482	132369
355.567	60806
355.652	42386
355.737	48595
355.822	149143
355.907	117172
355.991	17479
356.076	10154
356.161	8025
356.246	8803
356.331	12352
356.416	34371
356.501	234332
356.585	239227
356.670	33346
356.755	21392
356.840	34394
356.924	155737
357.009	575835
357.094	204394
357.179	47040
357.263	29300
357.348	28284
357.433	26419
357.517	26071
357.602	21024
357.687	17062
357.771	28032
357.856	86135
357.941	55167
358.025	120808
358.110	540012
358.195	240043
358.279	38266
358.364	28346
358.448	102019
358.533	278632
358.617	195154
358.702	192640
358.787	68555
358.871	40442
358.956	33500
359.040	11686
359.125	8585
359.209	12035
359.294	40225
359.378	69090
359.462	33438
359.547	18128
359.631	11489
359.716	8070
359.800	9191
359.885	15949
359.969	13691
360.053	10487
360.138	9836
360.222	19817
360.306	39520
360.391	28611
360.475	53110
360.559	115716
360.644	105803
360.728	75277
360.812	124274
360.896	351056
360.981	136747
361.065	68604
361.149	19429
361.233	19450
361.318	15121
361.402	19738
361.486	15647
361.570	12859
361.654	19715
361.739	52487
361.823	228589
361.907	345967
361.991	58425
362.075	36305
362.159	81473
362.243	54396
362.327	52607
362.411	61833
362.495	32992
362.580	18262
362.664	12454
362.748	12346
362.832	17344
362.916	31751
363.000	104731
363.084	309240
363.168	422525
363.252	96270
363.336	33657
363.420	41789
363.503	130459
363.587	145315
363.671	31216
363.755	23989
363.839	37254
363.923	18289
364.007	41496
364.091	44934
364.175	53722
364.258	214329
364.342	170644
364.426	216664
364.510	119119
364.594	52081
364.677	64936
364.761	309670
364.845	209335
364.929	69783
365.013	55392
365.096	45450
365.180	55911
365.264	55049
365.347	205155
365.431	82893
365.515	23703
365.598	14621
365.682	12163
365.766	19478
365.849	24641
365.933	16739
366.017	19037
366.100	12682
366.184	7898
366.267	9447
366.351	10184
366.435	8734
366.518	7416
366.602	6918
366.685	10302
366.769	13220
366.852	21336
366.936	40730
367.019	25914
367.103	15936
367.186	25943
367.270	10761
367.353	7836
367.436	9509
367.520	9498
367.603	15236
367.687	24718
367.770	46863
367.853	26087
367.937	91646
368.020	155843
368.104	36373
368.187	34008
368.270	48145
368.353	41335
368.437	51025
368.520	99222
368.603	67383
368.687	107046
368.770	198437
368.853	46702
368.936	41377
369.020	34567
369.103	16482
369.186	10502
369.269	13377
369.352	29663
369.436	42183
369.519	26139
369.602	12896
369.685	13963
369.768	15757
369.851	11666
369.934	9355
370.018	13604
370.101	39711
370.184	27494
370.267	18418
370.350	37677
370.433	58725
370.516	167855
370.599	212432
370.682	63267
370.765	103906
370.848	125700
370.931	245017
371.014	82579
371.097	18625
371.180	13457
371.263	8178
371.346	6504
371.429	8838
371.511	10350
371.594	23895
371.677	34220
371.760	32643
371.843	35427
371.926	188788
372.009	451309
372.091	129269
372.174	91780
372.257	233162
372.340	83551
372.423	52442
372.505	51226
372.588	26284
372.671	70468
372.754	243189
372.836	113149
372.919	61140
373.002	111966
373.085	40474
373.167	36991
373.250	102128
373.332	231516
373.415	283740
373.498	598026
373.580	207256
373.663	305560
373.746	402453
373.828	86752
373.911	33777
373.993	33450
374.076	112614
374.159	101532
374.241	58879
374.324	203634
374.406	128292
374.489	173716
374.571	515894
374.654	200849
374.736	94709
374.819	310885
374.901	425884
374.983	430423
375.066	72279
375.148	26854
375.231	92768
375.313	174204
375.395	65951
375.478	19096
375.560	14696
375.643	22296
375.725	84616
375.807	382515
375.890	266781
375.972	97001
376.054	54944
376.136	78184
376.219	37255
376.301	104411
376.383	330963
376.465	116595
376.548	76476
376.630	89971
376.712	280730
376.794	121570
376.877	15637
376.959	10112
377.041	12504
377.123	22431
377.205	25576
377.287	7148
377.369	9313
377.452	11557
377.534	9451
377.616	9685
377.698	9636
377.780	8059
377.862	11160
377.944	11355
378.026	5833
378.108	7749
378.190	8040
378.272	7676
378.354	5620
378.436	6128
378.518	15190
378.600	54638
378.682	52099
378.764	142320
378.846	105361
378.928	28576
379.010	42097
379.091	20852
379.173	10895
379.255	9373
379.337	17676
379.419	66212
379.501	200884
379.583	73712
379.664	19302
379.746	49209
379.828	135333
379.910	188135
379.991	159844
380.073	26805
380.155	16520
380.237	13110
380.318	9285
380.400	11904
380.482	30164
380.564	46542
380.645	42118
380.727	41049
380.809	23292
380.890	17493
380.972	11302
381.053	11864
381.135	16149
381.217	45903
381.298	143430
381.380	66378
381.461	54401
381.543	269081
381.624	325678
381.706	56991
381.787	29498
381.869	32434
381.951	113102
382.032	458678
382.113	273069
382.195	58218
382.276	36465
382.358	88353
382.439	261883
382.521	269005
382.602	426621
382.684	183003
382.765	349032
382.846	380604
382.928	579045
383.009	302647
383.090	204177
383.172	780151
383.253	1159981
383.334	382051
383.416	392897
383.497	194062
383.578	90176
383.659	172168
383.741	650892
383.822	1650614
383.903	816432
383.984	290702
384.066	469294
384.147	279558
384.228	58138
384.309	44510
384.390	34753
384.471	23714
384.553	26118
384.634	37303
384.715	37279
384.796	20045
384.877	27940
384.958	127002
385.039	152807
385.120	52532
385.201	22591
385.282	26671
385.363	25168
385.444	26053
385.525	53093
385.606	203102
385.687	168321
385.768	36140
385.849	43615
385.930	209216
386.011	370723
386.092	92722
386.173	22286
386.254	15646
386.335	17005
386.416	20748
386.496	81890
386.577	135251
386.658	43184
386.739	26723
386.820	21993
386.901	16656
386.981	17288
387.062	14306
387.143	32633
387.224	136484
387.304	119823
387.385	40246
387.466	24585
387.547	29567
387.627	24452
387.708	50261
387.789	239618
387.869	298837
387.950	74987
388.031	15725
388.111	12366
388.192	28458
388.273	42391
388.353	27252
388.434	20435
388.514	46061
388.595	230065
388.676	296432
388.756	132812
388.837	128291
388.917	75094
388.998	15274
389.078	15040
389.159	13809
389.239	13956
389.320	24106
389.400	21209
389.480	48680
389.561	146604
389.641	66293
389.722	23581
389.802	40559
389.883	58874
389.963	173453
390.043	99379
390.124	27370
390.204	47066
390.284	155454
390.365	92506
390.445	81383
390.525	223972
390.605	198530
390.686	74421
390.766	28130
390.846	15768
390.927	10831
391.007	12793
391.087	15006
391.167	19181
391.247	13710
391.328	21149
391.408	28540
391.488	19702
391.568	10253
391.648	18602
391.728	28756
391.808	25007
391.888	30738
391.969	77750
392.049	130399
392.129	47881
392.209	60073
392.289	167071
392.369	82394
392.449	53529
392.529	38002
392.609	35651
392.689	48858
392.769	168446
392.849	139544
392.929	86153
393.009	225273
393.089	183834
393.169	164301
393.248	500949
393.328	1698940
393.408	1772705
393.488	522334
393.568	157203
393.648	77660
393.728	49899
393.807	35438
393.887	30492
393.967	26329
394.047	28703
394.127	31567
394.206	45199
394.286	145343
394.366	714966
394.446	743091
394.525	148409
394.605	38043
394.685	32638
394.764	66685
394.844	120295
394.924	85884
395.003	32485
395.083	23006
395.163	20875
395.242	20417
395.322	20624
395.402	13755
395.481	19442
395.561	51791
395.640	144719
395.720	120822
395.799	147026
395.879	109309
395.958	57505
396.038	204478
396.117	930894
396.197	989464
396.276	245151
396.356	81929
396.435	64366
396.515	53636
396.594	74303
396.673	141996
396.753	518305
396.832	1549905
396.912	1152450
396.991	292072
397.070	82679
397.150	45928
397.229	31136
397.308	43465
397.388	72329
397.467	35304
397.546	17376
397.625	14456
397.705	21502
397.784	24726
397.863	13368
397.942	9801
398.022	11006
398.101	41357
398.180	118969
398.259	57767
398.338	18213
398.417	16238
398.497	10510
398.576	11800
398.655	7873
398.734	7903
398.813	8985
398.892	37342
398.971	130647
399.050	61528
399.129	9160
399.208	6912
399.287	7132
399.366	6181
399.445	6007
399.524	6874
399.603	7731
399.682	20191
399.761	50573
399.840	146273
399.919	104009
399.998	15575
400.077	5737
400.156	5621
400.235	8274
400.313	6599
400.392	11136
400.471	69255
400.550	114114
400.629	29459
400.708	12001
400.786	9181
400.865	25743
400.944	29225
401.023	15827
401.102	3683
401.180	4092
401.259	4858
401.338	7315
401.416	12708
401.495	11466
401.574	7170
401.652	7019
401.731	11334
401.810	9397
401.888	5156
401.967	4294
402.046	8554
402.124	10464
402.203	16235
402.281	9350
402.360	13585
402.438	34147
402.517	22345
402.596	8189
402.674	7176
402.753	4321
402.831	4568
402.910	8186
402.988	38037
403.066	139515
403.145	75120
403.223	39957
403.302	110195
403.380	75086
403.459	74398
403.537	28188
403.615	11325
403.694	3547
403.772	4331
403.850	4731
403.929	3993
404.007	5749
404.085	15245
404.164	17361
404.242	6023
404.320	11017
404.398	29909
404.477	70025
404.555	335093
404.633	277851
404.711	42948
404.789	14336
404.868	8694
404.946	5671
405.024	3742
405.102	4049
405.180	3373
405.258	3456
405.336	4985
405.415	5580
405.493	14249
405.571	12339
405.649	4952
405.727	4505
405.805	10006
405.883	9219
405.961	9720
406.039	10421
406.117	6504
406.195	14815
406.273	74518
406.351	290927
406.429	156667
406.507	21450
406.585	8251
406.663	9988
406.740	14594
406.818	11894
406.896	6554
406.974	7987
407.052	22868
407.130	165800
407.208	230671
407.285	41267
407.363	7608
407.441	7297
407.519	6275
407.596	7632
407.674	15535
407.752	24018
407.830	29475
407.907	18846
407.985	7919
408.063	4762
408.141	2384
408.218	9689
408.296	10444
408.373	8794
408.451	10854
408.529	10768
408.606	4234
408.684	2764
408.762	2058
408.839	2285
408.917	2674
408.994	3696
409.072	4138
409.149	4281
409.227	10830
409.304	14525
409.382	11784
409.459	12862
409.537	19177
409.614	16878
409.692	10815
409.769	11966
409.846	20048
409.924	25271
410.001	19244
410.079	11565
410.156	8993
410.233	8839
410.311	6872
410.388	5833
410.465	7946
410.543	9620
410.620	5778
410.697	7385
410.775	10769
410.852	4364
410.929	11058
411.006	13954
411.083	7769
411.161	22311
411.238	21106
411.315	9759
411.392	4673
411.469	12166
411.547	12736
411.624	5611
411.701	5476
411.778	8156
411.855	22906
411.932	11006
412.009	4197
412.086	4015
412.163	5519
412.240	7229
412.317	10703
412.394	8462
412.471	3287
412.548	2417
412.625	4201
412.702	6808
412.779	17069
412.856	11626
412.933	3624
413.010	4315
413.087	10344
413.164	67017
413.241	92225
413.318	21831
413.395	12768
413.471	21651
413.548	7985
413.625	4319
413.702	8161
413.779	5310
413.855	1915
413.932	1013
414.009	1628
414.086	2162
414.162	3390
414.239	10681
414.316	61649
414.393	144232
414.469	48168
414.546	4164
414.623	2990
414.699	3535
414.776	7318
414.853	3446
414.929	4312
415.006	4266
415.082	5419
415.159	4009
415.236	3526
415.312	5318
415.389	15256
415.465	21728
415.542	9614
415.618	6415
415.695	13186
415.771	8146
415.848	6575
415.924	5700
416.000	3807
416.077	3159
416.153	127
416.230	190
416.306	1396
416.383	1656
416.459	2092
416.535	1057
416.612	2587
416.688	2393
416.764	3421
416.841	3012
416.917	3140
416.993	3764
417.069	5909
417.146	8437
417.222	12816
417.298	7546
417.374	3514
417.451	4859
417.527	8770
417.603	10429
417.679	6355
417.755	5489
417.831	2585
417.908	1304
417.984	2235
418.060	2018
418.136	18042
418.212	23758
418.288	7233
418.364	3298
418.440	4800
418.516	9804
418.592	10909
418.668	26732
418.744	45133
418.820	30690
418.896	6714
418.972	1868
419.048	4241
419.124	19318
419.200	14756
419.276	2960
419.352	802
419.428	1700
419.504	5472
419.579	8450
419.655	6162
419.731	6832
419.807	29414
419.883	55786
419.959	34653
420.034	9071
420.110	20478
420.186	90256
420.262	65357
420.337	10593
420.413	8899
420.489	4254
420.565	3948
420.640	3214
420.716	4707
420.792	2875
420.867	4984
420.943	4990
421.019	13410
421.094	9805
421.170	3894
421.245	3587
421.321	4724
421.397	4723
421.472	7418
421.548	12361
421.623	14053
421.699	9368
421.774	11108
421.850	10566
421.925	18508
422.001	17064
422.076	13281
422.152	16146
422.227	28747
422.302	30934
422.378	44041
422.453	84490
422.529	207326
422.604	626998
422.679	1025685
422.755	651614
422.830	221420
422.905	86194
422.981	47241
423.056	29698
423.131	21055
423.207	16404
423.282	19284
423.357	31697
423.432	22337
423.508	19554
423.583	48450
423.658	33663
423.733	10899
423.808	12377
423.883	15807
423.959	13002
424.034	10589
424.109	8218
424.184	4214
424.259	4326
424.334	3635
424.409	2819
424.484	3498
424.559	5436
424.634	5355
424.709	10053
424.784	12323
424.859	6468
424.934	13952
425.009	63161
425.084	102883
425.159	33903
425.234	5395
425.309	2971
425.384	17719
425.459	32624
425.534	8028
425.609	4162
425.683	3142
425.758	3032
425.833	3812
425.908	7684
425.983	38103
426.058	109214
426.132	41544
426.207	7292
426.282	8886
426.357	8028
426.431	3243
426.506	3840
426.581	3425
426.655	3761
426.730	3635
426.805	4020
426.879	5264
426.954	4069
427.029	16762
427.103	98426
427.178	244535
427.253	96620
427.327	10988
427.402	13267
427.476	34706
427.551	16267
427.625	4919
427.700	5421
427.774	2446
427.849	4656
427.923	2444
427.998	2865
428.072	4513
428.147	14667
428.221	73811
428.296	214603
428.370	101159
428.444	13478
428.519	12401
428.593	24205
428.667	18788
428.742	24381
428.816	28804
428.890	126671
428.965	200056
429.039	55845
429.113	28392
429.188	11114
429.262	4046
429.336	13668
429.410	46845
429.485	26930
429.559	19749
429.633	15786
429.707	6561
429.781	23062
429.855	136428
429.930	204449
430.004	88894
430.078	114156
430.152	115828
430.226	278507
430.300	266532
430.374	40555
430.448	12811
430.522	38706
430.596	114837
430.670	77352
430.744	247201
430.818	346109
430.892	64605
430.966	10545
431.040	4991
431.114	2413
431.188	2221
431.262	3078
431.336	3301
431.410	11530
431.484	36104
431.557	24077
431.631	4570
431.705	7067
431.779	39495
431.853	180106
431.927	118254
432.000	12496
432.074	4124
432.148	4941
432.222	3758
432.295	2404
432.369	2571
432.443	11557
432.516	88705
432.590	237105
432.664	77990
432.737	8069
432.811	2308
432.885	178
432.958	1756
433.032	1078
433.106	1120
433.179	217
433.253	796
433.326	942
433.400	-106
433.473	771
433.547	339
433.620	1954
433.694	10868
433.767	9514
433.841	2454
433.914	921
433.988	946
434.061	1314
434.134	1675
434.208	-27
434.281	-165
434.355	339
434.428	2003
434.501	1581
434.575	633
434.648	1255
434.721	330
434.795	-422
434.868	-66
434.941	301
435.014	201
435.088	1562
435.161	5809
435.234	11313
435.307	14337
435.381	5764
435.454	5588
435.527	8854
435.600	9550
435.673	5333
435.746	3846
435.819	3334
435.892	3373
435.966	1467
436.039	1830
436.112	1609
436.185	-548
436.258	65
436.331	-505
436.404	-326
436.477	-333
436.550	168
436.623	359
436.696	995
436.769	1956
436.842	1661
436.915	1911
436.987	5074
437.060	1221
437.133	152
437.206	516
437.279	1360
437.352	1546
437.425	1767
437.498	2956
437.570	10722
437.643	9292
437.716	1399
437.789	1397
437.861	9194
437.934	30244
438.007	11353
438.080	1912
438.152	4014
438.225	14909
438.298	118045
438.370	324514
438.443	121387
438.516	28430
438.588	4641
438.661	1204
438.734	2142
438.806	3814
438.879	4276
438.951	6806
439.024	14324
439.096	3334
439.169	2057
439.241	377
439.314	674
439.386	3563
439.459	7781
439.531	14959
439.604	4637
439.676	798
439.749	-319
439.821	754
439.893	628
439.966	2144
440.038	4345
440.110	4203
440.183	2322
440.255	1083
440.327	6713
440.400	45163
440.472	205479
440.544	121014
440.617	15311
440.689	9812
440.761	14862
440.833	24021
440.905	12063
440.978	1290
441.050	533
441.122	361
441.194	517
441.266	1171
441.338	605
441.411	7139
441.483	64455
441.555	89749
441.627	15536
441.699	6999
441.771	5669
441.843	2236
441.915	959
441.987	1393
442.059	1263
442.131	3807
442.203	7633
442.275	8551
442.347	7959
442.419	14308
442.491	82630
442.563	202464
442.635	74011
442.706	36466
442.778	25566
442.850	5132
442.922	2849
442.994	5072
443.066	8305
443.137	6660
443.209	5250
443.281	10590
443.353	24901
443.425	102702
443.496	375039
443.568	336216
443.640	109256
443.711	20940
443.783	8245
443.855	5196
443.926	3093
443.998	3501
444.070	4554
444.141	5213
444.213	10252
444.285	13076
444.356	10443
444.428	7733
444.499	2490
444.571	896
444.642	1912
444.714	4153
444.785	9707
444.857	9497
444.928	20228
445.000	10388
445.071	14068
445.143	17171
445.214	13557
445.285	21483
445.357	64068
445.428	243390
445.500	546438
445.571	310506
445.642	158181
445.714	53710
445.785	37936
445.856	13028
445.928	14497
445.999	12917
446.070	8129
446.141	8799
446.213	11434
446.284	4529
446.355	4518
446.426	2495
446.497	3288
446.569	6101
446.640	13280
446.711	10615
446.782	2980
446.853	5055
446.924	6058
446.995	4229
447.066	3142
447.138	6110
447.209	2558
447.280	-306
447.351	-541
447.422	55
447.493	2482
447.564	5403
447.635	9670
447.706	2828
447.777	-456
447.847	214
447.918	-82
447.989	3607
448.060	4642
448.131	12155
448.202	12108
448.273	9593
448.344	2216
448.414	1541
448.485	1480
448.556	759
448.627	-326
448.698	206
448.768	-1024
448.839	48
448.910	5638
448.981	4769
449.051	1927
449.122	1048
449.193	-462
449.263	106
449.334	386
449.405	3504
449.475	13589
449.546	6785
449.616	6241
449.687	4833
449.758	1076
449.828	453
449.899	576
449.969	189
450.040	-492
450.110	2205
450.181	2708
450.251	184
450.322	-348
450.392	506
450.463	39
450.533	-83
450.604	-64
450.674	294
450.744	126
450.815	203
450.885	923
450.955	390
451.026	488
451.096	285
451.166	1550
451.237	6798
451.307	18876
451.377	4612
451.447	-1206
451.518	-399
451.588	42
451.658	11
451.728	3136
451.799	20722
451.869	20498
451.939	2508
452.009	236
452.079	89
452.149	981
452.219	3253
452.289	23632
452.360	13441
452.430	2764
452.500	3374
452.570	5302
452.640	8132
452.710	26819
452.780	34388
452.850	28436
452.920	25968
452.990	7001
453.060	4099
453.129	6521
453.199	8151
453.269	28990
453.339	56108
453.409	83276
453.479	91368
453.549	125691
453.619	128291
453.688	39956
453.758	5969
453.828	1768
453.898	904
453.968	762
454.037	874
454.087	507
454.107	345
454.168	-487
454.177	-625
454.247	-401
454.249	-369
454.316	70
454.330	303
454.386	1165
454.411	4377
454.456	9611
454.492	12085
454.525	14363
454.574	7016
454.595	3784
454.655	1186
454.665	784
454.734	2112
454.736	2224
454.804	6003
454.817	8738
454.873	19826
454.898	20483
454.943	21497
454.979	14373
455.013	7960
455.060	4212
455.082	2673
455.141	3420
455.152	3558
455.221	14974
455.222	15181
455.291	30833
455.303	31699
455.360	33810
455.384	52990
455.430	86509
455.465	62141
455.499	39413
455.546	26531
455.569	20568
455.627	12600
455.638	11190
455.707	1740
455.708	1749
455.777	675
455.789	724
455.846	990
455.869	934
455.916	820
455.950	680
455.985	359
456.031	798
456.054	1060
456.112	898
456.124	897
456.193	870
456.193	854
456.262	794
456.274	1092
456.332	2565
456.355	2843
456.401	3038
456.436	2325
456.470	1627
456.516	542
456.540	77
456.597	389
456.609	412
456.678	932
456.678	921
456.747	405
456.759	383
456.817	542
456.840	611
456.886	356
456.920	-68
456.955	-183
457.001	367
457.024	660
457.082	1284
457.093	1356
457.162	3757
457.163	3776
457.232	5630
457.243	5218
457.301	2682
457.324	1912
457.370	855
457.405	823
457.439	880
457.485	1350
457.508	1500
457.566	1329
457.577	1381
457.646	2785
457.647	2805
457.715	5122
457.727	6035
457.784	11336
457.808	15779
457.853	22222
457.889	26003
457.922	26967
457.969	16937
457.991	15320
458.050	18343
458.060	18752
458.129	35224
458.130	35636
458.198	42988
458.211	38241
458.267	17985
458.292	12446
458.336	6919
458.372	6086
458.405	7386
458.453	11528
458.474	15130
458.533	31387
458.543	32929
458.611	64672
458.614	64675
458.680	42575
458.694	34220
458.749	12294
458.775	8503
458.818	4359
458.855	3673
458.887	3361
458.936	2307
458.955	1738
459.016	1855
459.024	1921
459.093	2328
459.097	2323
459.162	2021
459.177	2102
459.230	3092
459.257	3902
459.299	4541
459.338	4181
459.368	3883
459.418	5068
459.437	5257
459.499	3275
459.505	3104
459.574	1739
459.579	1743
459.643	1868
459.659	1830
459.711	2105
459.740	2354
459.780	2385
459.820	2335
459.849	2315
459.900	2443
459.917	2571
459.981	3043
459.986	3011
460.054	2154
460.061	2133
460.123	2667
460.141	2709
460.191	3211
460.222	3735
460.260	4150
460.302	5338
460.328	5397
460.382	3643
460.397	3388
460.462	2159
460.465	2125
460.534	2688
460.543	2773
460.602	5735
460.623	6891
460.671	9947
460.703	13536
460.739	14046
460.783	11732
460.808	9753
460.864	3391
460.876	2849
460.944	2284
460.945	2280
461.013	3092
461.024	3140
461.081	3319
461.104	3756
461.150	3772
461.184	3309
461.218	3378
461.264	3039
461.286	2744
461.345	2933
461.355	2938
461.423	2474
461.425	2457
461.491	2278
461.505	2423
461.559	4966
461.585	6134
461.628	9762
461.665	13978
461.696	15862
461.745	22012
461.764	21242
461.825	7712
461.832	7142
461.901	4240
461.905	4280
461.969	3990
461.985	3852
462.037	3564
462.065	3225
462.105	3114
462.145	3584
462.173	5232
462.225	7935
462.241	8359
462.305	12067
462.310	11914
462.378	8907
462.385	8058
462.446	3635
462.465	3005
462.514	3601
462.545	4161
462.582	4039
462.625	3845
462.650	3642
462.705	3099
462.718	3117
462.785	3457
462.786	3477
462.854	4386
462.865	4599
462.922	6223
462.945	7105
462.990	6085
463.025	4262
463.058	3607
463.104	2961
463.126	2732
463.184	2531
463.194	2663
463.262	3640
463.264	3682
463.330	3618
463.344	3489
463.398	3976
463.424	4241
463.466	3879
463.504	3744
463.533	4088
463.583	4304
463.601	4336
463.663	4704
463.669	4808
463.737	6008
463.743	6151
463.805	9434
463.823	10323
463.873	14030
463.903	16562
463.940	17884
463.982	20140
464.008	17702
464.062	9046
464.076	8105
464.142	3863
464.144	3809
464.211	3179
464.221	3125
464.279	3838
464.301	4186
464.347	4719
464.381	5063
464.414	5385
464.461	5693
464.482	5773
464.540	6242
464.550	6177
464.617	5491
464.620	5455
464.685	6542
464.699	6802
464.753	7348
464.779	7636
464.820	8036
464.859	8334
464.888	8158
464.938	7729
464.956	7771
465.018	8064
465.023	8039
465.091	7464
465.098	7386
465.158	6810
465.177	6682
465.226	6773
465.257	6699
465.293	6712
465.336	6712
465.361	7362
465.416	9032
465.428	9454
465.495	11962
465.496	12009
465.563	16493
465.575	17355
465.631	21432
465.654	23387
465.698	16389
465.734	9271
465.765	7672
465.813	5763
465.833	5705
465.893	5982
465.900	5941
465.968	5552
465.972	5515
466.035	5840
466.052	5885
466.102	6440
466.131	6776
466.170	6572
466.210	6316
466.237	6336
466.290	6330
466.304	6402
466.369	6703
466.372	6719
466.439	6858
466.449	6850
466.506	7671
466.528	7980
466.573	10771
466.607	12848
466.641	18120
466.687	25455
466.708	28243
466.766	36339
466.775	34035
466.842	15871
466.845	14981
466.909	10424
466.925	9443
466.977	8882
467.004	8612
467.044	8681
467.083	8753
467.111	9397
467.163	10567
467.178	11002
467.242	12724
467.245	12702
467.312	11788
467.321	11648
467.379	10932
467.400	10638
467.446	11560
467.480	12194
467.559	11136
467.638	8645
467.717	9047
467.796	11700
467.875	12755
467.955	11378
468.034	13892
468.113	29734
468.192	42713
468.271	16311
468.350	11208
468.429	13060
468.508	15899
468.588	11673
468.667	9608
468.746	8876
468.825	8609
468.904	7876
468.983	9316
469.062	13229
469.141	15598
469.220	9560
469.299	7534
469.378	8670
469.456	10744
469.535	10128
469.614	8875
469.693	9529
469.772	12173
469.851	14637
469.930	12870
470.009	10495
470.088	9951
470.166	12117
470.245	19953
470.324	23847
470.403	16173
470.482	11073
470.560	8865
470.639	11100
470.718	12901
470.797	9666
470.875	9733
470.954	12458
471.033	14674
471.111	8214
471.190	6637
471.269	7328
471.347	7256
471.426	7453
471.505	9072
471.583	9710
471.662	8974
471.740	8514
471.819	7903
471.898	7611
471.976	8051
472.055	8624
472.133	8425
472.212	10638
472.290	10493
472.369	8963
472.447	7105
472.526	7209
472.604	8568
472.683	8763
472.761	8885
472.839	9401
472.918	8672
472.996	7516
473.075	8011
473.153	8718
473.231	7341
473.310	8926
473.388	8970
473.466	8426
473.545	10262
473.623	14595
473.701	14546
473.780	9173
473.858	6377
473.936	9023
474.014	7074
474.093	8802
474.171	11408
474.249	15852
474.327	11476
474.405	7360
474.484	7595
474.562	8501
474.640	6680
474.718	7599
474.796	8473
474.874	8056
474.952	6626
475.030	6351
475.108	6581
475.187	7753
475.265	8485
475.343	11949
475.421	13393
475.499	8419
475.577	8153
475.655	9631
475.733	17072
475.811	27299
475.889	25700
475.966	19698
476.044	7955
476.122	9996
476.200	12598
476.278	9845
476.356	6945
476.434	8326
476.512	8409
476.590	12448
476.667	10360
476.745	7018
476.823	8210
476.901	7153
476.979	7177
477.056	7270
477.134	7567
477.212	8310
477.290	7351
477.367	5908
477.445	6422
477.523	7276
477.601	7098
477.678	6856
477.756	7805
477.834	8092
477.911	7921
477.989	7808
478.066	7112
478.144	7546
478.222	9067
478.299	13403
478.377	13363
478.454	5979
478.532	6031
478.609	7075
478.687	8190
478.764	6360
478.842	7213
478.919	8251
478.997	8186
479.074	6197
479.152	7503
479.229	8923
479.307	7341
479.384	5346
479.461	6170
479.539	5944
479.616	7364
479.694	6605
479.771	6815
479.848	7347
479.926	8106
480.003	11239
480.080	6416
480.157	6124
480.235	6413
480.312	6096
480.389	6024
480.467	10449
480.544	13355
480.621	7953
480.698	7487
480.775	8086
480.853	7215
480.930	6383
481.007	6199
481.084	7307
481.161	7080
481.238	7471
481.315	5527
481.392	5829
481.470	5950
481.547	5141
481.624	5644
481.701	5748
481.778	7030
481.855	7194
481.932	10265
482.009	15608
482.086	13295
482.163	7862
482.240	10668
482.317	17827
482.393	15239
482.470	7481
482.547	7083
482.624	6308
482.701	8014
482.778	6928
482.855	5484
482.932	5280
483.009	5229
483.085	6551
483.162	9206
483.239	9188
483.316	6842
483.393	8212
483.469	6660
483.546	7532
483.623	7524
483.699	6040
483.776	6342
483.853	7547
483.930	10891
484.006	23054
484.083	41444
484.160	25345
484.236	33633
484.313	26839
484.389	20112
484.466	18053
484.543	17815
484.619	17748
484.696	21422
484.772	19935
484.849	20351
484.925	17309
485.002	16100
485.078	17740
485.155	17227
485.231	15464
485.308	14687
485.384	15496
485.461	18559
485.537	27853
485.614	35082
485.690	16754
485.766	15472
485.843	15842
485.919	25288
485.995	27619
486.072	15256
486.148	13474
486.224	13785
486.301	14556
486.377	17482
486.453	17224
486.530	16362
486.606	20121
486.682	23224
486.758	26791
486.835	30019
486.911	24276
486.987	37248
487.063	50435
487.139	68908
487.215	47914
487.292	23391
487.368	18471
487.444	18372
487.520	24750
487.596	25091
487.672	36771
487.748	109843
487.824	177872
487.900	64911
487.976	22712
488.052	18787
488.128	24651
488.204	19163
488.280	16125
488.356	17473
488.432	30733
488.508	48257
488.584	22962
488.660	15978
488.736	14600
488.812	15941
488.888	21162
488.964	26395
489.039	61961
489.115	108941
489.191	68229
489.267	16435
489.343	13889
489.418	12814
489.494	11781
489.570	9959
489.646	13381
489.722	12266
489.797	12076
489.873	16372
489.949	34586
490.024	35491
490.100	11558
490.176	12125
490.251	16761
490.327	22662
490.403	14083
490.478	11390
490.554	9954
490.629	10422
490.705	9614
490.781	10318
490.856	10946
490.932	12683
491.007	14664
491.083	13044
491.158	10808
491.234	12753
491.309	26189
491.385	29640
491.460	11259
491.536	11870
491.611	11442
491.686	12230
491.762	18678
491.837	39726
491.913	71266
491.988	96941
492.063	139412
492.139	36542
492.214	17300
492.289	10564
492.365	10340
492.440	12821
492.515	11330
492.590	10646
492.666	8888
492.741	12097
492.816	16003
492.891	11380
492.967	10405
493.042	9339
493.117	10500
493.192	12776
493.267	22494
493.342	84456
493.418	136600
493.493	24859
493.568	8874
493.643	8902
493.718	10102
493.793	16873
493.868	21867
493.943	15509
494.018	9922
494.093	7822
494.168	9086
494.243	7387
494.318	6953
494.393	7014
494.468	7537
494.543	7949
494.618	10094
494.693	8105
494.768	7386
494.842	7678
494.917	7219
494.992	7807
495.067	7064
495.142	6942
495.217	8290
495.292	9051
495.366	10173
495.441	12766
495.516	16959
495.591	22258
495.665	85143
495.740	229488
495.815	118341
495.890	14240
495.964	8139
496.039	10903
496.114	8976
496.188	8871
496.263	10090
496.338	8507
496.412	9859
496.487	12321
496.561	13524
496.636	15930
496.710	11088
496.785	10516
496.860	12541
496.934	9564
497.009	9955
497.083	9423
497.158	9194
497.232	10764
497.307	14801
497.381	11770
497.455	12915
497.530	17192
497.604	13307
497.679	12439
497.753	19852
497.827	28063
497.902	25657
497.976	28152
498.050	57854
498.125	248396
498.199	320193
498.273	56402
498.348	32625
498.422	25119
498.496	23133
498.570	22459
498.645	15099
498.719	13085
498.793	17248
498.867	25108
498.941	33332
499.016	90409
499.090	280021
499.164	139874
499.238	15013
499.312	11329
499.386	14410
499.460	14979
499.534	11532
499.609	14523
499.683	20071
499.757	20948
499.831	36233
499.905	167191
499.979	202497
500.053	30473
500.127	27503
500.201	25383
500.275	15138
500.349	12767
500.422	14681
500.496	21134
500.570	47589
500.644	100886
500.718	193609
500.792	62283
500.866	11862
500.940	14369
501.013	13462
501.087	12427
501.161	24327
501.235	30736
501.309	48684
501.382	143903
501.456	161640
501.530	35403
501.603	46919
501.677	26017
501.751	9198
501.825	11807
501.898	16845
501.972	55055
502.046	46696
502.119	12013
502.193	25538
502.266	62832
502.340	39603
502.413	24751
502.487	54288
502.561	35941
502.634	13355
502.708	11988
502.781	9822
502.855	8011
502.928	5217
503.002	6727
503.075	5010
503.149	7938
503.222	6816
503.295	7070
503.369	10301
503.442	11389
503.516	37396
503.589	106546
503.662	83735
503.736	23807
503.809	48299
503.882	48475
503.956	59314
504.029	73710
504.102	69764
504.175	105315
504.249	37720
504.322	15489
504.395	11749
504.468	8555
504.542	7009
504.615	5862
504.688	6865
504.761	4572
504.834	9337
504.907	10429
504.980	21373
505.053	11452
505.127	11080
505.200	16908
505.273	10410
505.346	7374
505.419	4469
505.492	5735
505.565	3949
505.638	4658
505.711	4323
505.784	4380
505.857	4578
505.930	6228
506.003	3976
506.076	6816
506.149	7022
506.221	7994
506.294	9122
506.367	18736
506.440	75949
506.513	60129
506.586	10989
506.659	6592
506.731	6305
506.804	7376
506.877	12422
506.950	9245
507.022	5645
507.095	5356
507.168	9525
507.241	7934
507.313	5122
507.386	5736
507.459	12108
507.531	7420
507.604	4762
507.677	5839
507.749	2454
507.822	7337
507.894	15786
507.967	20033
508.040	9677
508.112	9826
508.185	8159
508.257	6664
508.330	14882
508.402	9550
508.475	6904
508.547	7809
508.620	7613
508.692	11973
508.765	9104
508.837	6018
508.909	5668
508.982	5258
509.054	8028
509.127	6365
509.199	5686
509.271	4984
509.344	4560
509.416	5814
509.488	6079
509.560	6768
509.633	6398
509.705	8503
509.777	7976
509.849	13240
509.922	9344
509.994	5636
510.066	6778
510.138	5134
510.210	13439
510.283	12218
510.355	9685
510.427	9314
510.499	8745
510.571	7775
510.643	7662
510.715	16034
510.787	15618
510.859	9457
510.931	10241
511.003	14993
511.076	16059
511.148	7497
511.219	7294
511.291	11067
511.363	14982
511.435	7091
511.507	6303
511.579	7099
511.651	6864
511.723	5957
511.795	5577
511.867	6339
511.939	8207
512.010	13998
512.082	15737
512.154	7231
512.226	8042
512.298	11290
512.369	18615
512.441	15010
512.513	15369
512.585	11390
512.656	11038
512.728	12621
512.800	8739
512.871	8823
512.943	8309
513.015	6674
513.086	9608
513.158	9662
513.230	9537
513.301	15481
513.373	23018
513.444	11692
513.516	8446
513.588	8134
513.659	10452
513.731	13615
513.802	10766
513.874	23494
513.945	51992
514.016	19219
514.088	8229
514.159	8784
514.231	13968
514.302	18227
514.374	12735
514.445	10114
514.516	19198
514.588	16994
514.659	9923
514.730	17152
514.802	17945
514.873	9998
514.944	12618
515.016	10872
515.087	11767
515.158	14103
515.229	21236
515.301	9532
515.372	13664
515.443	9293
515.514	8565
515.585	6518
515.656	7869
515.728	8533
515.799	7689
515.870	9259
515.941	9477
516.012	9235
516.083	13235
516.154	14684
516.225	22043
516.296	22365
516.367	17809
516.438	21486
516.509	27548
516.580	38120
516.651	111413
516.722	465178
516.793	288260
516.864	44002
516.935	39541
517.006	40792
517.077	55039
517.148	116905
517.219	465816
517.289	938465
517.360	218555
517.431	63575
517.502	19754
517.573	17571
517.643	15876
517.714	17342
517.785	19708
517.856	19945
517.926	26755
517.997	33610
518.068	43463
518.138	57958
518.209	78941
518.280	290597
518.350	1267128
518.421	670384
518.492	65357
518.562	29997
518.633	26481
518.703	23947
518.774	40954
518.845	110805
518.915	133474
518.986	41094
519.056	25293
519.127	39545
519.197	56735
519.268	104397
519.338	78493
519.408	19222
519.479	26193
519.549	21995
519.620	13510
519.690	10280
519.760	9501
519.831	10547
519.901	11194
519.971	8414
520.042	8928
520.112	10150
520.182	13791
520.253	17303
520.323	9821
520.393	12091
520.463	26239
520.534	14681
520.604	34858
520.674	19174
520.744	13213
520.814	34773
520.885	40194
520.955	27536
521.025	104808
521.095	61069
521.165	11434
521.235	8404
521.305	7404
521.375	7964
521.445	9754
521.515	13570
521.585	16937
521.655	17047
521.725	12615
521.795	10582
521.865	5885
521.935	12461
522.005	9358
522.075	6719
522.145	9191
522.215	7566
522.285	12762
522.355	15896
522.424	29100
522.494	29258
522.564	16613
522.634	31240
522.704	115006
522.774	60321
522.843	11149
522.913	9661
522.983	13370
523.053	10749
523.122	9731
523.192	13516
523.262	56609
523.331	72710
523.401	13996
523.471	7405
523.540	7746
523.610	5357
523.680	7062
523.749	6525
523.819	8043
523.888	7116
523.958	5886
524.027	6765
524.097	7119
524.166	6089
524.236	7460
524.305	9981
524.375	5715
524.444	4420
524.514	7679
524.583	6631
524.653	7604
524.722	10491
524.791	6078
524.861	6676
524.930	6142
524.999	6527
525.069	11344
525.138	8454
525.207	8969
525.277	8380
525.346	8006
525.415	7915
525.484	7069
525.554	8887
525.623	10885
525.692	9750
525.761	10077
525.830	12769
525.900	15342
525.969	23289
526.038	39012
526.107	69315
526.176	235140
526.245	234403
526.314	70043
526.383	112103
526.452	181065
526.522	256752
526.591	339970
526.660	94719
526.729	48522
526.797	43987
526.867	78296
526.935	356945
527.004	704661
527.073	478162
527.142	46058
527.211	17748
527.280	14634
527.349	14967
527.418	7534
527.487	8221
527.555	6203
527.624	6106
527.693	4747
527.762	6446
527.831	4176
527.899	6560
527.968	5628
528.037	5468
528.106	9209
528.174	16891
528.243	14770
528.312	15758
528.380	30013
528.449	7612
528.518	7010
528.586	2967
528.655	5909
528.723	4278
528.792	4320
528.861	5628
528.929	3250
528.998	6520
529.066	4408
529.135	6371
529.203	5996
529.272	5802
529.340	9806
529.409	9720
529.477	6966
529.545	8445
529.614	12247
529.682	9626
529.751	13796
529.819	14800
529.887	11936
529.956	9595
530.024	9980
530.092	8395
530.161	10909
530.229	17275
530.297	10877
530.365	10186
530.434	10240
530.502	9285
530.570	8288
530.638	6980
530.707	8390
530.775	10505
530.843	7147
530.911	9331
530.979	8576
531.047	8634
531.115	9385
531.183	8607
531.252	8253
531.320	7998
531.388	7358
531.456	9836
531.524	7928
531.592	10338
531.660	11960
531.728	9366
531.796	8422
531.864	9528
531.932	9771
532.000	10201
532.067	10386
532.135	12677
532.203	14055
532.271	13548
532.339	20841
532.407	54288
532.475	41549
532.542	19116
532.610	19192
532.678	21970
532.746	76601
532.814	261410
532.881	90375
532.949	17554
533.017	12742
533.084	10481
533.152	10348
533.220	10387
533.287	12688
533.355	10591
533.423	10425
533.490	9726
533.558	10718
533.625	10495
533.693	10616
533.761	10775
533.828	11272
533.896	10706
533.963	20381
534.031	26220
534.098	33632
534.166	20318
534.233	10031
534.300	12329
534.368	11759
534.435	9778
534.503	11412
534.570	13081
534.637	13500
534.705	15220
534.772	16747
534.840	23856
534.907	99554
534.974	175225
535.041	27439
535.109	13693
535.176	9310
535.243	10080
535.310	10537
535.378	10737
535.445	8648
535.512	8419
535.579	8984
535.646	7622
535.714	8629
535.781	10394
535.848	10307
535.915	10478
535.982	8785
536.049	9801
536.116	10766
536.183	9535
536.250	10060
536.317	8613
536.384	11660
536.451	16711
536.518	19991
536.585	12014
536.652	16135
536.719	23598
536.786	21002
536.853	13956
536.920	19548
536.987	33865
537.053	30425
537.120	107563
537.187	133342
537.254	16953
537.321	10551
537.388	10882
537.454	8367
537.521	8049
537.588	6952
537.654	8783
537.721	10277
537.788	10684
537.855	8101
537.921	9544
537.988	9010
538.055	10243
538.121	8826
538.188	9834
538.254	14436
538.321	34286
538.388	25148
538.454	10722
538.521	8443
538.587	8398
538.654	8147
538.720	8357
538.787	9064
538.853	8913
538.920	10890
538.986	10537
539.053	8940
539.119	9597
539.185	10088
539.252	12639
539.318	19620
539.385	16206
539.451	11774
539.517	13895
539.583	13754
539.650	26081
539.716	91697
539.782	35557
539.849	10536
539.915	10909
539.981	10139
540.047	13369
540.114	12003
540.180	12453
540.246	12298
540.312	16023
540.378	31529
540.444	37060
540.510	29641
540.576	104442
540.643	45421
540.709	9832
540.775	10451
540.841	8869
540.907	11387
540.973	19998
541.039	18936
541.105	21918
541.171	11704
541.237	9284
541.303	10907
541.369	12955
541.435	14294
541.500	29542
541.566	21530
541.632	9909
541.698	8209
541.764	9245
541.830	7950
541.896	7349
541.961	8850
542.027	9624
542.093	9457
542.159	10016
542.224	10165
542.290	15307
542.356	26211
542.421	39756
542.487	18087
542.553	10304
542.618	11240
542.684	10607
542.750	10607
542.815	13048
542.881	19812
542.947	81492
543.012	84935
543.078	12956
543.143	9439
543.209	10452
543.274	10607
543.340	11827
543.405	26861
543.471	60129
543.536	16756
543.602	9759
543.667	6983
543.732	9065
543.798	7947
543.863	8300
543.928	7254
543.994	7394
544.059	8742
544.124	9169
544.190	9033
544.255	9821
544.320	10325
544.386	10906
544.451	16021
544.516	19023
544.581	17881
544.646	45220
544.712	102277
544.777	22701
544.842	12767
544.907	12425
544.972	10413
545.037	10659
545.102	11792
545.168	11310
545.233	11490
545.298	14034
545.363	14287
545.428	16524
545.493	28960
545.558	74730
545.623	39845
545.688	13654
545.753	13014
545.818	11932
545.883	13438
545.947	11357
546.012	13163
546.077	13664
546.142	13986
546.207	13705
546.272	18797
546.337	21849
546.401	15742
546.466	15323
546.531	14035
546.596	16668
546.661	17915
546.725	16823
546.790	15793
546.855	16617
546.919	17764
546.984	20638
547.049	21531
547.113	24833
547.178	25992
547.243	28988
547.307	33126
547.372	38480
547.436	39849
547.501	36267
547.565	39093
547.630	41663
547.695	40615
547.759	39154
547.823	37765
547.888	35881
547.952	35848
548.017	37789
548.081	40284
548.146	44289
548.210	42911
548.274	42829
548.339	41641
548.403	38614
548.468	34706
548.532	34956
548.596	36398
548.660	35876
548.725	41271
548.789	46095
548.853	46659
548.917	40324
548.982	42841
549.046	42235
549.110	33276
549.174	31934
549.238	36614
549.303	39579
549.367	42240
549.431	40725
549.495	37909
549.559	36862
549.623	42546
549.687	48984
549.751	56254
549.815	57210
549.879	57045
549.943	51940
550.007	55852
550.071	56443
550.135	57279
550.199	50752
550.263	47295
550.327	46794
550.391	49068
550.455	50867
550.519	53272
550.582	56112
550.646	69165
550.710	75588
550.774	63514
550.838	62496
550.901	64544
550.965	69007
551.029	72069
551.093	77490
551.156	84730
551.220	109897
551.284	141441
551.347	96861
551.411	91078
551.475	99321
551.538	71365
551.602	63473
551.666	57582
551.729	54104
551.793	53544
551.856	52535
551.920	51862
551.983	52963
552.047	51572
552.110	51591
552.174	50730
552.237	53912
552.301	50460
552.364	48000
552.428	46527
552.491	48273
552.554	49927
552.618	50185
552.681	53221
552.745	52192
552.808	68889
552.871	90815
552.934	63550
552.998	50670
553.061	50393
553.124	47602
553.187	46353
553.251	48308
553.314	50786
553.377	50104
553.440	57015
553.503	86076
553.567	142087
553.630	65501
553.693	50647
553.756	50143
553.819	49293
553.882	45580
553.945	45811
554.008	45825
554.071	45208
554.134	46860
554.197	44888
554.260	43123
554.323	44720
554.386	44600
554.449	46032
554.512	46709
554.575	43749
554.638	44476
554.701	43482
554.764	43324
554.827	40941
554.889	40357
554.952	37279
555.015	36333
555.078	36953
555.141	37593
555.203	37658
555.266	37098
555.329	37592
555.391	36079
555.454	36726
555.517	35244
555.580	33625
555.642	31776
555.705	31470
555.768	31581
555.830	33217
555.893	29484
555.955	29343
556.018	28707
556.080	29267
556.143	29912
556.206	28685
556.268	29570
556.330	30823
556.393	30193
556.455	28440
556.518	32539
556.580	33519
556.643	26042
556.705	25575
556.767	24826
556.830	25726
556.892	27505
556.955	37882
557.017	33071
557.079	24580
557.142	24131
557.204	26443
557.266	45051
557.328	42224
557.391	23177
557.453	20437
557.515	20676
557.577	24930
557.639	27488
557.701	22367
557.764	21359
557.826	23126
557.888	25463
557.950	25648
558.012	28569
558.074	34898
558.136	72122
558.198	214082
558.260	95001
558.322	33184
558.384	33566
558.446	38857
558.508	44716
558.570	55774
558.632	80026
558.694	116741
558.756	120763
558.818	337494
558.880	1045409
558.942	393951
559.003	228092
559.065	136629
559.127	50024
559.189	47842
559.251	52057
559.312	69451
559.374	154624
559.436	615751
559.498	389873
559.559	58229
559.621	47928
559.683	50934
559.744	76029
559.806	252182
559.868	487423
559.929	105126
559.991	47002
560.052	63161
560.114	194392
560.176	151740
560.237	99823
560.299	209458
560.360	55259
560.422	19508
560.483	16652
560.545	14856
560.606	14449
560.667	14453
560.729	13659
560.790	13364
560.852	13111
560.913	13409
560.974	12016
561.036	13127
561.097	12887
561.158	13676
561.220	14044
561.281	13269
561.342	15167
561.403	17746
561.465	19957
561.526	48814
561.587	79159
561.648	21518
561.709	13502
561.771	12357
561.832	11955
561.893	11909
561.954	11662
562.015	11097
562.076	11272
562.137	11687
562.198	11443
562.259	12160
562.320	11663
562.381	13186
562.442	21809
562.503	18472
562.564	12106
562.625	10816
562.686	11572
562.747	13176
562.808	13177
562.869	11117
562.930	13176
562.991	12931
563.051	12487
563.112	11456
563.173	10876
563.234	10193
563.294	11204
563.355	10638
563.416	11800
563.477	10331
563.537	10829
563.598	12236
563.659	11711
563.720	10645
563.780	12478
563.841	12881
563.901	12011
563.962	10393
564.023	10995
564.083	11448
564.144	11006
564.204	11165
564.265	11595
564.325	12698
564.386	20385
564.446	21400
564.507	10356
564.567	10632
564.628	10439
564.688	9796
564.749	10252
564.809	10611
564.869	14252
564.930	10634
564.990	10779
565.050	10430
565.111	10231
565.171	10386
565.231	10453
565.292	10611
565.352	9597
565.412	10311
565.472	10468
565.532	12772
565.593	11782
565.653	9730
565.713	11105
565.773	11915
565.833	14391
565.893	20855
565.953	12964
566.013	10688
566.074	10959
566.134	13756
566.194	20045
566.254	24216
566.314	15953
566.374	11092
566.434	10384
566.494	10901
566.554	10106
566.614	10250
566.673	10702
566.733	11754
566.793	11306
566.853	12775
566.913	11812
566.973	12154
567.033	13058
567.092	15285
567.152	12596
567.212	13552
567.272	12046
567.331	13499
567.391	13137
567.451	13512
567.511	16804
567.570	17889
567.630	12128
567.690	11391
567.749	11617
567.809	12580
567.868	14011
567.928	15546
567.988	16752
568.047	16724
568.107	19153
568.166	24199
568.226	36413
568.285	53498
568.345	44302
568.404	32961
568.464	27759
568.523	25780
568.582	25664
568.642	29723
568.701	34134
568.761	49394
568.820	85650
568.879	84062
568.939	57453
568.998	39149
569.057	28389
569.116	23446
569.176	19591
569.235	16751
569.294	16533
569.353	14441
569.413	14194
569.472	12473
569.531	11920
569.590	11089
569.649	10924
569.708	11044
569.767	13248
569.827	14556
569.886	14510
569.945	10168
570.004	11363
570.063	11866
570.122	11728
570.181	13432
570.240	12410
570.299	13937
570.358	15132
570.417	12129
570.475	10243
570.534	11530
570.593	12948
570.652	12328
570.711	13174
570.770	11230
570.829	13760
570.887	13039
570.946	15772
571.005	11836
571.064	11352
571.122	12694
571.181	12629
571.240	10622
571.299	9438
571.357	9962
571.416	10517
571.475	10641
571.533	12669
571.592	9967
571.650	11433
571.709	9543
571.768	11217
571.826	10558
571.885	9680
571.943	8999
572.002	8761
572.060	9462
572.119	8441
572.177	9217
572.236	8231
572.294	8512
572.352	8358
572.411	9384
572.469	9052
572.528	8374
572.586	9239
572.644	11167
572.703	15494
572.761	10917
572.819	8514
572.877	8662
572.936	7501
572.994	8242
573.052	7929
573.110	9357
573.169	9254
573.227	8876
573.285	7914
573.343	8846
573.401	8751
573.459	8344
573.517	8580
573.576	9067
573.634	8310
573.692	9715
573.750	8421
573.808	7870
573.866	8924
573.924	11821
573.982	10739
574.040	8880
574.098	8598
574.155	7558
574.213	8031
574.271	7270
574.329	8520
574.387	7728
574.445	6619
574.503	7003
574.560	7480
574.618	7150
574.676	7330
574.734	7010
574.792	8619
574.849	6872
574.907	7273
574.965	6809
575.022	6015
575.080	7766
575.138	6758
575.195	8200
575.253	7978
575.311	9888
575.368	7602
575.426	6923
575.483	7700
575.541	6684
575.598	6183
575.656	7383
575.713	7524
575.771	7309
575.828	6789
575.886	7177
575.943	6796
576.001	7650
576.058	7376
576.115	7638
576.173	9334
576.230	11112
576.287	14480
576.345	11699
576.402	8496
576.459	8273
576.517	7191
576.574	8924
576.631	9713
576.688	7919
576.746	8181
576.803	7254
576.860	6573
576.917	8429
576.974	8365
577.031	7182
577.089	7887
577.146	7351
577.203	7824
577.260	8381
577.317	8674
577.374	10072
577.431	9349
577.488	8714
577.545	7787
577.602	8599
577.659	7381
577.716	7953
577.773	7899
577.830	6704
577.886	6627
577.943	6560
578.000	7586
578.057	8159
578.114	7627
578.171	7134
578.227	7304
578.284	6993
578.341	7805
578.398	7254
578.454	8325
578.511	9108
578.568	10648
578.625	8894
578.681	7595
578.738	7256
578.794	7702
578.851	7276
578.908	7838
578.964	7694
579.021	8009
579.077	7865
579.134	7875
579.190	6937
579.247	7617
579.303	6286
579.360	6722
579.416	6538
579.473	6458
579.529	6626
579.586	6950
579.642	8224
579.698	6819
579.755	7655
579.811	7169
579.867	7659
579.924	6404
579.980	6834
580.036	7535
580.093	8619
580.149	7653
580.205	10056
580.261	8828
580.317	8151
580.374	8844
580.430	10458
580.486	10089
580.542	8393
580.598	8526
580.619	8583
580.654	8684
580.692	8481
580.710	8389
580.765	7863
580.767	7847
580.823	8391
580.838	8446
580.879	8576
580.911	8080
580.935	7723
580.984	7522
580.991	7502
581.047	7320
581.057	7460
581.103	8080
581.130	8403
581.159	8719
581.203	9355
581.215	9535
581.270	9494
581.276	9364
581.326	8113
581.349	8545
581.382	9180
581.422	8313
581.438	7952
581.494	8646
581.494	8647
581.550	8676
581.567	9150
581.606	10014
581.640	9326
581.661	8982
581.713	9235
581.717	9250
581.773	8413
581.786	8474
581.829	8678
581.859	8889
581.885	9079
581.932	9283
581.940	9309
581.996	9570
582.004	9467
582.052	8787
582.077	8652
582.107	8617
582.150	8514
582.163	8454
582.219	9475
582.223	9494
582.274	9856
582.296	9704
582.330	9305
582.368	10203
582.386	10669
582.441	9089
582.441	9084
582.497	9823
582.514	9898
582.552	10328
582.587	10818
582.608	10942
582.659	10499
582.663	10465
582.719	10383
582.732	10499
582.774	11094
582.805	10680
582.830	10250
582.877	10921
582.885	11055
582.941	11204
582.950	11202
582.996	11163
583.023	11821
583.052	12629
583.095	12261
583.107	12094
583.162	12733
583.168	12781
583.218	13202
583.240	12677
583.273	11744
583.313	11277
583.328	11233
583.384	11758
583.385	11758
583.439	11323
583.458	11299
583.494	11473
583.531	11272
583.549	11201
583.603	11940
583.605	11952
583.660	11908
583.676	11716
583.715	11628
583.748	11797
583.770	11814
583.820	12132
583.825	12151
583.881	12852
583.893	12429
583.936	11094
583.965	11054
583.991	10995
584.038	11614
584.046	11752
584.101	12520
584.110	12505
584.156	12305
584.183	12546
584.211	12866
584.255	12831
584.266	12811
584.321	13032
584.328	12992
584.376	13123
584.400	13505
584.431	13740
584.472	12958
584.486	12742
584.541	13954
584.545	13957
584.596	14111
584.617	14205
584.651	14747
584.689	15099
584.706	15053
584.761	15214
584.762	15209
584.816	15781
584.834	15689
584.871	15877
584.906	15719
584.926	15563
584.978	17010
584.980	17096
585.035	18528
585.051	18902
585.090	20205
585.123	21085
585.145	21725
585.195	24407
585.200	24797
585.254	28663
585.267	30128
585.309	36175
585.340	40684
585.364	42639
585.412	42867
585.419	43076
585.473	46502
585.484	47588
585.528	59368
585.556	70414
585.583	99666
585.628	162376
585.637	189024
585.692	392583
585.700	430060
585.747	542402
585.772	490283
585.801	319238
585.845	105626
585.856	85244
585.910	46803
585.917	42705
585.965	35024
585.989	32018
586.019	30065
586.061	27604
586.074	27238
586.128	27375
586.133	27340
586.183	28182
586.205	28742
586.237	28743
586.277	27206
586.292	26622
586.346	25154
586.349	25049
586.401	25026
586.421	25305
586.455	26431
586.493	27484
586.509	29896
586.564	38507
586.565	38747
586.618	55717
586.637	58910
586.672	49923
586.709	37993
586.727	35741
586.781	33684
586.781	33728
586.835	28771
586.853	27567
586.889	26567
586.925	25586
586.944	25539
586.996	26248
586.998	26338
587.052	27517
587.068	27705
587.106	27615
587.140	27536
587.161	27870
587.212	28758
587.215	28856
587.269	29532
587.284	29743
587.323	30705
587.356	30942
587.377	30941
587.427	32320
587.431	32553
587.485	34062
587.499	34375
587.539	35344
587.571	35972
587.593	36726
587.643	38720
587.648	39047
587.702	41754
587.715	42286
587.755	43768
587.786	44645
587.810	45278
587.858	46388
587.864	46909
587.917	52458
587.930	53353
587.971	56895
588.001	59977
588.025	62499
588.073	66567
588.079	67418
588.133	74536
588.145	76038
588.187	84446
588.217	90794
588.241	97211
588.288	109395
588.295	111651
588.348	131084
588.360	135151
588.402	153070
588.431	165139
588.456	177823
588.503	203745
588.510	208918
588.564	250221
588.575	259338
588.617	305650
588.646	337743
588.671	382807
588.718	475873
588.725	505898
588.778	751588
588.789	808274
588.832	1298830
588.861	1665170
588.886	2130865
588.932	3083514
588.939	3126785
588.993	3239046
589.004	3204348
589.047	2373397
589.075	1769892
589.100	1370805
589.147	739637
589.154	709242
589.207	518426
589.218	482133
589.261	451672
589.290	434987
589.314	460047
589.361	518147
589.368	550136
589.421	828194
589.433	893699
589.475	1513289
589.504	1985459
589.528	2340195
589.576	3002278
589.582	2932430
589.635	1979136
589.647	1755741
589.689	1008970
589.718	544081
589.742	440872
589.790	264759
589.795	257857
589.849	197154
589.861	184057
589.902	164631
589.932	149419
589.955	135424
590.004	105931
590.009	104869
590.062	92289
590.075	88912
590.115	83261
590.146	79077
590.168	77028
590.218	71698
590.222	71644
590.275	68622
590.289	67685
590.328	65428
590.360	63190
590.381	62009
590.431	58701
590.435	58779
590.488	57359
590.503	56872
590.541	56252
590.574	55254
590.594	54546
590.645	52401
590.647	52506
590.700	50963
590.716	50371
590.753	49921
590.787	49241
590.806	49170
590.859	48635
590.859	48774
590.912	48031
590.930	47665
590.965	47902
591.001	47906
591.018	47986
591.071	47764
591.072	47610
591.124	47308
591.143	46953
591.177	47597
591.214	48051
591.230	48609
591.283	50112
591.285	50004
591.336	52893
591.356	53907
591.389	53559
591.427	52523
591.442	51350
591.495	46295
591.498	45776
591.547	44918
591.569	44410
591.600	44834
591.640	44924
591.653	45030
591.706	44861
591.711	44715
591.759	47625
591.782	48819
591.811	50873
591.853	53425
591.864	52587
591.917	47408
591.924	46489
591.969	45476
591.995	44707
592.022	45619
592.066	46720
592.075	47673
592.127	52580
592.137	53316
592.180	57143
592.208	59267
592.233	55435
592.279	47536
592.285	47647
592.338	47323
592.350	47090
592.390	46255
592.421	45371
592.443	46009
592.491	46907
592.495	47051
592.548	46864
592.562	46658
592.600	47358
592.633	47666
592.653	47496
592.704	46370
592.705	46684
592.775	49077
592.846	50944
592.916	53241
592.987	57366
593.058	53796
593.128	48552
593.199	47688
593.270	48258
593.341	48464
593.411	51447
593.482	51200
593.553	50231
593.623	49694
593.694	51526
593.764	54285
593.835	51132
593.906	49845
593.976	51277
594.047	54076
594.117	63245
594.188	60983
594.258	53375
594.329	52052
594.399	53885
594.470	54227
594.540	54788
594.611	55752
594.681	55584
594.751	56764
594.822	62191
594.892	62424
594.963	62842
595.033	61192
595.103	63346
595.174	68549
595.244	87661
595.314	97382
595.384	67539
595.455	67823
595.525	69683
595.595	71080
595.665	70807
595.736	69360
595.806	69882
595.876	70825
595.946	70601
596.016	72508
596.087	75593
596.157	74721
596.227	74066
596.297	78520
596.367	83244
596.437	91348
596.507	102841
596.577	113271
596.647	91285
596.717	91035
596.787	92218
596.857	92196
596.927	92629
596.997	93676
597.067	94828
597.137	99277
597.207	98341
597.277	98159
597.347	94405
597.417	91958
597.487	94116
597.557	96260
597.626	99153
597.696	101862
597.766	108917
597.836	117057
597.906	92032
597.975	85720
598.045	88032
598.115	91287
598.185	97488
598.254	107900
598.324	119906
598.394	123101
598.464	119807
598.533	112148
598.603	103813
598.672	106568
598.742	107350
598.812	105701
598.881	107703
598.951	106837
599.020	107766
599.090	111171
599.159	111994
599.229	109414
599.299	105524
599.368	111564
599.437	108923
599.507	102091
599.576	101200
599.646	101763
599.715	101981
599.785	100254
599.854	99414
599.924	102047
599.993	98844
600.062	97304
600.132	99583
600.201	108019
600.270	124757
600.340	126964
600.409	121482
600.478	121191
600.547	124982
600.617	114592
600.686	100846
600.755	96964
600.824	96882
600.894	91096
600.963	89658
601.032	89463
601.101	87801
601.170	86070
601.239	86969
601.308	91050
601.378	88660
601.447	87342
601.516	87445
601.585	92572
601.654	99925
601.723	93827
601.792	96742
601.861	101231
601.930	113556
601.999	115876
602.068	107481
602.137	113770
602.206	110940
602.275	111674
602.343	125621
602.412	122998
602.481	110019
602.550	109599
602.619	112878
602.688	114912
602.756	112319
602.825	109755
602.894	113829
602.963	113215
603.032	116480
603.100	114884
603.169	114310
603.238	118206
603.307	114585
603.375	116648
603.444	120558
603.513	116196
603.581	120855
603.650	125820
603.719	112443
603.787	112783
603.856	116208
603.924	121004
603.993	125076
604.061	125906
604.130	131177
604.198	136451
604.267	133461
604.335	137117
604.404	136728
604.472	141350
604.541	140110
604.609	143879
604.678	145838
604.746	147232
604.815	152990
604.883	151274
604.951	150549
605.020	153643
605.088	149258
605.156	149964
605.225	149644
605.293	148692
605.361	153401
605.429	150733
605.498	157968
605.566	163640
605.634	167414
605.702	168551
605.771	172306
605.839	175236
605.907	167120
605.975	164697
606.043	159710
606.111	157165
606.180	164691
606.248	161456
606.316	161270
606.384	163926
606.452	165350
606.520	172765
606.588	155511
606.656	148009
606.724	145158
606.792	136022
606.860	121602
606.928	111553
606.996	109229
607.064	105851
607.132	109830
607.200	117869
607.267	120713
607.335	122254
607.403	124014
607.471	120707
607.539	118177
607.607	120119
607.674	106831
607.742	109076
607.810	113168
607.878	108439
607.946	107925
608.013	114475
608.081	117496
608.149	118497
608.216	118788
608.284	122369
608.352	121462
608.419	123307
608.487	130922
608.555	118465
608.622	118240
608.690	125434
608.757	138685
608.825	143632
608.893	140932
608.960	143098
609.028	142588
609.095	140925
609.163	126123
609.230	112565
609.298	102862
609.365	108020
609.432	115158
609.500	125999
609.567	145898
609.635	164978
609.702	172408
609.769	166271
609.837	132086
609.904	114653
609.971	120014
610.039	147131
610.106	218408
610.173	487020
610.241	1161653
610.308	562668
610.375	164567
610.442	127597
610.509	116945
610.577	116945
610.644	117016
610.711	121641
610.778	123544
610.845	129335
610.912	136946
610.980	145955
611.047	157633
611.114	145986
611.181	135780
611.248	130145
611.315	140577
611.382	142895
611.449	148904
611.516	151857
611.583	151068
611.650	152334
611.717	156019
611.784	160378
611.851	174638
611.918	200136
611.984	251986
612.051	413574
612.118	980010
612.185	2486982
612.252	1378426
612.319	301761
612.386	221002
612.452	192289
612.519	182567
612.586	188352
612.653	178994
612.719	179066
612.786	169950
612.853	155459
612.919	152132
612.986	156510
613.053	142698
613.120	135522
613.186	133521
613.253	135460
613.319	134531
613.386	135351
613.453	139699
613.519	149568
613.586	166291
613.652	198304
613.719	174457
613.785	161377
613.852	141141
613.918	140053
613.985	148213
614.051	185238
614.118	269896
614.184	241957
614.250	145547
614.317	140545
614.383	137767
614.449	139296
614.516	138138
614.582	141148
614.648	136450
614.715	137286
614.781	133514
614.847	134238
614.914	134810
614.980	130949
615.046	129093
615.112	133751
615.179	133100
615.245	137092
615.311	138358
615.377	154476
615.443	158679
615.509	147865
615.575	149610
615.642	148268
615.708	155464
615.774	168235
615.840	183201
615.906	214951
615.972	300522
616.038	541657
616.104	1249431
616.170	3034598
616.236	2336693
616.302	493432
616.368	330313
616.434	224429
616.500	201588
616.565	232397
616.631	300116
616.697	230863
616.763	247538
616.829	419684
616.895	786036
616.961	713621
617.026	274527
617.092	170745
617.158	150658
617.224	144163
617.289	132866
617.355	125423
617.421	122724
617.487	122160
617.552	114693
617.618	112532
617.684	112287
617.749	115277
617.815	108570
617.880	104848
617.946	107195
618.012	110282
618.077	109046
618.143	104457
618.208	106960
618.274	115524
618.339	116826
618.405	94251
618.470	94934
618.536	96481
618.601	98038
618.667	87040
618.732	82782
618.798	83131
618.863	83148
618.928	82946
618.994	88245
619.059	97042
619.124	127662
619.190	95062
619.255	82201
619.320	82749
619.386	82079
619.451	79374
619.516	76751
619.581	78394
619.647	80889
619.712	80268
619.777	76834
619.842	80893
619.907	83559
619.972	83577
620.038	82308
620.103	77772
620.168	77178
620.233	78101
620.298	77547
620.363	78996
620.428	81385
620.493	83810
620.558	83285
620.623	83781
620.688	84176
620.753	83505
620.818	86000
620.883	86473
620.948	85245
621.013	84425
621.078	84424
621.143	85647
621.207	88761
621.272	88686
621.337	90008
621.402	88925
621.467	97408
621.532	96921
621.596	90360
621.661	82225
621.726	79538
621.791	82138
621.855	86003
621.920	88617
621.985	87424
622.049	93566
622.114	91843
622.179	87516
622.243	88814
622.308	90347
622.373	94447
622.437	93155
622.502	85782
622.566	85136
622.631	85517
622.695	86874
622.760	87176
622.824	88864
622.889	90753
622.953	100351
623.018	142778
623.082	132377
623.147	96106
623.211	93960
623.276	93173
623.340	84365
623.404	82033
623.469	81105
623.533	83165
623.597	81664
623.662	82041
623.726	73686
623.790	71250
623.854	69193
623.919	72358
623.983	72631
624.047	73205
624.111	73256
624.176	76281
624.240	83825
624.304	88578
624.368	74637
624.432	75835
624.496	79500
624.560	91698
624.625	99438
624.689	82959
624.753	82867
624.817	79674
624.881	77964
624.945	70925
625.009	70517
625.073	70979
625.137	82823
625.201	104171
625.265	95310
625.329	77015
625.393	82989
625.456	77001
625.520	80032
625.584	87115
625.648	96240
625.712	123831
625.776	209356
625.839	220821
625.903	100722
625.967	73250
626.031	105381
626.095	144660
626.158	81351
626.222	57769
626.286	54655
626.349	52845
626.413	50563
626.477	56572
626.540	52616
626.604	51227
626.668	49971
626.731	48405
626.795	51990
626.858	51230
626.922	49221
626.986	49241
627.049	46483
627.113	49082
627.176	47883
627.240	47042
627.303	46967
627.366	46699
627.430	49894
627.493	48315
627.557	47913
627.620	47957
627.684	48257
627.747	50361
627.810	44948
627.874	44452
627.937	41639
628.000	45927
628.064	44015
628.127	38532
628.190	38365
628.253	38194
628.317	37312
628.380	36202
628.443	36753
628.506	37316
628.569	34602
628.632	32256
628.696	31125
628.759	31579
628.822	30724
628.885	30557
628.948	31308
629.011	30756
629.074	31158
629.137	29599
629.200	30127
629.263	33662
629.326	28300
629.389	28558
629.452	28663
629.515	29540
629.578	29976
629.641	32814
629.704	30346
629.767	31128
629.830	27799
629.892	27817
629.955	27830
630.018	33022
630.081	38603
630.144	48704
630.207	34666
630.269	34765
630.332	32201
630.395	28875
630.458	27081
630.520	27050
630.583	26999
630.646	26493
630.708	26431
630.771	26172
630.834	27193
630.896	26589
630.959	26634
631.021	26572
631.084	26872
631.146	30873
631.209	32665
631.272	26978
631.334	28036
631.397	28502
631.459	29950
631.522	34617
631.584	33658
631.646	36483
631.709	40947
631.771	52050
631.834	38962
631.896	32028
631.958	29314
632.021	28635
632.083	26339
632.145	28662
632.208	28542
632.270	29549
632.332	24756
632.395	24340
632.457	26253
632.519	25378
632.581	24915
632.643	25067
632.706	24589
632.768	23646
632.830	24508
632.892	25084
632.954	25114
633.016	26984
633.078	25162
633.141	25341
633.203	24381
633.265	26114
633.327	25220
633.389	26442
633.451	31359
633.513	40209
633.575	34813
633.637	38985
633.698	34528
633.760	28273
633.822	29618
633.884	30755
633.946	31019
634.008	32147
634.070	34985
634.132	39982
634.193	41571
634.255	44564
634.317	46218
634.379	46507
634.441	39372
634.502	34384
634.564	31061
634.626	28911
634.687	27123
634.749	26582
634.811	25525
634.873	23676
634.934	24859
634.996	25587
635.057	23763
635.119	25035
635.181	26007
635.242	27568
635.304	24220
635.365	27718
635.427	25884
635.488	27986
635.550	26016
635.611	26644
635.673	25996
635.734	31819
635.796	32942
635.857	38933
635.918	38302
635.980	42452
636.041	45685
636.102	50088
636.164	51610
636.225	50308
636.286	40605
636.348	36213
636.409	32273
636.470	28957
636.531	28290
636.593	28898
636.654	25599
636.715	22644
636.776	22426
636.838	21361
636.899	21856
636.960	20759
637.021	20728
637.082	20376
637.143	19752
637.204	18698
637.265	20109
637.326	19867
637.387	19750
637.448	19289
637.509	19806
637.570	19922
637.631	19999
637.692	16918
637.753	16479
637.814	18183
637.875	18083
637.936	18806
637.997	17938
638.058	19545
638.119	19480
638.179	17739
638.240	17256
638.301	17510
638.362	16513
638.423	16629
638.483	17735
638.544	15801
638.605	16941
638.666	15736
638.726	16716
638.787	16341
638.848	15857
638.908	16119
638.969	15588
639.030	16837
639.090	15155
639.151	16319
639.211	21469
639.272	29850
639.332	52775
639.393	25457
639.453	19806
639.514	19888
639.574	17513
639.635	15099
639.695	17082
639.756	16500
639.816	19815
639.877	26821
639.937	50964
639.997	63354
640.058	21285
640.118	15379
640.178	16387
640.239	15178
640.299	15529
640.359	15017
640.420	17050
640.480	19894
640.540	23170
640.600	23188
640.661	21796
640.721	21343
640.781	28676
640.841	15890
640.901	17372
640.961	17108
641.021	21220
641.082	28310
641.142	40318
641.202	22318
641.262	13258
641.322	14360
641.382	13506
641.442	14062
641.502	14247
641.562	14872
641.622	14108
641.682	17041
641.742	20896
641.802	19434
641.861	18193
641.921	18227
641.981	21364
642.041	20210
642.101	28034
642.161	16273
642.221	12979
642.280	13209
642.340	12650
642.400	12831
642.460	14094
642.519	13665
642.579	13744
642.639	14803
642.698	12256
642.758	16305
642.818	14841
642.877	15201
642.937	16220
642.997	22399
643.056	33342
643.116	18227
643.175	16802
643.235	14940
643.294	15872
643.354	18834
643.414	22035
643.473	26980
643.532	35695
643.592	53600
643.651	92215
643.711	176763
643.770	376965
643.830	966366
643.889	1859393
643.948	363894
644.008	65321
644.067	38556
644.126	29058
644.186	23228
644.245	19739
644.304	16289
644.363	18995
644.423	14860
644.482	15273
644.541	17437
644.600	17453
644.659	24547
644.719	32891
644.778	54337
644.837	100051
644.896	221102
644.955	490691
645.014	131951
645.073	32101
645.132	21554
645.191	20476
645.250	17196
645.309	18391
645.368	21112
645.427	30050
645.486	54536
645.545	88557
645.604	24622
645.663	17113
645.722	17932
645.781	19112
645.840	23377
645.898	31969
645.957	50617
646.016	84518
646.075	167977
646.134	350330
646.192	998694
646.251	1282074
646.310	159099
646.369	45295
646.427	36280
646.486	24659
646.545	18486
646.603	17595
646.662	15365
646.721	15094
646.779	14630
646.838	16477
646.896	23723
646.955	33059
647.014	56460
647.072	115242
647.131	314729
647.189	121801
647.248	18952
647.306	14265
647.365	13363
647.423	10501
647.481	12483
647.540	10631
647.598	10774
647.657	10803
647.715	10737
647.773	9332
647.832	10356
647.890	8859
647.948	9315
648.007	11792
648.065	8152
648.123	10632
648.181	12198
648.240	11937
648.298	11968
648.356	9097
648.414	9553
648.472	9581
648.531	9571
648.589	8764
648.647	9259
648.705	9103
648.763	9717
648.821	10404
648.879	10922
648.937	13430
648.995	17669
649.053	24998
649.111	40248
649.169	71536
649.227	139100
649.285	309582
649.343	858844
649.401	342873
649.459	98935
649.516	57565
649.574	39623
649.632	76623
649.690	78375
649.748	37121
649.806	50179
649.863	92889
649.921	222465
649.979	123032
650.037	17598
650.094	11049
650.152	11022
650.210	9181
650.268	9582
650.325	8822
650.383	7997
650.440	7341
650.498	8227
650.556	7634
650.613	7017
650.671	7561
650.728	8720
650.786	10289
650.843	11939
650.901	7160
650.958	8111
651.016	6840
651.073	6241
651.131	6188
651.188	5885
651.246	6853
651.303	5870
651.360	6796
651.418	6673
651.475	7179
651.532	5956
651.590	6420
651.647	6065
651.704	6841
651.762	6614
651.819	7439
651.876	5977
651.933	6030
651.990	7455
652.048	4634
652.105	6001
652.162	6506
652.219	5351
652.276	6795
652.333	6138
652.390	5211
652.448	6188
652.505	6468
652.562	6051
652.619	7609
652.676	11679
652.733	11201
652.790	6477
652.847	4361
652.904	5817
652.961	4991
653.017	5541
653.074	6310
653.131	6667
653.188	5430
653.245	6163
653.302	6179
653.359	6038
653.415	6445
653.472	4752
653.529	5058
653.586	4959
653.642	5614
653.699	6692
653.756	5162
653.813	4945
653.869	6091
653.926	5354
653.983	5092
654.039	5691
654.096	5854
654.152	6253
654.209	4298
654.266	5803
654.322	5223
654.379	7213
654.435	8287
654.492	8784
654.548	14732
654.605	22761
654.661	8870
654.717	6288
654.774	6014
654.830	5815
654.887	5656
654.943	5487
655.000	6573
655.056	6176
655.112	5947
655.168	6503
655.225	6357
655.281	8065
655.337	9988
655.394	16130
655.450	10903
655.506	9452
655.562	16796
655.618	11766
655.675	5332
655.731	5908
655.787	5083
655.843	6033
655.899	4714
655.955	6621
656.011	6329
656.067	5392
656.123	5450
656.179	5972
656.235	6856
656.291	4591
656.347	7130
656.403	6813
656.459	6889
656.515	7079
656.571	7235
656.627	6666
656.683	5996
656.739	6073
656.795	6998
656.850	8600
656.906	10332
656.962	7467
657.018	5185
657.074	7022
657.129	8154
657.185	12259
657.241	23484
657.297	11937
657.352	6601
657.408	5456
657.464	7748
657.519	5596
657.575	4250
657.630	5384
657.686	5470
657.742	4918
657.797	4758
657.853	6174
657.908	6075
657.964	4215
658.019	5730
658.075	5745
658.130	5529
658.186	3612
658.241	4769
658.297	4523
658.352	4873
658.407	5233
658.463	4342
658.518	5206
658.573	4170
658.629	4099
658.684	4469
658.739	5254
658.795	4664
658.850	4813
658.905	3822
658.960	4491
659.016	4020
659.071	5513
659.126	7287
659.181	7708
659.236	16634
659.291	16847
659.346	9264
659.401	7307
659.457	7740
659.512	9145
659.567	6629
659.622	4517
659.677	4321
659.732	4732
659.787	5333
659.842	5944
659.897	7431
659.952	5223
660.007	4865
660.061	4473
660.116	4236
660.171	4646
660.226	4279
660.281	5892
660.336	4190
660.391	4351
660.445	3755
660.500	5039
660.555	4250
660.610	4452
660.664	5647
660.719	4022
660.774	5182
660.828	4496
660.883	5194
660.938	5492
660.992	3630
661.047	4272
661.101	3937
661.156	4189
661.211	3713
661.265	4409
661.320	4611
661.374	4906
661.429	3236
661.483	4359
661.538	3398
661.592	5255
661.647	4783
661.701	4562
661.755	4509
661.810	5164
661.864	4094
661.919	3185
661.973	4794
662.027	4478
662.081	3946
662.136	3735
662.190	5118
662.244	5783
662.299	3453
662.353	4908
662.407	4337
662.461	5311
662.515	4590
662.569	4710
662.624	5539
662.678	4515
662.732	5216
662.786	5114
662.840	4718
662.894	4639
662.948	4504
663.002	3630
663.056	4378
663.110	4715
663.164	3948
663.218	4659
663.272	5577
663.326	6864
663.380	6270
663.434	5272
663.488	4676
663.542	4607
663.595	5070
663.649	3845
663.703	4336
663.757	4380
663.811	4532
663.864	4320
663.918	4552
663.972	4490
664.026	4629
664.079	4190
664.133	4968
664.187	4579
664.240	3765
664.294	4962
664.348	4584
664.401	4258
664.455	4092
664.508	4263
664.562	4123
664.615	3632
664.669	4044
664.722	4594
664.776	3980
664.829	4920
664.883	4461
664.936	4203
664.990	4719
665.043	5551
665.097	4836
665.150	5825
665.203	4603
665.257	4557
665.310	5586
665.363	4251
665.417	5165
665.470	5299
665.523	5107
665.576	4684
665.630	4692
665.683	4742
665.736	5255
665.789	5053
665.842	4991
665.895	5490
665.949	4620
666.002	3767
666.055	5019
666.108	5768
666.161	5231
666.214	5917
666.267	5893
666.320	8483
666.373	6088
666.426	5690
666.479	4851
666.532	6243
666.585	7250
666.638	7798
666.691	6204
666.744	7324
666.796	7213
666.849	6140
666.902	5385
666.955	5176
667.008	5055
667.060	4388
667.113	3803
667.166	4709
667.219	3871
667.271	4403
667.324	5020
667.377	5315
667.430	4887
667.482	7111
667.535	5531
667.587	6432
667.640	7218
667.693	9368
667.745	19020
667.798	16330
667.850	6459
667.903	5875
667.955	5337
668.008	6221
668.060	5655
668.113	5108
668.165	5117
668.218	5018
668.270	5077
668.322	5231
668.375	4787
668.427	5057
668.479	4735
668.532	5889
668.584	5432
668.636	4734
668.689	5384
668.741	4336
668.793	5391
668.845	4872
668.898	5478
668.950	4753
669.002	4965
669.054	5380
669.106	4697
669.158	4837
669.211	5162
669.263	4744
669.315	7514
669.367	7252
669.419	5733
669.471	8009
669.523	7739
669.575	9477
669.627	7016
669.679	6775
669.731	6187
669.783	5746
669.835	7177
669.886	5341
669.938	5521
669.990	5189
670.042	4470
670.094	4613
670.146	4603
670.197	4513
670.249	4886
670.301	5691
670.353	6566
670.404	7870
670.456	8729
670.508	12551
670.560	18877
670.611	29734
670.663	49653
670.715	122485
670.766	170871
670.818	38481
670.869	9280
670.921	7537
670.972	6730
671.024	6029
671.075	5279
671.127	6919
671.178	5619
671.230	6345
671.281	6232
671.333	7570
671.384	7113
671.436	9417
671.487	12405
671.538	16453
671.590	26116
671.641	41582
671.692	74727
671.744	132876
671.795	77644
671.846	26757
671.897	15251
671.949	11355
672.000	7829
672.051	7579
672.102	6763
672.153	6042
672.204	5936
672.256	6050
672.307	6062
672.358	6555
672.409	5927
672.460	5526
672.511	4614
672.562	4834
672.613	4457
672.664	4713
672.715	4779
672.766	4572
672.817	4614
672.868	4595
672.919	4528
672.970	4815
673.021	4287
673.071	3624
673.122	5108
673.173	4199
673.224	4278
673.275	4218
673.326	4307
673.376	4022
673.427	4770
673.478	3938
673.528	4939
673.579	4373
673.630	3547
673.680	5270
673.731	4011
673.782	4332
673.832	4321
673.883	4300
673.934	4263
673.984	4219
674.035	3772
674.085	4242
674.136	4362
674.186	5787
674.237	6175
674.287	9671
674.338	5446
674.388	4437
674.438	3908
674.489	5189
674.539	4814
674.589	5238
674.640	5179
674.690	5718
674.740	4443
674.791	5344
674.841	4624
674.891	4748
674.942	4035
674.992	4434
675.042	3905
675.092	3339
675.142	3856
675.193	4224
675.243	3947
675.293	4560
675.343	3665
675.393	4932
675.443	3945
675.493	3743
675.543	3531
675.593	4166
675.643	4389
675.693	3701
675.743	3180
675.793	4067
675.843	3043
675.893	4028
675.943	3622
675.993	3530
676.043	3793
676.093	3671
676.142	3365
676.192	3945
676.242	3724
676.292	2524
676.341	3934
676.391	3379
676.441	2921
676.491	3352
676.540	3173
676.590	3611
676.640	3451
676.689	3124
676.739	3276
676.789	3163
676.838	3036
676.888	3523
676.937	3684
676.987	3759
677.037	2051
677.086	3690
677.136	3679
677.185	2458
677.235	3059
677.284	2473
677.333	3115
677.383	3146
677.432	2391
677.482	2716
677.531	3121
677.580	2949
677.630	2452
677.679	3113
677.728	2697
677.778	2808
677.827	2751
677.876	2731
677.925	2812
677.975	3388
678.024	2437
678.073	3138
678.122	3988
678.171	2997
678.220	3592
678.269	4354
678.319	4919
678.368	5223
678.417	3605
678.466	3644
678.515	4400
678.564	4150
678.613	3415
678.662	2561
678.711	2772
678.760	3315
678.809	3790
678.857	3191
678.906	3220
678.955	3185
679.004	3264
679.053	3066
679.102	2656
679.151	3111
679.199	2604
679.248	2987
679.297	3430
679.346	3509
679.394	3258
679.443	3556
679.492	3617
679.540	2762
679.589	3011
679.638	2376
679.686	2903
679.735	2934
679.784	3488
679.832	4463
679.881	3155
679.929	3418
679.978	2095
680.026	3510
680.075	2999
680.123	2385
680.172	1867
680.220	2054
680.268	2716
680.317	1640
680.365	3253
680.414	2958
680.462	3015
680.510	3069
680.559	2548
680.607	2659
680.655	3059
680.703	3512
680.752	1719
680.800	1916
680.848	1864
680.896	2681
680.945	2301
680.993	3245
681.041	2498
681.089	2792
681.137	1733
681.185	1609
681.233	2321
681.258	2554
681.281	2759
681.329	2557
681.377	1647
681.380	1736
681.425	3035
681.473	2728
681.502	2688
681.521	2630
681.569	2807
681.617	3166
681.624	3170
681.665	3047
681.713	3013
681.745	2968
681.761	2934
681.809	2928
681.857	3100
681.867	3018
681.904	2654
681.952	3352
681.989	3214
682.000	3147
682.048	2703
682.096	2504
682.111	2880
682.143	3602
682.191	3284
682.233	3175
682.239	3149
682.286	2962
682.334	2939
682.354	2848
682.382	2685
682.430	3112
682.476	2642
682.477	2616
682.525	2902
682.572	2518
682.598	2598
682.620	2661
682.667	3249
682.715	3719
682.720	3759
682.763	3982
682.810	3879
682.841	3376
682.857	3050
682.905	3338
682.952	4094
682.963	3984
683.000	3527
683.047	3170
683.085	3663
683.095	3797
683.142	2839
683.190	3711
683.206	3586
683.237	3352
683.284	3434
683.328	3065
683.332	3011
683.379	3293
683.426	3805
683.449	3608
683.473	3443
683.521	3557
683.568	3295
683.571	3300
683.615	3161
683.662	4080
683.693	3397
683.709	2976
683.757	3349
683.804	3400
683.814	3407
683.851	3443
683.898	4470
683.936	4765
683.945	4846
683.992	4710
684.039	4470
684.057	4768
684.086	5170
684.133	5456
684.179	5361
684.180	5334
684.227	5746
684.274	5771
684.300	5726
684.321	5685
684.368	4778
684.415	5267
684.422	5241
684.462	4948
684.509	3408
684.543	3852
684.556	4071
684.603	4080
684.649	4051
684.665	4363
684.696	4895
684.743	4110
684.786	4749
684.790	4804
684.837	4010
684.883	5272
684.908	5331
684.930	5291
684.977	4822
685.023	5295
685.029	5229
685.070	4583
685.117	4586
685.150	4682
685.164	4813
685.210	5431
685.257	5591
685.272	5523
685.303	5248
685.350	5526
685.393	6052
685.396	6116
685.443	7157
685.490	8149
685.514	8277
685.536	7891
685.583	6804
685.629	6548
685.636	6396
685.675	5869
685.722	5777
685.757	6125
685.768	6224
685.815	6140
685.861	5977
685.878	5960
685.908	6016
685.954	5662
686.000	6562
686.000	6575
686.047	6774
686.093	8413
686.121	8407
686.139	8063
686.185	7112
686.232	7052
686.242	6993
686.278	6794
686.324	5872
686.363	5268
686.370	5238
686.416	5877
686.463	5666
686.484	5748
686.509	5702
686.555	5531
686.601	5628
686.606	5617
686.647	5522
686.693	5493
686.727	5511
686.739	5562
686.785	5408
686.831	5373
686.848	5758
686.877	6285
686.923	5778
686.969	5867
686.969	5868
687.015	5721
687.061	5802
687.090	6474
687.107	6803
687.153	6132
687.199	6319
687.211	6257
687.245	6152
687.291	6768
687.332	6575
687.336	6539
687.382	6741
687.428	5895
687.453	6100
687.474	6256
687.520	5978
687.565	5750
687.574	5676
687.611	5544
687.657	6189
687.695	5847
687.702	5800
687.748	6355
687.794	6453
687.816	6411
687.839	6248
687.885	6091
687.931	5997
687.937	5948
687.976	5858
688.022	6433
688.058	6671
688.067	6717
688.113	6553
688.158	6970
688.179	6861
688.204	6639
688.249	6545
688.295	6402
688.300	6393
688.340	6740
688.386	7218
688.421	7117
688.431	7068
688.477	7427
688.522	7887
688.542	7972
688.567	7908
688.613	7785
688.658	6562
688.663	6615
688.703	6988
688.749	6789
688.784	6700
688.794	6758
688.839	6942
688.884	6509
688.905	6547
688.930	6578
688.975	6676
689.020	6828
689.026	6840
689.065	7105
689.110	7062
689.146	7187
689.155	7126
689.201	7101
689.246	6311
689.267	6313
689.291	6681
689.336	7193
689.381	7848
689.388	7774
689.426	6984
689.471	7067
689.509	6837
689.516	6841
689.561	7185
689.606	7409
689.630	7031
689.651	6661
689.696	6788
689.741	6873
689.750	6887
689.785	7191
689.830	7420
689.871	7734
689.875	7736
689.920	7102
689.965	6922
689.992	6896
690.010	6993
690.054	7312
690.099	7235
690.112	7168
690.144	7141
690.189	7392
690.233	7818
690.233	7829
690.278	7942
690.323	7727
690.354	7384
690.367	7254
690.412	7604
690.457	7278
690.474	7459
690.501	7894
690.546	7878
690.590	7782
690.595	7765
690.635	7470
690.680	7130
690.716	7227
690.724	7365
690.769	7781
690.813	8540
690.836	8578
690.857	8711
690.902	9222
690.946	10736
690.957	10817
690.991	11869
691.035	13648
691.077	15480
691.080	15518
691.124	15020
691.168	14836
691.198	14559
691.213	14158
691.257	13337
691.301	11893
691.318	11547
691.346	11064
691.390	9800
691.434	9021
691.439	8877
691.478	9024
691.522	9915
691.559	10105
691.567	10121
691.611	10280
691.655	10166
691.680	10176
691.699	9943
691.743	9191
691.787	9048
691.800	8877
691.831	8929
691.875	8826
691.919	8871
691.921	8857
691.964	9242
692.008	9798
692.041	9857
692.052	9745
692.096	9109
692.139	9390
692.162	8964
692.183	8652
692.227	8936
692.271	8744
692.282	8677
692.315	8630
692.359	8539
692.402	8680
692.403	8701
692.447	9014
692.490	9310
692.523	9804
692.534	9827
692.578	9498
692.622	9296
692.643	9242
692.666	9268
692.709	9056
692.753	9082
692.763	8983
692.797	8844
692.840	8887
692.884	8969
692.884	8990
692.928	9302
692.971	9701
693.004	9669
693.015	9527
693.059	9346
693.102	9114
693.124	8789
693.146	8941
693.189	9516
693.233	10204
693.245	10311
693.276	10423
693.320	10648
693.363	10545
693.365	10529
693.407	10494
693.450	10557
693.485	10483
693.493	10710
693.537	11911
693.580	12700
693.605	13459
693.624	14020
693.667	14903
693.710	15956
693.725	16220
693.753	18727
693.797	23305
693.840	27655
693.845	28040
693.883	26695
693.926	25031
693.966	23754
693.970	23479
694.013	20247
694.056	16874
694.086	14697
694.099	14484
694.142	13400
694.185	12735
694.206	12260
694.229	12417
694.272	12566
694.315	12976
694.326	13004
694.358	13347
694.401	14125
694.444	14478
694.446	14471
694.487	13797
694.530	12910
694.566	12218
694.573	12128
694.616	11394
694.659	10570
694.686	10241
694.702	10341
694.745	10167
694.787	10105
694.806	10003
694.830	9861
694.873	9921
694.916	9461
694.926	9419
694.959	9766
695.002	10431
695.044	10659
695.046	10648
695.087	10876
695.130	10957
695.166	11159
695.172	11138
695.215	10788
695.258	10495
695.286	10198
695.301	10235
695.343	10264
695.386	10259
695.406	10322
695.428	10386
695.471	10248
695.514	10308
695.526	10229
695.556	10283
695.599	10693
695.641	10766
695.646	10767
695.684	10710
695.726	10302
695.766	10128
695.769	10172
695.811	10471
695.854	10873
695.886	11016
695.896	10990
695.938	10718
695.981	10547
696.005	10336
696.023	10524
696.065	11115
696.108	11787
696.125	11868
696.150	11552
696.192	11250
696.235	10982
696.245	10857
696.277	11012
696.319	11078
696.361	11447
696.365	11432
696.404	11457
696.446	11459
696.485	11464
696.488	11492
696.530	11582
696.572	11408
696.604	11369
696.614	11348
696.656	11089
696.698	10865
696.724	10659
696.740	10750
696.783	11009
696.825	11295
696.844	11360
696.867	11256
696.909	10925
696.951	10604
696.964	10532
696.992	10778
697.034	10882
697.076	11135
697.083	11142
697.118	11288
697.160	11422
697.202	11527
697.203	11499
697.244	11588
697.286	11738
697.323	11737
697.327	11797
697.369	12105
697.411	12322
697.442	12600
697.453	12760
697.494	13054
697.536	13465
697.562	13724
697.578	13809
697.620	13894
697.661	13953
697.682	13921
697.703	14499
697.744	15608
697.786	16847
697.801	17213
697.828	16907
697.869	16315
697.911	15700
697.921	15522
697.952	14844
697.994	13931
698.035	12949
698.040	12798
698.077	12729
698.118	12618
698.160	12497
698.160	12462
698.201	12886
698.243	13333
698.279	13664
698.284	13687
698.325	13554
698.367	13423
698.399	13270
698.408	13313
698.449	13367
698.491	13425
698.518	13426
698.532	13337
698.573	12948
698.614	12542
698.638	12274
698.656	12572
698.697	13215
698.738	13838
698.757	14097
698.779	13861
698.820	13348
698.862	12811
698.877	12587
698.903	12841
698.944	13179
698.985	13519
698.996	13579
699.026	13481
699.067	13295
699.116	13040
699.235	12728
699.354	12170
699.474	13509
699.593	14734
699.713	14835
699.832	14134
699.951	16069
700.070	14238
700.190	12726
700.309	13322
700.428	14195
700.547	13269
700.667	13679
700.786	15244
700.905	13587
701.024	14150
701.143	12991
701.262	12512
701.381	12586
701.500	13958
701.619	16728
701.738	13523
701.857	13089
701.976	11293
702.095	12962
702.214	15742
702.333	15890
702.452	14651
702.571	12280
702.690	12449
702.809	11801
702.928	12127
703.047	12600
703.165	11873
703.284	12174
703.403	12317
703.522	13813
703.640	13485
703.759	18416
703.878	21177
703.997	13445
704.115	11347
704.234	12983
704.353	11417
704.471	11194
704.590	9833
704.708	10688
704.827	10077
704.946	11338
705.064	11629
705.183	10741
705.301	12071
705.420	14101
705.538	12757
705.656	12472
705.775	13718
705.893	26562
706.012	27377
706.130	12889
706.249	13075
706.367	13642
706.485	13176
706.604	13325
706.722	13647
706.840	17051
706.958	13590
707.077	11808
707.195	11350
707.313	11558
707.431	10903
707.549	11030
707.668	10303
707.786	11731
707.904	11353
708.022	11393
708.140	10418
708.258	11756
708.376	11091
708.494	11154
708.612	12165
708.730	15446
708.848	13763
708.966	15670
709.084	15527
709.202	13231
709.320	12379
709.438	12650
709.556	12945
709.674	11496
709.791	12605
709.909	12159
710.027	12185
710.145	12021
710.263	12097
710.380	12129
710.498	12335
710.616	12123
710.733	12675
710.851	13114
710.969	13302
711.086	12665
711.204	12411
711.322	12412
711.439	12973
711.557	12912
711.674	11673
711.792	11831
711.909	13267
712.027	13558
712.144	11142
712.262	11266
712.379	13133
712.497	16373
712.614	15561
712.732	14277
712.849	13600
712.966	17421
713.084	22386
713.201	15319
713.318	13566
713.436	13326
713.553	13299
713.670	15071
713.787	16425
713.905	16855
714.022	14430
714.139	16728
714.256	20387
714.373	30425
714.490	55429
714.608	167826
714.725	716247
714.842	560026
714.959	40645
715.076	21496
715.193	16697
715.310	16477
715.427	13627
715.544	14109
715.661	13111
715.778	12730
715.895	14683
716.011	13317
716.128	12492
716.245	13510
716.362	18915
716.479	19333
716.596	12419
716.713	11922
716.829	11076
716.946	11518
717.063	10637
717.180	10610
717.296	10766
717.413	11036
717.530	11081
717.646	11690
717.763	11071
717.880	10037
717.996	11303
718.113	12373
718.229	11194
718.346	11238
718.462	12710
718.579	19839
718.695	41912
718.812	22720
718.928	17600
719.045	11536
719.161	10603
719.277	10930
719.394	10445
719.510	11964
719.626	12305
719.743	16013
719.859	22214
719.975	48184
720.092	202437
720.208	378145
720.324	36819
720.440	15063
720.557	16131
720.673	31333
720.789	31659
720.905	53798
721.021	15811
721.137	11134
721.253	9890
721.369	10351
721.486	11881
721.602	16029
721.718	9531
721.834	9253
721.950	9621
722.066	9884
722.181	8597
722.297	10445
722.413	9280
722.529	9312
722.645	8946
722.761	9138
722.877	8769
722.993	8653
723.108	11164
723.224	9977
723.340	8830
723.456	8754
723.571	9064
723.687	8232
723.803	8474
723.918	9359
724.034	8717
724.150	8678
724.265	11004
724.381	21865
724.497	22822
724.612	8462
724.728	6916
724.843	7479
724.959	9926
725.074	21080
725.190	20915
725.305	9775
725.421	7871
725.536	7344
725.651	7632
725.767	7215
725.882	7123
725.997	7723
726.113	8315
726.228	7151
726.343	7096
726.459	7164
726.574	8133
726.689	7315
726.804	7373
726.920	7395
727.035	8022
727.150	7907
727.265	6613
727.380	8332
727.495	7838
727.610	7619
727.725	7622
727.841	9812
727.956	15219
728.071	12452
728.186	7871
728.301	6635
728.416	8481
728.531	8220
728.645	7264
728.760	8613
728.875	9659
728.990	8944
729.105	8306
729.220	9116
729.335	9677
729.449	7005
729.564	5615
729.679	6233
729.794	6870
729.908	6515
730.023	6317
730.138	6615
730.253	5800
730.367	6021
730.482	6066
730.596	6965
730.711	7877
730.826	7183
730.940	6723
731.055	8270
731.169	6835
731.284	6821
731.398	6867
731.513	8283
731.627	7517
731.742	10264
731.856	10585
731.970	10064
732.085	11963
732.199	17531
732.313	31087
732.428	82073
732.542	222294
732.656	103080
732.771	21505
732.885	12143
732.999	11561
733.113	11130
733.227	9430
733.342	8380
733.456	8380
733.570	7522
733.684	7838
733.798	8503
733.912	6983
734.026	6935
734.140	8052
734.254	8732
734.368	13582
734.482	16156
734.596	7089
734.710	6991
734.824	7639
734.938	7259
735.052	7551
735.166	9962
735.280	7020
735.393	7058
735.507	8277
735.621	9746
735.735	15185
735.849	8138
735.962	6474
736.076	7849
736.190	7978
736.303	10062
736.417	12485
736.531	7202
736.644	6943
736.758	6656
736.872	6405
736.985	6959
737.099	6401
737.212	6360
737.326	7301
737.439	7177
737.553	5986
737.666	7224
737.780	6273
737.893	6590
738.007	5707
738.120	6165
738.233	6405
738.347	6838
738.460	6768
738.573	7991
738.687	7246
738.800	9349
738.913	11622
739.026	8243
739.140	7355
739.253	6320
739.366	6367
739.479	6441
739.592	5845
739.705	6754
739.818	5714
739.932	5893
740.045	6940
740.158	6930
740.271	6418
740.384	6115
740.497	7543
740.610	7481
740.723	7011
740.836	7664
740.949	8409
741.062	12561
741.174	9412
741.287	6832
741.400	6349
741.513	6422
741.626	8556
741.739	7291
741.851	6334
741.964	6221
742.077	5919
742.189	7010
742.302	8695
742.415	7937
742.527	6762
742.640	5669
742.753	5483
742.865	6084
742.978	5799
743.090	4922
743.203	5512
743.316	5618
743.428	5752
743.541	5089
743.653	5148
743.766	5312
743.878	5256
743.990	7517
744.103	7736
744.215	8265
744.327	6292
744.440	9984
744.552	16358
744.664	7443
744.777	4860
744.889	4993
745.001	5978
745.113	4863
745.226	3838
745.338	5211
745.450	3980
745.562	4834
745.674	3900
745.786	4808
745.898	4378
746.010	5132
746.122	5070
746.234	5435
746.347	3771
746.459	4574
746.570	3252
746.682	6014
746.794	6923
746.906	5609
747.018	4221
747.130	5396
747.242	4494
747.354	5246
747.466	5373
747.577	4996
747.689	4803
747.801	4890
747.913	3967
748.024	4163
748.136	3729
748.248	4209
748.359	4408
748.471	4929
748.583	3378
748.694	5350
748.806	6251
748.918	5739
749.029	5203
749.141	6236
749.252	6167
749.364	8524
749.475	19237
749.587	10124
749.698	4391
749.809	4330
749.921	4803
750.032	3127
750.144	3527
750.255	3518
750.366	4157
750.478	4163
750.589	4139
750.700	6265
750.811	5663
750.923	9419
751.034	22755
751.145	19675
751.256	4986
751.367	3930
751.479	4097
751.590	4024
751.701	3596
751.812	3364
751.923	4213
752.034	4780
752.145	4065
752.256	3908
752.367	3733
752.478	4077
752.589	3787
752.700	4114
752.811	3874
752.922	4447
753.032	5177
753.143	6441
753.254	2992
753.365	4537
753.476	3836
753.586	3927
753.697	3263
753.808	3486
753.919	4096
754.029	3585
754.140	3308
754.251	4270
754.361	3869
754.472	4029
754.582	4009
754.693	4320
754.804	3899
754.914	4303
755.025	3481
755.135	3498
755.246	3221
755.356	3469
755.466	3627
755.577	4114
755.687	3677
755.798	3689
755.908	2851
756.018	3134
756.129	3278
756.239	4701
756.349	3639
756.460	3773
756.570	4530
756.680	3825
756.790	5228
756.900	5956
757.011	2769
757.121	3466
757.231	2780
757.341	3717
757.451	2947
757.561	3132
757.671	2898
757.781	3611
757.891	4809
758.001	3712
758.111	3508
758.221	4945
758.331	5809
758.441	6316
758.551	9347
758.661	8105
758.771	5003
758.880	4940
758.990	2927
759.100	4073
759.210	3781
759.320	4287
759.429	4636
759.539	4989
759.649	4990
759.758	6201
759.868	6137
759.978	6015
760.087	6619
760.197	5555
760.307	5977
760.416	5885
760.526	4547
760.635	6137
760.745	4983
760.854	5733
760.964	6244
761.073	7399
761.182	6297
761.292	5796
761.401	5516
761.511	5069
761.620	4235
761.729	4881
761.839	4279
761.948	5831
762.057	4657
762.166	4312
762.276	3090
762.385	5284
762.494	4246
762.603	4561
762.712	4616
762.822	3685
762.931	4104
763.040	3589
763.149	4244
763.258	3783
763.367	4447
763.476	4601
763.585	4680
763.694	5319
763.803	4775
763.912	5787
764.021	5047
764.130	5516
764.238	5322
764.347	5687
764.456	5284
764.565	5788
764.674	5725
764.783	6106
764.891	6086
765.000	6872
765.109	7426
765.217	8598
765.326	10031
765.435	12462
765.543	12925
765.652	15494
765.761	19820
765.869	30406
765.978	46115
766.086	85765
766.195	177186
766.303	476260
766.412	1092500
766.520	760390
766.629	204675
766.737	81837
766.846	47960
766.954	33433
767.062	24464
767.171	19835
767.279	15894
767.387	11924
767.496	10338
767.604	9585
767.712	9019
767.820	8369
767.928	7473
768.037	8434
768.145	7656
768.253	8514
768.361	6621
768.469	7672
768.577	6690
768.685	8444
768.793	7573
768.901	7877
769.009	9955
769.117	11042
769.225	13240
769.333	20327
769.441	32349
769.549	68220
769.657	165737
769.765	541699
769.873	828739
769.981	244264
770.088	61725
770.196	31414
770.304	22072
770.412	16968
770.519	12853
770.627	10100
770.735	7935
770.842	8923
770.950	7900
771.058	7472
771.165	6693
771.273	6772
771.380	6639
771.488	6588
771.595	6561
771.703	6603
771.810	6037
771.918	6357
772.025	6552
772.133	6371
772.240	5319
772.348	6700
772.455	7126
772.562	4918
772.670	5276
772.777	5192
772.884	4863
772.991	6079
773.099	5671
773.206	4947
773.313	5242
773.420	6092
773.528	4106
773.635	5433
773.742	4839
773.849	5442
773.956	4859
774.063	5513
774.170	4323
774.277	5779
774.384	4223
774.491	6309
774.598	4486
774.705	6429
774.812	7293
774.919	5962
775.026	4842
775.133	4967
775.239	4421
775.346	4396
775.453	4701
775.560	4501
775.667	4439
775.773	4486
775.880	5379
775.987	4906
776.093	4665
776.200	4273
776.307	3018
776.413	5033
776.520	3853
776.627	5177
776.733	3860
776.840	3477
776.946	6699
777.053	6705
777.159	11436
777.266	6219
777.372	9591
777.478	8761
777.585	7745
777.691	4867
777.798	4542
777.904	5279
778.010	9947
778.117	7050
778.223	4450
778.329	4116
778.435	3435
778.542	4951
778.648	3588
778.754	4031
778.860	4170
778.966	3920
779.072	3135
779.178	3937
779.284	4080
779.391	3222
779.497	1817
779.603	5453
779.708	2360
779.815	5586
779.920	9432
780.026	10873
780.132	3453
780.238	3315
780.344	3680
780.450	4741
780.556	2209
780.661	3588
780.767	3113
780.873	3610
780.979	3744
781.085	3539
781.190	3327
781.296	3483
781.402	3546
781.507	2510
781.613	2736
781.719	3890
781.824	3806
781.930	3796
782.035	3020
782.141	2774
782.246	2281
782.352	3264
782.457	2341
782.563	2694
782.668	2653
782.773	2339
782.879	2724
782.984	4395
783.090	5588
783.195	10222
783.300	5290
783.405	3045
783.511	2643
783.616	3654
783.721	2583
783.826	3168
783.932	3185
784.037	3967
784.142	3682
784.247	3121
784.352	2928
784.457	2739
784.562	3371
784.667	4531
784.772	2905
784.877	2734
784.982	3045
785.087	3507
785.192	2050
785.297	3355
785.402	2569
785.507	3483
785.611	2563
785.716	3010
785.821	2253
785.926	2171
786.031	2318
786.135	3458
786.240	3677
786.345	1959
786.450	2834
786.554	2853
786.659	1701
786.763	1924
786.868	2612
786.973	3398
787.077	2092
787.182	2940
787.286	2856
787.391	2693
787.495	1534
787.600	2265
787.704	1762
787.809	2804
787.913	2042
788.017	3504
788.122	1970
788.226	2713
788.330	2720
788.435	2436
788.539	2890
788.643	2160
788.747	2344
788.852	1881
788.956	1608
789.060	2599
789.164	2767
789.268	1950
789.372	2226
789.476	2279
789.580	2022
789.684	1690
789.788	2700
789.892	1992
789.996	2621
790.100	1017
790.204	1985
790.308	2147
790.412	2322
790.516	2390
790.620	1740
790.724	2621
790.828	1389
790.931	1121
791.035	3384
791.139	2084
791.242	1400
791.346	3592
791.450	1798
791.554	1993
791.657	787
791.761	2809
791.864	2858
791.968	2229
792.072	2473
792.175	2943
792.279	1875
792.382	3266
792.486	2605
792.589	1665
792.693	2091
792.796	1810
792.899	2289
793.003	3178
793.106	1741
793.209	2518
793.313	3381
793.416	1686
793.519	4169
793.623	7239
793.726	9056
793.829	4486
793.932	2313
794.035	1576
794.138	3423
794.242	3167
794.345	4190
794.448	4876
794.551	7352
794.654	8714
794.757	5896
794.860	3739
794.963	3513
795.066	1630
795.169	2858
795.272	1858
795.375	1759
795.477	942
795.580	2201
795.683	642
795.786	1055
795.889	1331
795.991	2384
796.094	3760
796.197	1328
796.300	3441
796.402	1599
796.505	1743
796.608	1586
796.710	2854
796.813	2041
796.915	1969
797.018	2666
797.120	2120
797.223	883
797.326	2963
797.428	571
797.530	2102
797.633	2089
797.735	3399
797.838	4137
797.940	4784
798.042	1057
798.145	1951
798.247	1948
798.349	356
798.452	2291
798.554	1996
798.656	367
798.758	2936
798.860	735
798.962	1648
799.065	1088
799.167	1092
799.269	2640
799.371	3120
799.473	2998
799.575	2586
799.677	2883
799.779	5872
799.881	5868
799.983	4627
800.085	1717
800.187	2626
800.289	1034
800.390	2057
800.492	2146
800.594	1982
800.696	834
800.798	1177
800.899	1143
801.001	1446
801.103	1215
801.205	1256
801.306	1324
801.408	1114
801.509	1118
801.611	1997
801.713	1564
801.814	453
801.916	1381
802.017	2097
802.119	758
802.220	1945
802.322	431
802.423	4679
802.525	637
802.626	307
802.727	2400
802.829	2191
802.930	-461
803.031	3130
803.133	1069
803.234	1697
803.335	964
803.436	1190
803.538	568
803.639	952
803.740	1436
803.841	120
803.942	1794
804.043	2248
804.144	136
804.245	1538
804.346	641
804.447	1645
804.548	4260
804.649	4708
804.750	1104
804.851	1239
804.952	643
805.053	1293
805.154	604
805.255	2473
805.355	1086
805.456	1453
805.557	-32
805.658	672
805.758	1579
805.859	821
805.960	932
806.061	359
806.161	556
806.262	1101
806.362	1314
806.463	1119
806.564	1581
806.664	1652
806.765	1388
806.865	1822
806.966	997
807.066	604
807.166	2057
807.267	1512
807.367	1217
807.468	1791
807.568	435
807.668	1858
807.769	1053
807.869	537
807.969	1112
808.069	1036
808.170	714
808.270	955
808.370	1873
808.470	3402
808.570	1885
808.670	834
808.770	1336
808.870	945
808.970	1637
809.070	1294
809.170	417
809.271	1651
809.370	1217
809.470	2174
809.570	821
809.670	989
809.770	1005
809.870	780
809.970	1882
810.070	1853
810.169	718
810.269	-394
810.369	1453
810.469	340
810.568	543
810.668	1251
810.768	206
810.867	1030
810.967	372
811.066	1341
811.166	569
811.265	1549
811.365	140
811.464	399
811.564	1071
811.663	1094
811.763	-70
811.862	1373
811.962	1765
812.061	1204
812.160	-159
812.260	1681
812.359	1252
812.458	381
812.557	1800
812.657	1221
812.756	977
812.855	581
812.954	648
813.053	1882
813.153	657
813.252	30
813.351	1471
813.450	710
813.549	51
813.648	1641
813.747	556
813.846	1621
813.945	737
814.044	1135
814.143	983
814.242	1587
814.341	1040
814.439	1805
814.538	924
814.637	1561
814.736	-71
814.835	1540
814.933	786
815.032	1936
815.131	1477
815.229	2614
815.328	2112
815.427	2001
815.525	2529
815.624	1828
815.722	829
815.821	1605
815.919	2330
816.018	1445
816.116	3202
816.215	2146
816.313	1772
816.412	3431
816.510	3095
816.609	4237
816.707	3609
816.805	3018
816.904	3348
817.002	3677
817.100	4159
817.198	4418
817.296	4209
817.395	4397
817.493	5712
817.591	4495
817.689	6151
817.787	8105
817.885	12050
817.983	22033
818.081	44962
818.179	109347
818.277	252921
818.375	198455
818.473	60845
818.571	25308
818.669	16367
818.767	15230
818.865	14174
818.963	17692
819.061	24621
819.158	43233
819.256	93097
819.354	226319
819.452	451276
819.549	271615
819.647	83890
819.745	35347
819.842	21796
819.940	15726
820.038	11063
820.135	8551
820.233	7831
820.330	6264
820.428	5066
820.525	5352
820.623	3670
820.720	3740
820.818	4258
820.915	4118
821.012	3464
821.110	2216
821.207	3587
821.304	3290
821.402	2777
821.499	4223
821.596	5803
821.693	4635
821.791	3659
821.888	5868
821.985	11773
822.082	8419
822.179	4312
822.276	3764
822.373	1443
822.470	2180
822.567	2365
822.664	1860
822.761	3130
822.858	1621
822.955	2506
823.052	2659
823.149	1222
823.246	2769
823.343	845
823.440	2419
823.536	1787
823.633	1093
823.730	1565
823.827	1373
823.923	1980
824.020	2570
824.117	1772
824.213	1885
824.310	2354
824.407	1814
824.503	1742
824.600	1473
824.696	1271
824.793	3218
824.889	1126
824.986	1283
825.082	1102
825.179	2190
825.275	1061
825.371	1942
825.468	1524
825.564	836
825.660	1240
825.757	1653
825.853	1460
825.949	155
826.045	961
826.142	1212
826.238	543
826.334	1768
826.430	-380
826.526	847
826.622	493
826.718	1438
826.814	719
826.910	1537
827.006	277
827.102	519
827.198	1866
827.294	1673
827.390	1478
827.486	1909
827.582	430
827.678	822
827.774	1574
827.869	530
827.965	2312
828.061	250
828.157	1068
828.252	1175
828.348	360
828.444	1940
828.539	90
828.635	1703
828.731	1153
828.826	1239
828.922	902
829.017	809
829.113	1331
829.208	1381
829.304	591
829.399	2521
829.495	155
829.590	1876
829.685	467
829.781	1251
829.876	1151
829.971	1217
830.066	504
830.162	1227
830.257	602
830.352	1254
830.447	1718
830.543	1673
830.638	411
830.733	1938
830.828	393
830.923	2048
831.018	627
831.113	795
831.208	358
831.303	1594
831.398	444
831.493	1147
831.588	1840
831.683	-14
831.778	1130
831.873	1005
831.967	1567
832.062	1205
832.157	251
832.252	2927
832.346	647
832.441	2815
832.536	3035
832.631	9444
832.725	6327
832.820	853
832.914	126
833.009	814
833.104	2051
833.198	2943
833.293	938
833.387	2074
833.482	1055
833.576	454
833.670	956
833.765	1683
833.859	649
833.954	1700
834.048	449
834.142	1716
834.237	886
834.331	907
834.425	1152
834.519	643
834.613	1286
834.708	134
834.802	472
834.896	755
834.990	562
835.084	990
835.178	700
835.272	644
835.366	438
835.460	1246
835.554	426
835.648	233
835.742	108
835.836	531
835.930	-849
836.024	845
836.117	1756
836.211	1088
836.305	1550
836.399	3155
836.493	52
836.586	1896
836.680	-553
836.774	371
836.867	901
836.961	-476
837.055	174
837.148	889
837.242	683
837.335	69
837.429	564
837.522	1079
837.616	-44
837.709	3242
837.803	1516
837.896	1332
837.989	320
838.083	2104
838.176	2689
838.269	1994
838.363	1729
838.456	1658
838.549	2214
838.642	3879
838.735	9914
838.829	4234
838.922	-497
839.015	628
839.108	-247
839.201	421
839.294	375
839.387	1552
839.480	685
839.573	1319
839.666	1453
839.759	647
839.852	-115
839.945	1015
840.038	410
840.131	359
840.223	107
840.316	921
840.409	21
840.502	204
840.594	918
840.687	271
840.780	562
840.873	-29
840.965	1002
841.058	1857
841.150	2543
841.243	1241
841.336	505
841.428	820
841.521	26
841.613	691
841.706	1139
841.798	29
841.890	948
841.983	173
842.075	965
842.167	813
842.260	598
842.352	2328
842.444	1598
842.537	4232
842.629	5269
842.721	585
842.813	38
842.905	-142
842.997	863
843.090	1156
843.182	1884
843.274	3278
843.366	8608
843.458	15400
843.550	8529
843.642	1259
843.734	417
843.826	1428
843.918	1423
844.009	1789
844.101	384
844.193	894
844.285	455
844.377	1408
844.469	1599
844.560	2319
844.652	2387
844.744	2730
844.835	710
844.927	624
845.019	980
845.110	1057
845.202	244
845.293	498
845.385	22
845.476	595
845.568	1163
845.659	12
845.751	1041
845.842	4
845.934	-456
846.025	-633
846.116	856
846.208	156
846.299	176
846.390	579
846.482	201
846.573	1869
846.664	1525
846.755	2790
846.846	2491
846.937	-362
847.029	746
847.120	798
847.211	194
847.302	1703
847.393	-1583
847.484	812
847.575	-335
847.666	31
847.757	-86
847.847	160
847.938	1034
848.029	207
848.120	-110
848.211	373
848.302	751
848.392	86
848.483	-55
848.574	-376
848.664	-92
848.755	964
848.846	-88
848.936	428
849.027	406
849.118	1492
849.208	628
849.299	2748
849.389	5177
849.480	13025
849.570	26080
849.661	51221
849.751	79970
849.841	25362
849.932	4039
850.022	1462
850.112	1468
850.203	1224
850.293	296
850.383	737
850.474	204
850.564	108
850.654	364
850.744	0
850.834	-154
850.924	133
851.014	800
851.104	523
851.194	1544
851.284	1977
851.374	2535
851.464	640
851.554	676
851.644	401
851.734	2231
851.824	811
851.914	182
852.004	963
852.094	-144
852.183	-12
852.273	494
852.363	218
852.452	338
852.542	361
852.632	345
852.721	1043
852.811	134
852.901	1284
852.990	1036
853.080	2068
853.169	1967
853.259	2160
853.348	1504
853.438	3467
853.527	5741
853.617	8269
853.706	16073
853.795	31340
853.885	73397
853.974	139841
854.063	257465
854.152	369095
854.242	131311
854.331	24727
854.420	9434
854.509	7398
854.598	6545
854.687	4520
854.777	4275
854.866	3322
854.955	2253
855.044	1509
855.133	1017
855.222	1235
855.311	710
855.400	1769
855.488	815
855.577	1056
855.666	1564
855.755	1434
855.844	1252
855.933	1295
856.021	649
856.110	975
856.199	-254
856.288	655
856.376	-739
856.465	-228
856.554	464
856.642	443
856.731	419
856.819	824
856.908	-381
856.996	59
857.085	-409
857.173	481
857.262	-729
857.350	295
857.438	30
857.527	523
857.615	-541
857.703	578
857.792	-404
857.880	-336
857.968	-501
858.056	586
858.145	-193
858.233	923
858.321	-8
858.409	-157
858.497	-337
858.585	29
858.673	-447
858.761	241
858.849	298
858.937	215
859.025	-143
859.113	513
859.201	-144
859.289	679
859.377	705
859.465	115
859.552	-264
859.640	333
859.728	-257
859.816	-320
859.903	345
859.991	-245
860.079	57
860.166	665
860.254	-368
860.342	87
860.429	-104
860.517	346
860.604	482
860.692	607
860.779	-679
860.867	1157
860.954	398
861.042	1288
861.129	1101
861.216	647
861.304	216
861.391	658
861.478	31
861.565	521
861.653	-76
861.740	107
861.827	100
861.914	465
862.001	-791
862.089	551
862.176	-363
862.263	-331
862.350	453
862.437	349
862.524	-361
862.611	-156
862.698	329
862.785	998
862.871	961
862.958	788
863.045	6
863.132	276
863.219	-1062
863.306	-226
863.392	-398
863.479	120
863.566	-112
863.652	405
863.739	-187
863.826	1064
863.912	176
863.999	86
864.086	24
864.172	627
864.259	178
864.345	537
864.432	406
864.518	194
864.604	538
864.691	398
864.777	437
864.863	1288
864.950	816
865.036	1400
865.122	2426
865.209	2507
865.295	2586
865.381	3489
865.467	3796
865.553	6680
865.639	9825
865.726	17101
865.812	36673
865.898	71356
865.984	106630
866.070	199466
866.156	197842
866.242	49218
866.328	11325
866.414	5171
866.499	5133
866.585	3453
866.671	3033
866.757	2791
866.843	1914
866.928	2714
867.014	1002
867.100	2692
867.186	2030
867.271	1538
867.357	3009
867.442	2705
867.528	1370
867.614	1794
867.699	1553
867.785	3236
867.870	1811
867.956	2908
868.041	2652
868.127	1757
868.212	2533
868.297	3056
868.383	2397
868.468	3349
868.553	5332
868.639	6309
868.724	12305
868.809	11388
868.894	1725
868.979	1391
869.065	1220
869.150	975
869.235	1455
869.320	962
869.405	-130
869.490	940
869.575	538
869.660	-115
869.745	663
869.830	992
869.915	552
870.000	1803
870.085	813
870.169	1549
870.254	740
870.339	-181
870.424	-328
870.509	725
870.593	1190
870.678	645
870.763	42
870.847	559
870.932	908
871.016	1893
871.101	156
871.186	1463
871.270	535
871.355	502
871.439	280
871.523	2
871.608	-249
871.692	957
871.777	869
871.861	1033
871.945	-303
872.030	780
872.114	-267
872.198	863
872.282	381
872.367	902
872.451	135
872.535	-88
872.619	223
872.703	440
872.787	257
872.871	668
872.955	311
873.039	44
873.123	858
873.207	663
873.291	401
873.375	690
873.459	1245
873.543	776
873.627	-25
873.711	891
873.794	-100
873.878	284
873.962	-208
874.045	339
874.129	569
874.137	537
874.213	225
874.245	-29
874.296	-446
874.352	296
874.380	663
874.460	161
874.464	140
874.547	522
874.568	432
874.631	179
874.676	447
874.714	665
874.784	1231
874.798	1347
874.881	1831
874.892	1653
874.965	437
874.999	431
875.048	411
875.107	89
875.131	-49
875.215	377
875.215	377
875.298	410
875.323	402
875.381	402
875.430	885
875.465	1223
875.538	876
875.548	826
875.631	24
875.646	87
875.714	353
875.753	398
875.798	504
875.861	167
875.881	33
875.964	-103
875.968	-75
876.047	509
876.076	240
876.130	-194
876.183	413
876.213	726
876.291	1184
876.296	1207
876.379	620
876.398	446
876.462	-75
876.506	-257
876.545	-396
876.613	137
876.628	240
876.711	-174
876.721	-162
876.794	79
876.828	296
876.877	453
876.935	448
876.960	515
877.043	941
877.043	941
877.125	845
877.150	967
877.208	1308
877.258	603
877.291	74
877.365	1135
877.374	1288
877.456	859
877.472	1039
877.539	1541
877.579	939
877.622	310
877.687	576
877.704	688
877.787	-32
877.794	4
877.869	423
877.901	543
877.952	712
878.008	699
878.034	681
878.115	579
878.117	573
878.199	429
878.222	277
878.282	152
878.329	473
878.364	602
878.437	335
878.447	305
878.529	16
878.544	-66
878.611	-334
878.651	-127
878.694	44
878.758	524
878.776	650
878.858	111
878.865	112
878.941	145
878.972	413
879.023	922
879.078	374
879.105	257
879.185	1926
879.187	1944
879.269	902
879.292	768
879.351	605
879.399	117
879.433	-201
879.506	781
879.516	899
879.598	388
879.613	259
879.680	-356
879.720	-149
879.762	227
879.827	276
879.844	199
879.926	142
879.933	158
880.007	680
880.040	938
880.089	1390
880.147	2360
880.171	2686
880.253	5208
880.254	5225
880.335	7322
880.360	8114
880.417	10541
880.467	15923
880.499	19260
880.574	20267
880.580	20042
880.662	5815
880.680	4439
880.744	1225
880.787	723
880.825	371
880.893	11
880.907	-69
880.989	131
881.000	69
881.070	33
881.106	370
881.152	578
881.213	-241
881.233	-479
881.315	295
881.319	276
881.396	7
881.426	57
881.478	119
881.532	22
881.559	-25
881.639	-208
881.641	-209
881.722	-85
881.745	-16
881.803	104
881.852	214
881.885	140
881.958	42
881.966	95
882.047	530
882.064	668
882.129	917
882.171	1097
882.210	1455
882.277	2785
882.291	2938
882.372	746
882.383	683
882.454	301
882.489	10
882.535	-15
882.596	347
882.616	269
882.697	-550
882.702	-562
882.778	-2
882.808	55
882.859	153
882.914	723
882.940	786
883.020	-342
883.021	-346
883.102	92
883.127	123
883.183	100
883.233	-72
883.264	-181
883.339	-304
883.345	-268
883.426	-18
883.445	196
883.507	165
883.551	-19
883.587	27
883.657	52
883.668	135
883.749	682
883.763	713
883.830	-26
883.869	-193
883.910	80
883.975	298
883.991	292
884.072	118
884.081	137
884.152	-55
884.187	-250
884.233	-185
884.292	126
884.314	134
884.394	-334
884.398	-345
884.475	-41
884.504	71
884.555	-120
884.610	-402
884.636	-364
884.716	72
884.716	74
884.797	-180
884.821	-158
884.877	99
884.927	92
884.958	18
885.033	181
885.038	218
885.118	541
885.139	632
885.199	264
885.244	61
885.279	217
885.350	488
885.359	469
885.439	239
885.456	183
885.520	243
885.561	248
885.600	61
885.667	-265
885.680	-233
885.760	76
885.773	158
885.840	347
885.878	121
885.920	19
885.984	222
886.000	231
886.080	246
886.089	262
886.160	134
886.195	-109
886.240	-137
886.300	212
886.320	282
886.400	222
886.406	229
886.480	242
886.511	228
886.560	362
886.616	316
886.640	326
886.720	608
886.722	607
886.800	-58
886.827	-214
886.879	-81
886.932	10
886.959	83
887.038	275
887.039	269
887.119	-387
887.143	-591
887.198	-188
887.248	246
887.278	208
887.354	-128
887.358	-111
887.437	352
887.459	491
887.517	485
887.564	451
887.596	375
887.669	71
887.676	59
887.755	2
887.774	-23
887.835	4
887.880	140
887.914	94
887.985	-290
887.994	-220
888.073	545
888.090	722
888.153	524
888.195	300
888.232	321
888.300	421
888.311	338
888.391	-304
888.405	-400
888.470	-412
888.510	-477
888.549	-398
888.615	-237
888.628	-126
888.708	615
888.720	712
888.787	1113
888.825	1339
888.866	561
888.930	-617
888.945	-524
889.024	-3
889.035	61
889.103	211
889.140	307
889.182	-47
889.245	-606
889.261	-440
889.340	423
889.349	517
889.419	101
889.454	-89
889.498	23
889.559	150
889.577	172
889.656	289
889.664	301
889.735	150
889.768	77
889.814	30
889.873	-30
889.978	645
890.083	-201
890.187	-115
890.292	195
890.397	350
890.501	-400
890.606	29
890.710	738
890.815	1162
890.919	-753
891.024	355
891.128	242
891.233	270
891.337	391
891.442	284
891.546	-22
891.650	561
891.755	140
891.859	895
891.963	-215
892.068	28
892.172	643
892.276	-453
892.380	42
892.484	478
892.589	368
892.693	180
892.797	-389
892.901	-33
893.005	298
893.109	735
893.213	90
893.317	32
893.421	-910
893.525	-100
893.629	-440
893.733	13
893.837	-462
893.941	663
894.045	842
894.148	-408
894.252	-586
894.356	-155
894.460	356
894.564	-53
894.667	-542
894.771	-632
894.875	-9
894.978	-315
895.082	-895
895.186	724
895.289	106
895.393	-27
895.496	-155
895.600	-473
895.703	-345
895.807	543
895.910	-804
896.014	846
896.117	-530
896.221	918
896.324	-705
896.427	-407
896.531	-311
896.634	-22
896.737	88
896.840	-536
896.944	207
897.047	165
897.150	-410
897.253	-380
897.356	-79
897.460	-838
897.563	345
897.666	921
897.769	-889
897.872	-352
897.975	222
898.078	827
898.181	-521
898.284	-294
898.387	139
898.490	51
898.593	-97
898.695	-244
898.798	-415
898.901	-652
899.004	225
899.107	398
899.209	-259
899.312	34
899.415	-138
899.518	-22
899.620	-80
899.723	347
899.826	925
899.928	1117
900.031	-193
900.133	214
900.236	-981
900.338	-561
900.441	71
900.543	239
900.646	-52
900.748	-99
900.851	-469
900.953	90
901.055	-404
901.158	32
901.260	-47
901.362	394
901.465	-279
901.567	478
901.669	788
901.771	-356
901.873	2
901.976	250
902.078	131
902.180	158
902.282	-450
902.384	-30
902.486	212
902.588	247
902.690	-315
902.792	-127
902.894	-301
902.996	-295
903.098	60
903.200	-223
903.302	-299
903.404	-580
903.505	-767
903.607	139
903.709	329
903.811	154
903.913	-568
904.014	-68
904.116	-672
904.218	-709
904.319	311
904.421	1017
904.523	-568
904.624	744
904.726	-68
904.827	-480
904.929	-85
905.030	-514
905.132	-292
905.233	109
905.335	-733
905.436	-81
905.537	-440
905.639	-491
905.740	-1276
905.841	167
905.943	-131
906.044	304
906.145	-311
906.247	-392
906.348	-478
906.449	-204
906.550	-39
906.651	492
906.752	-179
906.854	404
906.955	-683
907.056	-103
907.157	183
907.258	177
907.359	-854
907.460	-597
907.561	-941
907.662	238
907.762	-327
907.863	67
907.964	97
908.065	128
908.166	-600
908.267	-801
908.367	-688
908.468	-48
908.569	-358
908.670	430
908.770	505
908.871	-499
908.971	-653
909.072	236
909.173	-499
909.273	143
909.374	-1
909.474	467
909.575	5
909.675	-87
909.776	-588
909.876	-153
909.977	438
910.077	209
910.177	-493
910.278	-1072
910.378	-763
910.478	-175
910.579	-998
910.679	179
910.779	-219
910.879	147
910.980	801
911.080	-412
911.180	-27
911.280	-324
911.380	-288
911.480	679
911.580	-683
911.680	-655
911.780	418
911.880	21
911.980	-567
912.080	387
912.180	-911
912.280	480
912.380	-594
912.480	427
912.580	148
912.679	-107
912.779	-182
912.879	-143
912.979	68
913.078	-494
913.178	-218
913.278	-654
913.377	-668
913.477	-400
913.577	-466
913.676	901
913.776	-575
913.875	-320
913.975	-281
914.074	-471
914.174	376
914.273	-828
914.373	34
914.472	-196
914.572	-705
914.671	-139
914.770	-416
914.870	-690
914.969	-497
915.068	-662
915.167	-241
915.267	121
915.366	-393
915.465	97
915.564	-604
915.663	-443
915.763	-684
915.862	440
915.961	-491
916.060	-347
916.159	-258
916.258	-539
916.357	-350
916.456	812
916.555	-201
916.654	535
916.752	-81
916.851	-510
916.950	-244
917.049	-222
917.148	-466
917.247	-105
917.345	-417
917.444	-973
917.543	-1419
917.642	115
917.740	-183
917.839	-163
917.937	629
918.036	243
918.135	-790
918.233	-282
918.332	-478
918.430	-199
918.529	-1161
918.627	-261
918.726	-640
918.824	58
918.923	-449
919.021	-136
919.119	31
919.218	-382
919.316	-410
919.414	-126
919.512	-419
919.611	-1004
919.709	296
919.807	-237
919.905	364
920.003	415
920.102	-94
920.200	-465
920.298	-411
920.396	-276
920.494	265
920.592	32
920.690	-381
920.788	-278
920.886	-183
920.984	236
921.082	-34
921.180	243
921.277	85
921.375	778
921.473	46
921.571	-326
921.669	343
921.766	535
921.864	-16
921.962	555
922.060	66
922.157	122
922.255	-355
922.352	466
922.450	376
922.548	259
922.645	494
922.743	430
922.840	439
922.938	1358
923.035	1009
923.133	694
923.230	942
923.327	1933
923.425	1645
923.522	1493
923.619	285
923.717	968
923.814	847
923.911	408
924.008	2002
924.106	1307
924.203	321
924.300	993
924.397	496
924.494	1753
924.591	322
924.688	641
924.786	638
924.883	-3
924.979	840
925.077	675
925.173	503
925.270	170
925.367	526
925.464	681
925.561	1385
925.658	1870
925.755	1308
925.852	1242
925.948	724
926.045	596
926.142	348
926.239	559
926.335	355
926.432	1314
926.529	215
926.625	1131
926.722	373
926.818	818
926.915	667
927.011	936
927.108	579
927.204	374
927.301	576
927.397	409
927.494	11
927.590	557
927.687	91
927.783	555
927.879	735
927.976	390
928.072	1120
928.168	197
928.264	-6
928.361	186
928.457	1183
928.553	307
928.649	770
928.745	1023
928.841	613
928.937	628
929.033	356
929.129	818
929.225	197
929.321	768
929.417	310
929.513	801
929.609	703
929.705	276
929.801	340
929.897	117
929.993	222
930.089	872
930.184	263
930.280	57
930.376	-100
930.471	189
930.567	-316
930.663	470
930.758	294
930.854	441
930.950	-300
931.045	-299
931.141	739
931.236	348
931.332	-25
931.427	-249
931.523	562
931.618	433
931.714	-255
931.809	659
931.905	-397
932.000	159
932.095	-132
932.191	861
932.286	252
932.381	-206
932.476	44
932.572	41
932.667	-71
932.762	293
932.857	473
932.952	-236
933.047	1024
933.142	-284
933.237	728
933.332	137
933.427	54
933.522	743
933.617	-610
933.712	543
933.807	360
933.902	298
933.997	64
934.092	1005
934.187	471
934.282	345
934.376	-509
934.471	-535
934.566	47
934.661	964
934.755	109
934.850	-456
934.945	514
935.039	-684
935.134	-241
935.228	28
935.323	318
935.417	-720
935.512	-534
935.606	50
935.701	-921
935.795	-292
935.890	199
935.984	441
936.079	-1083
936.173	736
936.267	41
936.362	166
936.456	470
936.550	1287
936.644	-246
936.738	210
936.833	-76
936.927	348
937.021	328
937.115	-372
937.209	-1531
937.303	521
937.397	-118
937.491	948
937.585	150
937.679	35
937.773	251
937.867	23
937.961	-917
938.055	301
938.149	371
938.243	-188
938.337	-658
938.430	-138
938.524	-408
938.618	675
938.712	-298
938.805	-351
938.899	403
938.993	-643
939.086	194
939.180	-251
939.274	563
939.367	534
939.461	-844
939.554	-596
939.648	-241
939.741	-302
939.835	-435
939.928	290
940.022	396
940.115	215
940.208	570
940.302	174
940.395	65
940.488	-270
940.582	-194
940.675	-484
940.768	-122
940.861	464
940.954	116
941.048	-374
941.141	-607
941.234	-113
941.327	90
941.420	1337
941.513	-149
941.606	70
941.699	429
941.792	1045
941.885	-137
941.978	82
942.071	276
942.164	-355
942.257	-782
942.349	309
942.442	118
942.535	195
942.628	-106
942.721	142
942.813	-594
942.906	-187
942.999	-152
943.091	65
943.184	-593
943.277	-508
943.369	-708
943.462	-761
943.554	-912
943.647	-335
943.739	1124
943.832	-659
943.924	-1341
944.017	-496
944.109	-1731
944.201	-11
944.294	-580
944.386	482
944.478	-663
944.571	96
944.663	-295
944.755	-557
944.847	-67
944.940	-12
945.032	-1186
945.124	-816
945.216	1108
945.308	-207
945.400	-611
945.492	-127
945.584	-136
945.676	-240
945.768	-611
945.860	164
945.952	-808
946.044	199
946.136	-866
946.228	-549
946.320	-534
946.412	-386
946.503	-138
946.595	109
946.687	-691
946.779	-765
946.870	-401
946.962	-736
947.054	265
947.145	-30
947.237	-668
947.329	62
947.420	-97
947.512	-588
947.603	-557
947.695	-66
947.786	-916
947.878	-709
947.969	320
948.061	-655
948.152	-746
948.243	68
948.335	-25
948.426	-867
948.517	-901
948.609	-736
948.700	-685
948.791	-466
948.882	-630
948.973	-1218
949.065	-898
949.156	-616
949.247	-800
949.338	-408
949.429	-927
949.520	-837
949.611	-1425
949.702	-340
949.793	-638
949.884	89
949.975	-514
950.066	-928
950.157	-747
950.247	-623
950.338	-34
950.429	-510
950.520	-719
950.611	-678
950.701	-810
950.792	-86
950.883	164
950.973	-112
951.064	-206
951.155	-85
951.245	-474
951.336	633
951.427	-717
951.517	564
951.608	-245
951.698	-300
951.788	-1301
951.879	-693
951.969	-1104
952.060	-637
952.150	-1564
952.240	-204
952.331	-2488
952.421	1392
952.511	-792
952.602	-1045
952.692	-1562
952.782	-666
952.872	-1010
952.962	195
953.052	-636
953.143	-404
953.233	-372
953.323	-284
953.413	-746
953.503	-97
953.593	144
953.683	-42
953.773	-1435
953.863	-771
953.953	-1288
954.042	-997
954.132	-399
954.222	-521
954.312	-683
954.402	-607
954.492	-366
954.581	-382
954.671	-492
954.761	-1299
954.850	-157
954.940	-60
955.030	-92
955.119	-771
955.209	-317
955.298	-577
955.388	-182
955.477	-98
955.567	-1766
955.656	-313
955.746	-310
955.835	-406
955.925	-946
956.014	-691
956.103	-232
956.193	-254
956.282	-762
956.371	-751
956.461	-1049
956.550	2
956.639	-379
956.728	-528
956.817	-83
956.906	-1017
956.995	-315
957.085	-97
957.174	-785
957.263	-1234
957.352	-555
957.441	-498
957.530	-659
957.619	-136
957.708	-792
957.796	-267
957.885	-113
957.974	-1230
958.063	-1498
958.152	-1295
958.241	-427
958.329	-500
958.418	-617
958.507	-1275
958.596	266
958.684	-980
958.773	231
958.861	-807
958.950	-379
959.039	-109
959.127	-1478
959.216	-914
959.304	-1246
959.393	208
959.481	-131
959.570	-1002
959.658	-1374
959.746	-711
959.835	-429
959.923	-155
960.011	-1223
960.100	-643
960.188	-1093
960.276	-625
960.365	-754
960.453	-1281
960.541	-2412
960.629	-906
960.717	-934
960.805	-1428
960.893	-1037
960.981	-903
961.069	57
961.158	-496
961.245	-307
961.333	-535
961.421	-1367
961.509	-1049
961.597	-888
961.685	-663
961.773	-891
961.861	-1588
961.949	-578
962.036	-1167
962.124	-508
962.212	-523
962.299	-1869
962.387	-557
962.475	-601
962.562	-1759
962.650	-1137
962.738	-547
962.825	-407
962.913	240
963.000	-1011
963.088	-742
963.175	-1184
963.263	-969
963.350	-1327
963.438	-395
963.525	-1789
963.612	-43
963.700	-174
963.787	2163
963.874	387
963.962	-1003
964.049	-1128
964.136	-1142
964.223	-1744
964.310	-1006
964.398	-1190
964.485	-401
964.572	-550
964.659	-661
964.746	-154
964.833	-574
964.920	-674
965.007	-796
965.094	50
965.181	-1251
965.268	-1575
965.355	-286
965.441	-1422
965.528	-1383
965.615	-1011
965.702	-849
965.789	-834
965.875	-600
965.962	-667
966.049	-1482
966.136	-887
966.222	-879
966.309	-512
966.395	-1198
966.482	120
966.569	-636
966.655	-1201
966.742	-781
966.828	-853
966.915	-565
967.001	-1100
967.087	-2002
967.174	-593
967.260	-495
967.347	-877
967.433	-151
967.519	587
967.605	-554
967.692	-995
967.778	-778
967.864	-934
967.950	195
968.036	-1813
968.123	-513
968.209	-1180
968.295	-1300
968.381	-9
968.467	-567
968.553	-2655
968.639	72
968.725	-1465
968.811	-43
968.897	-881
968.983	-742
969.069	-1094
969.154	-180
969.240	-469
969.326	-1647
969.412	-1764
969.497	-1102
969.583	-1300
969.669	8
969.755	-1130
969.840	-575
969.926	-893
970.012	-1118
970.097	-777
970.183	-1694
970.268	-1650
970.354	338
970.439	-843
970.525	1072
970.610	-1622
970.696	39
970.781	-609
970.866	-546
970.952	-27
971.037	-1770
971.122	-1067
971.208	-188
971.293	-400
971.378	-1748
971.463	-375
971.549	-1019
971.634	-642
971.719	-984
971.804	-1333
971.889	-115
971.974	-902
972.059	-1124
972.144	-1636
972.229	-1012
972.314	-1295
972.399	-727
972.484	-1276
972.569	-1117
972.654	-943
972.739	-153
972.824	-1188
972.908	-1412
972.993	-1765
973.078	-760
973.163	-1040
973.247	-772
973.332	-2273
973.417	296
973.501	-1292
973.586	-912
973.671	-1106
973.755	-1042
973.840	-728
973.924	0
974.009	-595
974.093	-1639
974.178	647
974.262	-844
974.346	-242
974.431	-883
974.515	-1204
974.600	-1284
974.684	-1003
974.768	-1332
974.852	-1102
974.937	-2067
975.021	-512
975.105	-1366
975.189	-801
975.273	-1071
975.358	-2310
975.442	-2244
975.526	54
975.610	-1239
975.694	-2264
975.778	-151
975.862	-501
975.946	-3020
976.030	385
976.114	-1442
976.198	-2141
976.281	-1281
976.365	-1108
976.449	-1411
976.533	-1326
976.617	-1115
976.700	-1176
976.784	-1255
976.868	-1058
976.951	-719
977.035	-1636
977.119	-1472
977.202	-906
977.286	-1262
977.369	-1593
977.453	-862
977.536	-526
977.620	-360
977.703	-782
977.787	-1461
977.870	-1064
977.953	-102
978.037	-1791
978.120	-205
978.203	-1188
978.287	-927
978.370	-947
978.453	-1072
978.536	-1249
978.620	-456
978.703	-847
978.786	-1006
978.869	-1769
978.952	-2733
979.035	-341
979.118	-1005
979.201	-1787
979.284	-675
979.367	-1570
979.450	-54
979.533	-1610
979.616	-920
979.699	-852
979.782	-873
979.865	-1146
979.948	-1420
980.030	-1374
980.113	-791
980.196	-2162
980.279	-781
980.361	-1664
980.444	-1154
980.526	-483
980.609	-1240
980.692	-975
980.774	-679
980.857	-1059
980.939	131
981.022	-1180
981.104	-1287
981.187	-981
981.269	-184
981.352	-1233
981.434	-1345
981.516	-1562
981.599	-70
981.681	-1420
981.763	-1113
981.846	-1093
981.928	-288
982.010	-696
982.092	-1088
982.174	-837
982.256	-959
982.339	-1060
982.421	-1551
982.503	-947
982.585	-817
982.667	-1249
982.749	-1353
982.831	-1313
982.913	-2419
982.995	-812
983.077	-963
983.158	-18
983.240	-1909
983.322	-622
983.404	-28
983.486	-2105
983.568	-496
983.649	-1887
983.731	-941
983.813	-1365
983.894	-1172
983.976	-1555
984.058	-1336
984.139	-1100
984.221	-2407
984.302	-54
984.384	-1388
984.465	-1126
984.547	-739
984.628	-1872
984.710	-215
984.791	-1685
984.872	-961
984.954	-2183
985.035	-546
985.116	-1609
985.198	-907
985.279	-842
985.360	-1495
985.441	-971
985.522	-479
985.604	-575
985.685	-2392
985.766	-252
985.847	-250
985.928	-1444
986.009	-1919
986.090	-1456
986.171	-333
986.252	-1657
986.333	-448
986.414	-1174
986.495	-1278
986.576	-814
986.656	-406
986.737	-648
986.818	-760
986.899	-796
986.980	-1779
987.060	-630
987.141	-1783
987.222	-1154
987.302	-786
987.383	-1094
987.464	-1488
987.544	-955
987.625	-924
987.705	-1076
987.786	-1060
987.866	-1376
987.947	-902
988.027	-1422
988.108	-1449
988.188	-891
988.268	-432
988.349	-668
988.429	-261
988.509	-1022
988.589	-1297
988.670	-3074
988.750	286
988.830	-1448
988.910	-1710
988.990	-1815
989.070	-721
989.151	-969
989.231	-1041
989.311	-1107
989.391	-729
989.471	-1986
989.551	-1340
989.631	-1514
989.711	-779
989.791	-1772
989.870	-1132
989.950	-649
990.030	-1241
990.110	-1101
990.190	-1279
990.269	-1630
990.349	-1402
990.429	-1805
990.509	-855
990.588	-2231
990.668	-559
990.747	-1049
990.827	-832
990.907	-1279
990.986	-1553
991.066	-980
991.145	-1727
991.225	-857
991.304	-964
991.383	-921
991.463	-782
991.542	-824
991.622	-1973
991.701	-1496
991.780	-1746
991.859	-1463
991.939	-1243
992.018	-2011
992.097	-1168
992.176	-1284
992.256	-1054
992.335	-1965
992.414	-1305
992.493	-1662
992.572	-1342
992.651	-962
992.730	-1677
992.809	-1608
992.888	-1327
992.967	-1422
993.046	-1071
993.125	-1424
993.203	-922
993.282	-1244
993.361	-1767
993.440	-1448
993.519	-2105
993.597	-1496
993.676	-1620
993.755	-833
993.834	-1412
993.912	-2247
993.991	-1176
994.069	-1647
994.148	-1542
994.226	-2402
994.305	-1314
994.384	-1743
994.462	-300
994.540	-2408
994.619	-1316
994.697	-1383
994.776	-2398
994.854	-1463
994.932	-1427
995.011	-2367
995.089	-1418
995.167	-2098
995.245	-1178
995.324	-2277
995.402	-287
995.480	-1786
995.558	-765
995.636	-2251
995.714	-1786
995.792	-1117
995.870	-2416
995.948	-1308
996.026	-1106
996.104	-2361
996.182	-155
996.260	-2396
996.338	-1308
996.416	-2437
996.494	-2325
996.572	-987
996.649	-2051
996.727	-2483
996.805	-1520
996.883	-1935
996.960	-1270
997.038	-1593
997.116	-486
997.193	-2106
997.271	-887
997.348	-2144
997.426	-1387
997.504	-2074
997.581	-632
997.658	-1122
997.736	-2168
997.813	-1887
997.891	-264
997.968	-1868
998.046	-1158
998.123	-2144
998.200	-1380
998.277	-2385
998.355	-1473
998.432	-2614
998.509	-1554
998.586	-1590
998.663	-396
998.741	-1239
998.818	-1294
998.895	-2050
998.972	-1877
999.049	-2432
999.126	-1080
999.203	-1201
999.280	-1349
999.357	-2507
999.434	-1439
999.511	-757
999.587	-953
999.664	-2448
999.741	-1736
999.818	-1786
999.895	-1875
999.971	-2061
1000.048	-2296
1000.125	-1626
1000.202	-1516
1000.278	-2109
1000.355	-427
1000.431	-1701
1000.508	-2083
1000.584	-2150
1000.661	-1313
1000.738	-2094
1000.814	-1341
1000.890	-1108
1000.967	-2028
1001.043	-1857
1001.120	-2215
1001.196	-2438
1001.272	-2385
1001.349	-1739
1001.425	-1410
1001.501	-1969
1001.577	-2196
1001.654	-1517
1001.730	-1709
1001.806	-2019
1001.882	-2640
1001.958	-1257
1002.034	-1418
1002.110	-1311
1002.186	-1953
1002.262	-1945
1002.338	-2591
1002.414	-1755
1002.490	-1356
1002.566	-2435
1002.642	-2027
1002.718	-1374
1002.794	-1386
1002.870	-1740
1002.945	-1685
1003.021	-2772
1003.097	-1571
1003.173	-676
1003.248	-2362
1003.324	-1715
1003.400	-1775
1003.475	-2709
1003.551	-1960
1003.626	-2342
1003.702	-2054
1003.777	-941
1003.853	-1731
1003.928	-1989
1004.004	-635
1004.079	-1940
1004.155	-1320
1004.230	-2524
1004.305	-631
1004.381	-2776
1004.456	-1470
1004.531	-1167
1004.607	-1446
1004.682	-2088
1004.757	-2004
1004.832	-2235
1004.907	-1621
1004.982	-1228
1005.057	-1286
1005.133	-2615
1005.208	-1682
1005.283	-2113
1005.358	-1046
1005.433	-2213
1005.508	-2086
1005.583	-2595
1005.657	-1893
1005.732	-1401
1005.807	-1828
1005.882	-1415
1005.957	-1066
1006.032	-1222
1006.106	-1207
1006.181	-2422
1006.256	-1415
1006.331	-1986
1006.405	-2414
1006.480	-2181
1006.554	-2292
1006.629	-1804
1006.704	-1352
1006.778	-1996
1006.853	-1113
1006.927	-1781
1007.002	-2220
1007.076	-1533
1007.150	-2574
1007.225	-1487
1007.299	-1255
1007.373	-2349
1007.448	-1542
1007.522	-1378
1007.596	-1742
1007.671	-1876
1007.745	-1099
1007.819	-2086
1007.893	-1526
1007.967	-2039
1008.041	-2173
1008.115	-1478
1008.190	-1601
1008.264	-1704
1008.338	-2868
1008.412	-2372
1008.486	-1936
1008.560	-2311
1008.633	-2257
1008.707	-1974
1008.781	-1320
1008.855	-2345
1008.929	-1895
1009.003	-2385
1009.076	-952
1009.150	-2523
1009.224	-1704
1009.298	-1834
1009.371	-1732
1009.445	-2008
1009.519	-1627
1009.592	-2246
1009.666	-1220
1009.739	-1924
1009.813	-3043
1009.886	-1425
1009.960	-2119
1010.033	-1371
1010.107	-871
1010.180	-2745
1010.253	-1794
1010.327	-2380
1010.400	-2202
1010.473	-2270
1010.547	-1168
1010.620	-2581
1010.693	-1868
1010.766	-2270
1010.840	-1298
1010.913	-2054
1010.986	-2458
1011.059	-1940
1011.132	-2502
1011.205	-1144
1011.278	-1655
1011.351	-2233
1011.424	-1028
1011.497	-2121
1011.570	-1782
1011.643	-1930
1011.716	-2371
1011.789	-2716
1011.862	-1368
1011.934	-1615
1012.007	-2928
1012.080	-2158
1012.153	-1629
1012.225	-817
1012.298	-1877
1012.371	-2724
1012.443	-1362
1012.516	-2324
1012.588	-2129
1012.661	-1816
1012.733	-2183
1012.806	-1606
1012.879	-2164
1012.951	-2183
1013.023	-2823
1013.096	-1732
1013.168	-1602
1013.241	-1558
1013.313	-1277
1013.385	-2718
1013.458	-1879
1013.530	-2360
1013.602	-1809
1013.674	-1284
1013.746	-1843
1013.819	-2445
1013.891	-1768
1013.963	-2709
1014.035	-1832
1014.107	-1767
1014.179	-1530
1014.251	-2128
1014.323	-1312
1014.395	-1983
1014.467	-1335
1014.539	-2422
1014.611	-2630
1014.683	-1784
1014.754	-1666
1014.826	-2343
1014.898	-1136
1014.970	-2802
1015.042	-836
1015.113	-2439
1015.185	-2202
1015.257	-2667
1015.328	-2870
1015.400	-3646
1015.471	-2187
1015.543	-3292
1015.615	-1618
1015.686	-2857
1015.757	-2696
1015.829	-2100
1015.901	-1490
1015.972	-2577
1016.043	-1732
1016.115	-2018
1016.186	-1232
1016.257	-2655
1016.328	-1471
1016.400	-1059
1016.471	-2387
1016.542	-2122
1016.613	-1644
1016.685	-2581
1016.756	-2007
1016.827	-2109
1016.898	-2244
1016.969	-1666
1017.040	-1781
1017.111	-1634
1017.182	-2257
1017.253	-2028
1017.324	-1875
1017.395	-2516
1017.466	-1926
1017.537	-2305
1017.608	-2443
1017.678	-2216
1017.749	-1824
1017.820	-2653
1017.891	-2582
1017.961	-2839
1018.032	-3253
1018.103	-2333
1018.173	-2324
1018.244	-2330
1018.315	-2138
1018.385	-1835
1018.456	-2136
1018.526	-2405
1018.597	-2275
1018.667	-1998
1018.738	-2678
1018.808	-2521
1018.878	-2826
1018.949	-1563
1019.019	-2259
1019.089	-2488
1019.160	-1544
1019.230	-2638
1019.300	-2138
1019.371	-3204
1019.441	-1721
1019.511	-3063
1019.581	-1825
1019.651	-2753
1019.721	-1698
1019.791	-3049
1019.861	-2200
1019.931	-2943
1020.001	-1973
1020.071	-2741
1020.141	-2781
1020.211	-2432
1020.281	-2786
1020.351	-2446
1020.421	-2351
1020.491	-1849
1020.560	-2585
1020.630	-2860
1020.700	-2164
1020.770	-2181
1020.839	-2863
1020.909	-2700
1020.979	-2580
1021.048	-2313
1021.118	-2774
1021.187	-1366
1021.257	-2250
1021.326	-1610
1021.396	-1872
1021.465	-2795
1021.535	-2163
1021.604	-2843
1021.674	-3025
1021.743	-1713
1021.812	-1782
1021.882	-2651
1021.951	-2284
1022.020	-2375
1022.089	-1656
1022.159	-2019
1022.228	-2018
1022.297	-2478
1022.366	-2218
1022.435	-2494
1022.504	-2774
1022.573	-2682
1022.642	-2695
1022.711	-2736
1022.781	-1718
1022.849	-2646
1022.918	-3101
1022.987	-1845
1023.056	-2690
1023.125	-2511
1023.194	-2071
1023.263	-3094
1023.331	-1414
1023.400	-2142
1023.469	-2278
1023.538	-2639
1023.606	-2744
1023.675	-2733
1023.744	-2452
1023.812	-3144
1023.881	-2808
1023.949	-1946
1024.018	-2511
1024.086	-2304
1024.155	-2954
1024.223	-2798
1024.292	-2613
1024.360	-2601
1024.429	-2364
1024.497	-2893
1024.565	-2825
1024.634	-2686
1024.702	-2097
1024.770	-2762
1024.838	-2110
1024.907	-2891
1024.975	-2485
1025.043	-2359
1025.111	-2555
1025.179	-3239
1025.247	-1804
1025.315	-3350
1025.383	-2448
1025.451	-2670
1025.519	-2592
1025.587	-2764
1025.655	-2471
1025.723	-2855
1025.791	-2034
1025.859	-2707
1025.927	-1857
1025.995	-3354
1026.062	-2469
1026.130	-3024
1026.198	-2881
1026.266	-2397
1026.333	-2687
1026.401	-1818
1026.469	-1702
1026.536	-2203
1026.604	-2609
1026.671	-3320
1026.739	-2916
1026.806	-2795
1026.874	-2702
1026.941	-3192
1027.009	-2091
1027.076	-2988
1027.144	-2090
1027.211	-2737
1027.278	-3349
1027.345	-2638
1027.413	-2441
1027.480	-2426
1027.547	-2313
1027.614	-3133
1027.682	-2250
1027.749	-3614
1027.816	-3096
1027.883	-2859
1027.950	-2116
1028.017	-2460
1028.084	-2572
1028.151	-2808
1028.218	-2132
1028.285	-2462
1028.352	-2059
1028.419	-3826
1028.486	-3397
1028.553	-2674
1028.619	-3445
1028.686	-2676
1028.753	-3232
1028.820	-2588
1028.886	-2565
1028.953	-2513
1029.020	-2286
1029.086	-2612
1029.153	-2323
1029.220	-3365
1029.286	-2904
1029.353	-2689
1029.419	-2487
1029.486	-3034
1029.552	-2408
1029.619	-3288
1029.685	-2367
1029.751	-2988
1029.818	-1742
1029.884	-2982
1029.951	-2398
1030.017	-3027
1030.083	-1640
1030.149	-1757
1030.216	-2987
1030.282	-2373
1030.348	-3006
1030.414	-2345
1030.480	-2501
1030.546	-3015
1030.612	-1701
1030.678	-2741
1030.744	-3045
1030.810	-2948
1030.876	-2617
1030.942	-3390
1031.008	-2316
1031.074	-3401
1031.140	-2152
1031.206	-2552
1031.272	-2371
1031.337	-3025
1031.403	-1327
1031.469	-3165
1031.534	-2823
1031.600	-2037
1031.666	-3069
1031.731	-2951
1031.797	-2088
1031.863	-3070
1031.928	-2085
1031.994	-3013
1032.059	-2221
1032.125	-3518
1032.190	-3253
1032.256	-3321
1032.321	-2401
1032.386	-2881
1032.452	-2857
1032.517	-3298
1032.582	-2969
1032.647	-3082
1032.713	-2753
1032.778	-3045
1032.843	-2962
1032.908	-2450
1032.974	-3141
1033.039	-3272
1033.104	-2121
1033.169	-3682
1033.234	-2032
1033.299	-2347
1033.364	-2265
1033.429	-3023
1033.494	-2566
1033.559	-3045
1033.624	-2117
1033.688	-2554
1033.753	-2822
1033.818	-3268
1033.883	-2741
1033.948	-2757
1034.013	-1775
1034.077	-2311
1034.142	-2784
1034.207	-3036
1034.271	-1675
1034.336	-2029
1034.400	-2029
1034.465	-3288
1034.530	-2768
1034.594	-3171
1034.658	-2589
1034.723	-3544
1034.787	-2746
1034.852	-2321
1034.916	-3142
1034.981	-2688
1035.045	-2621
1035.109	-2962
1035.173	-1920
1035.238	-2915
1035.302	-2508
1035.366	-2933
1035.430	-2996
1035.495	-3334
1035.559	-2464
1035.623	-3045
1035.687	-3115
1035.751	-2967
1035.815	-3420
1035.879	-2793
1035.943	-2714
1036.007	-2732
1036.071	-2364
1036.135	-2796
1036.198	-2942
1036.262	-2972
1036.326	-2377
1036.390	-3474
1036.454	-2071
1036.517	-2562
1036.581	-2285
1036.645	-2028
1036.709	-1657
1036.772	-2649
1036.836	-2404
1036.900	-3248
1036.963	-3294
1037.026	-2489
1037.090	-2716
1037.154	-2977
1037.217	-2538
1037.280	-2870
1037.344	-2712
1037.407	-3100
1037.471	-3150
1037.534	-3098
1037.597	-3475
1037.661	-3678
1037.724	-3308
1037.787	-3948
1037.850	-2760
1037.913	-2703
1037.977	-2948
1038.040	-3301
1038.103	-3396
1038.166	-2398
1038.229	-3035
1038.292	-3495
1038.355	-2316
1038.418	-2935
1038.481	-2859
1038.544	-2959
1038.607	-2356
1038.670	-3156
1038.732	-3806
1038.795	-2922
1038.858	-1883
1038.921	-2800
1038.984	-2292
1039.046	-2588
1039.109	-2735
1039.172	-2485
1039.234	-2657
1039.297	-2767
1039.360	-2727
1039.422	-2437
1039.485	-2838
1039.547	-3000
1039.610	-2799
1039.672	-2563
1039.734	-2887
1039.797	-2910
1039.859	-2755
1039.922	-3327
1039.984	-2188
1040.046	-3521
1040.109	-3208
1040.171	-3124
1040.233	-2304
1040.295	-2930
1040.358	-3641
1040.420	-2781
1040.482	-2822
1040.544	-2861
1040.606	-2758
1040.668	-3386
1040.730	-2717
1040.792	-3284
1040.854	-2790
1040.916	-2853
1040.978	-3045
1041.040	-2097
1041.102	-2060
1041.164	-3329
1041.225	-3355
1041.287	-3036
1041.349	-2821
1041.411	-2902
1041.472	-2396
1041.534	-2990
1041.596	-3682
1041.657	-2984
1041.719	-2638
1041.781	-3225
1041.842	-2441
1041.904	-3244
1041.965	-2772
1042.027	-2448
1042.088	-2441
1042.150	-3172
1042.211	-2729
1042.272	-2948
1042.334	-3518
1042.395	-3577
1042.456	-2634
1042.518	-3230
1042.579	-2641
1042.640	-3132
1042.701	-2729
1042.763	-3139
1042.824	-3551
1042.885	-2647
1042.946	-2135
1043.007	-2352
1043.068	-2855
1043.129	-2635
1043.190	-3092
1043.251	-3190
1043.312	-3196
1043.373	-2337
1043.434	-2258
1043.495	-2528
1043.556	-2280
1043.616	-2871
1043.677	-3365
1043.738	-2352
1043.799	-2655
1043.859	-2626
1043.920	-2845
1043.981	-2784
1044.041	-2922
1044.102	-3370
1044.162	-2676
1044.223	-2694
1044.284	-3015
1044.344	-3149
1044.405	-1997
1044.465	-3136
1044.525	-2607
1044.586	-3481
1044.646	-2626
1044.707	-2237
1044.767	-3127
1044.827	-2736
1044.887	-2080
1044.948	-2131
1045.008	-2524
1045.068	-2956
1045.128	-2013
1045.188	-2377
1045.249	-1192
1045.309	-2579
1045.369	-2475
1045.429	-2973
1045.489	-2971
1045.549	-2038
1045.609	-2508
1045.669	-3061
1045.729	-3246
1045.789	-2137
1045.848	-2257
1045.908	-2374
1045.968	-2819
1046.028	-2536
1046.088	-2241
1046.147	-2224
1046.207	-1960
1046.267	-2736
1046.326	-1621
1046.386	-1810
1046.446	-1197
1046.505	-2167
1046.565	-1765
1046.624	-2200
1046.684	-1997
1046.743	-1383
1046.803	-1579
1046.862	-1879
1046.922	0
