'Start Wavelength	183.907
'End Wavelength	1046.922
'Gate Delay	5.000
'Gate Width (ms)	1.050
'Laser Output Level	0.000
'X Position	0.000
'Y Position	0.000
'Z Position	0.000
'Grid Point Number	1.000
'Shot Number	100.000
183.907	1271.000
183.977	-197.000
184.047	28
184.116	395
184.186	49
184.256	157
184.325	-297
184.395	-316
184.465	928
184.534	434
184.604	200
184.674	-206
184.743	-404
184.813	10
184.883	630
184.952	40
185.022	272
185.092	487
185.161	1161
185.231	673
185.301	-213
185.370	124
185.440	-30
185.509	250
185.579	159
185.649	-263
185.718	88
185.788	-284
185.857	600
185.927	-76
185.996	41
186.066	216
186.136	24
186.205	-925
186.275	246
186.344	13
186.414	270
186.483	-267
186.553	1588
186.622	1538
186.692	149
186.761	-728
186.831	382
186.900	204
186.970	1035
187.039	362
187.109	1263
187.178	344
187.248	672
187.317	356
187.387	387
187.456	257
187.526	1125
187.595	1457
187.664	-420
187.734	631
187.803	664
187.873	124
187.942	1863
188.012	846
188.081	491
188.150	155
188.220	1098
188.289	973
188.358	1192
188.428	244
188.497	-109
188.567	513
188.636	-99
188.705	-252
188.775	836
188.844	-362
188.913	1089
188.983	-44
189.052	347
189.121	289
189.191	177
189.260	559
189.329	1427
189.399	97
189.468	-64
189.537	375
189.606	213
189.676	411
189.745	922
189.814	915
189.883	551
189.953	309
190.022	1228
190.091	2514
190.161	4585
190.230	1474
190.299	867
190.368	-130
190.437	661
190.507	579
190.576	551
190.645	1015
190.714	233
190.783	443
190.853	1288
190.922	623
190.991	331
191.060	581
191.129	-98
191.198	-36
191.268	347
191.337	321
191.406	1020
191.475	162
191.544	-51
191.613	636
191.682	102
191.752	-405
191.821	399
191.890	142
191.959	985
192.028	143
192.097	619
192.166	783
192.235	-190
192.304	423
192.373	-297
192.442	57
192.511	130
192.580	672
192.650	731
192.719	712
192.788	776
192.857	-30
192.926	558
192.995	274
193.064	718
193.133	1675
193.202	2140
193.271	1211
193.340	1809
193.409	1715
193.478	3178
193.547	2107
193.615	2493
193.684	1317
193.753	1925
193.822	1793
193.891	1082
193.960	1460
194.029	1081
194.098	784
194.167	1074
194.236	1175
194.305	146
194.374	556
194.443	1002
194.512	537
194.580	488
194.649	1158
194.718	1876
194.787	680
194.856	668
194.925	704
194.994	1315
195.062	1221
195.131	1460
195.200	1296
195.269	3110
195.338	1195
195.407	1741
195.475	458
195.544	2268
195.613	1465
195.682	1866
195.751	655
195.819	2386
195.888	1387
195.957	2029
196.026	1734
196.094	2514
196.163	1301
196.232	2041
196.301	1501
196.369	1926
196.438	491
196.507	1137
196.576	866
196.644	1026
196.713	208
196.782	627
196.850	822
196.919	-113
196.988	643
197.056	967
197.125	969
197.194	1598
197.262	14
197.331	235
197.400	-376
197.468	1074
197.537	61
197.606	773
197.674	1513
197.743	4477
197.812	850
197.880	3703
197.949	2661
198.017	4534
198.086	2323
198.155	1375
198.223	1772
198.292	4545
198.360	1833
198.429	1247
198.497	1211
198.566	2593
198.635	3977
198.703	1843
198.772	1642
198.840	4636
198.909	5569
198.977	1104
199.046	1031
199.114	1345
199.183	1158
199.251	1356
199.320	1114
199.388	582
199.457	897
199.525	1192
199.594	1051
199.662	1218
199.731	935
199.799	1442
199.867	1371
199.936	495
200.004	1021
200.073	878
200.141	1119
200.210	940
200.278	428
200.346	1237
200.415	1083
200.483	2014
200.552	1192
200.620	1220
200.688	1317
200.757	1183
200.825	796
200.893	1164
200.962	1402
201.030	828
201.098	932
201.167	1369
201.235	998
201.303	359
201.372	1086
201.440	724
201.508	1012
201.577	881
201.645	1243
201.713	1063
201.781	461
201.850	2064
201.918	804
201.986	1280
202.055	1490
202.123	975
202.191	710
202.259	1211
202.327	389
202.396	1293
202.464	1320
202.532	2560
202.600	6043
202.669	3787
202.737	1221
202.805	1065
202.873	776
202.941	1280
203.009	412
203.078	1281
203.146	1868
203.214	645
203.282	413
203.350	1275
203.418	542
203.487	1889
203.555	915
203.623	1799
203.691	753
203.759	1417
203.827	705
203.895	881
203.963	532
204.031	1505
204.099	1167
204.168	1379
204.236	1538
204.304	1888
204.372	288
204.440	1705
204.508	430
204.576	341
204.644	191
204.712	647
204.780	229
204.848	1035
204.916	1116
204.984	996
205.052	585
205.120	1061
205.188	1805
205.256	416
205.324	923
205.392	962
205.460	1296
205.528	1750
205.596	2111
205.664	1221
205.732	1476
205.799	5319
205.867	9810
205.935	2169
206.003	1615
206.071	1085
206.139	1159
206.207	2131
206.275	1205
206.343	934
206.411	1200
206.478	1027
206.546	1371
206.614	2239
206.682	940
206.750	1603
206.818	1657
206.885	3023
206.953	-113
207.021	1865
207.089	1194
207.157	605
207.225	1229
207.292	758
207.360	1688
207.428	1107
207.496	449
207.563	1377
207.631	1397
207.699	1168
207.767	1345
207.834	1049
207.902	1968
207.970	1152
208.038	1022
208.105	1201
208.173	1228
208.241	2532
208.309	2303
208.376	2159
208.444	4357
208.512	3130
208.579	382
208.647	2406
208.715	2601
208.782	2620
208.850	1614
208.918	1274
208.985	1602
209.053	1849
209.120	1613
209.188	1317
209.256	1435
209.323	604
209.391	2659
209.459	2677
209.526	1188
209.594	1963
209.661	975
209.729	1864
209.796	1315
209.864	2835
209.932	1656
209.999	3659
210.067	2290
210.134	2505
210.202	1904
210.269	3014
210.337	3923
210.404	2421
210.472	1473
210.539	1991
210.607	2236
210.674	3071
210.742	1743
210.809	1627
210.877	3013
210.944	3972
211.012	1325
211.079	2840
211.146	1641
211.214	2538
211.281	3145
211.349	3876
211.416	1311
211.484	3132
211.551	1458
211.618	2431
211.686	1780
211.753	1628
211.821	1447
211.888	2127
211.955	1386
212.023	1450
212.090	1812
212.157	1656
212.225	2061
212.292	4857
212.359	9619
212.427	26403
212.494	12515
212.561	5001
212.629	2088
212.696	2469
212.763	2590
212.831	1691
212.898	2292
212.965	1957
213.032	2885
213.100	2300
213.167	1907
213.234	3434
213.301	1929
213.369	1939
213.436	1763
213.503	2313
213.570	2398
213.638	2322
213.705	1710
213.772	1961
213.839	3656
213.906	4616
213.973	3295
214.041	1992
214.108	1948
214.175	3030
214.242	2142
214.309	2137
214.376	2104
214.444	2911
214.511	3417
214.578	2984
214.645	2339
214.712	2691
214.779	2216
214.846	1590
214.913	3152
214.980	3546
215.048	3696
215.115	4339
215.182	3744
215.249	3123
215.316	2237
215.383	2756
215.450	2579
215.517	2704
215.584	1657
215.651	2271
215.718	2213
215.785	3999
215.852	3165
215.919	4173
215.986	3787
216.053	3158
216.120	1721
216.187	3070
216.254	3061
216.321	2365
216.388	3354
216.455	3494
216.522	2851
216.589	4739
216.656	7531
216.722	7013
216.789	4439
216.856	5496
216.923	4163
216.990	3755
217.057	2778
217.124	5052
217.191	3998
217.258	5052
217.324	6011
217.391	5760
217.458	4923
217.525	3667
217.592	2867
217.659	2311
217.725	4312
217.792	5682
217.859	6137
217.926	2549
217.993	2391
218.059	3009
218.126	2198
218.193	2570
218.260	1385
218.327	1913
218.393	1431
218.460	1638
218.527	1123
218.594	2679
218.660	5502
218.727	7554
218.794	2258
218.860	3030
218.927	594
218.994	1834
219.061	2142
219.127	3956
219.194	5100
219.261	2783
219.327	1081
219.394	2213
219.461	688
219.527	1982
219.594	3484
219.661	2859
219.727	1127
219.794	2413
219.860	1256
219.927	2573
219.994	3951
220.060	9102
220.127	6293
220.193	3201
220.260	1638
220.326	4802
220.393	7283
220.460	9198
220.526	6777
220.593	3952
220.659	3899
220.726	4961
220.792	11820
220.859	11811
220.925	12410
220.992	17467
221.058	16432
221.125	17533
221.191	12756
221.258	5337
221.324	4458
221.391	3012
221.457	2473
221.524	2686
221.590	3785
221.657	14916
221.723	11333
221.789	10089
221.856	9533
221.922	4180
221.989	2944
222.055	2181
222.121	1276
222.188	3890
222.254	2509
222.321	2094
222.387	1434
222.453	1921
222.520	1768
222.586	2677
222.652	1238
222.719	1155
222.785	2438
222.851	1620
222.918	1647
222.984	1794
223.050	110
223.116	333
223.183	2152
223.249	1318
223.315	374
223.382	889
223.448	1464
223.514	1200
223.580	665
223.647	440
223.713	737
223.779	1828
223.845	1171
223.911	1878
223.978	1049
224.044	1669
224.110	1338
224.176	2281
224.242	1596
224.309	404
224.375	1653
224.441	898
224.507	239
224.573	1658
224.639	2451
224.705	1654
224.772	972
224.838	1325
224.904	2759
224.970	1970
225.036	1387
225.102	2362
225.168	2486
225.234	2045
225.300	1492
225.366	1189
225.432	1578
225.499	1710
225.565	1895
225.631	2508
225.697	930
225.763	2274
225.829	3867
225.895	3542
225.961	5556
226.027	5875
226.093	3818
226.159	4683
226.225	5611
226.291	15290
226.357	25762
226.423	14190
226.489	8353
226.554	5519
226.620	4699
226.686	6238
226.752	11313
226.818	14993
226.884	34378
226.950	32594
227.016	11389
227.082	7364
227.148	5427
227.214	5659
227.279	4384
227.345	3130
227.411	3703
227.477	4148
227.543	11059
227.609	11987
227.674	4999
227.740	2836
227.806	3336
227.872	2835
227.938	2448
228.003	4949
228.069	3214
228.135	2103
228.201	1769
228.267	1248
228.332	3129
228.398	4395
228.464	4061
228.530	2168
228.595	1502
228.661	1368
228.727	5351
228.792	4587
228.858	1485
228.924	2762
228.990	4480
229.055	3332
229.121	4406
229.187	2703
229.252	2790
229.318	1982
229.384	2787
229.449	4431
229.515	964
229.581	575
229.646	2587
229.712	3558
229.777	8541
229.843	9916
229.909	5990
229.974	5189
230.040	4318
230.105	4203
230.171	4312
230.236	4505
230.302	8050
230.368	7747
230.433	2432
230.499	3915
230.564	2719
230.630	2159
230.695	2323
230.761	2514
230.826	1401
230.892	6071
230.957	2871
231.023	1620
231.088	2723
231.154	2248
231.219	2315
231.284	5231
231.350	6045
231.415	1918
231.481	2699
231.546	2101
231.612	2438
231.677	1375
231.742	274
231.808	3017
231.873	1936
231.939	1119
232.004	6003
232.069	7833
232.135	2707
232.200	2307
232.265	1873
232.331	1680
232.396	1472
232.461	857
232.527	997
232.592	2307
232.657	2220
232.723	7300
232.788	6176
232.853	2301
232.918	2159
232.984	1166
233.049	1155
233.114	6262
233.179	7236
233.245	8987
233.310	12758
233.375	3065
233.440	2761
233.506	1597
233.571	2075
233.636	1918
233.701	2509
233.766	7921
233.832	11762
233.897	4088
233.962	2870
234.027	5853
234.092	4996
234.157	3385
234.222	3732
234.288	6461
234.353	23036
234.418	24802
234.483	12177
234.548	8665
234.613	5449
234.678	5046
234.743	6255
234.808	26909
234.873	17063
234.938	6337
235.004	4455
235.069	4347
235.134	2977
235.199	3850
235.264	3337
235.329	2211
235.394	3900
235.459	6015
235.524	5499
235.589	3931
235.654	2434
235.719	2023
235.784	3250
235.849	4192
235.913	13477
235.978	16129
236.043	20274
236.108	6885
236.173	5193
236.238	7406
236.303	2660
236.368	2980
236.433	7357
236.498	17136
236.563	8227
236.627	12489
236.692	43863
236.757	39218
236.822	16521
236.887	15130
236.952	9729
237.017	7027
237.081	8284
237.146	10008
237.211	18148
237.276	42116
237.341	80455
237.405	43633
237.470	16479
237.535	15152
237.600	8489
237.664	6596
237.729	4166
237.794	5907
237.859	12142
237.923	13350
237.988	7368
238.053	12122
238.118	12732
238.182	29275
238.247	30965
238.312	17169
238.376	10610
238.441	8818
238.506	7417
238.570	2853
238.635	5128
238.700	3996
238.764	3126
238.829	12729
238.893	19116
238.958	6809
239.023	6821
239.087	4125
239.152	5901
239.216	3272
239.281	3701
239.346	3530
239.410	3244
239.475	4454
239.539	28557
239.604	25653
239.668	7262
239.733	3987
239.797	6872
239.862	18429
239.926	28093
239.991	12211
240.055	5941
240.120	4077
240.184	4492
240.249	3997
240.313	3555
240.378	4537
240.442	17227
240.507	31187
240.571	10107
240.635	13821
240.700	19749
240.764	7375
240.829	4913
240.893	2753
240.957	3582
241.022	16043
241.086	32731
241.151	16594
241.215	4930
241.279	7905
241.344	18459
241.408	7685
241.472	4111
241.537	5748
241.601	4736
241.665	3144
241.730	3643
241.794	5097
241.858	2307
241.922	3892
241.987	4409
242.051	2674
242.115	2239
242.179	2832
242.244	2401
242.308	4526
242.372	4024
242.436	5512
242.501	4269
242.565	3476
242.629	2588
242.693	3902
242.757	1910
242.822	3613
242.886	3887
242.950	4861
243.014	5406
243.078	6067
243.142	5244
243.206	5015
243.271	5920
243.335	4171
243.399	7785
243.463	28099
243.527	83860
243.591	28841
243.655	11266
243.719	6207
243.783	6763
243.847	10807
243.911	15076
243.975	20620
244.040	15295
244.104	7339
244.168	4645
244.232	9693
244.296	13456
244.360	13641
244.424	8624
244.488	7736
244.552	7194
244.615	4657
244.679	4228
244.743	6817
244.807	6881
244.871	4125
244.935	4102
244.999	3892
245.063	3228
245.127	5955
245.191	8825
245.255	9855
245.319	6894
245.383	7309
245.446	6029
245.510	4253
245.574	4540
245.638	5584
245.702	4502
245.766	16788
245.829	10788
245.893	7210
245.957	4472
246.021	5913
246.085	5881
246.149	9007
246.212	20729
246.276	30637
246.340	14058
246.404	10443
246.467	9600
246.531	15843
246.595	9538
246.659	9469
246.722	7786
246.786	10446
246.850	10805
246.913	15343
246.977	6266
247.041	7177
247.104	7834
247.168	6876
247.232	18313
247.295	41526
247.359	21805
247.423	8459
247.486	18480
247.550	12145
247.614	8509
247.677	11210
247.741	7058
247.804	6354
247.868	8102
247.932	15743
247.995	39238
248.059	15467
248.122	8196
248.186	10368
248.249	15015
248.313	59163
248.376	68253
248.440	43084
248.503	15656
248.567	13784
248.630	16945
248.694	25412
248.757	29556
248.821	66154
248.884	40515
248.948	33836
249.011	50977
249.075	78698
249.138	69344
249.202	27313
249.265	16147
249.328	26759
249.392	16313
249.455	12005
249.519	7876
249.582	11574
249.645	19783
249.709	15233
249.772	7784
249.835	9135
249.899	12940
249.962	9443
250.025	7822
250.089	22920
250.152	33609
250.215	17881
250.279	12080
250.342	13042
250.405	10890
250.468	9191
250.532	13233
250.595	20958
250.658	66348
250.721	122265
250.785	45075
250.848	24444
250.911	12870
250.974	12031
251.038	16665
251.101	37521
251.164	21861
251.227	20824
251.290	17368
251.354	24509
251.417	93768
251.480	102886
251.543	64677
251.606	174109
251.669	143393
251.732	54485
251.795	53340
251.859	54045
251.922	112348
251.985	72376
252.048	24994
252.111	19396
252.174	18390
252.237	33756
252.300	76990
252.363	79256
252.426	153440
252.489	70107
252.552	36623
252.615	24425
252.678	24562
252.741	56702
252.804	69781
252.867	150180
252.930	100885
252.993	56553
253.056	31562
253.119	22262
253.182	16944
253.245	30862
253.308	24870
253.371	26254
253.434	23768
253.497	20742
253.559	38191
253.622	27898
253.685	37343
253.748	41302
253.811	17815
253.874	27537
253.937	26532
254.000	16377
254.062	24646
254.125	42553
254.188	33765
254.251	33524
254.314	16564
254.376	30354
254.439	34797
254.502	30257
254.565	27144
254.628	50010
254.690	32643
254.753	18866
254.816	15479
254.878	17468
254.941	29614
255.004	33466
255.067	15724
255.129	15637
255.192	8876
255.255	7670
255.317	9837
255.380	7854
255.443	4872
255.505	5223
255.568	5607
255.631	5456
255.693	7212
255.756	5019
255.819	5512
255.881	4343
255.944	4287
256.006	5579
256.069	5333
256.132	4942
256.194	7658
256.257	31605
256.319	22733
256.382	21649
256.444	9257
256.507	6567
256.569	4309
256.632	6098
256.694	13583
256.757	23762
256.819	66911
256.882	28500
256.944	11844
257.007	11802
257.069	13936
257.132	7916
257.194	5857
257.257	5381
257.319	5611
257.381	7125
257.444	16993
257.506	74133
257.569	91852
257.631	55270
257.693	31072
257.756	15861
257.818	16705
257.880	8746
257.943	7053
258.005	5907
258.067	4565
258.130	5329
258.192	7998
258.254	23745
258.317	14157
258.379	6549
258.441	20913
258.503	22642
258.566	29872
258.628	45769
258.690	10826
258.753	9690
258.815	19503
258.877	10462
258.939	5272
259.001	4905
259.064	4532
259.126	9687
259.188	16532
259.250	7914
259.312	10221
259.375	27546
259.437	19206
259.499	7166
259.561	5040
259.623	6170
259.685	5251
259.747	7389
259.809	26483
259.872	59899
259.934	79728
259.996	71714
260.058	16559
260.120	8632
260.182	7719
260.244	5878
260.306	4333
260.368	5692
260.430	4851
260.492	7899
260.554	17482
260.616	21214
260.678	39203
260.740	65224
260.802	16573
260.864	11033
260.926	8245
260.988	9072
261.050	7058
261.112	10853
261.174	42484
261.236	48844
261.298	14092
261.359	25643
261.421	42265
261.483	11296
261.545	8750
261.607	5043
261.669	5714
261.731	15703
261.793	45508
261.854	18486
261.916	10999
261.978	6021
262.040	8171
262.102	8694
262.164	16588
262.225	15088
262.287	7028
262.349	18983
262.411	17194
262.472	7950
262.534	16457
262.596	44212
262.658	13276
262.719	7331
262.781	11126
262.843	41240
262.904	18224
262.966	11766
263.028	14005
263.090	58819
263.151	156062
263.213	50202
263.275	22167
263.336	12307
263.398	7938
263.459	5761
263.521	6604
263.583	17311
263.644	12867
263.706	5999
263.767	4053
263.829	4520
263.891	2977
263.952	3278
264.014	2495
264.075	2924
264.137	4473
264.198	6866
264.260	2912
264.321	3440
264.383	8420
264.444	14233
264.506	3269
264.567	3741
264.629	4169
264.690	2389
264.752	4803
264.813	4266
264.875	2834
264.936	4015
264.998	2397
265.059	2541
265.120	3907
265.182	6053
265.243	28205
265.305	33217
265.366	8522
265.427	4585
265.489	4220
265.550	2283
265.611	5889
265.673	4879
265.734	2925
265.795	3901
265.857	2964
265.918	2759
265.979	8197
266.040	49512
266.102	47527
266.163	13157
266.224	10126
266.286	7062
266.347	3598
266.408	5349
266.469	8061
266.530	5420
266.592	3203
266.653	10802
266.714	22198
266.775	6828
266.836	3502
266.898	3741
266.959	3833
267.020	3833
267.081	4027
267.142	2970
267.203	2652
267.264	2606
267.326	4337
267.387	3256
267.448	2085
267.509	3318
267.570	3245
267.631	3293
267.692	2390
267.753	3931
267.814	2090
267.875	8800
267.936	25511
267.997	8953
268.058	7437
268.119	5795
268.180	5433
268.241	4383
268.302	3580
268.363	3669
268.424	4979
268.485	5609
268.546	2800
268.607	2577
268.668	2418
268.729	2668
268.790	3766
268.851	4407
268.912	12686
268.972	20080
269.033	9237
269.094	4430
269.155	2626
269.216	3516
269.277	5017
269.338	4241
269.398	3146
269.459	4926
269.520	7675
269.581	11722
269.642	13814
269.702	9530
269.763	5425
269.824	4577
269.885	6838
269.945	11692
270.006	4942
270.067	2670
270.128	2698
270.188	3263
270.249	2719
270.310	3394
270.370	3515
270.431	5112
270.492	2237
270.553	4625
270.613	11356
270.674	26163
270.734	11021
270.795	5671
270.856	8301
270.916	8522
270.977	4755
271.038	6857
271.098	6900
271.159	11133
271.219	13031
271.280	5177
271.340	4086
271.401	6892
271.462	25563
271.522	13299
271.583	5568
271.643	6636
271.704	5035
271.764	6619
271.825	15902
271.885	54148
271.946	78641
272.006	26020
272.066	30341
272.127	59303
272.187	19015
272.248	10703
272.308	9865
272.369	38610
272.429	24585
272.489	17302
272.550	18885
272.610	17241
272.671	16048
272.731	15089
272.791	30117
272.852	13751
272.912	10951
272.972	6891
273.033	5739
273.093	13089
273.153	10313
273.214	6559
273.274	7589
273.334	22518
273.394	59838
273.455	24974
273.515	20420
273.575	53544
273.635	22701
273.696	32133
273.756	62673
273.816	25725
273.876	13052
273.936	34876
273.997	66921
274.057	16910
274.117	12155
274.177	16227
274.237	65483
274.297	67014
274.358	56845
274.418	50438
274.478	39677
274.538	16180
274.598	13563
274.658	56881
274.718	79582
274.778	29693
274.838	14149
274.898	31658
274.958	109226
275.018	71285
275.078	42692
275.138	18582
275.198	10518
275.258	8657
275.318	11333
275.378	21448
275.438	20424
275.498	14732
275.558	38502
275.618	87129
275.678	49801
275.738	25745
275.798	18252
275.858	8191
275.918	5690
275.978	7070
276.038	8143
276.098	6600
276.157	13479
276.217	45088
276.277	20700
276.337	14750
276.397	7821
276.457	10178
276.517	6066
276.576	4709
276.636	5400
276.696	10720
276.756	25782
276.815	22549
276.875	8941
276.935	11361
276.995	9538
277.055	6221
277.114	5882
277.174	8466
277.234	33754
277.293	15896
277.353	7919
277.413	6122
277.472	6460
277.532	7859
277.592	7625
277.651	25201
277.711	51780
277.771	18690
277.830	60375
277.890	53368
277.950	33869
278.009	98624
278.069	37332
278.128	34343
278.188	53374
278.248	21859
278.307	54294
278.367	38246
278.426	13400
278.486	8068
278.545	6388
278.605	5136
278.664	5480
278.724	7924
278.783	18591
278.843	59122
278.902	18562
278.962	9479
279.021	11176
279.081	17535
279.140	18545
279.199	12080
279.259	10018
279.318	11181
279.378	15145
279.437	28128
279.496	93749
279.556	272949
279.615	245078
279.675	70090
279.734	38446
279.793	54922
279.853	79531
279.912	29968
279.971	16869
280.031	15102
280.090	23712
280.149	48240
280.208	42017
280.268	176114
280.327	207957
280.386	54991
280.445	37545
280.505	34628
280.564	15720
280.623	11814
280.682	18572
280.742	31836
280.801	10201
280.860	6800
280.919	5183
280.978	5827
281.037	4208
281.097	4452
281.156	5798
281.215	5004
281.274	7014
281.333	35521
281.392	32047
281.451	8309
281.510	4820
281.569	5228
281.628	5246
281.688	4538
281.747	5436
281.806	5079
281.865	3520
281.924	3141
281.983	4423
282.042	2896
282.101	2676
282.160	2936
282.219	2948
282.278	4688
282.337	19995
282.396	15881
282.454	5064
282.513	7262
282.572	29817
282.631	19111
282.690	5730
282.749	4423
282.808	5640
282.867	5517
282.926	6356
282.985	3812
283.043	2571
283.102	3847
283.161	5401
283.220	12953
283.279	36651
283.338	11228
283.396	5336
283.455	5181
283.514	6141
283.573	11640
283.631	7526
283.690	5747
283.749	3911
283.808	13093
283.866	15735
283.925	5451
283.984	4855
284.043	7728
284.101	8814
284.160	4455
284.219	4648
284.277	5756
284.336	10717
284.395	40935
284.453	37496
284.512	12450
284.570	14589
284.629	13025
284.688	10884
284.746	11072
284.805	11966
284.863	16998
284.922	20308
284.981	21436
285.039	29180
285.098	54483
285.156	134827
285.215	300514
285.273	295489
285.332	157189
285.390	77624
285.449	49546
285.507	32727
285.566	23872
285.624	18173
285.683	13557
285.741	10311
285.799	10063
285.858	9505
285.916	7913
285.975	5735
286.033	4865
286.091	4862
286.150	4512
286.208	4137
286.267	5690
286.325	6027
286.383	10557
286.442	9730
286.500	4984
286.558	3261
286.616	3668
286.675	6489
286.733	6949
286.791	4737
286.850	6192
286.908	8080
286.966	16580
287.024	6302
287.083	4998
287.141	3475
287.199	4606
287.257	8371
287.315	6870
287.374	6414
287.432	16635
287.490	11627
287.548	6548
287.606	5170
287.664	4770
287.723	7053
287.781	9319
287.839	5521
287.897	6316
287.955	7864
288.013	13490
288.071	33968
288.129	121357
288.187	339458
288.245	162949
288.303	49227
288.361	28792
288.419	19528
288.477	14282
288.535	10482
288.593	7715
288.651	5781
288.709	4780
288.767	4288
288.825	5242
288.883	3156
288.941	2701
288.999	3254
289.057	3375
289.115	2532
289.173	3649
289.231	4762
289.289	5197
289.346	3833
289.404	6129
289.462	10055
289.520	10741
289.578	4843
289.636	2396
289.694	1892
289.751	3083
289.809	2053
289.867	2825
289.925	4246
289.983	5912
290.040	1880
290.098	2379
290.156	3559
290.214	5785
290.271	2531
290.329	3051
290.387	1306
290.444	2159
290.502	962
290.560	1989
290.617	2077
290.675	3419
290.733	1691
290.790	4924
290.848	2785
290.906	3509
290.963	3838
291.021	3256
291.078	1718
291.136	2747
291.194	8660
291.251	25031
291.309	8092
291.366	2927
291.424	2358
291.481	3607
291.539	2769
291.596	2700
291.654	1694
291.711	2158
291.769	3870
291.826	11035
291.884	7405
291.941	2869
291.999	2443
292.056	3775
292.114	4793
292.171	2588
292.228	3033
292.286	5155
292.343	10880
292.401	14213
292.458	9077
292.515	5687
292.573	6876
292.630	6799
292.687	7692
292.745	5059
292.802	4525
292.859	10708
292.917	34354
292.974	22681
293.031	6685
293.089	5071
293.146	3604
293.203	2659
293.260	2627
293.318	4430
293.375	2583
293.432	2389
293.489	1803
293.546	2614
293.604	5475
293.661	20476
293.718	55755
293.775	24003
293.832	13484
293.889	9752
293.947	10136
294.004	7899
294.061	6269
294.118	13108
294.175	24776
294.232	11042
294.289	5134
294.346	4273
294.403	4738
294.460	6492
294.517	4513
294.574	4076
294.631	3265
294.688	4806
294.745	13642
294.802	50653
294.859	36973
294.916	16541
294.973	13266
295.030	11172
295.087	9585
295.144	5365
295.201	4668
295.258	4857
295.315	6236
295.372	22670
295.429	48940
295.486	19177
295.542	7031
295.599	6799
295.656	8253
295.713	17100
295.770	39317
295.827	15270
295.883	5950
295.940	6365
295.997	11991
296.054	13102
296.111	5834
296.167	3679
296.224	2930
296.281	2417
296.338	2789
296.394	3277
296.451	4961
296.508	17420
296.564	36050
296.621	20792
296.678	41926
296.734	67725
296.791	22392
296.848	11789
296.904	12859
296.961	29835
297.018	48321
297.074	36671
297.131	11947
297.187	9760
297.244	15120
297.301	45488
297.357	90522
297.414	30382
297.470	11423
297.527	7717
297.583	5949
297.640	6971
297.696	4697
297.753	3885
297.809	2776
297.866	2867
297.922	2677
297.979	3121
298.035	4309
298.092	8979
298.148	27329
298.204	29981
298.261	13243
298.317	19008
298.374	53037
298.430	34859
298.486	18884
298.543	15587
298.599	11111
298.656	11670
298.712	18218
298.768	46805
298.824	33848
298.881	11136
298.937	5985
298.993	6776
299.050	7966
299.106	6440
299.162	5475
299.218	5831
299.275	4137
299.331	5396
299.387	12671
299.443	48430
299.500	58601
299.556	24027
299.612	10643
299.668	10060
299.724	13785
299.780	16616
299.837	8319
299.893	12848
299.949	45474
300.005	58904
300.061	41365
300.117	71572
300.173	35605
300.229	17226
300.285	20315
300.341	23155
300.397	11876
300.453	7325
300.510	5242
300.566	7691
300.622	8913
300.678	29051
300.734	55590
300.790	45228
300.845	55792
300.901	35527
300.957	50607
301.013	39985
301.069	14428
301.125	10603
301.181	11165
301.237	8085
301.293	5004
301.349	4342
301.405	4488
301.461	4701
301.516	5790
301.572	6124
301.628	13063
301.684	12156
301.740	16728
301.796	32237
301.851	19711
301.907	33033
301.963	35482
302.019	51025
302.074	138986
302.130	140915
302.186	60134
302.242	24929
302.297	16836
302.353	16766
302.409	30659
302.464	28853
302.520	21702
302.576	51503
302.631	62556
302.687	34517
302.743	14413
302.798	8550
302.854	6207
302.910	7182
302.965	7269
303.021	16616
303.076	16876
303.132	20947
303.187	25356
303.243	12610
303.299	6254
303.354	4689
303.410	3578
303.465	3913
303.521	3366
303.576	4478
303.632	5687
303.687	12967
303.743	41897
303.798	39260
303.853	13866
303.909	7549
303.964	6731
304.020	11300
304.075	18275
304.130	15995
304.186	29072
304.241	30831
304.297	24133
304.352	11694
304.358	11149
304.407	6726
304.449	5951
304.463	5695
304.518	5943
304.539	5843
304.573	5670
304.629	6022
304.630	6109
304.684	10632
304.720	23265
304.739	29518
304.794	52515
304.811	43985
304.850	23327
304.902	11057
304.905	10298
304.960	7068
304.992	6863
305.015	6729
305.071	6149
305.083	5925
305.126	5086
305.173	2661
305.181	2279
305.236	2393
305.264	3101
305.292	3845
305.347	5814
305.354	5753
305.402	5280
305.445	6230
305.457	6512
305.512	7377
305.535	8146
305.567	9200
305.622	8823
305.626	9174
305.678	18784
305.716	39239
305.733	46134
305.788	57279
305.807	48620
305.843	34351
305.897	43206
305.898	43255
305.953	45864
305.988	29727
306.008	21291
306.063	11559
306.078	10370
306.118	7983
306.168	5365
306.173	5157
306.228	3785
306.259	3360
306.283	3073
306.338	3181
306.349	3216
306.393	3444
306.440	4654
306.448	4837
306.503	4332
306.530	4428
306.558	5443
306.613	11197
306.620	12322
306.668	24238
306.711	42604
306.723	44749
306.778	38810
306.801	28732
306.833	17313
306.888	8716
306.892	8290
306.943	5171
306.982	4317
306.997	4108
307.052	2920
307.072	3179
307.107	3571
307.162	3294
307.163	3294
307.217	3792
307.253	3765
307.272	3731
307.327	4907
307.343	5015
307.381	5309
307.434	6347
307.436	6638
307.491	13721
307.524	21593
307.546	24701
307.600	35662
307.614	32957
307.655	20137
307.704	8705
307.710	8048
307.765	6791
307.795	7001
307.819	7537
307.874	9043
307.885	9006
307.929	8417
307.975	9887
307.984	10690
308.038	16516
308.065	21550
308.093	40754
308.148	88966
308.156	100425
308.202	163022
308.246	207991
308.257	203251
308.312	105666
308.336	72117
308.366	55259
308.421	38590
308.426	36589
308.475	21327
308.517	13939
308.530	12863
308.585	10209
308.607	9768
308.639	9297
308.694	8143
308.697	8136
308.748	9399
308.787	10577
308.803	10459
308.857	9835
308.877	9469
308.912	10220
308.967	13066
308.967	13102
309.021	20284
309.058	27267
309.076	35510
309.130	65511
309.148	77436
309.185	148798
309.238	264969
309.239	265749
309.293	295345
309.328	271519
309.348	231192
309.402	101546
309.418	70148
309.457	47956
309.508	29933
309.511	29552
309.566	28015
309.598	28596
309.620	35136
309.674	55098
309.688	60486
309.729	56429
309.778	43720
309.783	42612
309.837	29904
309.868	24074
309.892	30452
309.946	49057
309.959	55020
310.001	72357
310.049	87319
310.055	84395
310.109	47914
310.139	27596
310.163	21318
310.218	12505
310.229	11102
310.272	8610
310.319	6197
310.326	5922
310.381	4270
310.409	3524
310.435	3471
310.489	3744
310.499	3782
310.543	3447
310.589	3144
310.598	3094
310.652	2825
310.679	2761
310.706	2863
310.760	2877
310.769	2917
310.814	2963
310.859	2745
310.868	2791
310.923	3292
310.948	3398
310.977	4081
311.031	5844
311.038	6045
311.085	5276
311.128	4430
311.139	4392
311.193	4079
311.218	3992
311.247	3592
311.301	2780
311.308	2688
311.356	2653
311.398	2518
311.410	2474
311.464	2301
311.488	2227
311.518	2782
311.572	3924
311.578	4036
311.626	5739
311.668	7353
311.680	6947
311.734	4787
311.758	3834
311.788	4177
311.842	4922
311.847	4991
311.896	4953
311.937	4882
311.950	5029
312.004	5674
312.027	5948
312.058	5558
312.112	4832
312.117	4755
312.165	4080
312.207	3504
312.297	2243
312.386	3253
312.476	6016
312.566	14135
312.656	6534
312.745	2416
312.835	3107
312.925	3719
313.015	3589
313.104	2369
313.194	5756
313.284	8723
313.374	6545
313.463	5247
313.553	4046
313.643	3424
313.732	3237
313.822	2229
313.912	4069
314.001	5242
314.091	3221
314.180	4486
314.270	7113
314.360	6986
314.449	6978
314.539	4421
314.628	2883
314.718	3797
314.808	5226
314.897	3880
314.987	5419
315.076	8017
315.166	8373
315.255	5915
315.345	8188
315.434	7094
315.524	6283
315.613	11224
315.703	19026
315.792	45278
315.881	189683
315.971	57310
316.060	17866
316.150	10078
316.239	7981
316.328	4818
316.418	4496
316.507	5759
316.597	8259
316.686	6362
316.775	5963
316.865	6132
316.954	4846
317.043	8928
317.133	5821
317.222	4445
317.311	5489
317.400	5838
317.490	10416
317.579	13485
317.668	14128
317.757	26918
317.847	79297
317.936	314031
318.025	93072
318.114	60226
318.203	26949
318.293	15231
318.382	22700
318.471	17775
318.560	15755
318.649	8607
318.738	5456
318.828	7876
318.917	7856
319.006	5750
319.095	11105
319.184	16200
319.273	26471
319.362	24640
319.451	9699
319.540	7945
319.629	19646
319.718	30917
319.807	9142
319.896	11072
319.985	23126
320.074	18304
320.163	4710
320.252	5400
320.341	4830
320.430	4489
320.519	14402
320.608	7910
320.697	5337
320.786	6050
320.875	11923
320.964	15707
321.053	25063
321.142	36295
321.230	35803
321.319	23876
321.408	54293
321.497	18941
321.586	21562
321.675	14393
321.764	14999
321.852	10617
321.941	30935
322.030	20173
322.119	18566
322.207	54617
322.296	17184
322.385	12722
322.474	22540
322.562	74829
322.651	32512
322.740	26823
322.829	28497
322.917	14371
323.006	16027
323.095	15145
323.183	6722
323.272	10832
323.361	16804
323.449	23099
323.538	9128
323.626	17533
323.715	9922
323.804	6178
323.892	18624
323.981	18383
324.069	5331
324.158	6215
324.246	8655
324.335	9519
324.424	20177
324.512	7224
324.601	9756
324.689	24430
324.778	41822
324.866	12120
324.954	4424
325.043	5649
325.131	7245
325.220	7464
325.308	8293
325.397	9662
325.485	7738
325.574	3710
325.662	3605
325.750	5305
325.839	4875
325.927	3026
326.015	4501
326.104	4038
326.192	4708
326.280	3251
326.369	3526
326.457	7574
326.545	15893
326.634	6098
326.722	3248
326.810	4255
326.898	3848
326.987	5416
327.075	14245
327.163	10799
327.251	4654
327.340	14602
327.428	21350
327.516	4684
327.604	4491
327.692	3520
327.781	2967
327.869	3802
327.957	4260
328.045	7160
328.133	3878
328.221	2987
328.309	3944
328.397	4125
328.485	6198
328.574	11503
328.662	39276
328.750	14361
328.838	4426
328.926	3397
329.014	3224
329.102	5400
329.190	10736
329.278	9576
329.366	3437
329.454	1997
329.542	2005
329.630	1937
329.718	2971
329.806	4978
329.893	3356
329.981	2102
330.069	4986
330.157	16832
330.245	47304
330.333	23102
330.421	5665
330.509	11362
330.597	45889
330.684	26050
330.772	5449
330.860	2208
330.948	2867
331.036	2795
331.123	1655
331.211	1711
331.299	2331
331.387	2866
331.475	8235
331.562	3149
331.650	2516
331.738	2136
331.825	2727
331.913	1944
332.001	2896
332.089	2625
332.176	2984
332.264	6329
332.352	6609
332.439	5241
332.527	2543
332.614	2140
332.702	2223
332.790	3534
332.877	6909
332.965	8503
333.052	6017
333.140	6559
333.228	15912
333.315	3830
333.403	3372
333.490	4701
333.578	8360
333.665	24198
333.753	10814
333.840	3531
333.928	3910
334.015	5597
334.103	5934
334.190	13014
334.278	7228
334.365	7264
334.452	8832
334.540	4644
334.627	3714
334.715	5380
334.802	9783
334.889	23693
334.977	30509
335.064	13667
335.151	6045
335.239	4006
335.326	4307
335.413	8488
335.501	8392
335.588	4837
335.675	4551
335.762	3826
335.850	5592
335.937	7888
336.024	14533
336.111	34827
336.199	29893
336.286	10211
336.373	5316
336.460	3325
336.547	2636
336.635	4303
336.722	5057
336.809	3142
336.896	7455
336.983	11329
337.070	15594
337.157	12160
337.245	12240
337.332	8452
337.419	2948
337.506	1999
337.593	2923
337.680	2915
337.767	6045
337.854	5924
337.941	6647
338.028	9134
338.115	3853
338.202	4187
338.289	5011
338.376	15081
338.463	6139
338.550	3972
338.637	3912
338.724	2979
338.811	4802
338.898	2987
338.984	1784
339.071	2136
339.158	5777
339.245	17551
339.332	9884
339.419	5962
339.506	4815
339.593	1968
339.679	3894
339.766	3422
339.853	5964
339.940	15646
340.027	5077
340.113	4369
340.200	7375
340.287	4551
340.374	6956
340.460	13462
340.547	5093
340.634	12533
340.720	47256
340.807	25192
340.894	4189
340.980	3947
341.067	4106
341.154	5192
341.240	9510
341.327	21740
341.414	7836
341.500	6365
341.587	4148
341.674	4210
341.760	15048
341.847	16971
341.933	5555
342.020	1908
342.106	2751
342.193	6421
342.279	11321
342.366	8646
342.452	14990
342.539	8748
342.625	20512
342.712	50252
342.798	19128
342.885	7158
342.971	2742
343.058	2240
343.144	2909
343.230	4235
343.317	3692
343.403	3034
343.490	3116
343.576	3505
343.662	5035
343.749	4646
343.835	7079
343.921	17259
344.008	96274
344.094	214949
344.180	44263
344.267	17884
344.353	56749
344.439	50828
344.525	22016
344.612	8173
344.698	6632
344.784	4769
344.870	3728
344.957	4167
345.043	9013
345.129	5716
345.215	12962
345.301	6710
345.387	4153
345.474	2088
345.560	2811
345.646	3537
345.732	3024
345.818	5291
345.904	4508
345.990	6495
346.076	4332
346.162	4619
346.249	4330
346.335	3794
346.421	6662
346.507	25245
346.593	86672
346.679	16930
346.765	5089
346.851	5010
346.937	4574
347.023	4163
347.108	5643
347.194	4350
347.280	4243
347.366	7565
347.452	26587
347.538	107619
347.624	70034
347.710	48119
347.796	6051
347.882	3968
347.967	3169
348.053	3244
348.139	3005
348.225	3159
348.311	4035
348.397	3372
348.482	5542
348.568	6943
348.654	3462
348.740	6863
348.825	6762
348.911	11637
348.997	48005
349.083	90473
349.168	12538
349.254	5431
349.340	4173
349.425	4207
349.511	7025
349.597	6011
349.682	16958
349.768	56401
349.854	23706
349.939	4460
350.025	2933
350.110	3157
350.196	2617
350.282	2378
350.367	2703
350.453	4477
350.538	4352
350.624	5332
350.709	4813
350.795	2266
350.880	4232
350.966	4284
351.051	4647
351.137	2937
351.222	4436
351.308	17674
351.393	46106
351.479	10591
351.564	3895
351.649	4157
351.735	3297
351.820	2933
351.906	3554
351.991	5916
352.076	31175
352.162	43318
352.247	8992
352.332	6433
352.418	12054
352.503	16590
352.588	67506
352.673	52223
352.759	12524
352.844	5820
352.929	7255
353.014	9146
353.100	6326
353.185	10348
353.270	17253
353.355	17850
353.441	5207
353.526	4634
353.611	16110
353.696	18573
353.781	10477
353.866	5052
353.952	5662
354.037	15783
354.122	37848
354.207	32983
354.292	10954
354.377	4271
354.462	4261
354.547	6786
354.632	5148
354.717	5825
354.802	9166
354.887	4705
354.972	4136
355.057	2968
355.142	3115
355.227	5703
355.312	10015
355.397	24368
355.482	60120
355.567	27097
355.652	19913
355.737	22715
355.822	68287
355.907	51031
355.991	8898
356.076	4162
356.161	3971
356.246	3724
356.331	5864
356.416	16611
356.501	117039
356.585	114023
356.670	14746
356.755	10388
356.840	15061
356.924	75179
357.009	274696
357.094	95534
357.179	21177
357.263	14792
357.348	12759
357.433	11501
357.517	11555
357.602	9876
357.687	7466
357.771	10197
357.856	28419
357.941	19512
358.025	55122
358.110	245435
358.195	105278
358.279	16291
358.364	12977
358.448	48532
358.533	122471
358.617	85036
358.702	84400
358.787	29684
358.871	17218
358.956	14348
359.040	4866
359.125	3853
359.209	4407
359.294	13205
359.378	20717
359.462	14546
359.547	7723
359.631	4249
359.716	3037
359.800	3359
359.885	5949
359.969	4497
360.053	4720
360.138	4826
360.222	8776
360.306	17101
360.391	12262
360.475	20500
360.559	45258
360.644	48716
360.728	33514
360.812	62691
360.896	171460
360.981	58726
361.065	26305
361.149	8650
361.233	8072
361.318	6760
361.402	10476
361.486	7111
361.570	5703
361.654	9107
361.739	25452
361.823	111937
361.907	166623
361.991	26040
362.075	16133
362.159	35120
362.243	24852
362.327	23627
362.411	32399
362.495	14919
362.580	7802
362.664	4996
362.748	5012
362.832	7525
362.916	13248
363.000	52761
363.084	159650
363.168	203802
363.252	42320
363.336	14216
363.420	15209
363.503	13828
363.587	11631
363.671	8795
363.755	9178
363.839	15207
363.923	7132
364.007	17808
364.091	17000
364.175	8403
364.258	24135
364.342	52038
364.426	115567
364.510	59828
364.594	22289
364.677	30520
364.761	150762
364.845	98290
364.929	31139
365.013	23877
365.096	20637
365.180	21687
365.264	7629
365.347	11283
365.431	6105
365.515	4797
365.598	5922
365.682	6067
365.766	3609
365.849	3577
365.933	5889
366.017	5960
366.100	1547
366.184	1773
366.267	4320
366.351	3762
366.435	4639
366.518	2124
366.602	3858
366.685	4668
366.769	5605
366.852	6228
366.936	12345
367.019	10473
367.103	3390
367.186	4377
367.270	3768
367.353	2907
367.436	5661
367.520	3655
367.603	6628
367.687	10810
367.770	20524
367.853	12254
367.937	40990
368.020	66603
368.104	15356
368.187	15636
368.270	20366
368.353	15077
368.437	13784
368.520	13314
368.603	19877
368.687	48887
368.770	86995
368.853	19701
368.936	17204
369.020	11269
369.103	6417
369.186	3534
369.269	4694
369.352	13122
369.436	17937
369.519	11474
369.602	3553
369.685	7103
369.768	6324
369.851	4476
369.934	3684
370.018	6215
370.101	16723
370.184	11744
370.267	7352
370.350	12997
370.433	23036
370.516	84354
370.599	137961
370.682	47165
370.765	46407
370.848	57285
370.931	111252
371.014	34239
371.097	7241
371.180	6472
371.263	4121
371.346	1725
371.429	3929
371.511	4067
371.594	9234
371.677	11544
371.760	7667
371.843	14322
371.926	80317
372.009	185323
372.091	51605
372.174	40213
372.257	102664
372.340	34381
372.423	15140
372.505	10672
372.588	8357
372.671	34495
372.754	112219
372.836	47079
372.919	9382
373.002	10481
373.085	11046
373.167	16407
373.250	45787
373.332	103997
373.415	131547
373.498	272240
373.580	98952
373.663	196887
373.746	230667
373.828	42201
373.911	14409
373.993	10465
374.076	11659
374.159	10395
374.241	24075
374.324	91487
374.406	56390
374.489	82070
374.571	232243
374.654	86481
374.736	43317
374.819	140749
374.901	198377
374.983	198856
375.066	31326
375.148	7892
375.231	8918
375.313	15650
375.395	12195
375.478	6629
375.560	6223
375.643	10058
375.725	40256
375.807	180477
375.890	104188
375.972	19377
376.054	15192
376.136	10381
376.219	9407
376.301	52286
376.383	159092
376.465	55306
376.548	36377
376.630	44513
376.712	134940
376.794	55666
376.877	6897
376.959	4184
377.041	5172
377.123	2769
377.205	3125
377.287	2184
377.369	4583
377.452	4782
377.534	3895
377.616	3561
377.698	3680
377.780	3152
377.862	4881
377.944	5636
378.026	2266
378.108	3587
378.190	4131
378.272	3888
378.354	2715
378.436	2516
378.518	4464
378.600	12504
378.682	18940
378.764	62179
378.846	45038
378.928	11597
379.010	15491
379.091	9095
379.173	4656
379.255	3730
379.337	7733
379.419	30589
379.501	89846
379.583	30482
379.664	8768
379.746	24379
379.828	66880
379.910	83961
379.991	68469
380.073	10665
380.155	6886
380.237	4886
380.318	3572
380.400	4632
380.482	14018
380.564	21616
380.645	19018
380.727	17470
380.809	10054
380.890	6872
380.972	4665
381.053	5726
381.135	7768
381.217	21288
381.298	60452
381.380	27092
381.461	24957
381.543	134346
381.624	155464
381.706	24224
381.787	10094
381.869	12758
381.951	52359
382.032	214402
382.113	123449
382.195	21807
382.276	14700
382.358	38187
382.439	116828
382.521	127079
382.602	203930
382.684	82823
382.765	159515
382.846	147407
382.928	198004
383.009	100726
383.090	68460
383.172	286703
383.253	433919
383.334	143435
383.416	175904
383.497	80714
383.578	31268
383.659	57563
383.741	241267
383.822	663383
383.903	313869
383.984	119179
384.066	215274
384.147	122359
384.228	24021
384.309	18552
384.390	12641
384.471	9142
384.553	10122
384.634	14338
384.715	15213
384.796	7638
384.877	11369
384.958	56290
385.039	64321
385.120	20706
385.201	9269
385.282	8616
385.363	7581
385.444	9776
385.525	21879
385.606	90416
385.687	72904
385.768	12717
385.849	16907
385.930	91885
386.011	157034
386.092	36827
386.173	8458
386.254	6080
386.335	8318
386.416	14048
386.496	36517
386.577	55695
386.658	15273
386.739	9752
386.820	6059
386.901	4552
386.981	7097
387.062	6462
387.143	15193
387.224	59740
387.304	50457
387.385	17100
387.466	7682
387.547	10211
387.627	9809
387.708	24786
387.789	109195
387.869	132255
387.950	32853
388.031	6165
388.111	2413
388.192	5271
388.273	7493
388.353	6330
388.434	7729
388.514	22074
388.595	108744
388.676	130642
388.756	55677
388.837	53792
388.917	30741
388.998	6126
389.078	6733
389.159	6360
389.239	6224
389.320	11497
389.400	8267
389.480	20271
389.561	61480
389.641	28077
389.722	10381
389.802	16059
389.883	26314
389.963	75481
390.043	36530
390.124	7660
390.204	21208
390.284	70624
390.365	39272
390.445	26908
390.525	125377
390.605	120401
390.686	32987
390.766	13348
390.846	7389
390.927	5104
391.007	4910
391.087	6013
391.167	7845
391.247	5192
391.328	6105
391.408	6407
391.488	5582
391.568	4338
391.648	9003
391.728	13031
391.808	12997
391.888	14641
391.969	34991
392.049	54153
392.129	19000
392.209	28365
392.289	75893
392.369	34148
392.449	13549
392.529	14640
392.609	19280
392.689	27558
392.769	81474
392.849	67549
392.929	44351
393.009	104755
393.089	100764
393.169	124063
393.248	386006
393.328	1201118
393.408	1230200
393.488	389626
393.568	117473
393.648	57077
393.728	36088
393.807	23441
393.887	20609
393.967	17565
394.047	16980
394.127	18043
394.206	23546
394.286	71042
394.366	340056
394.446	342482
394.525	65434
394.605	16906
394.685	13445
394.764	15526
394.844	19125
394.924	18155
395.003	13211
395.083	10737
395.163	9915
395.242	9321
395.322	10041
395.402	6356
395.481	9770
395.561	11873
395.640	32922
395.720	38656
395.799	19643
395.879	16415
395.958	24529
396.038	97747
396.117	441693
396.197	457829
396.276	99552
396.356	31949
396.435	24909
396.515	29953
396.594	47663
396.673	100405
396.753	382185
396.832	1076661
396.912	776122
396.991	189911
397.070	56590
397.150	30398
397.229	21207
397.308	26469
397.388	40076
397.467	18711
397.546	10390
397.625	7806
397.705	10929
397.784	11909
397.863	6354
397.942	6065
398.022	4503
398.101	5185
398.180	9384
398.259	5574
398.338	6506
398.417	6293
398.497	3504
398.576	4239
398.655	3099
398.734	3173
398.813	3149
398.892	4029
398.971	7246
399.050	4574
399.129	2676
399.208	1863
399.287	3527
399.366	1843
399.445	2882
399.524	2512
399.603	2540
399.682	7689
399.761	12652
399.840	10902
399.919	6005
399.998	2730
400.077	1157
400.156	1406
400.235	4234
400.313	2158
400.392	4096
400.471	31242
400.550	47928
400.629	11177
400.708	4639
400.786	1722
400.865	2147
400.944	3886
401.023	5785
401.102	2108
401.180	2475
401.259	1160
401.338	1983
401.416	5424
401.495	3756
401.574	2067
401.652	2154
401.731	4193
401.810	2267
401.888	2102
401.967	1518
402.046	2690
402.124	3386
402.203	4173
402.281	3524
402.360	3126
402.438	5219
402.517	1955
402.596	1864
402.674	1472
402.753	671
402.831	1362
402.910	3595
402.988	13632
403.066	48583
403.145	25910
403.223	15546
403.302	37745
403.380	26024
403.459	24690
403.537	8966
403.615	3261
403.694	331
403.772	2728
403.850	1628
403.929	878
404.007	1794
404.085	6657
404.164	5996
404.242	2634
404.320	3456
404.398	6590
404.477	31916
404.555	166015
404.633	133329
404.711	15966
404.789	3233
404.868	3092
404.946	1798
405.024	1125
405.102	1974
405.180	561
405.258	853
405.336	2526
405.415	1473
405.493	4207
405.571	4697
405.649	1238
405.727	860
405.805	3116
405.883	3792
405.961	2717
406.039	1815
406.117	1093
406.195	6784
406.273	36614
406.351	140433
406.429	69445
406.507	6398
406.585	2006
406.663	4056
406.740	5807
406.818	4608
406.896	1320
406.974	3882
407.052	11497
407.130	80862
407.208	108423
407.285	18295
407.363	2622
407.441	2211
407.519	2524
407.596	4338
407.674	10772
407.752	35935
407.830	25022
407.907	5169
407.985	2146
408.063	1968
408.141	904
408.218	2566
408.296	1978
408.373	3251
408.451	4892
408.529	4016
408.606	1145
408.684	1465
408.762	768
408.839	410
408.917	556
408.994	1328
409.072	559
409.149	1910
409.227	5108
409.304	6474
409.382	5318
409.459	6369
409.537	9865
409.614	7895
409.692	4968
409.769	5092
409.846	11194
409.924	12382
410.001	6131
410.079	3673
410.156	3095
410.233	3336
410.311	3013
410.388	2199
410.465	2991
410.543	2223
410.620	1634
410.697	3790
410.775	4090
410.852	1280
410.929	4095
411.006	4907
411.083	1879
411.161	5277
411.238	4604
411.315	1749
411.392	1028
411.469	4231
411.547	3636
411.624	1078
411.701	1202
411.778	3831
411.855	10386
411.932	4175
412.009	1487
412.086	1680
412.163	1166
412.240	1608
412.317	1342
412.394	1603
412.471	638
412.548	498
412.625	1860
412.702	2309
412.779	5080
412.856	3036
412.933	782
413.010	508
413.087	4042
413.164	28033
413.241	37208
413.318	7508
413.395	5524
413.471	7987
413.548	3007
413.625	1697
413.702	1149
413.779	958
413.855	268
413.932	327
414.009	-675
414.086	939
414.162	1075
414.239	3824
414.316	27188
414.393	62609
414.469	18295
414.546	1486
414.623	920
414.699	812
414.776	2647
414.853	-41
414.929	1941
415.006	142
415.082	-424
415.159	323
415.236	688
415.312	1665
415.389	7053
415.465	8867
415.542	3282
415.618	1972
415.695	5062
415.771	3381
415.848	2509
415.924	1519
416.000	-172
416.077	1284
416.153	-524
416.230	-798
416.306	326
416.383	-127
416.459	758
416.535	-261
416.612	-520
416.688	-15
416.764	1280
416.841	-136
416.917	777
416.993	181
417.069	1829
417.146	2829
417.222	3710
417.298	2307
417.374	1042
417.451	1933
417.527	2460
417.603	4089
417.679	1486
417.755	1905
417.831	126
417.908	1210
417.984	565
418.060	-7
418.136	7487
418.212	9741
418.288	2794
418.364	1313
418.440	804
418.516	2646
418.592	1301
418.668	8879
418.744	18204
418.820	12092
418.896	2190
418.972	-10
419.048	1154
419.124	8443
419.200	5668
419.276	1665
419.352	70
419.428	799
419.504	1362
419.579	2642
419.655	2637
419.731	2515
419.807	12358
419.883	24616
419.959	14616
420.034	4516
420.110	8452
420.186	38924
420.262	27007
420.337	3449
420.413	2679
420.489	815
420.565	1768
420.640	548
420.716	2139
420.792	-199
420.867	2019
420.943	1325
421.019	5436
421.094	3679
421.170	1574
421.245	-64
421.321	1849
421.397	2519
421.472	7285
421.548	18937
421.623	12040
421.699	4618
421.774	4099
421.850	3672
421.925	8564
422.001	6981
422.076	5040
422.152	6400
422.227	11572
422.302	13401
422.378	20327
422.453	38917
422.529	99642
422.604	284290
422.679	439468
422.755	289032
422.830	98320
422.905	37862
422.981	20463
423.056	12335
423.131	9968
423.207	6984
423.282	7230
423.357	14523
423.432	8769
423.508	9058
423.583	20307
423.658	13506
423.733	4287
423.808	3020
423.883	6246
423.959	4557
424.034	5380
424.109	3569
424.184	1336
424.259	1027
424.334	1784
424.409	962
424.484	1455
424.559	2458
424.634	2046
424.709	5083
424.784	5545
424.859	3105
424.934	5810
425.009	27093
425.084	43780
425.159	12804
425.234	1383
425.309	705
425.384	5568
425.459	7575
425.534	1943
425.609	94
425.683	67
425.758	443
425.833	542
425.908	2557
425.983	17276
426.058	47336
426.132	15905
426.207	828
426.282	2057
426.357	-208
426.431	226
426.506	1401
426.581	326
426.655	116
426.730	1378
426.805	462
426.879	1725
426.954	1719
427.029	6299
427.103	46310
427.178	114461
427.253	43734
427.327	2873
427.402	1662
427.476	6751
427.551	2686
427.625	788
427.700	848
427.774	269
427.849	490
427.923	-194
427.998	465
428.072	827
428.147	5638
428.221	34515
428.296	106714
428.370	50740
428.444	4672
428.519	1326
428.593	1183
428.667	1330
428.742	1887
428.816	7903
428.890	55705
428.965	90830
429.039	19687
429.113	2898
429.188	1129
429.262	1133
429.336	5565
429.410	18210
429.485	8636
429.559	805
429.633	796
429.707	1704
429.781	7512
429.855	54577
429.930	86649
430.004	21883
430.078	8337
430.152	27073
430.226	135509
430.300	128117
430.374	17531
430.448	3697
430.522	3717
430.596	5860
430.670	19886
430.744	126798
430.818	170551
430.892	29713
430.966	4417
431.040	1310
431.114	-357
431.188	-637
431.262	274
431.336	699
431.410	1757
431.484	5646
431.557	5755
431.631	774
431.705	2854
431.779	19889
431.853	94092
431.927	58999
432.000	6410
432.074	1449
432.148	1082
432.222	-270
432.295	-203
432.369	802
432.443	3553
432.516	42766
432.590	112937
432.664	34834
432.737	3262
432.811	183
432.885	494
432.958	171
433.032	-710
433.106	141
433.179	-360
433.253	-638
433.326	-936
433.400	-1385
433.473	-570
433.547	-1630
433.620	799
433.694	2726
433.767	3043
433.841	-571
433.914	-946
433.988	-777
434.061	-213
434.134	-430
434.208	-439
434.281	-1562
434.355	-248
434.428	-205
434.501	-1406
434.575	-544
434.648	-683
434.721	-848
434.795	-769
434.868	-749
434.941	-469
435.014	-310
435.088	422
435.161	1375
435.234	4524
435.307	4423
435.381	1179
435.454	2463
435.527	4782
435.600	4489
435.673	2774
435.746	1371
435.819	-20
435.892	974
435.966	-212
436.039	-763
436.112	-620
436.185	-531
436.258	-548
436.331	-983
436.404	-123
436.477	-451
436.550	-803
436.623	-560
436.696	-829
436.769	1185
436.842	60
436.915	402
436.987	1450
437.060	-396
437.133	-115
437.206	-971
437.279	171
437.352	-694
437.425	-197
437.498	1003
437.570	3299
437.643	3406
437.716	526
437.789	-364
437.861	2123
437.934	7190
438.007	2564
438.080	774
438.152	896
438.225	6848
438.298	60954
438.370	164021
438.443	55724
438.516	9166
438.588	1637
438.661	-435
438.734	-101
438.806	1224
438.879	1009
438.951	1406
439.024	2006
439.096	291
439.169	-107
439.241	442
439.314	-375
439.386	-714
439.459	475
439.531	2107
439.604	56
439.676	50
439.749	-1198
439.821	-595
439.893	-134
439.966	-294
440.038	766
440.110	651
440.183	1106
440.255	-38
440.327	2535
440.400	21452
440.472	95978
440.544	56842
440.617	5824
440.689	3267
440.761	4187
440.833	6413
440.905	3164
440.978	-104
441.050	-73
441.122	113
441.194	-286
441.266	-746
441.338	-535
441.411	3616
441.483	28960
441.555	40569
441.627	7381
441.699	848
441.771	-458
441.843	-377
441.915	-534
441.987	-695
442.059	480
442.131	206
442.203	460
442.275	2326
442.347	2881
442.419	6696
442.491	44937
442.563	110286
442.635	40762
442.706	8868
442.778	6056
442.850	2066
442.922	388
442.994	1043
443.066	2204
443.137	2433
443.209	2153
443.281	3961
443.353	11115
443.425	54623
443.496	204092
443.568	189496
443.640	63843
443.711	11701
443.783	3715
443.855	2135
443.926	689
443.998	677
444.070	911
444.141	710
444.213	4230
444.285	5022
444.356	3000
444.428	1069
444.499	-114
444.571	72
444.642	20
444.714	1438
444.785	3972
444.857	2088
444.928	244
445.000	703
445.071	1365
445.143	2800
445.214	4490
445.285	6882
445.357	22105
445.428	124675
445.500	290304
445.571	166281
445.642	88794
445.714	22504
445.785	7625
445.856	3336
445.928	5830
445.999	4134
446.070	2168
446.141	3785
446.213	3863
446.284	1501
446.355	596
446.426	-839
446.497	240
446.569	436
446.640	3213
446.711	5539
446.782	683
446.853	168
446.924	1477
446.995	588
447.066	214
447.138	279
447.209	-197
447.280	-1107
447.351	-266
447.422	-1341
447.493	-370
447.564	1216
447.635	4078
447.706	568
447.777	-265
447.847	-86
447.918	-259
447.989	-751
448.060	155
448.131	689
448.202	2032
448.273	2516
448.344	823
448.414	492
448.485	504
448.556	266
448.627	-1152
448.698	-453
448.768	-1351
448.839	-264
448.910	-265
448.981	261
449.051	1301
449.122	-185
449.193	-61
449.263	-685
449.334	-1101
449.405	1419
449.475	6083
449.546	2383
449.616	121
449.687	-39
449.758	69
449.828	-688
449.899	-262
449.969	-531
450.040	-350
450.110	-52
450.181	-208
450.251	-116
450.322	-847
450.392	-735
450.463	-44
450.533	-1011
450.604	-527
450.674	-965
450.744	2
450.815	-1385
450.885	-216
450.955	-237
451.026	-728
451.096	-1161
451.166	-642
451.237	-273
451.307	354
451.377	-116
451.447	-901
451.518	-741
451.588	-1044
451.658	-475
451.728	25
451.799	7
451.869	-93
451.939	-222
452.009	-184
452.079	-297
452.149	124
452.219	-862
452.289	-11
452.360	-243
452.430	-285
452.500	950
452.570	1993
452.640	4664
452.710	10055
452.780	11968
452.850	12691
452.920	13483
452.990	3490
453.060	1060
453.129	1982
453.199	903
453.269	942
453.339	1916
453.409	2912
453.479	1960
453.549	3255
453.619	2461
453.688	10
453.758	-401
453.828	-346
453.898	-682
453.968	-753
454.037	144
454.087	-289
454.107	-480
454.168	-709
454.177	-758
454.247	-426
454.249	-396
454.316	-41
454.330	-219
454.386	-966
454.411	-935
454.456	-964
454.492	-534
454.525	-182
454.574	59
454.595	175
454.655	142
454.665	100
454.734	48
454.736	82
454.804	553
454.817	698
454.873	1230
454.898	1203
454.943	1095
454.979	513
455.013	-45
455.060	87
455.082	163
455.141	-422
455.152	-536
455.221	89
455.222	121
455.291	1002
455.303	1457
455.360	3054
455.384	4739
455.430	7562
455.465	5562
455.499	3653
455.546	1830
455.569	982
455.627	1744
455.638	1837
455.707	546
455.708	558
455.777	86
455.789	109
455.846	127
455.869	99
455.916	63
455.950	264
455.985	398
456.031	305
456.054	220
456.112	342
456.124	340
456.193	-200
456.193	-216
456.262	-31
456.274	121
456.332	727
456.355	624
456.401	301
456.436	326
456.470	455
456.516	672
456.540	681
456.597	572
456.609	574
456.678	1164
456.678	1149
456.747	810
456.759	619
456.817	-194
456.840	-16
456.886	187
456.920	207
456.955	329
457.001	886
457.024	1076
457.082	1092
457.093	1102
457.162	1396
457.163	1411
457.232	628
457.243	580
457.301	586
457.324	686
457.370	795
457.405	978
457.439	1005
457.485	1217
457.508	1471
457.566	1813
457.577	1920
457.646	2908
457.647	2941
457.715	6888
457.727	7710
457.784	13394
457.808	17828
457.853	23212
457.889	26652
457.922	25336
457.969	15804
457.991	16267
458.050	21723
458.060	22635
458.129	39763
458.130	40249
458.198	38648
458.211	34574
458.267	17744
458.292	11555
458.336	7113
458.372	6643
458.405	9818
458.453	15769
458.474	20775
458.533	39629
458.543	41162
458.611	65139
458.614	65483
458.680	37657
458.694	28998
458.749	12525
458.775	8615
458.818	5051
458.855	3948
458.887	3048
458.936	2275
458.955	2072
459.016	2095
459.024	2177
459.093	2583
459.097	2613
459.162	3295
459.177	3502
459.230	4179
459.257	4879
459.299	4815
459.338	3845
459.368	3340
459.418	3618
459.437	3695
459.499	3146
459.505	3120
459.574	2845
459.579	2861
459.643	2817
459.659	2620
459.711	2241
459.740	2545
459.780	2933
459.820	3504
459.849	3681
459.900	3009
459.917	2925
459.981	2681
459.986	2614
460.054	2096
460.061	2117
460.123	3164
460.141	3398
460.191	5508
460.222	6930
460.260	7941
460.302	9141
460.328	7894
460.382	5059
460.397	4976
460.462	3341
460.465	3343
460.534	5394
460.543	5581
460.602	15598
460.623	19401
460.671	29787
460.703	39748
460.739	37375
460.783	31225
460.808	26009
460.864	6514
460.876	5133
460.944	2810
460.945	2796
461.013	3941
461.024	4090
461.081	4694
461.104	5198
461.150	5120
461.184	4802
461.218	4583
461.264	4025
461.286	3733
461.345	3060
461.355	3060
461.423	3397
461.425	3397
461.491	2308
461.505	2144
461.559	2939
461.585	3445
461.628	3555
461.665	3450
461.696	3502
461.745	3632
461.764	3499
461.825	3135
461.832	3278
461.901	4388
461.905	4502
461.969	3828
461.985	3487
462.037	3219
462.065	3241
462.105	2933
462.145	2446
462.173	2623
462.225	3014
462.241	2974
462.305	2931
462.310	2989
462.378	3895
462.385	3977
462.446	4567
462.465	4823
462.514	5090
462.545	5263
462.582	4905
462.625	4430
462.650	4054
462.705	2951
462.718	2867
462.785	2811
462.786	2818
462.854	2853
462.865	2895
462.922	3463
462.945	3624
462.990	4060
463.025	4444
463.058	3770
463.104	2868
463.126	3189
463.184	3819
463.194	3877
463.262	4441
463.264	4463
463.330	4140
463.344	4041
463.398	3543
463.424	3157
463.466	3325
463.504	3671
463.533	3721
463.583	3735
463.601	3782
463.663	3983
463.669	4182
463.737	6390
463.743	6589
463.805	6665
463.823	6718
463.873	5530
463.903	4588
463.940	4432
463.982	4341
464.008	4163
464.062	3810
464.076	3948
464.142	4691
464.144	4695
464.211	4599
464.221	4553
464.279	4943
464.301	5153
464.347	5506
464.381	5577
464.414	4892
464.461	4272
464.482	4557
464.540	5145
464.550	5358
464.617	6436
464.620	6476
464.685	8603
464.699	9079
464.753	10018
464.779	10463
464.820	9945
464.859	9341
464.888	8384
464.938	6595
464.956	6739
465.018	7171
465.023	7124
465.091	6330
465.098	6274
465.158	6775
465.177	6888
465.226	6867
465.257	6759
465.293	7802
465.336	9185
465.361	10074
465.416	11792
465.428	11790
465.495	11962
465.496	11955
465.563	7580
465.575	6806
465.631	7310
465.654	7645
465.698	7181
465.734	6652
465.765	6819
465.813	7027
465.833	6938
465.893	6757
465.900	6776
465.968	6657
465.972	6635
466.035	6607
466.052	6647
466.102	7425
466.131	7760
466.170	7727
466.210	7713
466.237	7711
466.290	7617
466.304	7638
466.369	7684
466.372	7710
466.439	8047
466.449	8079
466.506	8914
466.528	9199
466.573	10227
466.607	11003
466.641	12854
466.687	15385
466.708	16646
466.766	19967
466.775	19440
466.842	15234
466.845	15004
466.909	11500
466.925	10626
466.977	9664
467.004	9147
467.044	9365
467.083	9555
467.111	10842
467.163	13203
467.178	13613
467.242	15197
467.245	15209
467.312	14831
467.321	14753
467.379	12602
467.400	11783
467.446	11474
467.480	11212
467.559	10298
467.638	9990
467.717	10551
467.796	14099
467.875	17767
467.955	11179
468.034	11264
468.113	11200
468.192	12778
468.271	11661
468.350	14181
468.429	17222
468.508	19156
468.588	13422
468.667	10690
468.746	9809
468.825	8864
468.904	9099
468.983	9753
469.062	10881
469.141	13210
469.220	8399
469.299	9020
469.378	8791
469.456	13101
469.535	11360
469.614	10839
469.693	9935
469.772	10145
469.851	10852
469.930	10163
470.009	11244
470.088	9829
470.166	11805
470.245	15323
470.324	18360
470.403	13612
470.482	11812
470.560	10718
470.639	13530
470.718	17542
470.797	11904
470.875	10697
470.954	11243
471.033	11751
471.111	8144
471.190	8340
471.269	7807
471.347	8262
471.426	8639
471.505	9095
471.583	9926
471.662	9880
471.740	9326
471.819	7967
471.898	8161
471.976	7987
472.055	8926
472.133	8699
472.212	9708
472.290	7780
472.369	7541
472.447	8480
472.526	7385
472.604	8963
472.683	10316
472.761	12023
472.839	11224
472.918	9591
472.996	8359
473.075	8392
473.153	8886
473.231	7532
473.310	10807
473.388	10815
473.466	9438
473.545	13771
473.623	21934
473.701	22001
473.780	10018
473.858	7372
473.936	9166
474.014	8530
474.093	10257
474.171	9992
474.249	8358
474.327	8790
474.405	8087
474.484	8370
474.562	9690
474.640	8419
474.718	7871
474.796	8312
474.874	8380
474.952	7657
475.030	7780
475.108	7821
475.187	8111
475.265	9184
475.343	11400
475.421	12455
475.499	7678
475.577	7854
475.655	7588
475.733	8280
475.811	8582
475.889	7814
475.966	7713
476.044	7333
476.122	8582
476.200	9420
476.278	8521
476.356	6628
476.434	7366
476.512	7878
476.590	10860
476.667	9580
476.745	7637
476.823	9143
476.901	6781
476.979	5930
477.056	6656
477.134	6322
477.212	7631
477.290	7176
477.367	6564
477.445	6706
477.523	5573
477.601	6328
477.678	5928
477.756	6529
477.834	6605
477.911	6407
477.989	5791
478.066	5196
478.144	5979
478.222	7109
478.299	11989
478.377	11660
478.454	6692
478.532	5495
478.609	9080
478.687	10135
478.764	6266
478.842	8485
478.919	9928
478.997	8664
479.074	5585
479.152	6029
479.229	5764
479.307	5572
479.384	5149
479.461	4862
479.539	4262
479.616	5767
479.694	6137
479.771	5173
479.848	5059
479.926	4752
480.003	6638
480.080	6573
480.157	4888
480.235	5368
480.312	6473
480.389	4317
480.467	5010
480.544	5423
480.621	5480
480.698	5844
480.775	7097
480.853	5025
480.930	5301
481.007	5365
481.084	5933
481.161	6120
481.238	5827
481.315	5064
481.392	4188
481.470	4711
481.547	4543
481.624	4523
481.701	4592
481.778	5342
481.855	5145
481.932	5836
482.009	5829
482.086	5683
482.163	6643
482.240	9794
482.317	15798
482.393	12490
482.470	6073
482.547	6257
482.624	5730
482.701	6088
482.778	6021
482.855	5329
482.932	5169
483.009	5313
483.085	6797
483.162	9028
483.239	8482
483.316	6281
483.393	8262
483.469	6805
483.546	5979
483.623	5624
483.699	5474
483.776	5398
483.853	7660
483.930	7281
484.006	8168
484.083	11809
484.160	19748
484.236	34871
484.313	28361
484.389	20445
484.466	18771
484.543	18487
484.619	19632
484.696	21500
484.772	18521
484.849	15967
484.925	15572
485.002	15138
485.078	16531
485.155	16533
485.231	14631
485.308	15006
485.384	14420
485.461	15251
485.537	16739
485.614	18093
485.690	14423
485.766	15185
485.843	19396
485.919	37215
485.995	42161
486.072	15763
486.148	13445
486.224	14272
486.301	14484
486.377	15687
486.453	14243
486.530	15595
486.606	19607
486.682	22735
486.758	20547
486.835	19781
486.911	19894
486.987	29375
487.063	69664
487.139	121150
487.215	77822
487.292	26915
487.368	18485
487.444	20314
487.520	27524
487.596	30486
487.672	49195
487.748	155261
487.824	250193
487.900	75813
487.976	24628
488.052	18824
488.128	22946
488.204	19083
488.280	15375
488.356	14830
488.432	15383
488.508	18058
488.584	18540
488.660	18848
488.736	18282
488.812	20650
488.888	27870
488.964	41141
489.039	113824
489.115	188516
489.191	101174
489.267	17389
489.343	13060
489.418	11923
489.494	11436
489.570	9516
489.646	12490
489.722	11517
489.797	11160
489.873	12287
489.949	12862
490.024	13010
490.100	11087
490.176	11025
490.251	20049
490.327	33929
490.403	14821
490.478	12006
490.554	9589
490.629	10539
490.705	9863
490.781	12300
490.856	11090
490.932	14687
491.007	17191
491.083	13535
491.158	9730
491.234	10618
491.309	11354
491.385	11147
491.460	10049
491.536	11627
491.611	13878
491.686	18158
491.762	27519
491.837	72271
491.913	116906
491.988	157302
492.063	224519
492.139	33299
492.214	12133
492.289	9934
492.365	10288
492.440	14291
492.515	9638
492.590	9106
492.666	7580
492.741	10441
492.816	9176
492.891	7943
492.967	9286
493.042	7257
493.117	8438
493.192	8303
493.267	11576
493.342	23225
493.418	27361
493.493	9757
493.568	7815
493.643	8755
493.718	10447
493.793	15951
493.868	28142
493.943	20451
494.018	11250
494.093	6186
494.168	7937
494.243	6752
494.318	6078
494.393	6383
494.468	6509
494.543	8149
494.618	11824
494.693	8185
494.768	6018
494.842	7371
494.917	7948
494.992	8895
495.067	8677
495.142	7499
495.217	9651
495.292	11810
495.366	13191
495.441	16218
495.516	22018
495.591	34102
495.665	148826
495.740	396850
495.815	145459
495.890	14178
495.964	7699
496.039	9010
496.114	7594
496.188	8893
496.263	8316
496.338	5996
496.412	6560
496.487	8815
496.561	15612
496.636	16919
496.710	8451
496.785	9655
496.860	8983
496.934	8063
497.009	9475
497.083	8367
497.158	6721
497.232	8291
497.307	11009
497.381	7748
497.455	7888
497.530	7698
497.604	8320
497.679	7687
497.753	11883
497.827	16280
497.902	16585
497.976	15106
498.050	17050
498.125	33921
498.199	47573
498.273	43931
498.348	40449
498.422	27841
498.496	26061
498.570	24436
498.645	10693
498.719	8638
498.793	9083
498.867	12272
498.941	10605
499.016	13799
499.090	29062
499.164	17213
499.238	7003
499.312	8133
499.386	16462
499.460	10502
499.534	5509
499.609	6825
499.683	6361
499.757	6306
499.831	6894
499.905	17035
499.979	17951
500.053	9762
500.127	21569
500.201	29067
500.275	12513
500.349	9067
500.422	9490
500.496	22079
500.570	61526
500.644	50040
500.718	26409
500.792	12632
500.866	6959
500.940	6843
501.013	7316
501.087	9535
501.161	29763
501.235	30251
501.309	10954
501.382	16433
501.456	26854
501.530	16812
501.603	6506
501.677	5776
501.751	5213
501.825	7578
501.898	6186
501.972	7912
502.046	6244
502.119	6606
502.193	13984
502.266	12770
502.340	5979
502.413	5516
502.487	6546
502.561	5468
502.634	8015
502.708	11646
502.781	9379
502.855	8043
502.928	4110
503.002	5134
503.075	4230
503.149	4640
503.222	4866
503.295	2636
503.369	4630
503.442	3982
503.516	6599
503.589	11355
503.662	9311
503.736	7786
503.809	11429
503.882	12166
503.956	18114
504.029	31918
504.102	93233
504.175	141867
504.249	42048
504.322	13058
504.395	9370
504.468	7100
504.542	4581
504.615	3867
504.688	5974
504.761	4268
504.834	8551
504.907	16886
504.980	33605
505.053	11054
505.127	18300
505.200	17949
505.273	4168
505.346	3203
505.419	2589
505.492	4795
505.565	3695
505.638	3563
505.711	2660
505.784	1891
505.857	1971
505.930	4515
506.003	1920
506.076	4258
506.149	2472
506.221	1807
506.294	4661
506.367	4973
506.440	13811
506.513	15858
506.586	5840
506.659	4185
506.731	5783
506.804	8896
506.877	16527
506.950	6239
507.022	5101
507.095	3345
507.168	6471
507.241	7000
507.313	4526
507.386	6766
507.459	17395
507.531	9813
507.604	5592
507.677	5599
507.749	3536
507.822	9671
507.894	22884
507.967	24517
508.040	9685
508.112	9183
508.185	7640
508.257	8722
508.330	20962
508.402	7956
508.475	5553
508.547	5250
508.620	5492
508.692	5130
508.765	6161
508.837	5413
508.909	5230
508.982	4659
509.054	8934
509.127	6965
509.199	5141
509.271	3866
509.344	4186
509.416	5117
509.488	3968
509.560	5531
509.633	8075
509.705	11059
509.777	8566
509.849	18335
509.922	10186
509.994	5014
510.066	5960
510.138	4932
510.210	14457
510.283	10847
510.355	9968
510.427	9027
510.499	9155
510.571	9416
510.643	8066
510.715	23333
510.787	19933
510.859	9324
510.931	9852
511.003	22104
511.076	18995
511.148	5631
511.219	5421
511.291	7277
511.363	7184
511.435	5896
511.507	4734
511.579	6460
511.651	7158
511.723	5104
511.795	5180
511.867	4627
511.939	5597
512.010	5860
512.082	7953
512.154	6978
512.226	7568
512.298	12738
512.369	22126
512.441	16078
512.513	18742
512.585	11577
512.656	12072
512.728	14031
512.800	9124
512.871	8876
512.943	7560
513.015	6713
513.086	10120
513.158	10030
513.230	10903
513.301	20976
513.373	30803
513.444	12559
513.516	8692
513.588	9128
513.659	12737
513.731	17959
513.802	13661
513.874	38229
513.945	80309
514.016	20430
514.088	9695
514.159	11031
514.231	17587
514.302	22217
514.374	11750
514.445	7236
514.516	11286
514.588	8095
514.659	7757
514.730	8624
514.802	14475
514.873	10964
514.944	11520
515.016	11510
515.087	15395
515.158	12087
515.229	11541
515.301	8783
515.372	12846
515.443	7360
515.514	7505
515.585	6121
515.656	8793
515.728	6824
515.799	7236
515.870	9054
515.941	9890
516.012	8677
516.083	12514
516.154	15697
516.225	27850
516.296	23156
516.367	16827
516.438	18759
516.509	25411
516.580	33985
516.651	88326
516.722	371967
516.793	199294
516.864	35060
516.935	27664
517.006	27397
517.077	40849
517.148	106965
517.219	277428
517.289	500725
517.360	80476
517.431	18731
517.502	9855
517.573	10505
517.643	9789
517.714	10873
517.785	12224
517.856	11696
517.926	17709
517.997	20881
518.068	25860
518.138	36586
518.209	46602
518.280	169838
518.350	729002
518.421	350356
518.492	37436
518.562	20913
518.633	20440
518.703	22497
518.774	48620
518.845	137326
518.915	154188
518.986	40643
519.056	25515
519.127	52283
519.197	66085
519.268	54498
519.338	16032
519.408	13767
519.479	36209
519.549	24049
519.620	13183
519.690	7953
519.760	7250
519.831	10250
519.901	9405
519.971	6736
520.042	5437
520.112	5619
520.182	15233
520.253	19157
520.323	7976
520.393	8826
520.463	18794
520.534	8217
520.604	19780
520.674	9223
520.744	7227
520.814	22911
520.885	25678
520.955	7254
521.025	9908
521.095	7003
521.165	6293
521.235	4056
521.305	5480
521.375	6569
521.445	10271
521.515	16678
521.585	21776
521.655	19640
521.725	14070
521.795	11678
521.865	3324
521.935	7493
522.005	5384
522.075	5057
522.145	6593
522.215	4909
522.285	8407
522.355	8177
522.424	10936
522.494	12171
522.564	17016
522.634	49215
522.704	182926
522.774	63044
522.843	11798
522.913	11096
522.983	18246
523.053	11568
523.122	11186
523.192	20129
523.262	97645
523.331	90682
523.401	12429
523.471	7009
523.540	8883
523.610	4407
523.680	5269
523.749	4533
523.819	5907
523.888	3814
523.958	5030
524.027	5534
524.097	5596
524.166	5507
524.236	9222
524.305	8560
524.375	4340
524.444	2580
524.514	5377
524.583	3438
524.653	3769
524.722	6515
524.791	2864
524.861	6990
524.930	3947
524.999	6938
525.069	13636
525.138	5294
525.207	5359
525.277	5906
525.346	6707
525.415	7067
525.484	7268
525.554	6587
525.623	7709
525.692	9247
525.761	10063
525.830	13204
525.900	17820
525.969	26348
526.038	45632
526.107	88150
526.176	290292
526.245	256514
526.314	79865
526.383	143559
526.452	206661
526.522	311844
526.591	359603
526.660	116313
526.729	55058
526.797	52870
526.867	100586
526.935	444092
527.004	758561
527.073	457620
527.142	43651
527.211	17153
527.280	17891
527.349	18379
527.418	7358
527.487	7307
527.555	5251
527.624	5736
527.693	3631
527.762	6532
527.831	4254
527.899	6433
527.968	5382
528.037	4513
528.106	10163
528.174	25366
528.243	13289
528.312	18623
528.380	33272
528.449	6676
528.518	4912
528.586	2988
528.655	4318
528.723	2912
528.792	4034
528.861	2862
528.929	2790
528.998	4174
529.066	3823
529.135	2476
529.203	2975
529.272	2771
529.340	3805
529.409	4422
529.477	2199
529.545	3057
529.614	5353
529.682	2236
529.751	4311
529.819	6184
529.887	4299
529.956	2289
530.024	4242
530.092	3440
530.161	7605
530.229	17824
530.297	6605
530.365	5336
530.434	3797
530.502	2296
530.570	4502
530.638	1984
530.707	5778
530.775	6266
530.843	2462
530.911	3719
530.979	4381
531.047	3104
531.115	3862
531.183	3017
531.252	4009
531.320	2969
531.388	2716
531.456	3938
531.524	2009
531.592	4969
531.660	5841
531.728	3424
531.796	3136
531.864	3985
531.932	4006
532.000	4381
532.067	5433
532.135	7589
532.203	8821
532.271	9110
532.339	21311
532.407	75811
532.475	39940
532.542	16310
532.610	17400
532.678	21944
532.746	109796
532.814	314817
532.881	76456
532.949	11057
533.017	7973
533.084	5239
533.152	4664
533.220	4941
533.287	9234
533.355	4914
533.423	4333
533.490	3379
533.558	4317
533.625	4719
533.693	4527
533.761	5355
533.828	7407
533.896	5838
533.963	20073
534.031	25489
534.098	40744
534.166	14424
534.233	5671
534.300	6863
534.368	7331
534.435	6067
534.503	7423
534.570	9053
534.637	9552
534.705	11704
534.772	14062
534.840	23532
534.907	119029
534.974	180435
535.041	22424
535.109	8142
535.176	6107
535.243	6224
535.310	8079
535.378	5953
535.445	5701
535.512	5626
535.579	6773
535.646	5467
535.714	6337
535.781	8335
535.848	6324
535.915	6752
535.982	6781
536.049	5496
536.116	8198
536.183	6571
536.250	8076
536.317	7452
536.384	11474
536.451	19557
536.518	21361
536.585	10789
536.652	16333
536.719	29132
536.786	22736
536.853	15316
536.920	23194
536.987	41061
537.053	39083
537.120	158600
537.187	137222
537.254	13940
537.321	9346
537.388	9217
537.454	6653
537.521	6510
537.588	5931
537.654	8436
537.721	9425
537.788	9154
537.855	7418
537.921	7959
537.988	7726
538.055	9729
538.121	7839
538.188	10071
538.254	18320
538.321	46149
538.388	26101
538.454	9995
538.521	9190
538.587	7800
538.654	7662
538.720	7133
538.787	8151
538.853	8595
538.920	10528
538.986	9594
539.053	7839
539.119	9661
539.185	10638
539.252	14531
539.318	24929
539.385	16186
539.451	11637
539.517	14347
539.583	16117
539.650	40557
539.716	125318
539.782	31502
539.849	10969
539.915	10389
539.981	11722
540.047	16101
540.114	14212
540.180	13007
540.246	12628
540.312	19783
540.378	43702
540.444	45711
540.510	44213
540.576	142955
540.643	38879
540.709	9452
540.775	10045
540.841	8974
540.907	10681
540.973	13924
541.039	19658
541.105	24578
541.171	12202
541.237	9743
541.303	11259
541.369	14209
541.435	18397
541.500	39568
541.566	23942
541.632	9859
541.698	8816
541.764	8185
541.830	7846
541.896	6779
541.961	9703
542.027	8387
542.093	9847
542.159	10777
542.224	11167
542.290	17677
542.356	37612
542.421	46795
542.487	17067
542.553	10125
542.618	10419
542.684	11033
542.750	12280
542.815	15191
542.881	25103
542.947	117345
543.012	85674
543.078	12702
543.143	10103
543.209	11265
543.274	12182
543.340	14557
543.405	42043
543.471	73787
543.536	14359
543.602	8960
543.667	7279
543.732	9594
543.798	6584
543.863	9000
543.928	7799
543.994	7297
544.059	8621
544.124	8744
544.190	8538
544.255	11084
544.320	12013
544.386	11295
544.451	18658
544.516	22633
544.581	21189
544.646	71191
544.712	114715
544.777	18336
544.842	10057
544.907	9371
544.972	9529
545.037	9875
545.102	10201
545.168	10275
545.233	11655
545.298	12495
545.363	12962
545.428	18075
545.493	38556
545.558	101117
545.623	34132
545.688	11865
545.753	11536
545.818	10345
545.883	11549
545.947	10128
546.012	11679
546.077	11093
546.142	13267
546.207	14021
546.272	20649
546.337	23644
546.401	16250
546.466	14502
546.531	13703
546.596	16546
546.661	17647
546.725	16714
546.790	15640
546.855	17486
546.919	16644
546.984	19959
547.049	21690
547.113	23817
547.178	26064
547.243	29933
547.307	33821
547.372	40312
547.436	38645
547.501	39966
547.565	44324
547.630	46300
547.695	43143
547.759	38413
547.823	37422
547.888	39105
547.952	39590
548.017	40074
548.081	44024
548.146	42765
548.210	43457
548.274	45973
548.339	45395
548.403	41037
548.468	39161
548.532	37955
548.596	39334
548.660	38243
548.725	43275
548.789	48990
548.853	46287
548.917	43133
548.982	41163
549.046	38457
549.110	33254
549.174	34385
549.238	38369
549.303	43776
549.367	47236
549.431	44620
549.495	41284
549.559	40569
549.623	46924
549.687	54791
549.751	64355
549.815	62436
549.879	61685
549.943	58636
550.007	61136
550.071	60668
550.135	64889
550.199	54276
550.263	51273
550.327	47966
550.391	48804
550.455	54854
550.519	57388
550.582	63214
550.646	83761
550.710	81676
550.774	69816
550.838	69165
550.901	69667
550.965	75121
551.029	77259
551.093	83599
551.156	90305
551.220	104978
551.284	130369
551.347	99609
551.411	75875
551.475	71419
551.538	74218
551.602	69490
551.666	64716
551.729	60789
551.793	58535
551.856	57969
551.920	55525
551.983	56346
552.047	54924
552.110	55524
552.174	56633
552.237	58020
552.301	53798
552.364	51513
552.428	48771
552.491	51412
552.554	53893
552.618	52951
552.681	54495
552.745	53168
552.808	61218
552.871	73268
552.934	60440
552.998	52943
553.061	50836
553.124	49243
553.187	50108
553.251	51313
553.314	55285
553.377	50465
553.440	54776
553.503	60249
553.567	64132
553.630	52438
553.693	53801
553.756	53598
553.819	51298
553.882	49850
553.945	49977
554.008	50034
554.071	49980
554.134	50425
554.197	47482
554.260	45917
554.323	50119
554.386	48451
554.449	50121
554.512	50733
554.575	47172
554.638	47779
554.701	46713
554.764	46257
554.827	44186
554.889	41656
554.952	40352
555.015	38474
555.078	40085
555.141	40442
555.203	40255
555.266	39705
555.329	40182
555.391	39180
555.454	39635
555.517	37958
555.580	35247
555.642	33843
555.705	32203
555.768	34339
555.830	32665
555.893	30540
555.955	30440
556.018	30940
556.080	31253
556.143	31341
556.206	30928
556.268	31755
556.330	31766
556.393	29314
556.455	28124
556.518	29434
556.580	31182
556.643	26488
556.705	26547
556.767	25465
556.830	27517
556.892	28690
556.955	41906
557.017	32668
557.079	25760
557.142	25602
557.204	28439
557.266	52313
557.328	41090
557.391	21581
557.453	21214
557.515	20639
557.577	26127
557.639	26904
557.701	21314
557.764	21322
557.826	22006
557.888	24146
557.950	24651
558.012	27712
558.074	34996
558.136	76791
558.198	214576
558.260	84469
558.322	29390
558.384	31833
558.446	35231
558.508	41340
558.570	51322
558.632	81287
558.694	115247
558.756	110554
558.818	314760
558.880	889411
558.942	317929
559.003	226602
559.065	121636
559.127	45309
559.189	44523
559.251	48372
559.312	64208
559.374	150950
559.436	579329
559.498	324634
559.559	54041
559.621	43311
559.683	47538
559.744	72549
559.806	251545
559.868	441414
559.929	87354
559.991	44212
560.052	62764
560.114	197900
560.176	136822
560.237	105316
560.299	200128
560.360	46556
560.422	15812
560.483	13524
560.545	11582
560.606	10646
560.667	9984
560.729	10041
560.790	9776
560.852	10420
560.913	9366
560.974	10680
561.036	10149
561.097	9938
561.158	11081
561.220	11698
561.281	12450
561.342	12121
561.403	14517
561.465	19576
561.526	55397
561.587	76226
561.648	17195
561.709	9460
561.771	10451
561.832	9458
561.893	10531
561.954	8390
562.015	9129
562.076	9809
562.137	8645
562.198	8966
562.259	9154
562.320	10058
562.381	11466
562.442	19486
562.503	14220
562.564	9353
562.625	9091
562.686	8574
562.747	8976
562.808	9560
562.869	7825
562.930	8295
562.991	8538
563.051	8079
563.112	7334
563.173	7821
563.234	7544
563.294	8659
563.355	7716
563.416	9072
563.477	8224
563.537	7419
563.598	7968
563.659	7413
563.720	8083
563.780	8838
563.841	9707
563.901	8245
563.962	7344
564.023	7358
564.083	8070
564.144	7797
564.204	8026
564.265	7677
564.325	7835
564.386	8798
564.446	8260
564.507	6981
564.567	7884
564.628	6945
564.688	7532
564.749	6934
564.809	7600
564.869	8435
564.930	8097
564.990	8315
565.050	8263
565.111	8590
565.171	7185
565.231	6990
565.292	8743
565.352	7885
565.412	7516
565.472	9001
565.532	10595
565.593	9347
565.653	8145
565.713	9046
565.773	10204
565.833	14204
565.893	18889
565.953	9079
566.013	8140
566.074	8028
566.134	8192
566.194	8841
566.254	13176
566.314	9515
566.374	7659
566.434	8023
566.494	7915
566.554	7365
566.614	8284
566.673	8348
566.733	9497
566.793	8934
566.853	9099
566.913	8203
566.973	8169
567.033	9319
567.092	10002
567.152	9191
567.212	9998
567.272	8071
567.331	8809
567.391	10183
567.451	10202
567.511	10057
567.570	10913
567.630	9155
567.690	9115
567.749	9455
567.809	10167
567.868	11036
567.928	11508
567.988	12721
568.047	14353
568.107	16610
568.166	22044
568.226	35204
568.285	51168
568.345	36816
568.404	27202
568.464	23608
568.523	21666
568.582	22439
568.642	26871
568.701	31419
568.761	47266
568.820	83392
568.879	74799
568.939	44787
568.998	31221
569.057	24130
569.116	19573
569.176	15663
569.235	12912
569.294	11930
569.353	11682
569.413	9244
569.472	8856
569.531	7965
569.590	8333
569.649	8916
569.708	8107
569.767	9324
569.827	9837
569.886	8619
569.945	7768
570.004	8771
570.063	8836
570.122	9749
570.181	9853
570.240	7235
570.299	8346
570.358	9675
570.417	7307
570.475	7882
570.534	9315
570.593	10277
570.652	10070
570.711	8360
570.770	8403
570.829	8021
570.887	10802
570.946	12140
571.005	8837
571.064	7335
571.122	8964
571.181	9018
571.240	7599
571.299	6566
571.357	6602
571.416	6467
571.475	7701
571.533	6759
571.592	7530
571.650	6682
571.709	7195
571.768	8612
571.826	7595
571.885	7094
571.943	6889
572.002	6547
572.060	5957
572.119	6323
572.177	6617
572.236	6339
572.294	6983
572.352	6831
572.411	6359
572.469	6373
572.528	5879
572.586	7214
572.644	7563
572.703	8348
572.761	6920
572.819	5953
572.877	5126
572.936	5287
572.994	6051
573.052	5608
573.110	7932
573.169	6851
573.227	5844
573.285	5776
573.343	6304
573.401	5912
573.459	5497
573.517	5432
573.576	6301
573.634	6304
573.692	6917
573.750	5664
573.808	5871
573.866	5389
573.924	6109
573.982	5535
574.040	5225
574.098	5836
574.155	4551
574.213	5237
574.271	5451
574.329	6558
574.387	5572
574.445	4370
574.503	5017
574.560	4392
574.618	5470
574.676	4880
574.734	5288
574.792	5574
574.849	4744
574.907	4331
574.965	4190
575.022	4375
575.080	4556
575.138	6076
575.195	4906
575.253	5264
575.311	6625
575.368	5631
575.426	3747
575.483	4890
575.541	4886
575.598	4225
575.656	4716
575.713	4389
575.771	4572
575.828	4714
575.886	4795
575.943	4877
576.001	4879
576.058	4110
576.115	4845
576.173	5079
576.230	5577
576.287	10349
576.345	6618
576.402	4558
576.459	4620
576.517	3778
576.574	4102
576.631	3429
576.688	3658
576.746	5253
576.803	4000
576.860	3940
576.917	4021
576.974	4501
577.031	4798
577.089	4084
577.146	4327
577.203	3777
577.260	4584
577.317	3711
577.374	3963
577.431	3806
577.488	4500
577.545	4606
577.602	4106
577.659	3821
577.716	4042
577.773	4390
577.830	3733
577.886	3945
577.943	3837
578.000	4593
578.057	4222
578.114	4048
578.171	4571
578.227	5353
578.284	3587
578.341	4335
578.398	3117
578.454	4229
578.511	4389
578.568	4202
578.625	3543
578.681	4502
578.738	4260
578.794	4591
578.851	5553
578.908	4829
578.964	6217
579.021	5558
579.077	5321
579.134	5571
579.190	5476
579.247	4024
579.303	4570
579.360	4599
579.416	4193
579.473	4339
579.529	4078
579.586	4244
579.642	5219
579.698	4196
579.755	4921
579.811	4285
579.867	4719
579.924	3197
579.980	3755
580.036	4814
580.093	4264
580.149	5247
580.205	4263
580.261	4313
580.317	4945
580.374	5032
580.430	5397
580.486	4681
580.542	4502
580.598	5233
580.619	5214
580.654	5184
580.692	4659
580.710	4410
580.765	5073
580.767	5097
580.823	5156
580.838	5162
580.879	5180
580.911	4911
580.935	4728
580.984	4993
580.991	5033
581.047	4538
581.057	4600
581.103	4916
581.130	4950
581.159	4965
581.203	4723
581.215	4680
581.270	5144
581.276	5050
581.326	4151
581.349	4351
581.382	4606
581.422	4706
581.438	4761
581.494	4761
581.494	4761
581.550	5275
581.567	5329
581.606	5326
581.640	5358
581.661	5385
581.713	5452
581.717	5471
581.773	4915
581.786	4765
581.829	4254
581.859	4798
581.885	5269
581.932	4779
581.940	4686
581.996	5847
582.004	5747
582.052	5152
582.077	5213
582.107	5345
582.150	4838
582.163	4678
582.219	4174
582.223	4234
582.274	4954
582.296	4956
582.330	4961
582.368	4576
582.386	4456
582.441	4701
582.441	4701
582.497	4691
582.514	4842
582.552	5350
582.587	5553
582.608	5599
582.659	4567
582.663	4484
582.719	5303
582.732	5159
582.774	4896
582.805	4675
582.830	4429
582.877	4878
582.885	4952
582.941	4565
582.950	4546
582.996	4376
583.023	4702
583.052	5196
583.095	5302
583.107	5327
583.162	4490
583.168	4569
583.218	4890
583.240	4752
583.273	4752
583.313	5087
583.328	5263
583.384	5177
583.385	5192
583.439	5156
583.458	4883
583.494	4478
583.531	4843
583.549	5113
583.603	4923
583.605	4914
583.660	5755
583.676	5696
583.715	5455
583.748	5175
583.770	5025
583.820	5206
583.825	5207
583.881	4652
583.893	4680
583.936	4975
583.965	5077
583.991	5133
584.038	5613
584.046	5677
584.101	5178
584.110	5206
584.156	5442
584.183	5327
584.211	5191
584.255	5525
584.266	5626
584.321	5355
584.328	5383
584.376	5497
584.400	5602
584.431	5967
584.472	5945
584.486	5820
584.541	6875
584.545	6818
584.596	6049
584.617	6198
584.651	6456
584.689	6599
584.706	6643
584.761	6215
584.762	6223
584.816	6974
584.834	7004
584.871	7421
584.906	7160
584.926	6920
584.978	7809
584.980	7852
585.035	9033
585.051	9183
585.090	9513
585.123	10048
585.145	10429
585.195	11501
585.200	11640
585.254	13972
585.267	14597
585.309	16569
585.340	17754
585.364	18660
585.412	21500
585.419	21958
585.473	25140
585.484	26026
585.528	31709
585.556	38669
585.583	52897
585.628	88197
585.637	100676
585.692	216642
585.700	239846
585.747	324998
585.772	266409
585.801	159234
585.845	50894
585.856	36996
585.910	21338
585.917	19776
585.965	15455
585.989	14113
586.019	12888
586.061	11908
586.074	11721
586.128	11186
586.133	11210
586.183	11686
586.205	11836
586.237	11645
586.277	10758
586.292	10590
586.346	10453
586.349	10477
586.401	10811
586.421	10683
586.455	10701
586.493	11345
586.509	11646
586.564	10553
586.565	10579
586.618	12392
586.637	12650
586.672	13050
586.709	14287
586.727	14975
586.781	16436
586.781	16436
586.835	13416
586.853	12656
586.889	12185
586.925	11971
586.944	11887
586.996	12205
586.998	12230
587.052	13345
587.068	13491
587.106	13586
587.140	13588
587.161	13781
587.212	14070
587.215	14063
587.269	14406
587.284	14357
587.323	14675
587.356	15145
587.377	15376
587.427	16363
587.431	16432
587.485	16642
587.499	16645
587.539	17172
587.571	18028
587.593	18484
587.643	19097
587.648	19206
587.702	20478
587.715	20774
587.755	21849
587.786	22600
587.810	23018
587.858	24031
587.864	24262
587.917	26524
587.930	27064
587.971	29169
588.001	30839
588.025	32239
588.073	35071
588.079	35578
588.133	40420
588.145	41481
588.187	46108
588.217	49586
588.241	52778
588.288	59294
588.295	60512
588.348	72196
588.360	74620
588.402	84944
588.431	92993
588.456	101099
588.503	117509
588.510	120080
588.564	142006
588.575	147280
588.617	175980
588.646	196513
588.671	222084
588.718	277928
588.725	294528
588.778	435769
588.789	469645
588.832	735424
588.861	935438
588.886	1163636
588.932	1599313
588.939	1613219
588.993	1576901
589.004	1566341
589.047	1272290
589.075	1014361
589.100	801717
589.147	444641
589.154	424253
589.207	307227
589.218	286239
589.261	264503
589.290	254722
589.314	267453
589.361	300610
589.368	317783
589.421	473387
589.433	511004
589.475	826617
589.504	1068115
589.528	1230236
589.576	1490772
589.582	1456776
589.635	1052282
589.647	949693
589.689	567718
589.718	325190
589.742	259869
589.790	154439
589.795	149220
589.849	107725
589.861	98828
589.902	83281
589.932	72476
589.955	67051
590.004	56531
590.009	55934
590.062	49930
590.075	48452
590.115	44313
590.146	41193
590.168	39799
590.218	36521
590.222	36323
590.275	33651
590.289	32890
590.328	32012
590.360	31350
590.381	30779
590.431	29048
590.435	28978
590.488	27548
590.503	27112
590.541	26605
590.574	26253
590.594	25947
590.645	25031
590.647	25024
590.700	23832
590.716	23515
590.753	23208
590.787	23016
590.806	22815
590.859	22040
590.859	22064
590.912	22231
590.930	22242
590.965	21834
591.001	21496
591.018	21407
591.071	20983
591.072	20958
591.124	20511
591.143	20320
591.177	20342
591.214	20250
591.230	20352
591.283	20902
591.285	20894
591.336	21480
591.356	21780
591.389	21813
591.427	21550
591.442	21135
591.495	19418
591.498	19289
591.547	19327
591.569	19294
591.600	19127
591.640	18779
591.653	18706
591.706	18369
591.711	18326
591.759	18521
591.782	18503
591.811	18668
591.853	18980
591.864	19035
591.917	19112
591.924	19110
591.969	19089
591.995	19016
592.022	18829
592.066	18523
592.075	18547
592.127	18513
592.137	18498
592.180	18809
592.208	18990
592.233	19038
592.279	19038
592.285	19093
592.338	19448
592.350	19493
592.390	19255
592.421	19079
592.443	19424
592.491	20101
592.495	20073
592.548	19393
592.562	19195
592.600	19121
592.633	19029
592.653	18718
592.704	17790
592.705	17936
592.775	20281
592.846	20169
592.916	20391
592.987	22716
593.058	21277
593.128	18967
593.199	19363
593.270	18984
593.341	20786
593.411	20310
593.482	20708
593.553	21412
593.623	21284
593.694	21335
593.764	21426
593.835	20937
593.906	21448
593.976	21453
594.047	22023
594.117	22988
594.188	23352
594.258	22978
594.329	23308
594.399	22620
594.470	24425
594.540	24686
594.611	25381
594.681	25065
594.751	25580
594.822	27786
594.892	28082
594.963	27502
595.033	27443
595.103	28547
595.174	29071
595.244	31222
595.314	30503
595.384	29376
595.455	30328
595.525	30778
595.595	32063
595.665	32459
595.736	31314
595.806	32780
595.876	32317
595.946	32591
596.016	34054
596.087	35273
596.157	34842
596.227	35057
596.297	37331
596.367	39530
596.437	41592
596.507	41795
596.577	41626
596.647	43226
596.717	44664
596.787	44928
596.857	44797
596.927	44414
596.997	45405
597.067	45168
597.137	46930
597.207	47196
597.277	47277
597.347	45624
597.417	44229
597.487	45172
597.557	46061
597.626	47645
597.696	47272
597.766	46168
597.836	43727
597.906	41123
597.975	40112
598.045	42003
598.115	44131
598.185	46181
598.254	53736
598.324	58133
598.394	58906
598.464	57013
598.533	55656
598.603	50160
598.672	50837
598.742	51068
598.812	49768
598.881	53101
598.951	50064
599.020	52216
599.090	55002
599.159	56125
599.229	53105
599.299	51558
599.368	51685
599.437	51204
599.507	46891
599.576	45605
599.646	45557
599.715	44206
599.785	44690
599.854	42285
599.924	42182
599.993	41018
600.062	42244
600.132	43587
600.201	47793
600.270	56199
600.340	58481
600.409	56033
600.478	55737
600.547	56881
600.617	50876
600.686	39848
600.755	37358
600.824	35625
600.894	35021
600.963	33398
601.032	33106
601.101	32853
601.170	29422
601.239	28916
601.308	30468
601.378	28681
601.447	29195
601.516	27973
601.585	30780
601.654	30436
601.723	30094
601.792	30112
601.861	31663
601.930	35749
601.999	35095
602.068	33659
602.137	35066
602.206	35868
602.275	36346
602.343	38204
602.412	38308
602.481	35433
602.550	34998
602.619	37245
602.688	38189
602.756	36383
602.825	37310
602.894	37542
602.963	38076
603.032	40034
603.100	39512
603.169	39446
603.238	39724
603.307	41139
603.375	40688
603.444	41420
603.513	42992
603.581	42379
603.650	43232
603.719	43144
603.787	45750
603.856	46763
603.924	47981
603.993	49396
604.061	51813
604.130	53386
604.198	54987
604.267	56628
604.335	57022
604.404	56786
604.472	58358
604.541	58021
604.609	60339
604.678	59693
604.746	60265
604.815	61758
604.883	62529
604.951	62529
605.020	65500
605.088	65626
605.156	67015
605.225	68579
605.293	68048
605.361	68260
605.429	69886
605.498	72471
605.566	74691
605.634	78374
605.702	80030
605.771	82198
605.839	82279
605.907	80150
605.975	77695
606.043	75946
606.111	76288
606.180	75476
606.248	75497
606.316	74162
606.384	73277
606.452	78057
606.520	83913
606.588	81734
606.656	81747
606.724	79056
606.792	74525
606.860	65738
606.928	60094
606.996	58234
607.064	55996
607.132	58571
607.200	61794
607.267	65162
607.335	65104
607.403	66871
607.471	63856
607.539	64014
607.607	63213
607.674	55236
607.742	55560
607.810	55545
607.878	56136
607.946	57583
608.013	59308
608.081	60734
608.149	60951
608.216	63408
608.284	66234
608.352	65222
608.419	63603
608.487	63682
608.555	61727
608.622	64652
608.690	69039
608.757	76903
608.825	78496
608.893	76202
608.960	71075
609.028	68811
609.095	68781
609.163	67439
609.230	60837
609.298	54711
609.365	57661
609.432	63114
609.500	70440
609.567	79037
609.635	92605
609.702	97459
609.769	92713
609.837	68734
609.904	59932
609.971	63277
610.039	72944
610.106	101716
610.173	205964
610.241	479269
610.308	223577
610.375	78230
610.442	64971
610.509	61546
610.577	62218
610.644	63355
610.711	65315
610.778	68761
610.845	70747
610.912	74972
610.980	77776
611.047	77899
611.114	77704
611.181	73702
611.248	72753
611.315	77908
611.382	79414
611.449	82677
611.516	84229
611.583	83747
611.650	84124
611.717	86498
611.784	88636
611.851	92841
611.918	102747
611.984	124032
612.051	189601
612.118	416987
612.185	1054462
612.252	547220
612.319	136727
612.386	112578
612.452	102436
612.519	96139
612.586	95495
612.653	95937
612.719	100909
612.786	95037
612.853	88055
612.919	85865
612.986	88454
613.053	82022
613.120	75696
613.186	73240
613.253	74738
613.319	74284
613.386	74602
613.453	75273
613.519	78615
613.586	79623
613.652	89595
613.719	84076
613.785	80861
613.852	78099
613.918	76377
613.985	78983
614.051	83840
614.118	89290
614.184	84001
614.250	75575
614.317	77781
614.383	76827
614.449	79612
614.516	77194
614.582	79020
614.648	76109
614.715	76397
614.781	73823
614.847	74785
614.914	74226
614.980	71804
615.046	72174
615.112	76159
615.179	75738
615.245	76203
615.311	78181
615.377	87272
615.443	87347
615.509	80532
615.575	81328
615.642	80965
615.708	84214
615.774	89240
615.840	95049
615.906	108612
615.972	145508
616.038	246938
616.104	537350
616.170	1303058
616.236	943402
616.302	198727
616.368	145220
616.434	103670
616.500	98626
616.565	110896
616.631	137775
616.697	107504
616.763	116101
616.829	186293
616.895	334645
616.961	287936
617.026	114057
617.092	82717
617.158	78657
617.224	76915
617.289	70251
617.355	65501
617.421	65673
617.487	66080
617.552	61399
617.618	59981
617.684	60027
617.749	63844
617.815	58279
617.880	56953
617.946	57458
618.012	59351
618.077	59628
618.143	57529
618.208	57496
618.274	63541
618.339	62284
618.405	50292
618.470	51151
618.536	50297
618.601	49418
618.667	45805
618.732	43403
618.798	42055
618.863	43131
618.928	41524
618.994	44067
619.059	45933
619.124	50736
619.190	44736
619.255	41025
619.320	40743
619.386	42331
619.451	41941
619.516	40210
619.581	41250
619.647	41836
619.712	42064
619.777	39406
619.842	40069
619.907	41859
619.972	42430
620.038	40259
620.103	39035
620.168	39313
620.233	40318
620.298	40271
620.363	40794
620.428	42719
620.493	43595
620.558	44257
620.623	45480
620.688	43777
620.753	44564
620.818	44098
620.883	44971
620.948	45774
621.013	44874
621.078	44658
621.143	43989
621.207	47015
621.272	44530
621.337	43748
621.402	43381
621.467	41589
621.532	42415
621.596	43076
621.661	41548
621.726	40953
621.791	40592
621.855	41538
621.920	41643
621.985	40466
622.049	42632
622.114	42271
622.179	43108
622.243	43809
622.308	46217
622.373	48187
622.437	46853
622.502	43264
622.566	42580
622.631	41094
622.695	44783
622.760	44438
622.824	44389
622.889	44674
622.953	46418
623.018	57814
623.082	53624
623.147	47043
623.211	46733
623.276	45773
623.340	42133
623.404	41467
623.469	41255
623.533	42001
623.597	40945
623.662	41940
623.726	38655
623.790	35790
623.854	34471
623.919	35712
623.983	36156
624.047	35764
624.111	37558
624.176	38471
624.240	39094
624.304	41756
624.368	37549
624.432	38586
624.496	40227
624.560	43742
624.625	44780
624.689	41806
624.753	44165
624.817	40689
624.881	39877
624.945	36555
625.009	34885
625.073	36422
625.137	38279
625.201	44422
625.265	43388
625.329	38352
625.393	39427
625.456	38306
625.520	39131
625.584	40890
625.648	41321
625.712	42333
625.776	43783
625.839	40155
625.903	32342
625.967	30480
626.031	34319
626.095	40352
626.158	36402
626.222	26414
626.286	27128
626.349	24749
626.413	22647
626.477	25482
626.540	24083
626.604	22954
626.668	23803
626.731	21832
626.795	23106
626.858	22349
626.922	22608
626.986	22652
627.049	20950
627.113	23769
627.176	22690
627.240	22163
627.303	22798
627.366	22290
627.430	23117
627.493	21669
627.557	20605
627.620	22582
627.684	23465
627.747	24016
627.810	20140
627.874	19179
627.937	16605
628.000	20432
628.064	18978
628.127	14310
628.190	17887
628.253	15403
628.317	15479
628.380	14945
628.443	14772
628.506	14280
628.569	13567
628.632	12738
628.696	13310
628.759	12917
628.822	12885
628.885	12592
628.948	11864
629.011	11632
629.074	12477
629.137	10392
629.200	9947
629.263	12511
629.326	9628
629.389	11045
629.452	10844
629.515	9992
629.578	10676
629.641	11774
629.704	10740
629.767	10765
629.830	10876
629.892	11508
629.955	10113
630.018	13265
630.081	12419
630.144	15109
630.207	11198
630.269	12335
630.332	9420
630.395	10274
630.458	9986
630.520	8467
630.583	10698
630.646	10575
630.708	9635
630.771	9045
630.834	11522
630.896	10375
630.959	10916
631.021	9417
631.084	9843
631.146	10812
631.209	10885
631.272	9487
631.334	10215
631.397	10680
631.459	10784
631.522	14013
631.584	12122
631.646	14415
631.709	15198
631.771	16779
631.834	14070
631.896	12400
631.958	10587
632.021	11620
632.083	10267
632.145	11158
632.208	10356
632.270	11553
632.332	8894
632.395	9942
632.457	10849
632.519	9441
632.581	11063
632.643	9279
632.706	9814
632.768	8932
632.830	10406
632.892	9833
632.954	9705
633.016	10680
633.078	10498
633.141	9138
633.203	9528
633.265	10019
633.327	10915
633.389	8633
633.451	11818
633.513	11500
633.575	11637
633.637	12193
633.698	11799
633.760	11485
633.822	11281
633.884	11374
633.946	11426
634.008	12107
634.070	14014
634.132	13130
634.193	15684
634.255	18030
634.317	17576
634.379	18389
634.441	14538
634.502	12626
634.564	12459
634.626	12246
634.687	13328
634.749	10412
634.811	10790
634.873	8686
634.934	9925
634.996	10568
635.057	8730
635.119	8645
635.181	9799
635.242	10966
635.304	8640
635.365	12557
635.427	9255
635.488	10441
635.550	9520
635.611	10581
635.673	8603
635.734	11406
635.796	11703
635.857	14937
635.918	14057
635.980	17971
636.041	17067
636.102	19540
636.164	19135
636.225	19789
636.286	13644
636.348	12755
636.409	12315
636.470	10299
636.531	9968
636.593	9677
636.654	10076
636.715	8801
636.776	8854
636.838	7352
636.899	8700
636.960	8411
637.021	8295
637.082	8125
637.143	8711
637.204	6847
637.265	7506
637.326	7837
637.387	8723
637.448	7044
637.509	7749
637.570	8011
637.631	7675
637.692	5893
637.753	7285
637.814	7434
637.875	7064
637.936	7419
637.997	6772
638.058	6436
638.119	8376
638.179	7105
638.240	6094
638.301	6630
638.362	6016
638.423	5948
638.483	7177
638.544	4765
638.605	7010
638.666	5369
638.726	6293
638.787	6971
638.848	6007
638.908	5931
638.969	6310
639.030	4959
639.090	5383
639.151	6328
639.211	7490
639.272	9395
639.332	13055
639.393	8449
639.453	5820
639.514	7572
639.574	6559
639.635	6807
639.695	6640
639.756	5095
639.816	6774
639.877	7680
639.937	14385
639.997	16473
640.058	5695
640.118	4734
640.178	6699
640.239	5481
640.299	5108
640.359	5223
640.420	6829
640.480	8477
640.540	10182
640.600	8145
640.661	7992
640.721	6760
640.781	9896
640.841	5788
640.901	6999
640.961	6660
641.021	7777
641.082	8391
641.142	10134
641.202	7733
641.262	4169
641.322	5516
641.382	4172
641.442	5400
641.502	4791
641.562	6081
641.622	5055
641.682	5875
641.742	7281
641.802	7012
641.861	7160
641.921	5953
641.981	7524
642.041	6481
642.101	7352
642.161	3921
642.221	4212
642.280	4999
642.340	4408
642.400	4265
642.460	5843
642.519	4567
642.579	5245
642.639	4593
642.698	2696
642.758	7936
642.818	5466
642.877	4606
642.937	5894
642.997	7077
643.056	9443
643.116	4174
643.175	6958
643.235	4985
643.294	5975
643.354	7402
643.414	7826
643.473	10806
643.532	14210
643.592	20310
643.651	38768
643.711	73658
643.770	156905
643.830	401984
643.889	798203
643.948	146427
644.008	24630
644.067	14504
644.126	10068
644.186	8875
644.245	7847
644.304	4762
644.363	7264
644.423	4895
644.482	6556
644.541	7103
644.600	5168
644.659	9631
644.719	12568
644.778	19292
644.837	38069
644.896	85037
644.955	188475
645.014	48793
645.073	10544
645.132	7721
645.191	6918
645.250	5057
645.309	8533
645.368	7546
645.427	10420
645.486	19546
645.545	33726
645.604	8269
645.663	6908
645.722	6749
645.781	7491
645.840	9158
645.898	12104
645.957	20150
646.016	34026
646.075	69633
646.134	141325
646.192	412692
646.251	537434
646.310	61853
646.369	15984
646.427	13645
646.486	9232
646.545	6860
646.603	7229
646.662	5669
646.721	5432
646.779	5074
646.838	5103
646.896	8974
646.955	12141
647.014	21738
647.072	42293
647.131	119981
647.189	47446
647.248	6896
647.306	6101
647.365	4262
647.423	2826
647.481	4785
647.540	3144
647.598	4043
647.657	4031
647.715	4512
647.773	2960
647.832	4645
647.890	2063
647.948	2042
648.007	2983
648.065	2228
648.123	2187
648.181	4575
648.240	3250
648.298	2978
648.356	3056
648.414	3119
648.472	3433
648.531	3318
648.589	3233
648.647	3017
648.705	2453
648.763	3229
648.821	3467
648.879	3000
648.937	4661
648.995	6987
649.053	8406
649.111	15633
649.169	28176
649.227	53293
649.285	118691
649.343	345134
649.401	131442
649.459	25323
649.516	13593
649.574	6316
649.632	11050
649.690	10754
649.748	9870
649.806	12867
649.863	29013
649.921	84045
649.979	45016
650.037	5713
650.094	1501
650.152	3332
650.210	2317
650.268	2329
650.325	3115
650.383	2965
650.440	1510
650.498	2382
650.556	1435
650.613	1005
650.671	2444
650.728	2079
650.786	2712
650.843	3767
650.901	1360
650.958	2488
651.016	2159
651.073	1074
651.131	1378
651.188	366
651.246	1248
651.303	325
651.360	2273
651.418	1569
651.475	1641
651.532	307
651.590	2320
651.647	1035
651.704	1692
651.762	1628
651.819	1875
651.876	66
651.933	1321
651.990	1435
652.048	660
652.105	792
652.162	1766
652.219	701
652.276	1479
652.333	1535
652.390	549
652.448	1266
652.505	1211
652.562	962
652.619	1752
652.676	952
652.733	1895
652.790	881
652.847	356
652.904	931
652.961	-344
653.017	283
653.074	1595
653.131	1441
653.188	846
653.245	153
653.302	1377
653.359	566
653.415	1486
653.472	-398
653.529	1738
653.586	210
653.642	691
653.699	1704
653.756	707
653.813	814
653.869	1563
653.926	188
653.983	1040
654.039	1320
654.096	955
654.152	2441
654.209	174
654.266	722
654.322	393
654.379	1324
654.435	1884
654.492	963
654.548	1637
654.605	2049
654.661	1624
654.717	1094
654.774	919
654.830	520
654.887	124
654.943	1245
655.000	1490
655.056	1396
655.112	620
655.168	274
655.225	773
655.281	916
655.337	346
655.394	838
655.450	1099
655.506	1480
655.562	1219
655.618	1719
655.675	1025
655.731	1391
655.787	406
655.843	1528
655.899	846
655.955	1570
656.011	1743
656.067	666
656.123	2183
656.179	2489
656.235	3932
656.291	597
656.347	3330
656.403	1381
656.459	1590
656.515	1081
656.571	1167
656.627	1442
656.683	1334
656.739	1819
656.795	1246
656.850	1267
656.906	2134
656.962	1803
657.018	796
657.074	988
657.129	1866
657.185	3585
657.241	8708
657.297	4253
657.352	2106
657.408	661
657.464	1503
657.519	811
657.575	50
657.630	230
657.686	-44
657.742	254
657.797	167
657.853	57
657.908	876
657.964	-453
658.019	693
658.075	970
658.130	1144
658.186	-390
658.241	1124
658.297	-157
658.352	562
658.407	744
658.463	25
658.518	554
658.573	1220
658.629	-316
658.684	37
658.739	454
658.795	-388
658.850	440
658.905	338
658.960	875
659.016	94
659.071	538
659.126	1019
659.181	1337
659.236	3845
659.291	3115
659.346	832
659.401	1380
659.457	1143
659.512	344
659.567	2017
659.622	583
659.677	129
659.732	-387
659.787	765
659.842	556
659.897	-330
659.952	713
660.007	385
660.061	990
660.116	-205
660.171	-236
660.226	197
660.281	993
660.336	239
660.391	952
660.445	94
660.500	251
660.555	846
660.610	260
660.664	823
660.719	-327
660.774	750
660.828	783
660.883	1180
660.938	647
660.992	-511
661.047	206
661.101	168
661.156	13
661.211	-822
661.265	715
661.320	-11
661.374	672
661.429	-342
661.483	369
661.538	-218
661.592	262
661.647	502
661.701	-219
661.755	399
661.810	319
661.864	321
661.919	-360
661.973	525
662.027	437
662.081	-74
662.136	320
662.190	225
662.244	325
662.299	164
662.353	785
662.407	-113
662.461	-46
662.515	-83
662.569	-105
662.624	792
662.678	-279
662.732	-289
662.786	-171
662.840	42
662.894	-556
662.948	-542
663.002	-246
663.056	367
663.110	-510
663.164	-73
663.218	65
663.272	487
663.326	220
663.380	275
663.434	-176
663.488	91
663.542	-87
663.595	199
663.649	-255
663.703	687
663.757	325
663.811	-901
663.864	-367
663.918	179
663.972	-22
664.026	-202
664.079	570
664.133	-728
664.187	345
664.240	-44
664.294	117
664.348	12
664.401	497
664.455	-152
664.508	-30
664.562	649
664.615	700
664.669	-94
664.722	-559
664.776	186
664.829	-389
664.883	177
664.936	-875
664.990	133
665.043	497
665.097	-285
665.150	-150
665.203	20
665.257	122
665.310	231
665.363	304
665.417	321
665.470	148
665.523	668
665.576	-30
665.630	350
665.683	17
665.736	1345
665.789	61
665.842	-119
665.895	-629
665.949	763
666.002	-202
666.055	203
666.108	-8
666.161	105
666.214	157
666.267	155
666.320	844
666.373	316
666.426	34
666.479	-210
666.532	513
666.585	650
666.638	902
666.691	-921
666.744	480
666.796	-237
666.849	-600
666.902	848
666.955	82
667.008	-61
667.060	-115
667.113	341
667.166	452
667.219	153
667.271	60
667.324	854
667.377	-9
667.430	-174
667.482	0
667.535	208
667.587	668
667.640	217
667.693	158
667.745	3475
667.798	2893
667.850	517
667.903	287
667.955	-348
668.008	-336
668.060	-129
668.113	940
668.165	-108
668.218	-54
668.270	336
668.322	124
668.375	27
668.427	-186
668.479	-45
668.532	-169
668.584	45
668.636	-539
668.689	492
668.741	-121
668.793	432
668.845	149
668.898	218
668.950	-223
669.002	-116
669.054	-445
669.106	12
669.158	578
669.211	645
669.263	-875
669.315	1141
669.367	-228
669.419	863
669.471	919
669.523	2256
669.575	2379
669.627	1508
669.679	135
669.731	278
669.783	945
669.835	1216
669.886	1127
669.938	464
669.990	312
670.042	-294
670.094	-406
670.146	14
670.197	578
670.249	354
670.301	-677
670.353	1373
670.404	1228
670.456	2490
670.508	3562
670.560	7217
670.611	11723
670.663	21331
670.715	57267
670.766	83870
670.818	18638
670.869	2830
670.921	1456
670.972	944
671.024	140
671.075	854
671.127	-163
671.178	22
671.230	277
671.281	169
671.333	375
671.384	1283
671.436	922
671.487	3472
671.538	3823
671.590	7344
671.641	13780
671.692	28374
671.744	55698
671.795	28558
671.846	7373
671.897	2494
671.949	702
672.000	1292
672.051	379
672.102	663
672.153	99
672.204	485
672.256	108
672.307	1107
672.358	-302
672.409	115
672.460	-266
672.511	629
672.562	-144
672.613	-90
672.664	-325
672.715	47
672.766	-255
672.817	-720
672.868	-91
672.919	13
672.970	-380
673.021	-525
673.071	-213
673.122	264
673.173	376
673.224	-324
673.275	-430
673.326	-211
673.376	42
673.427	221
673.478	-320
673.528	608
673.579	-598
673.630	156
673.680	340
673.731	-71
673.782	-673
673.832	-232
673.883	-482
673.934	-360
673.984	-469
674.035	-493
674.085	-595
674.136	183
674.186	-83
674.237	-213
674.287	-8
674.338	-418
674.388	-1109
674.438	-344
674.489	-141
674.539	-42
674.589	-430
674.640	851
674.690	318
674.740	29
674.791	-1015
674.841	530
674.891	-380
674.942	457
674.992	190
675.042	-778
675.092	-1136
675.142	-1008
675.193	-508
675.243	-353
675.293	-787
675.343	-1167
675.393	-660
675.443	-134
675.493	-119
675.543	-1375
675.593	-298
675.643	62
675.693	179
675.743	-47
675.793	-157
675.843	-386
675.893	65
675.943	595
675.993	-382
676.043	-343
676.093	-507
676.142	-655
676.192	208
676.242	455
676.292	-205
676.341	46
676.391	-798
676.441	-776
676.491	-338
676.540	-1348
676.590	-101
676.640	-128
676.689	-583
676.739	-1182
676.789	-801
676.838	-720
676.888	-536
676.937	-496
676.987	-873
677.037	-1191
677.086	-831
677.136	-129
677.185	-473
677.235	-652
677.284	-680
677.333	-907
677.383	-1661
677.432	-1035
677.482	20
677.531	-468
677.580	-941
677.630	-787
677.679	-1140
677.728	-465
677.778	-890
677.827	-720
677.876	-752
677.925	-1062
677.975	-501
678.024	-802
678.073	-304
678.122	-124
678.171	-1186
678.220	-857
678.269	-459
678.319	-624
678.368	-314
678.417	147
678.466	-240
678.515	-676
678.564	-258
678.613	-886
678.662	-1151
678.711	-520
678.760	-517
678.809	-611
678.857	-1256
678.906	-1107
678.955	-620
679.004	-547
679.053	-708
679.102	-201
679.151	-1441
679.199	-394
679.248	-847
679.297	-340
679.346	-800
679.394	-899
679.443	-892
679.492	-837
679.540	-1051
679.589	-365
679.638	-1082
679.686	-95
679.735	-836
679.784	-673
679.832	-1150
679.881	-1171
679.929	-1107
679.978	-723
680.026	-564
680.075	-536
680.123	-1302
680.172	-704
680.220	-815
680.268	-799
680.317	-297
680.365	-982
680.414	-837
680.462	-767
680.510	-101
680.559	-822
680.607	-1261
680.655	-748
680.703	-532
680.752	-1677
680.800	-968
680.848	-462
680.896	-522
680.945	-982
680.993	-703
681.041	-1804
681.089	-910
681.137	-828
681.185	-740
681.233	-1643
681.258	-1476
681.281	-1327
681.329	-1076
681.377	-1087
681.380	-1047
681.425	-452
681.473	-343
681.502	-675
681.521	-928
681.569	-394
681.617	-700
681.624	-820
681.665	-1637
681.713	-151
681.745	-261
681.761	-320
681.809	-301
681.857	-141
681.867	-396
681.904	-1315
681.952	-1104
681.989	11
682.000	330
682.048	-752
682.096	-1034
682.111	-956
682.143	-804
682.191	-805
682.233	62
682.239	182
682.286	-714
682.334	-820
682.354	-802
682.382	-793
682.430	-554
682.476	-548
682.477	-556
682.525	-905
682.572	-715
682.598	-675
682.620	-633
682.667	-375
682.715	-680
682.720	-593
682.763	142
682.810	-578
682.841	-376
682.857	-309
682.905	-251
682.952	388
682.963	284
683.000	-84
683.047	-223
683.085	554
683.095	774
683.142	-12
683.190	-299
683.206	-200
683.237	-118
683.284	100
683.328	268
683.332	281
683.379	-9
683.426	-1410
683.449	-966
683.473	-497
683.521	152
683.568	-126
683.571	-126
683.615	-265
683.662	142
683.693	-91
683.709	-195
683.757	-378
683.804	739
683.814	562
683.851	-137
683.898	390
683.936	-100
683.945	-222
683.992	434
684.039	-193
684.057	109
684.086	571
684.133	561
684.179	278
684.180	259
684.227	494
684.274	377
684.300	810
684.321	1191
684.368	560
684.415	602
684.422	570
684.462	219
684.509	-660
684.543	-70
684.556	155
684.603	246
684.649	703
684.665	411
684.696	-163
684.743	455
684.786	-40
684.790	-79
684.837	224
684.883	632
684.908	635
684.930	564
684.977	529
685.023	307
685.029	292
685.070	160
685.117	-284
685.150	-73
685.164	18
685.210	533
685.257	732
685.272	884
685.303	1260
685.350	831
685.393	917
685.396	927
685.443	884
685.490	1612
685.514	1458
685.536	1112
685.583	1142
685.629	796
685.636	787
685.675	855
685.722	327
685.757	751
685.768	871
685.815	756
685.861	677
685.878	731
685.908	896
685.954	654
686.000	656
686.000	653
686.047	975
686.093	161
686.121	408
686.139	597
686.185	361
686.232	850
686.242	800
686.278	507
686.324	659
686.363	341
686.370	322
686.416	722
686.463	1126
686.484	1086
686.509	908
686.555	671
686.601	909
686.606	921
686.647	1079
686.693	1304
686.727	1072
686.739	1020
686.785	427
686.831	1363
686.848	1270
686.877	999
686.923	818
686.969	1456
686.969	1459
687.015	765
687.061	1149
687.090	860
687.107	631
687.153	1112
687.199	584
687.211	552
687.245	629
687.291	1444
687.332	969
687.336	908
687.382	805
687.428	927
687.453	996
687.474	1095
687.520	815
687.565	836
687.574	844
687.611	1007
687.657	1533
687.695	1996
687.702	2076
687.748	1863
687.794	2390
687.816	2208
687.839	1851
687.885	1929
687.931	1565
687.937	1576
687.976	1706
688.022	1523
688.058	1576
688.067	1599
688.113	1619
688.158	1155
688.179	1136
688.204	1217
688.249	980
688.295	1461
688.300	1491
688.340	1499
688.386	1675
688.421	1310
688.431	1273
688.477	1250
688.522	1685
688.542	1665
688.567	1570
688.613	1869
688.658	1712
688.663	1709
688.703	1718
688.749	1733
688.784	1826
688.794	1855
688.839	1996
688.884	1703
688.905	1832
688.930	1945
688.975	2143
689.020	1444
689.026	1506
689.065	2015
689.110	1103
689.146	1828
689.155	1997
689.201	2228
689.246	1927
689.267	1682
689.291	1480
689.336	2060
689.381	1802
689.388	1813
689.426	1858
689.471	1605
689.509	1667
689.516	1679
689.561	1973
689.606	1714
689.630	1593
689.651	1535
689.696	1982
689.741	1894
689.750	1911
689.785	1865
689.830	1721
689.871	1553
689.875	1549
689.920	1637
689.965	1713
689.992	1721
690.010	1739
690.054	1764
690.099	2076
690.112	2133
690.144	2271
690.189	2031
690.233	1689
690.233	1692
690.278	2238
690.323	2232
690.354	2102
690.367	2053
690.412	2366
690.457	2106
690.474	2192
690.501	2223
690.546	2529
690.590	2347
690.595	2266
690.635	1765
690.680	2114
690.716	2067
690.724	2065
690.769	2224
690.813	2592
690.836	2452
690.857	2292
690.902	2087
690.946	2182
690.957	2154
690.991	2168
691.035	2412
691.077	2787
691.080	2810
691.124	2630
691.168	2506
691.198	2726
691.213	2831
691.257	2519
691.301	2484
691.318	2442
691.346	2393
691.390	2268
691.434	2407
691.439	2389
691.478	2457
691.522	2723
691.559	2807
691.567	2809
691.611	3023
691.655	3017
691.680	2825
691.699	2581
691.743	2709
691.787	2189
691.800	2077
691.831	2075
691.875	2215
691.919	2145
691.921	2136
691.964	1909
692.008	2165
692.041	1932
692.052	1982
692.096	2550
692.139	2971
692.162	3259
692.183	3226
692.227	2767
692.271	2672
692.282	2608
692.315	2722
692.359	2651
692.402	2904
692.403	2911
692.447	2685
692.490	2316
692.523	2299
692.534	2406
692.578	2532
692.622	2696
692.643	2830
692.666	2735
692.709	2441
692.753	2094
692.763	1998
692.797	2132
692.840	2594
692.884	2813
692.884	2820
692.928	2403
692.971	2650
693.004	2517
693.015	2573
693.059	2627
693.102	2962
693.124	3050
693.146	3042
693.189	2966
693.233	3017
693.245	3008
693.276	3018
693.320	2861
693.363	3070
693.365	3053
693.407	2809
693.450	2834
693.485	2737
693.493	2747
693.537	2829
693.580	2906
693.605	2903
693.624	2898
693.667	2902
693.710	2851
693.725	2812
693.753	2986
693.797	3349
693.840	3966
693.845	3976
693.883	3760
693.926	3653
693.966	3648
693.970	3649
694.013	3389
694.056	3369
694.086	3077
694.099	2977
694.142	3016
694.185	2752
694.206	2642
694.229	2699
694.272	3059
694.315	3141
694.326	3170
694.358	3662
694.401	4213
694.444	5189
694.446	5198
694.487	4882
694.530	4758
694.566	4581
694.573	4485
694.616	3958
694.659	3360
694.686	2829
694.702	2918
694.745	3453
694.787	3845
694.806	3991
694.830	3918
694.873	3832
694.916	3693
694.926	3662
694.959	3753
695.002	3779
695.044	3723
695.046	3715
695.087	3603
695.130	3474
695.166	3346
695.172	3383
695.215	3350
695.258	3691
695.286	3668
695.301	3603
695.343	3424
695.386	3514
695.406	3406
695.428	3416
695.471	3542
695.514	3810
695.526	3823
695.556	3887
695.599	4212
695.641	4026
695.646	4011
695.684	3757
695.726	3586
695.766	3574
695.769	3612
695.811	3686
695.854	3913
695.886	4133
695.896	4194
695.938	4178
695.981	4204
696.005	4265
696.023	4234
696.065	4048
696.108	4005
696.125	3922
696.150	4078
696.192	4401
696.235	4645
696.245	4666
696.277	4561
696.319	4661
696.361	4565
696.365	4541
696.404	4596
696.446	4776
696.485	4784
696.488	4793
696.530	4785
696.572	4790
696.604	4851
696.614	4890
696.656	4761
696.698	4804
696.724	4753
696.740	4699
696.783	4618
696.825	4542
696.844	4501
696.867	4509
696.909	4390
696.951	4232
696.964	4226
696.992	4485
697.034	4544
697.076	4931
697.083	4952
697.118	5048
697.160	5192
697.202	5370
697.203	5355
697.244	5222
697.286	5161
697.323	5041
697.327	5067
697.369	5220
697.411	5237
697.442	5339
697.453	5426
697.494	5725
697.536	5898
697.562	6006
697.578	6059
697.620	6201
697.661	6331
697.682	6376
697.703	6605
697.744	7018
697.786	7459
697.801	7573
697.828	7505
697.869	7374
697.911	7261
697.921	7207
697.952	6719
697.994	6118
698.035	5404
698.040	5311
698.077	5341
698.118	5287
698.160	5299
698.160	5282
698.201	5513
698.243	5741
698.279	5972
698.284	6005
698.325	6112
698.367	6214
698.399	6278
698.408	6306
698.449	6307
698.491	6389
698.518	6383
698.532	6425
698.573	6545
698.614	6623
698.638	6666
698.656	6576
698.697	6299
698.738	6028
698.757	5884
698.779	6076
698.820	6403
698.862	6734
698.877	6842
698.903	6742
698.944	6538
698.985	6342
698.996	6269
699.026	6388
699.067	6529
699.116	6678
699.235	5880
699.354	6022
699.474	6449
699.593	6135
699.713	6615
699.832	6411
699.951	8169
700.070	7062
700.190	6718
700.309	6528
700.428	5730
700.547	7259
700.667	6199
700.786	6638
700.905	6047
701.024	5861
701.143	5363
701.262	5275
701.381	5411
701.500	6911
701.619	7278
701.738	6916
701.857	6531
701.976	5952
702.095	5688
702.214	7455
702.333	7278
702.452	6446
702.571	6541
702.690	6735
702.809	5106
702.928	6349
703.047	6745
703.165	6131
703.284	5588
703.403	5728
703.522	4583
703.640	5938
703.759	6678
703.878	6274
703.997	4821
704.115	5850
704.234	5996
704.353	5341
704.471	5313
704.590	5308
704.708	4813
704.827	5436
704.946	3889
705.064	4530
705.183	4749
705.301	4321
705.420	4345
705.538	5006
705.656	3905
705.775	4901
705.893	6024
706.012	5743
706.130	4483
706.249	4486
706.367	5229
706.485	4339
706.604	4588
706.722	4940
706.840	7355
706.958	7598
707.077	5380
707.195	4348
707.313	5565
707.431	4081
707.549	4488
707.668	4697
707.786	4670
707.904	3284
708.022	4034
708.140	4855
708.258	4463
708.376	4594
708.494	3471
708.612	5220
708.730	3905
708.848	4904
708.966	5917
709.084	4676
709.202	4335
709.320	4025
709.438	3829
709.556	4054
709.674	3591
709.791	4505
709.909	3546
710.027	3155
710.145	3513
710.263	4394
710.380	3150
710.498	3406
710.616	4086
710.733	2939
710.851	4002
710.969	4398
711.086	3117
711.204	3733
711.322	3184
711.439	3271
711.557	3008
711.674	4383
711.792	3556
711.909	4064
712.027	2786
712.144	3665
712.262	4437
712.379	3400
712.497	3341
712.614	2956
712.732	3447
712.849	3968
712.966	4794
713.084	6909
713.201	3835
713.318	4585
713.436	4433
713.553	4486
713.670	4323
713.787	4357
713.905	4377
714.022	4584
714.139	4456
714.256	8475
714.373	13310
714.490	30364
714.608	99956
714.725	457207
714.842	359096
714.959	18960
715.076	7995
715.193	6565
715.310	6010
715.427	3497
715.544	4601
715.661	4322
715.778	3994
715.895	3617
716.011	3537
716.128	4289
716.245	4273
716.362	7762
716.479	6364
716.596	4481
716.713	3564
716.829	4314
716.946	2643
717.063	3402
717.180	2162
717.296	2227
717.413	2675
717.530	4148
717.646	3359
717.763	3279
717.880	3143
717.996	3712
718.113	3833
718.229	3374
718.346	2242
718.462	3614
718.579	6570
718.695	15777
718.812	5327
718.928	3281
719.045	3194
719.161	2904
719.277	3173
719.394	3740
719.510	3413
719.626	4662
719.743	5005
719.859	10542
719.975	25358
720.092	124740
720.208	245811
720.324	17884
720.440	5556
720.557	5741
720.673	10657
720.789	6739
720.905	3945
721.021	2625
721.137	2245
721.253	3073
721.369	1828
721.486	3349
721.602	2636
721.718	1589
721.834	2153
721.950	2704
722.066	2656
722.181	2531
722.297	2600
722.413	3315
722.529	2881
722.645	2669
722.761	2510
722.877	2706
722.993	3515
723.108	3798
723.224	2664
723.340	2613
723.456	2525
723.571	1956
723.687	2151
723.803	2538
723.918	2896
724.034	1472
724.150	2214
724.265	2205
724.381	1825
724.497	2678
724.612	2148
724.728	1994
724.843	1619
724.959	2069
725.074	3279
725.190	2997
725.305	1932
725.421	1883
725.536	2571
725.651	1814
725.767	2195
725.882	2784
725.997	1986
726.113	2630
726.228	2019
726.343	1719
726.459	2077
726.574	2605
726.689	1253
726.804	2541
726.920	2602
727.035	1618
727.150	1854
727.265	2369
727.380	2834
727.495	2567
727.610	2632
727.725	2422
727.841	2144
727.956	3022
728.071	1777
728.186	2060
728.301	1571
728.416	2231
728.531	2141
728.645	1861
728.760	2346
728.875	4509
728.990	3220
729.105	2850
729.220	3691
729.335	3214
729.449	2254
729.564	2133
729.679	1626
729.794	1597
729.908	2325
730.023	2047
730.138	1498
730.253	1934
730.367	2118
730.482	1830
730.596	1748
730.711	2914
730.826	3602
730.940	3102
731.055	3306
731.169	2352
731.284	1972
731.398	2236
731.513	2492
731.627	2544
731.742	1751
731.856	2642
731.970	3387
732.085	5058
732.199	7251
732.313	15037
732.428	46367
732.542	149725
732.656	67122
732.771	10141
732.885	5294
732.999	5280
733.113	4667
733.227	4676
733.342	3803
733.456	3438
733.570	3607
733.684	3722
733.798	4129
733.912	2614
734.026	3357
734.140	3472
734.254	3028
734.368	3334
734.482	3924
734.596	4175
734.710	2870
734.824	3528
734.938	3792
735.052	3060
735.166	3044
735.280	3578
735.393	2818
735.507	3068
735.621	2893
735.735	2998
735.849	2542
735.962	3215
736.076	2572
736.190	3223
736.303	3136
736.417	3357
736.531	3284
736.644	3293
736.758	2993
736.872	3157
736.985	3209
737.099	2633
737.212	2245
737.326	3736
737.439	2880
737.553	3004
737.666	3277
737.780	2324
737.893	2393
738.007	3202
738.120	2654
738.233	2940
738.347	2295
738.460	3642
738.573	3877
738.687	3069
738.800	4182
738.913	5171
739.026	3664
739.140	2731
739.253	1535
739.366	2847
739.479	2545
739.592	1826
739.705	1577
739.818	2717
739.932	1994
740.045	2455
740.158	2396
740.271	3122
740.384	2032
740.497	2891
740.610	3191
740.723	2839
740.836	3228
740.949	4220
741.062	5050
741.174	3554
741.287	2543
741.400	2424
741.513	3430
741.626	3863
741.739	2979
741.851	3449
741.964	1857
742.077	3153
742.189	2443
742.302	4814
742.415	4261
742.527	2428
742.640	2528
742.753	2214
742.865	1978
742.978	2007
743.090	2228
743.203	1867
743.316	1430
743.428	1845
743.541	1698
743.653	1836
743.766	1162
743.878	1964
743.990	1581
744.103	3402
744.215	2954
744.327	2665
744.440	3999
744.552	6686
744.664	2429
744.777	1213
744.889	1563
745.001	2789
745.113	1721
745.226	999
745.338	2511
745.450	1445
745.562	1135
745.674	1593
745.786	1588
745.898	1717
746.010	1314
746.122	1456
746.234	1658
746.347	1868
746.459	1698
746.570	2354
746.682	3199
746.794	4172
746.906	2260
747.018	1868
747.130	1041
747.242	1762
747.354	1708
747.466	2234
747.577	1361
747.689	1976
747.801	1683
747.913	942
748.024	1543
748.136	1430
748.248	944
748.359	1070
748.471	1470
748.583	924
748.694	542
748.806	2008
748.918	2281
749.029	1342
749.141	2206
749.252	2486
749.364	2359
749.475	6931
749.587	2564
749.698	1168
749.809	1221
749.921	1219
750.032	1650
750.144	1442
750.255	1442
750.366	1111
750.478	1262
750.589	1791
750.700	1323
750.811	2391
750.923	3551
751.034	9310
751.145	7253
751.256	1248
751.367	1644
751.479	662
751.590	735
751.701	1095
751.812	864
751.923	1239
752.034	1385
752.145	867
752.256	875
752.367	1209
752.478	929
752.589	1699
752.700	1096
752.811	447
752.922	923
753.032	1843
753.143	1675
753.254	-23
753.365	1779
753.476	1851
753.586	537
753.697	199
753.808	1283
753.919	1289
754.029	1122
754.140	265
754.251	683
754.361	1052
754.472	1367
754.582	953
754.693	465
754.804	2160
754.914	-45
755.025	362
755.135	1030
755.246	1090
755.356	17
755.466	991
755.577	831
755.687	738
755.798	881
755.908	742
756.018	717
756.129	1392
756.239	1067
756.349	594
756.460	160
756.570	1648
756.680	1019
756.790	514
756.900	2205
757.011	618
757.121	624
757.231	885
757.341	657
757.451	283
757.561	365
757.671	739
757.781	582
757.891	1529
758.001	304
758.111	293
758.221	1785
758.331	1613
758.441	950
758.551	3913
758.661	2266
758.771	2869
758.880	1205
758.990	771
759.100	964
759.210	806
759.320	860
759.429	473
759.539	1331
759.649	1620
759.758	1976
759.868	1919
759.978	2175
760.087	1848
760.197	2552
760.307	2018
760.416	1184
760.526	1117
760.635	1791
760.745	1631
760.854	2534
760.964	2912
761.073	2308
761.182	1947
761.292	1807
761.401	1571
761.511	128
761.620	1461
761.729	46
761.839	1
761.948	1072
762.057	1584
762.166	1138
762.276	-486
762.385	1488
762.494	308
762.603	1040
762.712	763
762.822	-365
762.931	1223
763.040	22
763.149	379
763.258	-2
763.367	633
763.476	422
763.585	281
763.694	238
763.803	309
763.912	1264
764.021	476
764.130	538
764.238	1299
764.347	362
764.456	362
764.565	1310
764.674	-42
764.783	-95
764.891	668
765.000	1339
765.109	1751
765.217	270
765.326	1185
765.435	1180
765.543	1694
765.652	762
765.761	1449
765.869	2446
765.978	4291
766.086	8570
766.195	19793
766.303	67756
766.412	261618
766.520	149196
766.629	13993
766.737	5311
766.846	2830
766.954	2700
767.062	2452
767.171	1328
767.279	1846
767.387	1216
767.496	142
767.604	779
767.712	1146
767.820	446
767.928	866
768.037	750
768.145	853
768.253	1215
768.361	1179
768.469	366
768.577	443
768.685	1156
768.793	324
768.901	-126
769.009	895
769.117	1394
769.225	1094
769.333	2048
769.441	4181
769.549	7509
769.657	22332
769.765	95273
769.873	198896
769.981	28474
770.088	3836
770.196	1855
770.304	1999
770.412	1927
770.519	959
770.627	1548
770.735	1585
770.842	1184
770.950	1452
771.058	1052
771.165	1608
771.273	1650
771.380	1521
771.488	1887
771.595	1246
771.703	1776
771.810	1531
771.918	880
772.025	2712
772.133	1083
772.240	1091
772.348	1599
772.455	2591
772.562	1250
772.670	2073
772.777	2234
772.884	1312
772.991	1460
773.099	1896
773.206	766
773.313	2622
773.420	1878
773.528	1350
773.635	1457
773.742	3323
773.849	2098
773.956	1988
774.063	1630
774.170	1360
774.277	2081
774.384	1510
774.491	1327
774.598	2377
774.705	1106
774.812	2650
774.919	1626
775.026	2310
775.133	790
775.239	1732
775.346	1064
775.453	1090
775.560	1235
775.667	1832
775.773	1141
775.880	3020
775.987	1610
776.093	1693
776.200	867
776.307	949
776.413	1728
776.520	1408
776.627	1030
776.733	1178
776.840	-146
776.946	3294
777.053	2925
777.159	6171
777.266	2436
777.372	6370
777.478	3767
777.585	2212
777.691	1403
777.798	1414
777.904	2094
778.010	3084
778.117	2726
778.223	917
778.329	707
778.435	1060
778.542	1654
778.648	613
778.754	152
778.860	1751
778.966	294
779.072	850
779.178	47
779.284	1400
779.391	718
779.497	235
779.603	2273
779.708	-213
779.815	299
779.920	1026
780.026	622
780.132	877
780.238	123
780.344	1623
780.450	1253
780.556	1723
780.661	1122
780.767	1568
780.873	-180
780.979	1450
781.085	-287
781.190	327
781.296	370
781.402	-188
781.507	241
781.613	402
781.719	-153
781.824	1140
781.930	1104
782.035	1623
782.141	1691
782.246	327
782.352	916
782.457	6
782.563	878
782.668	855
782.773	459
782.879	160
782.984	292
783.090	1633
783.195	3222
783.300	1532
783.405	388
783.511	139
783.616	391
783.721	1479
783.826	847
783.932	1306
784.037	548
784.142	365
784.247	389
784.352	1212
784.457	428
784.562	625
784.667	376
784.772	-533
784.877	108
784.982	931
785.087	-10
785.192	1642
785.297	310
785.402	912
785.507	-301
785.611	1358
785.716	182
785.821	1
785.926	572
786.031	859
786.135	-495
786.240	1033
786.345	-1272
786.450	1532
786.554	108
786.659	386
786.763	-1088
786.868	1428
786.973	1335
787.077	375
787.182	-102
787.286	-153
787.391	794
787.495	-294
787.600	-550
787.704	-130
787.809	-356
787.913	-12
788.017	35
788.122	662
788.226	485
788.330	-295
788.435	-555
788.539	481
788.643	-376
788.747	461
788.852	-198
788.956	170
789.060	-223
789.164	244
789.268	88
789.372	375
789.476	515
789.580	-152
789.684	-680
789.788	310
789.892	-266
789.996	304
790.100	177
790.204	174
790.308	266
790.412	-280
790.516	16
790.620	-278
790.724	190
790.828	-74
790.931	-1190
791.035	1836
791.139	-644
791.242	-634
791.346	687
791.450	-234
791.554	-1083
791.657	64
791.761	868
791.864	776
791.968	-60
792.072	663
792.175	-411
792.279	294
792.382	-128
792.486	160
792.589	-541
792.693	145
792.796	-881
792.899	318
793.003	841
793.106	-1444
793.209	-251
793.313	1140
793.416	-1393
793.519	1214
793.623	2010
793.726	3030
793.829	1192
793.932	1075
794.035	-769
794.138	1511
794.242	-485
794.345	-95
794.448	458
794.551	1812
794.654	1844
794.757	693
794.860	88
794.963	395
795.066	74
795.169	1219
795.272	-779
795.375	645
795.477	-278
795.580	433
795.683	-1188
795.786	321
795.889	-1393
795.991	1065
796.094	407
796.197	-1095
796.300	618
796.402	-263
796.505	-1393
796.608	-624
796.710	728
796.813	61
796.915	-662
797.018	103
797.120	-35
797.223	-1041
797.326	620
797.428	-163
797.530	-713
797.633	853
797.735	486
797.838	-436
797.940	636
798.042	-537
798.145	-49
798.247	1277
798.349	-1267
798.452	1142
798.554	-808
798.656	-1184
798.758	229
798.860	-246
798.962	-820
799.065	-118
799.167	-685
799.269	1711
799.371	459
799.473	799
799.575	-1204
799.677	-824
799.779	2529
799.881	1243
799.983	1500
800.085	-317
800.187	-208
800.289	-755
800.390	-316
800.492	-271
800.594	733
800.696	-711
800.798	-80
800.899	-591
801.001	-102
801.103	-228
801.205	-777
801.306	-235
801.408	-1058
801.509	-55
801.611	-630
801.713	-690
801.814	-1108
801.916	-831
802.017	53
802.119	-1675
802.220	-81
802.322	-2168
802.423	492
802.525	-1327
802.626	90
802.727	97
802.829	477
802.930	-1491
803.031	614
803.133	304
803.234	-300
803.335	-660
803.436	-1315
803.538	-21
803.639	-1267
803.740	950
803.841	-796
803.942	112
804.043	-452
804.144	-673
804.245	180
804.346	-187
804.447	-119
804.548	703
804.649	1356
804.750	-402
804.851	-717
804.952	-683
805.053	-715
805.154	-1795
805.255	80
805.355	-599
805.456	-720
805.557	-1032
805.658	-924
805.758	283
805.859	-526
805.960	-203
806.061	-336
806.161	-109
806.262	-81
806.362	-541
806.463	-1347
806.564	69
806.664	-605
806.765	-247
806.865	-846
806.966	-97
807.066	-1025
807.166	23
807.267	-126
807.367	-140
807.468	-252
807.568	-1168
807.668	-170
807.769	-252
807.869	-1152
807.969	-533
808.069	-749
808.170	-307
808.270	184
808.370	391
808.470	459
808.570	-685
808.670	-611
808.770	-198
808.870	-493
808.970	524
809.070	-986
809.170	-754
809.271	-165
809.370	-465
809.470	-354
809.570	-1143
809.670	-1134
809.770	-1576
809.870	-655
809.970	-106
810.070	-721
810.169	-253
810.269	-1654
810.369	395
810.469	-908
810.568	-1080
810.668	-1023
810.768	-807
810.867	-195
810.967	-1415
811.066	-519
811.166	-703
811.265	-93
811.365	-687
811.464	-430
811.564	-911
811.663	-567
811.763	-1664
811.862	-258
811.962	-28
812.061	-679
812.160	-976
812.260	-506
812.359	-112
812.458	-951
812.557	-10
812.657	-786
812.756	412
812.855	-993
812.954	-623
813.053	-112
813.153	348
813.252	-1327
813.351	210
813.450	-329
813.549	-504
813.648	106
813.747	-1156
813.846	-249
813.945	-432
814.044	-1562
814.143	-491
814.242	-70
814.341	-894
814.439	57
814.538	519
814.637	-564
814.736	-912
814.835	213
814.933	-643
815.032	270
815.131	-459
815.229	-127
815.328	1299
815.427	145
815.525	1064
815.624	352
815.722	-311
815.821	855
815.919	387
816.018	244
816.116	1238
816.215	21
816.313	692
816.412	1137
816.510	1192
816.609	2641
816.707	1497
816.805	1481
816.904	1149
817.002	1105
817.100	2693
817.198	2325
817.296	1300
817.395	1417
817.493	2263
817.591	1977
817.689	4147
817.787	5296
817.885	8764
817.983	16190
818.081	37373
818.179	99782
818.277	259511
818.375	185629
818.473	38746
818.571	14494
818.669	10133
818.767	9212
818.865	9760
818.963	10538
819.061	17866
819.158	33841
819.256	81082
819.354	200965
819.452	435681
819.549	231189
819.647	53150
819.745	19950
819.842	12698
819.940	8426
820.038	5743
820.135	4634
820.233	4257
820.330	2619
820.428	2673
820.525	2531
820.623	2082
820.720	928
820.818	1770
820.915	1281
821.012	1812
821.110	578
821.207	1826
821.304	-136
821.402	960
821.499	2190
821.596	2620
821.693	1372
821.791	1685
821.888	1036
821.985	5235
822.082	1845
822.179	1823
822.276	1565
822.373	811
822.470	655
822.567	415
822.664	-131
822.761	1165
822.858	-2
822.955	229
823.052	870
823.149	558
823.246	639
823.343	297
823.440	349
823.536	474
823.633	-741
823.730	-100
823.827	421
823.923	247
824.020	195
824.117	835
824.213	-207
824.310	501
824.407	475
824.503	142
824.600	9
824.696	154
824.793	1265
824.889	-840
824.986	260
825.082	-370
825.179	392
825.275	44
825.371	-153
825.468	565
825.564	-624
825.660	1895
825.757	129
825.853	1091
825.949	-690
826.045	-18
826.142	-492
826.238	-324
826.334	-431
826.430	-668
826.526	21
826.622	63
826.718	577
826.814	-433
826.910	630
827.006	-327
827.102	-861
827.198	421
827.294	-589
827.390	404
827.486	866
827.582	-1177
827.678	-1117
827.774	512
827.869	-1835
827.965	1125
828.061	-406
828.157	17
828.252	-80
828.348	-466
828.444	310
828.539	-1314
828.635	-614
828.731	1122
828.826	-602
828.922	-312
829.017	202
829.113	-42
829.208	193
829.304	-507
829.399	257
829.495	-655
829.590	26
829.685	-632
829.781	-290
829.876	278
829.971	-385
830.066	-570
830.162	-67
830.257	-512
830.352	-994
830.447	340
830.543	-222
830.638	-1304
830.733	585
830.828	60
830.923	-33
831.018	-136
831.113	49
831.208	-452
831.303	-1182
831.398	-579
831.493	-802
831.588	574
831.683	-1408
831.778	87
831.873	-238
831.967	316
832.062	-110
832.157	-1052
832.252	84
832.346	-101
832.441	111
832.536	1067
832.631	3549
832.725	2026
832.820	-436
832.914	-870
833.009	-1196
833.104	513
833.198	662
833.293	-893
833.387	665
833.482	-50
833.576	-1341
833.670	-78
833.765	-64
833.859	-227
833.954	251
834.048	430
834.142	-334
834.237	-296
834.331	-1025
834.425	-103
834.519	-698
834.613	-29
834.708	-897
834.802	-203
834.896	-1370
834.990	-357
835.084	-213
835.178	-337
835.272	-845
835.366	225
835.460	-235
835.554	-356
835.648	-611
835.742	-983
835.836	-9
835.930	-1294
836.024	14
836.117	346
836.211	-1176
836.305	-455
836.399	-274
836.493	-1229
836.586	-67
836.680	-1518
836.774	-1473
836.867	259
836.961	-1384
837.055	-1540
837.148	-567
837.242	-1381
837.335	-779
837.429	-928
837.522	-999
837.616	-345
837.709	-495
837.803	-556
837.896	-686
837.989	-797
838.083	-536
838.176	-559
838.269	-1499
838.363	-67
838.456	513
838.549	869
838.642	1485
838.735	3392
838.829	491
838.922	-1112
839.015	-741
839.108	-1187
839.201	-1161
839.294	-531
839.387	-460
839.480	-1417
839.573	-491
839.666	-960
839.759	-1072
839.852	-1265
839.945	-996
840.038	-1290
840.131	-985
840.223	-351
840.316	-413
840.409	-861
840.502	-1261
840.594	-326
840.687	-1685
840.780	-495
840.873	-1567
840.965	-897
841.058	-400
841.150	-682
841.243	-1870
841.336	210
841.428	-1282
841.521	-1280
841.613	-863
841.706	-326
841.798	-200
841.890	-146
841.983	-1153
842.075	52
842.167	-861
842.260	-825
842.352	-288
842.444	-966
842.537	-857
842.629	-757
842.721	-1687
842.813	-690
842.905	-1092
842.997	-12
843.090	-1436
843.182	-1213
843.274	-1544
843.366	-794
843.458	-853
843.550	432
843.642	-1218
843.734	-930
843.826	-747
843.918	-29
844.009	250
844.101	-914
844.193	-1068
844.285	-922
844.377	-847
844.469	147
844.560	-175
844.652	-353
844.744	370
844.835	-779
844.927	-1782
845.019	-1283
845.110	-627
845.202	-795
845.293	-635
845.385	-948
845.476	-63
845.568	-82
845.659	-273
845.751	-295
845.842	-938
845.934	-1139
846.025	-1673
846.116	-29
846.208	-510
846.299	-1180
846.390	-868
846.482	-823
846.573	-252
846.664	-86
846.755	-536
846.846	614
846.937	-1720
847.029	-889
847.120	-1485
847.211	-975
847.302	-51
847.393	-2621
847.484	-55
847.575	-769
847.666	-1270
847.757	-1340
847.847	91
847.938	-148
848.029	-853
848.120	-869
848.211	-918
848.302	-1329
848.392	-1602
848.483	-269
848.574	-1351
848.664	-288
848.755	-1286
848.846	-642
848.936	-1107
849.027	311
849.118	-732
849.208	-975
849.299	853
849.389	2734
849.480	7327
849.570	17206
849.661	35426
849.751	57195
849.841	15647
849.932	1080
850.022	-808
850.112	794
850.203	-1191
850.293	-430
850.383	-250
850.474	-949
850.564	-571
850.654	-294
850.744	-1046
850.834	-481
850.924	-938
851.014	315
851.104	213
851.194	-834
851.284	-815
851.374	-982
851.464	-1489
851.554	-1185
851.644	-649
851.734	-612
851.824	-1376
851.914	-1268
852.004	-554
852.094	-629
852.183	-286
852.273	-216
852.363	-793
852.452	-688
852.542	-816
852.632	-534
852.721	60
852.811	-966
852.901	-799
852.990	-67
853.080	-363
853.169	-156
853.259	-7
853.348	-183
853.438	1322
853.527	2180
853.617	4238
853.706	10345
853.795	19932
853.885	51157
853.974	94905
854.063	183875
854.152	261917
854.242	83688
854.331	12911
854.420	5284
854.509	3289
854.598	2785
854.687	1425
854.777	1704
854.866	758
854.955	323
855.044	-880
855.133	-259
855.222	-369
855.311	-404
855.400	-195
855.488	305
855.577	298
855.666	-187
855.755	-467
855.844	-925
855.933	-719
856.021	103
856.110	-43
856.199	-1325
856.288	-1207
856.376	-601
856.465	-1606
856.554	354
856.642	-592
856.731	227
856.819	-644
856.908	-548
856.996	-1161
857.085	-1427
857.173	-1037
857.262	-826
857.350	-559
857.438	-744
857.527	-503
857.615	-734
857.703	-705
857.792	-1283
857.880	-1299
857.968	-444
858.056	-713
858.145	-730
858.233	-1241
858.321	-1308
858.409	-1546
858.497	-255
858.585	-910
858.673	-899
858.761	-1041
858.849	-1198
858.937	-1007
859.025	255
859.113	-1176
859.201	-961
859.289	-747
859.377	-1769
859.465	-948
859.552	-1253
859.640	-1348
859.728	-864
859.816	-764
859.903	-91
859.991	-1253
860.079	-509
860.166	-806
860.254	-469
860.342	-1083
860.429	-306
860.517	-977
860.604	-603
860.692	-383
860.779	-748
860.867	-999
860.954	-838
861.042	-1455
861.129	-726
861.216	-1313
861.304	-1263
861.391	-1974
861.478	-920
861.565	-356
861.653	-746
861.740	-740
861.827	-565
861.914	-762
862.001	-1683
862.089	-964
862.176	-682
862.263	-1085
862.350	-872
862.437	-1833
862.524	-570
862.611	-1420
862.698	-943
862.785	-261
862.871	-671
862.958	-916
863.045	-1075
863.132	-622
863.219	-744
863.306	-1983
863.392	-131
863.479	-736
863.566	-1804
863.652	-427
863.739	-501
863.826	-659
863.912	-287
863.999	-1720
864.086	-1186
864.172	-1073
864.259	-794
864.345	-508
864.432	-1417
864.518	-797
864.604	-208
864.691	-1614
864.777	-601
864.863	-500
864.950	244
865.036	-470
865.122	1454
865.209	1099
865.295	1251
865.381	1671
865.467	1731
865.553	3707
865.639	5137
865.726	10946
865.812	24568
865.898	49392
865.984	74271
866.070	144755
866.156	139664
866.242	29709
866.328	6112
866.414	2166
866.499	2384
866.585	842
866.671	1526
866.757	1123
866.843	1316
866.928	392
867.014	780
867.100	602
867.186	743
867.271	330
867.357	1016
867.442	-125
867.528	226
867.614	-222
867.699	261
867.785	796
867.870	805
867.956	1074
868.041	1148
868.127	199
868.212	1135
868.297	743
868.383	1155
868.468	1199
868.553	2168
868.639	2328
868.724	6146
868.809	5293
868.894	391
868.979	-51
869.065	237
869.150	-573
869.235	-522
869.320	-675
869.405	-488
869.490	-807
869.575	-558
869.660	-801
869.745	479
869.830	266
869.915	-426
870.000	-299
870.085	715
870.169	-172
870.254	90
870.339	-1027
870.424	79
870.509	-1130
870.593	-1319
870.678	-474
870.763	-265
870.847	564
870.932	214
871.016	-175
871.101	-935
871.186	-85
871.270	-147
871.355	-510
871.439	-407
871.523	-44
871.608	-698
871.692	-17
871.777	325
871.861	-667
871.945	-125
872.030	-145
872.114	-761
872.198	-977
872.282	-1025
872.367	-517
872.451	-366
872.535	-644
872.619	-1001
872.703	-804
872.787	-494
872.871	-1155
872.955	-449
873.039	-168
873.123	-216
873.207	-416
873.291	-412
873.375	-294
873.459	-822
873.543	-881
873.627	-823
873.711	-356
873.794	-164
873.878	-681
873.962	-1016
874.045	-543
874.129	-342
874.137	-284
874.213	298
874.245	-30
874.296	-570
874.352	-555
874.380	-544
874.460	-575
874.464	-578
874.547	-934
874.568	-771
874.631	-279
874.676	-429
874.714	-565
874.784	-216
874.798	-141
874.881	875
874.892	798
874.965	262
874.999	219
875.048	156
875.107	-390
875.131	-635
875.215	-62
875.215	-62
875.298	-214
875.323	-236
875.381	-318
875.430	-65
875.465	126
875.538	-50
875.548	-82
875.631	3
875.646	-222
875.714	-1259
875.753	-539
875.798	230
875.861	-13
875.881	-55
875.964	294
875.968	222
876.047	-1111
876.076	-572
876.130	472
876.183	-54
876.213	-359
876.291	433
876.296	480
876.379	-200
876.398	-237
876.462	-288
876.506	-418
876.545	-536
876.613	93
876.628	236
876.711	141
876.721	218
876.794	778
876.828	400
876.877	-268
876.935	-228
876.960	-99
877.043	482
877.043	485
877.125	839
877.150	904
877.208	1214
877.258	1080
877.291	909
877.365	850
877.374	852
877.456	468
877.472	478
877.539	471
877.579	479
877.622	594
877.687	386
877.704	266
877.787	-189
877.794	-186
877.869	112
877.901	406
877.952	716
878.008	595
878.034	605
878.115	165
878.117	152
878.199	-537
878.222	-406
878.282	199
878.329	63
878.364	-151
878.437	292
878.447	376
878.529	40
878.544	83
878.611	165
878.651	60
878.694	44
878.758	487
878.776	574
878.858	33
878.865	57
878.941	403
878.972	352
879.023	332
879.078	-154
879.105	-368
879.185	-119
879.187	-114
879.269	154
879.292	66
879.351	-115
879.399	-32
879.433	-7
879.506	-427
879.516	-450
879.598	574
879.613	419
879.680	-539
879.720	-582
879.762	-391
879.827	-507
879.844	-615
879.926	24
879.933	-29
880.007	-187
880.040	-45
880.089	59
880.147	397
880.171	558
880.253	1503
880.254	1503
880.335	1510
880.360	1717
880.417	3045
880.467	4921
880.499	6059
880.574	7185
880.580	7089
880.662	2328
880.680	1945
880.744	943
880.787	-130
880.825	-545
880.893	-65
880.907	-45
880.989	-365
881.000	-406
881.070	133
881.106	436
881.152	280
881.213	-250
881.233	-268
881.315	129
881.319	156
881.396	224
881.426	-239
881.478	-608
881.532	358
881.559	732
881.639	353
881.641	343
881.722	488
881.745	357
881.803	187
881.852	415
881.885	468
881.958	24
881.966	26
882.047	764
882.064	799
882.129	843
882.171	1015
882.210	1330
882.277	2134
882.291	2273
882.372	1606
882.383	1614
882.454	516
882.489	7
882.535	139
882.596	21
882.616	-83
882.697	-80
882.702	-91
882.778	347
882.808	596
882.859	389
882.914	-103
882.940	-175
883.020	-164
883.021	-158
883.102	118
883.127	203
883.183	430
883.233	454
883.264	184
883.339	-155
883.345	-119
883.426	55
883.445	269
883.507	550
883.551	301
883.587	528
883.657	1325
883.668	1350
883.749	657
883.763	684
883.830	626
883.869	476
883.910	442
883.975	238
883.991	296
884.072	621
884.081	616
884.152	169
884.187	357
884.233	808
884.292	686
884.314	549
884.394	194
884.398	181
884.475	144
884.504	30
884.555	-182
884.610	-61
884.636	209
884.716	548
884.716	552
884.797	327
884.821	298
884.877	529
884.927	478
884.958	251
885.033	-167
885.038	-169
885.118	-38
885.139	-96
885.199	-433
885.244	-506
885.279	-88
885.350	552
885.359	547
885.439	586
885.456	525
885.520	146
885.561	121
885.600	214
885.667	250
885.680	381
885.760	1085
885.773	1167
885.840	442
885.878	211
885.920	324
885.984	210
886.000	188
886.080	163
886.089	153
886.160	474
886.195	560
886.240	519
886.300	793
886.320	881
886.400	1077
886.406	1063
886.480	705
886.511	717
886.560	1453
886.616	2026
886.640	1795
886.720	977
886.722	954
886.800	583
886.827	483
886.879	442
886.932	88
886.959	332
887.038	1572
887.039	1571
887.119	571
887.143	351
887.198	608
887.248	785
887.278	761
887.354	514
887.358	534
887.437	1019
887.459	1129
887.517	1116
887.564	1055
887.596	644
887.669	-213
887.676	-165
887.755	205
887.774	373
887.835	419
887.880	310
887.914	258
887.985	116
887.994	225
888.073	1182
888.090	1375
888.153	763
888.195	341
888.232	477
888.300	749
888.311	690
888.391	184
888.405	85
888.470	104
888.510	112
888.549	274
888.615	629
888.628	768
888.708	1428
888.720	1540
888.787	1141
888.825	850
888.866	618
888.930	321
888.945	418
889.024	890
889.035	947
889.103	964
889.140	960
889.182	643
889.245	206
889.261	262
889.340	479
889.349	502
889.419	578
889.454	614
889.498	649
889.559	692
889.577	669
889.656	554
889.664	542
889.735	426
889.768	369
889.814	595
889.873	894
889.978	990
890.083	979
890.187	982
890.292	826
890.397	1068
890.501	-42
890.606	588
890.710	-20
890.815	548
890.919	200
891.024	829
891.128	749
891.233	78
891.337	713
891.442	1556
891.546	1068
891.650	259
891.755	213
891.859	2013
891.963	975
892.068	1559
892.172	516
892.276	436
892.380	1185
892.484	825
892.589	543
892.693	1028
892.797	109
892.901	993
893.005	-419
893.109	825
893.213	363
893.317	1098
893.421	48
893.525	261
893.629	525
893.733	438
893.837	193
893.941	361
894.045	394
894.148	604
894.252	597
894.356	785
894.460	862
894.564	262
894.667	-7
894.771	564
894.875	238
894.978	788
895.082	751
895.186	633
895.289	122
895.393	145
895.496	105
895.600	380
895.703	-6
895.807	257
895.910	642
896.014	899
896.117	-7
896.221	717
896.324	-373
896.427	206
896.531	-277
896.634	916
896.737	-341
896.840	740
896.944	-21
897.047	337
897.150	669
897.253	-128
897.356	-260
897.460	112
897.563	457
897.666	1283
897.769	-743
897.872	413
897.975	-310
898.078	911
898.181	245
898.284	766
898.387	299
898.490	1148
898.593	-267
898.695	242
898.798	293
898.901	532
899.004	266
899.107	-284
899.209	-58
899.312	1335
899.415	26
899.518	222
899.620	34
899.723	554
899.826	994
899.928	2580
900.031	502
900.133	499
900.236	266
900.338	325
900.441	-513
900.543	-175
900.646	-301
900.748	-678
900.851	648
900.953	444
901.055	-324
901.158	390
901.260	253
901.362	-454
901.465	-207
901.567	284
901.669	41
901.771	219
901.873	272
901.976	449
902.078	-227
902.180	791
902.282	347
902.384	328
902.486	849
902.588	246
902.690	-49
902.792	784
902.894	845
902.996	2
903.098	-706
903.200	470
903.302	-539
903.404	687
903.505	-1088
903.607	59
903.709	816
903.811	358
903.913	534
904.014	-611
904.116	-371
904.218	83
904.319	573
904.421	612
904.523	341
904.624	-312
904.726	-815
904.827	-496
904.929	-70
905.030	446
905.132	154
905.233	546
905.335	33
905.436	-140
905.537	-794
905.639	1196
905.740	-19
905.841	507
905.943	278
906.044	567
906.145	-178
906.247	-346
906.348	-382
906.449	394
906.550	251
906.651	12
906.752	247
906.854	854
906.955	140
907.056	188
907.157	-185
907.258	34
907.359	-1
907.460	-241
907.561	-614
907.662	295
907.762	345
907.863	30
907.964	-198
908.065	1464
908.166	-133
908.267	-225
908.367	-634
908.468	503
908.569	-326
908.670	203
908.770	476
908.871	1451
908.971	446
909.072	616
909.173	-369
909.273	180
909.374	-528
909.474	709
909.575	254
909.675	-581
909.776	481
909.876	331
909.977	-81
910.077	625
910.177	-168
910.278	654
910.378	414
910.478	-10
910.579	-195
910.679	263
910.779	332
910.879	-150
910.980	276
911.080	428
911.180	-834
911.280	229
911.380	-839
911.480	577
911.580	-377
911.680	319
911.780	-159
911.880	28
911.980	-783
912.080	66
912.180	283
912.280	-341
912.380	872
912.480	128
912.580	180
912.679	-99
912.779	-12
912.879	430
912.979	321
913.078	118
913.178	-360
913.278	-335
913.377	373
913.477	470
913.577	-792
913.676	834
913.776	653
913.875	-737
913.975	511
914.074	326
914.174	81
914.273	-754
914.373	1236
914.472	247
914.572	-917
914.671	-52
914.770	702
914.870	30
914.969	-577
915.068	-501
915.167	-629
915.267	591
915.366	-87
915.465	77
915.564	-466
915.663	-401
915.763	116
915.862	678
915.961	-316
916.060	-394
916.159	-302
916.258	318
916.357	459
916.456	60
916.555	-797
916.654	-501
916.752	138
916.851	259
916.950	220
917.049	248
917.148	-504
917.247	14
917.345	-62
917.444	-149
917.543	-889
917.642	163
917.740	-772
917.839	479
917.937	386
918.036	309
918.135	-282
918.233	41
918.332	-853
918.430	-783
918.529	-6
918.627	19
918.726	-128
918.824	-613
918.923	-903
919.021	-417
919.119	-576
919.218	-1141
919.316	-154
919.414	-391
919.512	-353
919.611	30
919.709	-652
919.807	864
919.905	-556
920.003	-21
920.102	14
920.200	120
920.298	556
920.396	318
920.494	85
920.592	-284
920.690	-260
920.788	689
920.886	-38
920.984	1384
921.082	-865
921.180	1024
921.277	556
921.375	595
921.473	748
921.571	1094
921.669	1311
921.766	1121
921.864	718
921.962	1032
922.060	619
922.157	968
922.255	733
922.352	1197
922.450	340
922.548	125
922.645	554
922.743	1913
922.840	3179
922.938	3719
923.035	3689
923.133	3229
923.230	2933
923.327	4625
923.425	3285
923.522	3811
923.619	2079
923.717	2959
923.814	3359
923.911	2752
924.008	2291
924.106	2860
924.203	2157
924.300	2813
924.397	2062
924.494	3407
924.591	2569
924.688	2669
924.786	2370
924.883	2590
924.979	2171
925.077	2178
925.173	2701
925.270	3253
925.367	1999
925.464	2889
925.561	2245
925.658	3721
925.755	2467
925.852	3215
925.948	2629
926.045	3344
926.142	3025
926.239	3094
926.335	2926
926.432	2629
926.529	3103
926.625	3083
926.722	1399
926.818	1484
926.915	1434
927.011	1516
927.108	2355
927.204	2403
927.301	1684
927.397	2293
927.494	2390
927.590	1439
927.687	1721
927.783	3017
927.879	2175
927.976	2271
928.072	1535
928.168	2480
928.264	1765
928.361	2036
928.457	2005
928.553	1947
928.649	1764
928.745	2560
928.841	1835
928.937	1946
929.033	2640
929.129	1842
929.225	1850
929.321	2184
929.417	1649
929.513	2189
929.609	1264
929.705	1476
929.801	1505
929.897	1044
929.993	1303
930.089	1809
930.184	935
930.280	1622
930.376	2385
930.471	1514
930.567	1282
930.663	1581
930.758	1085
930.854	1504
930.950	1461
931.045	1307
931.141	1029
931.236	2408
931.332	1183
931.427	931
931.523	2414
931.618	1852
931.714	521
931.809	1390
931.905	781
932.000	1029
932.095	12
932.191	2215
932.286	1634
932.381	1098
932.476	665
932.572	1512
932.667	633
932.762	1565
932.857	1638
932.952	2713
933.047	1739
933.142	1161
933.237	778
933.332	2244
933.427	1133
933.522	839
933.617	829
933.712	1332
933.807	977
933.902	1389
933.997	1734
934.092	1073
934.187	1023
934.282	1601
934.376	1644
934.471	1039
934.566	1179
934.661	971
934.755	1124
934.850	1133
934.945	799
935.039	469
935.134	663
935.228	1662
935.323	1264
935.417	446
935.512	647
935.606	682
935.701	946
935.795	1042
935.890	91
935.984	1207
936.079	235
936.173	1407
936.267	595
936.362	104
936.456	860
936.550	1159
936.644	379
936.738	1260
936.833	924
936.927	679
937.021	673
937.115	1174
937.209	827
937.303	1740
937.397	86
937.491	1600
937.585	1448
937.679	1347
937.773	137
937.867	136
937.961	368
938.055	1490
938.149	1338
938.243	505
938.337	-405
938.430	360
938.524	902
938.618	1131
938.712	340
938.805	675
938.899	758
938.993	1347
939.086	422
939.180	-787
939.274	777
939.367	1096
939.461	761
939.554	982
939.648	131
939.741	322
939.835	698
939.928	737
940.022	1260
940.115	230
940.208	557
940.302	2170
940.395	1302
940.488	31
940.582	554
940.675	287
940.768	1291
940.861	1076
940.954	938
941.048	-602
941.141	440
941.234	1094
941.327	851
941.420	2139
941.513	1799
941.606	444
941.699	722
941.792	1394
941.885	-13
941.978	1351
942.071	725
942.164	531
942.257	317
942.349	1017
942.442	49
942.535	859
942.628	-11
942.721	1196
942.813	-637
942.906	1547
942.999	432
943.091	148
943.184	465
943.277	167
943.369	-638
943.462	486
943.554	342
943.647	-200
943.739	776
943.832	1020
943.924	-620
944.017	18
944.109	-550
944.201	433
944.294	427
944.386	461
944.478	17
944.571	455
944.663	65
944.755	822
944.847	149
944.940	667
945.032	-639
945.124	74
945.216	733
945.308	202
945.400	-113
945.492	342
945.584	506
945.676	907
945.768	403
945.860	589
945.952	543
946.044	727
946.136	897
946.228	142
946.320	-310
946.412	-436
946.503	-103
946.595	943
946.687	601
946.779	48
946.870	563
946.962	53
947.054	-332
947.145	812
947.237	603
947.329	568
947.420	-118
947.512	294
947.603	-615
947.695	169
947.786	-866
947.878	354
947.969	427
948.061	581
948.152	-597
948.243	550
948.335	-430
948.426	-10
948.517	-58
948.609	786
948.700	414
948.791	-714
948.882	-239
948.973	-3
949.065	203
949.156	-172
949.247	-349
949.338	357
949.429	-111
949.520	-142
949.611	-786
949.702	1054
949.793	283
949.884	718
949.975	-1013
950.066	-848
950.157	450
950.247	84
950.338	246
950.429	212
950.520	409
950.611	207
950.701	345
950.792	823
950.883	692
950.973	594
951.064	386
951.155	-138
951.245	897
951.336	537
951.427	256
951.517	1064
951.608	540
951.698	162
951.788	-1092
951.879	-207
951.969	-178
952.060	280
952.150	-481
952.240	658
952.331	-1525
952.421	1453
952.511	-800
952.602	1172
952.692	44
952.782	-43
952.872	-48
952.962	368
953.052	-416
953.143	-445
953.233	244
953.323	1060
953.413	-13
953.503	454
953.593	86
953.683	161
953.773	-767
953.863	-654
953.953	-449
954.042	-347
954.132	-665
954.222	623
954.312	78
954.402	441
954.492	-335
954.581	-156
954.671	-406
954.761	-860
954.850	213
954.940	107
955.030	-58
955.119	54
955.209	43
955.298	-261
955.388	103
955.477	1085
955.567	-657
955.656	417
955.746	-400
955.835	-407
955.925	111
956.014	423
956.103	-588
956.193	1487
956.282	-414
956.371	131
956.461	-509
956.550	625
956.639	2
956.728	-1360
956.817	386
956.906	-274
956.995	301
957.085	-416
957.174	-207
957.263	-552
957.352	-710
957.441	-141
957.530	-445
957.619	543
957.708	-212
957.796	-383
957.885	-255
957.974	-570
958.063	-272
958.152	-649
958.241	160
958.329	-410
958.418	-493
958.507	-632
958.596	482
958.684	-962
958.773	696
958.861	391
958.950	-548
959.039	395
959.127	18
959.216	636
959.304	-1021
959.393	173
959.481	-732
959.570	-496
959.658	-1122
959.746	-493
959.835	-825
959.923	19
960.011	-972
960.100	397
960.188	163
960.276	-579
960.365	-81
960.453	-135
960.541	-1439
960.629	4
960.717	-1011
960.805	-754
960.893	-207
960.981	-1056
961.069	482
961.158	673
961.245	-245
961.333	64
961.421	-407
961.509	-358
961.597	-116
961.685	-380
961.773	-1346
961.861	-132
961.949	138
962.036	-1015
962.124	-347
962.212	-492
962.299	-923
962.387	-225
962.475	-791
962.562	-374
962.650	595
962.738	288
962.825	-1410
962.913	-772
963.000	-1551
963.088	-203
963.175	-744
963.263	-705
963.350	-821
963.438	-490
963.525	-793
963.612	176
963.700	-993
963.787	253
963.874	-1099
963.962	-258
964.049	282
964.136	-489
964.223	-1447
964.310	-173
964.398	-656
964.485	-532
964.572	-355
964.659	-416
964.746	-697
964.833	-194
964.920	-968
965.007	-660
965.094	-561
965.181	265
965.268	-391
965.355	-261
965.441	-993
965.528	-842
965.615	-202
965.702	-269
965.789	-860
965.875	-272
965.962	-608
966.049	-407
966.136	240
966.222	-590
966.309	-334
966.395	-392
966.482	63
966.569	-585
966.655	-138
966.742	-832
966.828	89
966.915	-420
967.001	-704
967.087	-974
967.174	-6
967.260	-267
967.347	-805
967.433	-1036
967.519	-304
967.605	83
967.692	-747
967.778	-715
967.864	-1162
967.950	-252
968.036	-1347
968.123	107
968.209	-500
968.295	-1721
968.381	-400
968.467	352
968.553	-1357
968.639	374
968.725	-727
968.811	627
968.897	435
968.983	-162
969.069	-1011
969.154	610
969.240	-32
969.326	-1481
969.412	-1658
969.497	-713
969.583	-428
969.669	98
969.755	-1226
969.840	-164
969.926	-251
970.012	-446
970.097	1017
970.183	199
970.268	-1170
970.354	253
970.439	-1673
970.525	33
970.610	-1038
970.696	233
970.781	-490
970.866	-740
970.952	45
971.037	-1242
971.122	-515
971.208	-119
971.293	-1493
971.378	-1442
971.463	-926
971.549	19
971.634	-682
971.719	-675
971.804	-1838
971.889	95
971.974	-772
972.059	-411
972.144	-1275
972.229	-425
972.314	-1759
972.399	-388
972.484	-1390
972.569	-705
972.654	-2272
972.739	147
972.824	-445
972.908	-707
972.993	-1018
973.078	-631
973.163	-832
973.247	110
973.332	-2084
973.417	559
973.501	-1501
973.586	-30
973.671	-234
973.755	-122
973.840	-16
973.924	500
974.009	-289
974.093	-702
974.178	-119
974.262	-360
974.346	-1394
974.431	-149
974.515	-679
974.600	-904
974.684	-651
974.768	-794
974.852	656
974.937	-2253
975.021	-816
975.105	-1131
975.189	76
975.273	366
975.358	-922
975.442	-965
975.526	-6
975.610	-1552
975.694	-1321
975.778	59
975.862	-218
975.946	-2249
976.030	-178
976.114	-1136
976.198	-421
976.281	-871
976.365	776
976.449	-735
976.533	-159
976.617	-328
976.700	-1305
976.784	-17
976.868	-1525
976.951	-120
977.035	-1282
977.119	769
977.202	-968
977.286	-490
977.369	-609
977.453	-499
977.536	-361
977.620	-1126
977.703	-313
977.787	-671
977.870	-366
977.953	-117
978.037	-2061
978.120	354
978.203	-1043
978.287	-309
978.370	-745
978.453	-1213
978.536	-1179
978.620	235
978.703	-846
978.786	-1542
978.869	-1252
978.952	-503
979.035	1693
979.118	161
979.201	-1457
979.284	142
979.367	-332
979.450	-772
979.533	-1627
979.616	-247
979.699	-1437
979.782	311
979.865	-875
979.948	5
980.030	-1311
980.113	-251
980.196	-1422
980.279	-139
980.361	-707
980.444	-537
980.526	168
980.609	582
980.692	-1002
980.774	-648
980.857	-1302
980.939	682
981.022	-893
981.104	-612
981.187	-1308
981.269	70
981.352	-792
981.434	-932
981.516	-1166
981.599	729
981.681	-1293
981.763	-195
981.846	-415
981.928	-341
982.010	-122
982.092	-1261
982.174	-381
982.256	-682
982.339	-540
982.421	-694
982.503	-912
982.585	-1439
982.667	-995
982.749	-483
982.831	-1372
982.913	-465
982.995	713
983.077	-398
983.158	-17
983.240	-659
983.322	-123
983.404	870
983.486	-770
983.568	140
983.649	-661
983.731	789
983.813	-1220
983.894	13
983.976	-551
984.058	187
984.139	690
984.221	-44
984.302	331
984.384	-224
984.465	-826
984.547	-158
984.628	-716
984.710	25
984.791	-621
984.872	759
984.954	-1011
985.035	363
985.116	-622
985.198	110
985.279	612
985.360	-752
985.441	-1246
985.522	52
985.604	-863
985.685	-1815
985.766	141
985.847	1654
985.928	-1210
986.009	-124
986.090	-797
986.171	889
986.252	-983
986.333	-642
986.414	-187
986.495	452
986.576	-494
986.656	-226
986.737	287
986.818	489
986.899	-1084
986.980	-116
987.060	-456
987.141	-297
987.222	203
987.302	-205
987.383	-102
987.464	-154
987.544	52
987.625	-406
987.705	-28
987.786	76
987.866	-140
987.947	24
988.027	88
988.108	-860
988.188	-147
988.268	340
988.349	-33
988.429	152
988.509	-102
988.589	-62
988.670	-1933
988.750	1522
988.830	-374
988.910	-48
988.990	-552
989.070	196
989.151	-908
989.231	-802
989.311	52
989.391	137
989.471	101
989.551	-511
989.631	-783
989.711	313
989.791	-847
989.870	-835
989.950	554
990.030	-435
990.110	-502
990.190	-352
990.269	-889
990.349	26
990.429	-144
990.509	-693
990.588	-51
990.668	-180
990.747	-855
990.827	-693
990.907	-227
990.986	127
991.066	-475
991.145	-742
991.225	30
991.304	-402
991.383	-285
991.463	-41
991.542	641
991.622	-265
991.701	-616
991.780	-11
991.859	-784
991.939	-583
992.018	-3
992.097	-141
992.176	-529
992.256	19
992.335	-666
992.414	657
992.493	-1123
992.572	-675
992.651	434
992.730	-151
992.809	-869
992.888	-1164
992.967	-1188
993.046	128
993.125	-1662
993.203	-466
993.282	-770
993.361	-29
993.440	222
993.519	-901
993.597	-730
993.676	-754
993.755	629
993.834	-458
993.912	-1613
993.991	665
994.069	-1080
994.148	-207
994.226	-1063
994.305	274
994.384	-1132
994.462	425
994.540	-1133
994.619	-1561
994.697	-1004
994.776	-1098
994.854	-407
994.932	-537
995.011	-621
995.089	-1714
995.167	-847
995.245	-116
995.324	-2002
995.402	-1
995.480	-1957
995.558	-201
995.636	-1006
995.714	-95
995.792	309
995.870	-1005
995.948	-1585
996.026	-1005
996.104	-2410
996.182	93
996.260	-1442
996.338	-174
996.416	-2340
996.494	-570
996.572	-919
996.649	-1134
996.727	-1822
996.805	-234
996.883	-769
996.960	-870
997.038	-891
997.116	-687
997.193	-1870
997.271	-1230
997.348	-1544
997.426	-707
997.504	-481
997.581	-774
997.658	-985
997.736	-1927
997.813	-2204
997.891	705
997.968	-2146
998.046	-955
998.123	-1132
998.200	-985
998.277	-1512
998.355	-253
998.432	-2971
998.509	-340
998.586	-952
998.663	-961
998.741	-816
998.818	-1109
998.895	-1311
998.972	-878
999.049	-990
999.126	-1226
999.203	-1050
999.280	-347
999.357	-2271
999.434	-963
999.511	-597
999.587	-707
999.664	-1876
999.741	-942
999.818	-1140
999.895	-744
999.971	-1860
1000.048	-902
1000.125	-375
1000.202	-1989
1000.278	-1166
1000.355	-1167
1000.431	-1231
1000.508	-2090
1000.584	-1453
1000.661	-655
1000.738	-1552
1000.814	-786
1000.890	-909
1000.967	-1462
1001.043	-1908
1001.120	-2976
1001.196	-733
1001.272	-1579
1001.349	-1404
1001.425	-726
1001.501	-1822
1001.577	-1543
1001.654	-1657
1001.730	-1667
1001.806	-1768
1001.882	-1620
1001.958	-1507
1002.034	-609
1002.110	-1667
1002.186	-1435
1002.262	-2121
1002.338	-2679
1002.414	-333
1002.490	-512
1002.566	-1631
1002.642	-1943
1002.718	-929
1002.794	-1312
1002.870	-1508
1002.945	-1692
1003.021	-1783
1003.097	-1446
1003.173	-542
1003.248	-1560
1003.324	-2114
1003.400	-754
1003.475	-1672
1003.551	-556
1003.626	-1725
1003.702	-1770
1003.777	-1960
1003.853	-1771
1003.928	-1769
1004.004	-1531
1004.079	-755
1004.155	-874
1004.230	-2987
1004.305	-903
1004.381	-2018
1004.456	-1854
1004.531	-2062
1004.607	-574
1004.682	-1216
1004.757	-1401
1004.832	-1705
1004.907	-1128
1004.982	-1915
1005.057	-621
1005.133	-2343
1005.208	-1531
1005.283	-2436
1005.358	-105
1005.433	-2393
1005.508	-1541
1005.583	-2426
1005.657	-1216
1005.732	-1103
1005.807	-1628
1005.882	-1497
1005.957	-945
1006.032	-1259
1006.106	-1272
1006.181	-2314
1006.256	-1275
1006.331	-1521
1006.405	-1086
1006.480	-2572
1006.554	-2251
1006.629	-1481
1006.704	-2045
1006.778	-1736
1006.853	-3
1006.927	-2428
1007.002	-1489
1007.076	-1285
1007.150	-1472
1007.225	-2110
1007.299	-1316
1007.373	-2033
1007.448	-1501
1007.522	-1110
1007.596	-1551
1007.671	-2020
1007.745	-1134
1007.819	-2332
1007.893	-1381
1007.967	-932
1008.041	-1857
1008.115	-746
1008.190	-1117
1008.264	-1372
1008.338	-2260
1008.412	-2354
1008.486	-1521
1008.560	-1602
1008.633	-1502
1008.707	-1931
1008.781	-973
1008.855	-2112
1008.929	-1320
1009.003	-2084
1009.076	-1920
1009.150	-3035
1009.224	-1181
1009.298	-1438
1009.371	-2025
1009.445	-1098
1009.519	-1204
1009.592	-2829
1009.666	-1806
1009.739	-1484
1009.813	-3212
1009.886	-1144
1009.960	-1971
1010.033	-1726
1010.107	-1008
1010.180	-2551
1010.253	-1323
1010.327	-2901
1010.400	-1454
1010.473	-2185
1010.547	-254
1010.620	-1886
1010.693	-937
1010.766	-2292
1010.840	-1288
1010.913	-1205
1010.986	-2605
1011.059	-2070
1011.132	-2941
1011.205	-1815
1011.278	-2085
1011.351	-2149
1011.424	-906
1011.497	-1891
1011.570	-1834
1011.643	-2245
1011.716	-1915
1011.789	-2257
1011.862	-2116
1011.934	-1604
1012.007	-2632
1012.080	-2291
1012.153	-1000
1012.225	-2103
1012.298	-2873
1012.371	-1717
1012.443	-1379
1012.516	-2663
1012.588	-1506
1012.661	-1861
1012.733	-2815
1012.806	-2199
1012.879	-2446
1012.951	-1963
1013.023	-1736
1013.096	-2531
1013.168	-1626
1013.241	-1656
1013.313	-1635
1013.385	-3088
1013.458	-1438
1013.530	-1390
1013.602	-2630
1013.674	-1658
1013.746	-2483
1013.819	-2046
1013.891	-1663
1013.963	-2630
1014.035	-2019
1014.107	-2357
1014.179	-1466
1014.251	-2167
1014.323	-1617
1014.395	-2302
1014.467	-1786
1014.539	-1971
1014.611	-1406
1014.683	-2112
1014.754	-2070
1014.826	-3259
1014.898	-1591
1014.970	-3117
1015.042	-2215
1015.113	-1506
1015.185	-1793
1015.257	-2459
1015.328	-2462
1015.400	-2463
1015.471	-2244
1015.543	-2578
1015.615	-1308
1015.686	-2097
1015.757	-2439
1015.829	-1729
1015.901	-1563
1015.972	-2579
1016.043	-2262
1016.115	-1459
1016.186	-995
1016.257	-1935
1016.328	-2298
1016.400	-2500
1016.471	-2378
1016.542	-2342
1016.613	-2267
1016.685	-2500
1016.756	-825
1016.827	-2443
1016.898	-2233
1016.969	-2175
1017.040	-2334
1017.111	-2129
1017.182	-2462
1017.253	-2276
1017.324	-2226
1017.395	-2544
1017.466	-2085
1017.537	-2579
1017.608	-1818
1017.678	-2795
1017.749	-1609
1017.820	-2738
1017.891	-2370
1017.961	-2388
1018.032	-1718
1018.103	-2235
1018.173	-1750
1018.244	-2319
1018.315	-2272
1018.385	-2815
1018.456	-2198
1018.526	-3187
1018.597	-1848
1018.667	-2587
1018.738	-2186
1018.808	-2685
1018.878	-2108
1018.949	-2119
1019.019	-1598
1019.089	-2584
1019.160	-1861
1019.230	-3093
1019.300	-1009
1019.371	-3093
1019.441	-1662
1019.511	-2650
1019.581	-2585
1019.651	-1428
1019.721	-2147
1019.791	-2438
1019.861	-1960
1019.931	-2960
1020.001	-1846
1020.071	-2054
1020.141	-1502
1020.211	-2574
1020.281	-2086
1020.351	-2976
1020.421	-2080
1020.491	-2228
1020.560	-2644
1020.630	-1701
1020.700	-2395
1020.770	-2894
1020.839	-2568
1020.909	-3695
1020.979	-2356
1021.048	-2716
1021.118	-1877
1021.187	-3101
1021.257	-2374
1021.326	-2482
1021.396	-2861
1021.465	-2140
1021.535	-2259
1021.604	-3321
1021.674	-1877
1021.743	-3773
1021.812	-2155
1021.882	-3115
1021.951	-1849
1022.020	-3095
1022.089	-2041
1022.159	-2374
1022.228	-2478
1022.297	-3259
1022.366	-2392
1022.435	-2165
1022.504	-2079
1022.573	-2663
1022.642	-1927
1022.711	-3014
1022.781	-2469
1022.849	-2572
1022.918	-2641
1022.987	-2725
1023.056	-2530
1023.125	-2889
1023.194	-2290
1023.263	-3099
1023.331	-2211
1023.400	-3115
1023.469	-2333
1023.538	-3055
1023.606	-2641
1023.675	-2750
1023.744	-2660
1023.812	-2937
1023.881	-2757
1023.949	-2856
1024.018	-2309
1024.086	-2702
1024.155	-2415
1024.223	-3126
1024.292	-2421
1024.360	-2092
1024.429	-2696
1024.497	-2593
1024.565	-2559
1024.634	-2703
1024.702	-2284
1024.770	-2702
1024.838	-1939
1024.907	-3264
1024.975	-2469
1025.043	-3123
1025.111	-2983
1025.179	-2784
1025.247	-2100
1025.315	-3019
1025.383	-2908
1025.451	-2659
1025.519	-2495
1025.587	-2918
1025.655	-1516
1025.723	-2930
1025.791	-2404
1025.859	-3746
1025.927	-2043
1025.995	-3167
1026.062	-2656
1026.130	-3350
1026.198	-2476
1026.266	-3500
1026.333	-2087
1026.401	-2829
1026.469	-3210
1026.536	-2597
1026.604	-2322
1026.671	-3618
1026.739	-2486
1026.806	-2863
1026.874	-3175
1026.941	-2310
1027.009	-3263
1027.076	-3167
1027.144	-1862
1027.211	-3898
1027.278	-2315
1027.345	-2861
1027.413	-1816
1027.480	-2900
1027.547	-2309
1027.614	-3376
1027.682	-2304
1027.749	-2715
1027.816	-2398
1027.883	-2908
1027.950	-2189
1028.017	-3607
1028.084	-3046
1028.151	-4057
1028.218	-2114
1028.285	-2736
1028.352	-2122
1028.419	-3001
1028.486	-2705
1028.553	-2823
1028.619	-1903
1028.686	-3164
1028.753	-2965
1028.820	-3344
1028.886	-2937
1028.953	-3166
1029.020	-3077
1029.086	-3829
1029.153	-3305
1029.220	-3113
1029.286	-2821
1029.353	-3189
1029.419	-3661
1029.486	-3232
1029.552	-2893
1029.619	-3301
1029.685	-2946
1029.751	-3221
1029.818	-2278
1029.884	-3322
1029.951	-1806
1030.017	-3464
1030.083	-2405
1030.149	-3020
1030.216	-3181
1030.282	-3630
1030.348	-2348
1030.414	-3006
1030.480	-2204
1030.546	-2813
1030.612	-2530
1030.678	-3687
1030.744	-2527
1030.810	-3035
1030.876	-2191
1030.942	-2926
1031.008	-2807
1031.074	-3439
1031.140	-2925
1031.206	-3047
1031.272	-2764
1031.337	-3189
1031.403	-2056
1031.469	-2797
1031.534	-2712
1031.600	-2329
1031.666	-3516
1031.731	-3514
1031.797	-3035
1031.863	-3164
1031.928	-3819
1031.994	-2606
1032.059	-2485
1032.125	-4088
1032.190	-2287
1032.256	-4004
1032.321	-3699
1032.386	-3320
1032.452	-2459
1032.517	-2725
1032.582	-3038
1032.647	-3117
1032.713	-3346
1032.778	-4061
1032.843	-2692
1032.908	-3274
1032.974	-2408
1033.039	-3276
1033.104	-3168
1033.169	-3807
1033.234	-2721
1033.299	-3511
1033.364	-2504
1033.429	-2702
1033.494	-2782
1033.559	-3360
1033.624	-3052
1033.688	-3292
1033.753	-3578
1033.818	-3396
1033.883	-2652
1033.948	-2301
1034.013	-2177
1034.077	-3093
1034.142	-1746
1034.207	-2022
1034.271	-804
1034.336	-771
1034.400	-1654
1034.465	-2317
1034.530	-2767
1034.594	-3168
1034.658	-2460
1034.723	-3692
1034.787	-3834
1034.852	-2840
1034.916	-3116
1034.981	-3427
1035.045	-2699
1035.109	-3855
1035.173	-2573
1035.238	-3631
1035.302	-2131
1035.366	-3034
1035.430	-3100
1035.495	-2934
1035.559	-2254
1035.623	-2900
1035.687	-2984
1035.751	-2132
1035.815	-3255
1035.879	-3130
1035.943	-2487
1036.007	-3021
1036.071	-2424
1036.135	-2672
1036.198	-2467
1036.262	-3205
1036.326	-2321
1036.390	-3128
1036.454	-2562
1036.517	-3214
1036.581	-2517
1036.645	-1667
1036.709	-1791
1036.772	-3202
1036.836	-2318
1036.900	-3394
1036.963	-3115
1037.026	-3507
1037.090	-2525
1037.154	-2887
1037.217	-2198
1037.280	-2631
1037.344	-2008
1037.407	-3097
1037.471	-3449
1037.534	-3324
1037.597	-2727
1037.661	-2686
1037.724	-3146
1037.787	-4338
1037.850	-2722
1037.913	-2918
1037.977	-2114
1038.040	-3238
1038.103	-2298
1038.166	-3472
1038.229	-2418
1038.292	-2958
1038.355	-2588
1038.418	-3028
1038.481	-2354
1038.544	-3239
1038.607	-3164
1038.670	-3193
1038.732	-2156
1038.795	-3956
1038.858	-2441
1038.921	-2773
1038.984	-2503
1039.046	-2832
1039.109	-2975
1039.172	-3132
1039.234	-2887
1039.297	-2643
1039.360	-2329
1039.422	-2985
1039.485	-2479
1039.547	-2993
1039.610	-2603
1039.672	-3089
1039.734	-2823
1039.797	-2587
1039.859	-2441
1039.922	-3068
1039.984	-3045
1040.046	-2952
1040.109	-2238
1040.171	-3073
1040.233	-2169
1040.295	-2390
1040.358	-2104
1040.420	-2716
1040.482	-2271
1040.544	-3802
1040.606	-2772
1040.668	-2281
1040.730	-2132
1040.792	-2719
1040.854	-3001
1040.916	-2909
1040.978	-2357
1041.040	-2561
1041.102	-2015
1041.164	-3265
1041.225	-2387
1041.287	-3126
1041.349	-2297
1041.411	-2664
1041.472	-2691
1041.534	-3119
1041.596	-2568
1041.657	-2943
1041.719	-1838
1041.781	-2978
1041.842	-3290
1041.904	-3359
1041.965	-2415
1042.027	-2607
1042.088	-2663
1042.150	-2738
1042.211	-2515
1042.272	-3256
1042.334	-1687
1042.395	-2597
1042.456	-3067
1042.518	-2999
1042.579	-1899
1042.640	-2612
1042.701	-1925
1042.763	-2970
1042.824	-2776
1042.885	-3351
1042.946	-2409
1043.007	-2105
1043.068	-2328
1043.129	-2271
1043.190	-2600
1043.251	-1092
1043.312	-2882
1043.373	-2872
1043.434	-2153
1043.495	-2498
1043.556	-2063
1043.616	-2466
1043.677	-2620
1043.738	-2555
1043.799	-3372
1043.859	-2653
1043.920	-2707
1043.981	-2612
1044.041	-2171
1044.102	-2470
1044.162	-1347
1044.223	-2811
1044.284	-2038
1044.344	-3096
1044.405	-1834
1044.465	-3009
1044.525	-1996
1044.586	-2321
1044.646	-1964
1044.707	-2227
1044.767	-1890
1044.827	-2881
1044.887	-1672
1044.948	-2612
1045.008	-2515
1045.068	-2189
1045.128	-2409
1045.188	-1462
1045.249	-1585
1045.309	-2971
1045.369	-2447
1045.429	-2216
1045.489	-2278
1045.549	-2211
1045.609	-1535
1045.669	-2360
1045.729	-2386
1045.789	-3002
1045.848	-1625
1045.908	-2512
1045.968	-1820
1046.028	-2514
1046.088	-1692
1046.147	-2242
1046.207	-1890
1046.267	-1931
1046.326	-605
1046.386	-1468
1046.446	-1092
1046.505	-2056
1046.565	-939
1046.624	-1285
1046.684	-1786
1046.743	-1058
1046.803	-328
1046.862	-1517
1046.922	0
