'Start Wavelength	183.907
'End Wavelength	1046.922
'Gate Delay	5.000
'Gate Width (ms)	1.050
'Laser Output Level	0.000
'X Position	0.000
'Y Position	0.000
'Z Position	0.000
'Grid Point Number	1.000
'Shot Number	100.000
183.907	590.000
183.977	333.000
184.047	-62
184.116	115
184.186	68
184.256	603
184.325	-356
184.395	58
184.465	669
184.534	43
184.604	-159
184.674	245
184.743	-156
184.813	-177
184.883	-331
184.952	-135
185.022	139
185.092	537
185.161	307
185.231	-71
185.301	194
185.370	218
185.440	-164
185.509	333
185.579	-24
185.649	-321
185.718	-67
185.788	667
185.857	37
185.927	-232
185.996	512
186.066	-109
186.136	-27
186.205	398
186.275	451
186.344	136
186.414	-66
186.483	17
186.553	100
186.622	-360
186.692	-282
186.761	42
186.831	133
186.900	-271
186.970	243
187.039	-127
187.109	-124
187.178	83
187.248	806
187.317	-223
187.387	-274
187.456	633
187.526	631
187.595	282
187.664	49
187.734	-576
187.803	338
187.873	-249
187.942	118
188.012	102
188.081	-542
188.150	-12
188.220	-75
188.289	-16
188.358	-555
188.428	343
188.497	273
188.567	248
188.636	111
188.705	126
188.775	465
188.844	731
188.913	-1
188.983	-611
189.052	1076
189.121	-114
189.191	500
189.260	63
189.329	202
189.399	542
189.468	748
189.537	146
189.606	775
189.676	-652
189.745	411
189.814	14
189.883	-31
189.953	-70
190.022	-139
190.091	19
190.161	416
190.230	-7
190.299	-173
190.368	144
190.437	261
190.507	406
190.576	233
190.645	-223
190.714	389
190.783	-487
190.853	200
190.922	434
190.991	145
191.060	256
191.129	-33
191.198	-240
191.268	-631
191.337	-229
191.406	-35
191.475	-187
191.544	-257
191.613	-740
191.682	-200
191.752	-292
191.821	402
191.890	-958
191.959	-128
192.028	-543
192.097	449
192.166	-306
192.235	-537
192.304	-452
192.373	331
192.442	419
192.511	382
192.580	170
192.650	357
192.719	189
192.788	23
192.857	546
192.926	-103
192.995	-12
193.064	230
193.133	-173
193.202	547
193.271	-441
193.340	614
193.409	-194
193.478	388
193.547	-277
193.615	691
193.684	-82
193.753	-656
193.822	465
193.891	79
193.960	-122
194.029	-292
194.098	67
194.167	258
194.236	301
194.305	111
194.374	-525
194.443	362
194.512	153
194.580	124
194.649	364
194.718	79
194.787	123
194.856	-151
194.925	153
194.994	-147
195.062	-95
195.131	205
195.200	-74
195.269	239
195.338	154
195.407	-69
195.475	-402
195.544	609
195.613	-664
195.682	386
195.751	-11
195.819	82
195.888	-97
195.957	463
196.026	500
196.094	211
196.163	538
196.232	1182
196.301	157
196.369	493
196.438	194
196.507	-110
196.576	-92
196.644	428
196.713	317
196.782	14
196.850	183
196.919	-29
196.988	235
197.056	57
197.125	-581
197.194	-70
197.262	432
197.331	-360
197.400	-377
197.468	678
197.537	70
197.606	678
197.674	-249
197.743	-40
197.812	32
197.880	575
197.949	-630
198.017	313
198.086	-647
198.155	546
198.223	569
198.292	178
198.360	-503
198.429	338
198.497	-295
198.566	1022
198.635	588
198.703	483
198.772	461
198.840	809
198.909	-731
198.977	364
199.046	818
199.114	-173
199.183	571
199.251	498
199.320	66
199.388	-310
199.457	-98
199.525	251
199.594	158
199.662	102
199.731	34
199.799	511
199.867	331
199.936	489
200.004	-293
200.073	-139
200.141	-388
200.210	-162
200.278	59
200.346	361
200.415	788
200.483	-379
200.552	-181
200.620	-382
200.688	-903
200.757	248
200.825	-563
200.893	239
200.962	-60
201.030	45
201.098	-334
201.167	196
201.235	301
201.303	351
201.372	-385
201.440	699
201.508	-198
201.577	244
201.645	-243
201.713	675
201.781	344
201.850	553
201.918	-128
201.986	168
202.055	250
202.123	-814
202.191	264
202.259	-167
202.327	399
202.396	-320
202.464	-316
202.532	94
202.600	337
202.669	52
202.737	-114
202.805	205
202.873	-81
202.941	514
203.009	-17
203.078	191
203.146	-4
203.214	-381
203.282	-470
203.350	-428
203.418	-193
203.487	-292
203.555	-357
203.623	344
203.691	-366
203.759	27
203.827	-321
203.895	118
203.963	439
204.031	19
204.099	-175
204.168	98
204.236	398
204.304	-62
204.372	-357
204.440	156
204.508	142
204.576	166
204.644	180
204.712	-444
204.780	-463
204.848	786
204.916	-172
204.984	-20
205.052	365
205.120	489
205.188	-286
205.256	776
205.324	-427
205.392	-698
205.460	-324
205.528	336
205.596	-907
205.664	-193
205.732	-547
205.799	967
205.867	593
205.935	436
206.003	-298
206.071	287
206.139	-162
206.207	48
206.275	-71
206.343	576
206.411	-634
206.478	767
206.546	-235
206.614	-375
206.682	-342
206.750	-397
206.818	-124
206.885	-68
206.953	-766
207.021	-303
207.089	419
207.157	-137
207.225	-55
207.292	152
207.360	-378
207.428	-257
207.496	247
207.563	666
207.631	-82
207.699	-316
207.767	174
207.834	318
207.902	624
207.970	-160
208.038	-467
208.105	175
208.173	-79
208.241	-488
208.309	-101
208.376	-138
208.444	-445
208.512	-101
208.579	-613
208.647	145
208.715	456
208.782	251
208.850	169
208.918	-2
208.985	-267
209.053	266
209.120	-353
209.188	-285
209.256	-764
209.323	-112
209.391	-490
209.459	548
209.526	-295
209.594	245
209.661	37
209.729	357
209.796	-1062
209.864	-95
209.932	-867
209.999	818
210.067	-103
210.134	332
210.202	-23
210.269	-338
210.337	-90
210.404	126
210.472	-238
210.539	-137
210.607	-583
210.674	220
210.742	-86
210.809	293
210.877	175
210.944	430
211.012	-397
211.079	187
211.146	-281
211.214	1008
211.281	-17
211.349	214
211.416	96
211.484	394
211.551	-192
211.618	-85
211.686	345
211.753	-141
211.821	412
211.888	321
211.955	358
212.023	-547
212.090	555
212.157	162
212.225	-241
212.292	282
212.359	763
212.427	1462
212.494	434
212.561	806
212.629	245
212.696	-15
212.763	124
212.831	563
212.898	568
212.965	463
213.032	410
213.100	241
213.167	-97
213.234	63
213.301	171
213.369	-662
213.436	-201
213.503	625
213.570	280
213.638	60
213.705	-946
213.772	-321
213.839	-109
213.906	175
213.973	-76
214.041	63
214.108	-157
214.175	527
214.242	234
214.309	408
214.376	573
214.444	-167
214.511	-113
214.578	395
214.645	-26
214.712	129
214.779	218
214.846	-401
214.913	-84
214.980	248
215.048	42
215.115	-285
215.182	-287
215.249	1147
215.316	393
215.383	853
215.450	83
215.517	-592
215.584	70
215.651	307
215.718	283
215.785	373
215.852	22
215.919	-343
215.986	211
216.053	-476
216.120	-677
216.187	-28
216.254	981
216.321	-61
216.388	41
216.455	96
216.522	317
216.589	-243
216.656	331
216.722	973
216.789	408
216.856	96
216.923	478
216.990	587
217.057	-47
217.124	456
217.191	87
217.258	379
217.324	701
217.391	534
217.458	100
217.525	-148
217.592	208
217.659	71
217.725	283
217.792	230
217.859	583
217.926	3
217.993	-224
218.059	994
218.126	7
218.193	458
218.260	-253
218.327	-107
218.393	363
218.460	-611
218.527	-629
218.594	740
218.660	120
218.727	-122
218.794	-301
218.860	851
218.927	-37
218.994	151
219.061	-268
219.127	-127
219.194	685
219.261	90
219.327	-288
219.394	684
219.461	250
219.527	109
219.594	-56
219.661	-220
219.727	-513
219.794	-212
219.860	45
219.927	-892
219.994	-376
220.060	29
220.127	91
220.193	117
220.260	275
220.326	943
220.393	725
220.460	1100
220.526	471
220.593	644
220.659	808
220.726	348
220.792	903
220.859	525
220.925	1124
220.992	2071
221.058	1072
221.125	1088
221.191	276
221.258	-82
221.324	-91
221.391	-31
221.457	438
221.524	930
221.590	685
221.657	557
221.723	512
221.789	652
221.856	222
221.922	739
221.989	464
222.055	221
222.121	-286
222.188	1147
222.254	-315
222.321	187
222.387	-448
222.453	482
222.520	35
222.586	512
222.652	779
222.719	416
222.785	199
222.851	-91
222.918	-442
222.984	253
223.050	368
223.116	-399
223.183	228
223.249	-383
223.315	-611
223.382	705
223.448	360
223.514	-41
223.580	-249
223.647	123
223.713	882
223.779	619
223.845	-1197
223.911	-357
223.978	348
224.044	-360
224.110	549
224.176	135
224.242	-117
224.309	-344
224.375	198
224.441	-172
224.507	441
224.573	-369
224.639	465
224.705	-585
224.772	84
224.838	267
224.904	441
224.970	-300
225.036	-108
225.102	223
225.168	-699
225.234	734
225.300	-272
225.366	-7
225.432	573
225.499	295
225.565	-106
225.631	-123
225.697	23
225.763	329
225.829	27
225.895	715
225.961	317
226.027	479
226.093	393
226.159	166
226.225	963
226.291	2136
226.357	1954
226.423	1010
226.489	167
226.554	680
226.620	489
226.686	1226
226.752	585
226.818	2592
226.884	2721
226.950	2037
227.016	983
227.082	582
227.148	776
227.214	429
227.279	-58
227.345	252
227.411	-396
227.477	302
227.543	-432
227.609	249
227.674	110
227.740	-521
227.806	-74
227.872	273
227.938	269
228.003	848
228.069	219
228.135	729
228.201	-471
228.267	-569
228.332	437
228.398	-66
228.464	357
228.530	-169
228.595	605
228.661	-94
228.727	810
228.792	-74
228.858	25
228.924	-430
228.990	190
229.055	-257
229.121	168
229.187	-255
229.252	-301
229.318	-159
229.384	-366
229.449	-636
229.515	-784
229.581	-846
229.646	645
229.712	588
229.777	-76
229.843	657
229.909	278
229.974	684
230.040	-37
230.105	-135
230.171	269
230.236	-137
230.302	495
230.368	138
230.433	-176
230.499	258
230.564	66
230.630	-427
230.695	270
230.761	659
230.826	-901
230.892	907
230.957	-35
231.023	236
231.088	-83
231.154	-16
231.219	216
231.284	-124
231.350	-18
231.415	-342
231.481	52
231.546	131
231.612	-219
231.677	80
231.742	-370
231.808	195
231.873	197
231.939	-519
232.004	720
232.069	377
232.135	10
232.200	-125
232.265	-580
232.331	721
232.396	-564
232.461	-323
232.527	-538
232.592	-451
232.657	460
232.723	-415
232.788	-26
232.853	310
232.918	440
232.984	-687
233.049	-817
233.114	-484
233.179	45
233.245	406
233.310	-481
233.375	-399
233.440	1027
233.506	648
233.571	-329
233.636	-19
233.701	-101
233.766	507
233.832	-121
233.897	-665
233.962	-473
234.027	299
234.092	-283
234.157	-7
234.222	-35
234.288	192
234.353	947
234.418	1041
234.483	1217
234.548	894
234.613	122
234.678	-403
234.743	117
234.808	2212
234.873	181
234.938	361
235.004	430
235.069	376
235.134	-611
235.199	384
235.264	1132
235.329	152
235.394	334
235.459	540
235.524	-82
235.589	-76
235.654	374
235.719	-235
235.784	270
235.849	472
235.913	1029
235.978	675
236.043	-153
236.108	632
236.173	53
236.238	264
236.303	262
236.368	-92
236.433	732
236.498	655
236.563	1106
236.627	1962
236.692	4242
236.757	2971
236.822	1622
236.887	804
236.952	1404
237.017	1220
237.081	430
237.146	1029
237.211	2410
237.276	4528
237.341	4470
237.405	2837
237.470	1703
237.535	1159
237.600	1132
237.664	941
237.729	132
237.794	301
237.859	898
237.923	927
237.988	736
238.053	1246
238.118	843
238.182	1969
238.247	1164
238.312	580
238.376	683
238.441	-924
238.506	1176
238.570	-223
238.635	832
238.700	692
238.764	537
238.829	193
238.893	937
238.958	565
239.023	-263
239.087	754
239.152	599
239.216	433
239.281	-341
239.346	583
239.410	81
239.475	-68
239.539	1866
239.604	133
239.668	930
239.733	-95
239.797	-86
239.862	700
239.926	322
239.991	166
240.055	454
240.120	48
240.184	626
240.249	129
240.313	-697
240.378	-402
240.442	938
240.507	989
240.571	56
240.635	204
240.700	467
240.764	374
240.829	158
240.893	-547
240.957	755
241.022	832
241.086	1360
241.151	-421
241.215	-461
241.279	742
241.344	327
241.408	1666
241.472	-52
241.537	790
241.601	754
241.665	643
241.730	51
241.794	556
241.858	473
241.922	214
241.987	414
242.051	430
242.115	-446
242.179	-116
242.244	-326
242.308	704
242.372	675
242.436	472
242.501	371
242.565	-124
242.629	19
242.693	556
242.757	-554
242.822	183
242.886	-112
242.950	879
243.014	-86
243.078	-125
243.142	263
243.206	562
243.271	732
243.335	185
243.399	682
243.463	2133
243.527	3916
243.591	368
243.655	480
243.719	48
243.783	907
243.847	516
243.911	767
243.975	1359
244.040	-199
244.104	905
244.168	88
244.232	1284
244.296	286
244.360	1269
244.424	45
244.488	947
244.552	452
244.615	-834
244.679	267
244.743	592
244.807	-704
244.871	399
244.935	-427
244.999	-638
245.063	23
245.127	918
245.191	261
245.255	132
245.319	319
245.383	514
245.446	1571
245.510	250
245.574	475
245.638	651
245.702	-699
245.766	1365
245.829	347
245.893	43
245.957	161
246.021	277
246.085	312
246.149	406
246.212	1530
246.276	1118
246.340	857
246.404	344
246.467	702
246.531	23
246.595	603
246.659	581
246.722	-429
246.786	909
246.850	1003
246.913	733
246.977	675
247.041	36
247.104	509
247.168	974
247.232	1250
247.295	2272
247.359	876
247.423	290
247.486	721
247.550	629
247.614	141
247.677	928
247.741	1055
247.804	620
247.868	972
247.932	330
247.995	2139
248.059	615
248.122	-656
248.186	1464
248.249	1434
248.313	3480
248.376	3226
248.440	1893
248.503	-104
248.567	1909
248.630	942
248.694	1279
248.757	2704
248.821	3786
248.884	3211
248.948	2047
249.011	3339
249.075	3763
249.138	3016
249.202	1999
249.265	638
249.328	1673
249.392	693
249.455	1065
249.519	534
249.582	1325
249.645	1429
249.709	826
249.772	990
249.835	1699
249.899	286
249.962	903
250.025	-31
250.089	1803
250.152	2531
250.215	1522
250.279	500
250.342	1101
250.405	1347
250.468	1134
250.532	1517
250.595	2458
250.658	5285
250.721	6903
250.785	2600
250.848	3083
250.911	919
250.974	1406
251.038	1778
251.101	2894
251.164	1997
251.227	2280
251.290	1798
251.354	2503
251.417	7754
251.480	5153
251.543	5758
251.606	13645
251.669	7289
251.732	3862
251.795	4391
251.859	4230
251.922	8022
251.985	4689
252.048	2341
252.111	1822
252.174	1154
252.237	3242
252.300	5194
252.363	6882
252.426	9077
252.489	3075
252.552	2039
252.615	2300
252.678	2708
252.741	3838
252.804	4680
252.867	10013
252.930	5327
252.993	2641
253.056	2590
253.119	1460
253.182	976
253.245	2325
253.308	1902
253.371	304
253.434	581
253.497	1764
253.559	2321
253.622	1223
253.685	1774
253.748	930
253.811	1345
253.874	1367
253.937	869
254.000	1735
254.062	1109
254.125	2355
254.188	2954
254.251	1837
254.314	963
254.376	829
254.439	1087
254.502	1721
254.565	2237
254.628	2499
254.690	1244
254.753	818
254.816	406
254.878	1126
254.941	1789
255.004	1720
255.067	322
255.129	861
255.192	192
255.255	-83
255.317	43
255.380	140
255.443	228
255.505	108
255.568	-483
255.631	300
255.693	444
255.756	-653
255.819	712
255.881	678
255.944	664
256.006	368
256.069	-51
256.132	-263
256.194	781
256.257	1400
256.319	379
256.382	22
256.444	1098
256.507	1148
256.569	88
256.632	969
256.694	386
256.757	4006
256.819	7795
256.882	2623
256.944	1703
257.007	1568
257.069	480
257.132	1020
257.194	784
257.257	706
257.319	-205
257.381	228
257.444	2759
257.506	9399
257.569	8269
257.631	3017
257.693	2408
257.756	571
257.818	428
257.880	-75
257.943	696
258.005	-263
258.067	-312
258.130	430
258.192	694
258.254	755
258.317	-27
258.379	1249
258.441	443
258.503	1931
258.566	1384
258.628	1554
258.690	-415
258.753	644
258.815	1163
258.877	702
258.939	367
259.001	298
259.064	479
259.126	414
259.188	197
259.250	483
259.312	593
259.375	879
259.437	-175
259.499	380
259.561	315
259.623	881
259.685	-419
259.747	177
259.809	1430
259.872	2120
259.934	3885
259.996	3329
260.058	1092
260.120	528
260.182	923
260.244	117
260.306	365
260.368	491
260.430	-895
260.492	533
260.554	1295
260.616	302
260.678	1163
260.740	1274
260.802	-438
260.864	401
260.926	-780
260.988	888
261.050	383
261.112	1782
261.174	3191
261.236	2011
261.298	-4
261.359	475
261.421	996
261.483	-141
261.545	78
261.607	-887
261.669	531
261.731	1268
261.793	1426
261.854	-504
261.916	426
261.978	1425
262.040	-92
262.102	225
262.164	-108
262.225	-20
262.287	368
262.349	280
262.411	146
262.472	530
262.534	231
262.596	80
262.658	656
262.719	-558
262.781	27
262.843	1169
262.904	501
262.966	1221
263.028	440
263.090	2838
263.151	5991
263.213	2307
263.275	714
263.336	411
263.398	384
263.459	-867
263.521	-51
263.583	530
263.644	-343
263.706	-278
263.767	-730
263.829	406
263.891	-95
263.952	-78
264.014	-428
264.075	1363
264.137	1679
264.198	797
264.260	-1133
264.321	-366
264.383	1239
264.444	3279
264.506	488
264.567	949
264.629	1756
264.690	2326
264.752	-95
264.813	659
264.875	-762
264.936	600
264.998	-206
265.059	155
265.120	-270
265.182	547
265.243	5303
265.305	3278
265.366	502
265.427	544
265.489	671
265.550	-681
265.611	-236
265.673	-387
265.734	-196
265.795	492
265.857	-138
265.918	-58
265.979	2069
266.040	7468
266.102	4648
266.163	1961
266.224	678
266.286	815
266.347	-1131
266.408	617
266.469	-92
266.530	-33
266.592	160
266.653	786
266.714	593
266.775	705
266.836	-671
266.898	-739
266.959	-324
267.020	32
267.081	-185
267.142	-344
267.203	-277
267.264	-604
267.326	659
267.387	376
267.448	-424
267.509	-254
267.570	742
267.631	-253
267.692	-922
267.753	-487
267.814	-1121
267.875	468
267.936	1005
267.997	564
268.058	346
268.119	-429
268.180	-135
268.241	-626
268.302	181
268.363	-479
268.424	-694
268.485	-252
268.546	-479
268.607	-29
268.668	-597
268.729	-121
268.790	-658
268.851	137
268.912	872
268.972	829
269.033	-562
269.094	-955
269.155	-176
269.216	-56
269.277	-578
269.338	-245
269.398	228
269.459	-614
269.520	827
269.581	170
269.642	948
269.702	18
269.763	-292
269.824	-625
269.885	-114
269.945	639
270.006	219
270.067	-338
270.128	-1197
270.188	-844
270.249	-565
270.310	53
270.370	145
270.431	-365
270.492	-991
270.553	100
270.613	133
270.674	1855
270.734	-1024
270.795	-62
270.856	226
270.916	-714
270.977	-620
271.038	199
271.098	-68
271.159	755
271.219	790
271.280	143
271.340	-350
271.401	-720
271.462	-52
271.522	587
271.583	-547
271.643	-50
271.704	-757
271.764	-292
271.825	1328
271.885	4507
271.946	3998
272.006	1620
272.066	2186
272.127	2761
272.187	739
272.248	-758
272.308	100
272.369	2073
272.429	298
272.489	1569
272.550	555
272.610	1449
272.671	167
272.731	422
272.791	287
272.852	-415
272.912	225
272.972	-144
273.033	738
273.093	-345
273.153	310
273.214	-226
273.274	-472
273.334	2300
273.394	3373
273.455	885
273.515	1777
273.575	2802
273.635	637
273.696	1990
273.756	2454
273.816	1081
273.876	340
273.936	2011
273.997	2670
274.057	-25
274.117	138
274.177	1284
274.237	5529
274.297	2675
274.358	2159
274.418	2942
274.478	1564
274.538	-154
274.598	-657
274.658	2950
274.718	2585
274.778	993
274.838	541
274.898	789
274.958	3284
275.018	3763
275.078	1810
275.138	644
275.198	-2
275.258	-185
275.318	1065
275.378	393
275.438	755
275.498	678
275.558	1348
275.618	3425
275.678	1999
275.738	1623
275.798	689
275.858	-289
275.918	-161
275.978	-64
276.038	251
276.098	502
276.157	605
276.217	3032
276.277	187
276.337	56
276.397	213
276.457	556
276.517	-235
276.576	765
276.636	53
276.696	-43
276.756	2142
276.815	525
276.875	25
276.935	342
276.995	429
277.055	-71
277.114	-590
277.174	442
277.234	2092
277.293	129
277.353	138
277.413	483
277.472	-341
277.532	-497
277.592	291
277.651	655
277.711	1681
277.771	107
277.830	3999
277.890	2690
277.950	2253
278.009	5850
278.069	1641
278.128	2798
278.188	2696
278.248	866
278.307	2598
278.367	2188
278.426	134
278.486	-133
278.545	-421
278.605	221
278.664	544
278.724	287
278.783	1710
278.843	4391
278.902	856
278.962	222
279.021	1148
279.081	1080
279.140	988
279.199	1563
279.259	1944
279.318	529
279.378	1803
279.437	3071
279.496	8084
279.556	22779
279.615	13842
279.675	4966
279.734	3026
279.793	4209
279.853	5317
279.912	1667
279.971	771
280.031	948
280.090	1647
280.149	3037
280.208	3737
280.268	15440
280.327	12301
280.386	3222
280.445	1896
280.505	1765
280.564	540
280.623	819
280.682	1652
280.742	2259
280.801	35
280.860	376
280.919	-155
280.978	218
281.037	-97
281.097	-463
281.156	253
281.215	-415
281.274	290
281.333	2783
281.392	1220
281.451	-246
281.510	-795
281.569	-309
281.628	-462
281.688	221
281.747	350
281.806	0
281.865	-748
281.924	165
281.983	-475
282.042	-497
282.101	-244
282.160	436
282.219	-652
282.278	441
282.337	1605
282.396	-126
282.454	11
282.513	256
282.572	2363
282.631	986
282.690	-11
282.749	-796
282.808	446
282.867	-487
282.926	186
282.985	154
283.043	-235
283.102	-124
283.161	599
283.220	1893
283.279	2985
283.338	299
283.396	-43
283.455	723
283.514	-377
283.573	741
283.631	-503
283.690	702
283.749	370
283.808	669
283.866	1851
283.925	-313
283.984	161
284.043	27
284.101	434
284.160	-456
284.219	1392
284.277	762
284.336	482
284.395	4344
284.453	2203
284.512	752
284.570	895
284.629	904
284.688	816
284.746	518
284.805	1152
284.863	1562
284.922	2014
284.981	2471
285.039	3727
285.098	8110
285.156	17531
285.215	28613
285.273	27624
285.332	15926
285.390	9209
285.449	5613
285.507	3457
285.566	1962
285.624	1896
285.683	1600
285.741	1343
285.799	752
285.858	217
285.916	647
285.975	250
286.033	253
286.091	440
286.150	-532
286.208	-278
286.267	553
286.325	-163
286.383	652
286.442	218
286.500	-438
286.558	-152
286.616	145
286.675	884
286.733	-247
286.791	-239
286.850	333
286.908	-83
286.966	937
287.024	-61
287.083	-230
287.141	-535
287.199	488
287.257	460
287.315	-542
287.374	-351
287.432	1610
287.490	17
287.548	435
287.606	-65
287.664	288
287.723	185
287.781	679
287.839	124
287.897	165
287.955	508
288.013	539
288.071	5156
288.129	20039
288.187	43238
288.245	19454
288.303	5790
288.361	3799
288.419	2318
288.477	1199
288.535	774
288.593	-147
288.651	141
288.709	-542
288.767	305
288.825	-500
288.883	-69
288.941	-913
288.999	-172
289.057	-294
289.115	-430
289.173	-278
289.231	-7
289.289	281
289.346	-485
289.404	-53
289.462	335
289.520	512
289.578	-907
289.636	-821
289.694	-808
289.751	-281
289.809	101
289.867	-141
289.925	486
289.983	312
290.040	-208
290.098	-181
290.156	-211
290.214	356
290.271	-668
290.329	77
290.387	-631
290.444	-126
290.502	-869
290.560	-73
290.617	-549
290.675	-400
290.733	-292
290.790	-143
290.848	-1008
290.906	-250
290.963	-626
291.021	-172
291.078	-452
291.136	-197
291.194	1589
291.251	3105
291.309	-17
291.366	-1113
291.424	-55
291.481	-140
291.539	-1015
291.596	-414
291.654	-555
291.711	-972
291.769	-314
291.826	82
291.884	-135
291.941	17
291.999	-441
292.056	-152
292.114	-282
292.171	-140
292.228	-763
292.286	-194
292.343	704
292.401	1089
292.458	329
292.515	-395
292.573	302
292.630	482
292.687	360
292.745	-835
292.802	322
292.859	2273
292.917	4293
292.974	2403
293.031	-366
293.089	-543
293.146	-27
293.203	-277
293.260	-677
293.318	403
293.375	203
293.432	-391
293.489	-341
293.546	-240
293.604	318
293.661	2818
293.718	6775
293.775	3395
293.832	915
293.889	-67
293.947	159
294.004	101
294.061	84
294.118	2067
294.175	5086
294.232	5755
294.289	2327
294.346	1298
294.403	1470
294.460	709
294.517	132
294.574	734
294.631	238
294.688	296
294.745	2568
294.802	9235
294.859	10191
294.916	4067
294.973	1805
295.030	1391
295.087	667
295.144	514
295.201	-256
295.258	-82
295.315	481
295.372	3504
295.429	5333
295.486	2707
295.542	998
295.599	4620
295.656	8167
295.713	5022
295.770	6094
295.827	2364
295.883	135
295.940	1120
295.997	1084
296.054	551
296.111	221
296.167	617
296.224	-288
296.281	178
296.338	122
296.394	113
296.451	109
296.508	3105
296.564	5183
296.621	4078
296.678	7951
296.734	10416
296.791	3952
296.848	2111
296.904	1700
296.961	4278
297.018	7086
297.074	4619
297.131	1785
297.187	1476
297.244	1792
297.301	7418
297.357	11829
297.414	4455
297.470	917
297.527	847
297.583	155
297.640	943
297.696	345
297.753	901
297.809	-162
297.866	95
297.922	-20
297.979	-233
298.035	358
298.092	1842
298.148	3858
298.204	3266
298.261	1583
298.317	3855
298.374	8633
298.430	5130
298.486	2827
298.543	1693
298.599	1069
298.656	1911
298.712	3011
298.768	7866
298.824	5110
298.881	1692
298.937	312
298.993	650
299.050	399
299.106	904
299.162	715
299.218	537
299.275	105
299.331	1030
299.387	2057
299.443	7300
299.500	7101
299.556	2879
299.612	1049
299.668	269
299.724	340
299.780	1516
299.837	805
299.893	2172
299.949	6322
300.005	7089
300.061	6651
300.117	11053
300.173	5060
300.229	2574
300.285	2551
300.341	2406
300.397	503
300.453	476
300.510	655
300.566	-113
300.622	534
300.678	2017
300.734	4847
300.790	6120
300.845	7511
300.901	5224
300.957	5975
301.013	4491
301.069	822
301.125	800
301.181	490
301.237	1066
301.293	-485
301.349	795
301.405	-359
301.461	519
301.516	832
301.572	324
301.628	1595
301.684	1767
301.740	2703
301.796	4806
301.851	4034
301.907	5008
301.963	6130
302.019	9648
302.074	23072
302.130	23691
302.186	12227
302.242	3968
302.297	2476
302.353	2747
302.409	5037
302.464	4906
302.520	4217
302.576	8911
302.631	9647
302.687	5762
302.743	2247
302.798	1517
302.854	1198
302.910	1101
302.965	1397
303.021	3481
303.076	3195
303.132	3127
303.187	3672
303.243	2434
303.299	1642
303.354	933
303.410	411
303.465	580
303.521	1337
303.576	1354
303.632	1537
303.687	3720
303.743	7906
303.798	7348
303.853	2501
303.909	1369
303.964	1552
304.020	1988
304.075	2286
304.130	3096
304.186	5190
304.241	6203
304.297	4518
304.352	1828
304.358	1747
304.407	1086
304.449	797
304.463	700
304.518	1557
304.539	1694
304.573	1910
304.629	890
304.630	934
304.684	2892
304.720	5013
304.739	6104
304.794	9505
304.811	8244
304.850	5054
304.902	1888
304.905	1687
304.960	1126
304.992	1512
305.015	1832
305.071	1513
305.083	1502
305.126	1407
305.173	523
305.181	380
305.236	449
305.264	467
305.292	539
305.347	1664
305.354	1651
305.402	1492
305.445	1411
305.457	1391
305.512	2012
305.535	1905
305.567	1663
305.622	2022
305.626	2073
305.678	3724
305.716	7582
305.733	9018
305.788	10644
305.807	9591
305.843	7457
305.897	8486
305.898	8496
305.953	8823
305.988	6563
306.008	5317
306.063	2502
306.078	2408
306.118	2283
306.168	926
306.173	811
306.228	1418
306.259	1326
306.283	1246
306.338	418
306.349	516
306.393	1081
306.440	1230
306.448	1213
306.503	1414
306.530	1556
306.558	2263
306.613	5206
306.620	5599
306.668	8026
306.711	9961
306.723	10086
306.778	8443
306.801	6971
306.833	5068
306.888	2584
306.892	2448
306.943	1630
306.982	1834
306.997	1913
307.052	1135
307.072	1311
307.107	1748
307.162	2368
307.163	2370
307.217	3178
307.253	4102
307.272	4311
307.327	5203
307.343	4794
307.381	3777
307.434	3193
307.436	3264
307.491	5795
307.524	8764
307.546	10026
307.600	10408
307.614	9781
307.655	6562
307.704	3705
307.710	3601
307.765	3652
307.795	4158
307.819	5153
307.874	9010
307.885	9254
307.929	8231
307.975	6836
307.984	7001
308.038	9031
308.065	11332
308.093	17281
308.148	32913
308.156	36184
308.202	57297
308.246	71174
308.257	69441
308.312	44685
308.336	34086
308.366	25948
308.421	15759
308.426	14813
308.475	9763
308.517	6982
308.530	6593
308.585	5684
308.607	5262
308.639	4984
308.694	5101
308.697	5149
308.748	8166
308.787	10934
308.803	11096
308.857	9972
308.877	9171
308.912	8104
308.967	7207
308.967	7197
309.021	9550
309.058	11798
309.076	14577
309.130	24741
309.148	28892
309.185	45831
309.238	74056
309.239	74436
309.293	87677
309.328	87860
309.348	78556
309.402	46668
309.418	38449
309.457	27636
309.508	15802
309.511	15506
309.566	12448
309.598	10972
309.620	11274
309.674	12532
309.688	12876
309.729	12412
309.778	11197
309.783	11002
309.837	8686
309.868	7597
309.892	8807
309.946	11961
309.959	12976
310.001	18308
310.049	23764
310.055	23042
310.109	14409
310.139	9533
310.163	7644
310.218	4070
310.229	3516
310.272	3192
310.319	2827
310.326	2803
310.381	2498
310.409	2494
310.435	2523
310.489	2451
310.499	2432
310.543	2499
310.589	2634
310.598	2695
310.652	3006
310.679	3170
310.706	3027
310.760	2632
310.769	2578
310.814	2305
310.859	2041
310.868	2085
310.923	2215
310.948	2230
310.977	2370
311.031	2841
311.038	2898
311.085	2646
311.128	2160
311.139	2130
311.193	2279
311.218	2240
311.247	2380
311.301	2649
311.308	2680
311.356	2273
311.398	1840
311.410	1924
311.464	2277
311.488	2450
311.518	2141
311.572	1567
311.578	1501
311.626	2724
311.668	3768
311.680	3720
311.734	3413
311.758	3283
311.788	3362
311.842	3482
311.847	3487
311.896	4352
311.937	5088
311.950	5157
312.004	5390
312.027	5481
312.058	4632
312.112	3079
312.117	2918
312.165	3064
312.207	3180
312.297	3639
312.386	4238
312.476	2912
312.566	4708
312.656	2883
312.745	2216
312.835	2480
312.925	2966
313.015	2818
313.104	2637
313.194	2529
313.284	2453
313.374	2560
313.463	2940
313.553	2237
313.643	1722
313.732	2031
313.822	2236
313.912	2426
314.001	2329
314.091	3270
314.180	4931
314.270	3853
314.360	3683
314.449	2871
314.539	2774
314.628	2524
314.718	2205
314.808	2887
314.897	2350
314.987	1985
315.076	2408
315.166	3358
315.255	2980
315.345	2972
315.434	3066
315.524	2671
315.613	2723
315.703	3156
315.792	4020
315.881	3179
315.971	3243
316.060	5391
316.150	6800
316.239	7727
316.328	4282
316.418	2331
316.507	1852
316.597	3002
316.686	2841
316.775	3144
316.865	7937
316.954	2465
317.043	1800
317.133	2047
317.222	1878
317.311	2011
317.400	1463
317.490	3126
317.579	2952
317.668	2511
317.757	2336
317.847	3539
317.936	4754
318.025	6604
318.114	4470
318.203	3339
318.293	5146
318.382	12510
318.471	9746
318.560	12981
318.649	25765
318.738	8357
318.828	3742
318.917	4007
319.006	4581
319.095	9051
319.184	27618
319.273	18650
319.362	9761
319.451	3507
319.540	2318
319.629	5349
319.718	11267
319.807	5642
319.896	7768
319.985	33083
320.074	16862
320.163	3964
320.252	5361
320.341	5177
320.430	5774
320.519	5356
320.608	4622
320.697	3144
320.786	2806
320.875	3209
320.964	4237
321.053	7182
321.142	8612
321.230	11364
321.319	7487
321.408	17724
321.497	9971
321.586	6933
321.675	7831
321.764	8883
321.852	6270
321.941	9791
322.030	8639
322.119	6121
322.207	17451
322.296	13176
322.385	7225
322.474	6436
322.562	18770
322.651	13611
322.740	6083
322.829	10442
322.917	9482
323.006	6341
323.095	5412
323.183	4396
323.272	6438
323.361	9215
323.449	25636
323.538	11509
323.626	17188
323.715	14485
323.804	5010
323.892	14921
323.981	13833
324.069	4014
324.158	7477
324.246	10958
324.335	4387
324.424	7292
324.512	3261
324.601	3507
324.689	3954
324.778	5589
324.866	7624
324.954	2543
325.043	3095
325.131	3917
325.220	7816
325.308	9014
325.397	6363
325.485	5296
325.574	1964
325.662	1720
325.750	2304
325.839	1950
325.927	1489
326.015	2243
326.104	2707
326.192	4798
326.280	2406
326.369	1948
326.457	3000
326.545	5423
326.634	2475
326.722	1873
326.810	1614
326.898	2076
326.987	2737
327.075	4236
327.163	5440
327.251	2732
327.340	2481
327.428	3311
327.516	1157
327.604	1650
327.692	1767
327.781	2095
327.869	3290
327.957	2372
328.045	2870
328.133	1490
328.221	2020
328.309	1650
328.397	1601
328.485	2856
328.574	3328
328.662	10026
328.750	7106
328.838	2930
328.926	2245
329.014	1899
329.102	3367
329.190	7924
329.278	7854
329.366	1492
329.454	1236
329.542	2348
329.630	1507
329.718	2879
329.806	3199
329.893	3380
329.981	4146
330.069	8603
330.157	25281
330.245	59447
330.333	45506
330.421	11457
330.509	6115
330.597	12830
330.684	11589
330.772	4323
330.860	6350
330.948	8010
331.036	4320
331.123	1230
331.211	2428
331.299	2364
331.387	5593
331.475	12127
331.562	3620
331.650	1370
331.738	2722
331.825	3056
331.913	1342
332.001	801
332.089	2044
332.176	4374
332.264	8000
332.352	9287
332.439	2943
332.527	2667
332.614	2097
332.702	1903
332.790	1957
332.877	3214
332.965	8258
333.052	2933
333.140	1789
333.228	4813
333.315	2718
333.403	1672
333.490	5345
333.578	4986
333.665	4924
333.753	3797
333.840	1927
333.928	1962
334.015	5891
334.103	9873
334.190	31600
334.278	12580
334.365	3384
334.452	1742
334.540	2069
334.627	2133
334.715	3249
334.802	4824
334.889	23596
334.977	31283
335.064	4142
335.151	2120
335.239	2114
335.326	3796
335.413	13351
335.501	26415
335.588	4573
335.675	2057
335.762	3182
335.850	6745
335.937	3611
336.024	6227
336.111	30303
336.199	17838
336.286	2812
336.373	1507
336.460	1712
336.547	1142
336.635	2288
336.722	2786
336.809	1886
336.896	2569
336.983	10769
337.070	26935
337.157	37298
337.245	21227
337.332	18010
337.419	3198
337.506	1844
337.593	2831
337.680	7522
337.767	31341
337.854	9495
337.941	9094
338.028	8115
338.115	3418
338.202	4842
338.289	6271
338.376	19597
338.463	9847
338.550	13934
338.637	22163
338.724	4231
338.811	7586
338.898	2308
338.984	1480
339.071	2114
339.158	2487
339.245	5978
339.332	5061
339.419	4600
339.506	5532
339.593	1535
339.679	1582
339.766	2293
339.853	2217
339.940	5459
340.027	2124
340.113	2431
340.200	2787
340.287	2342
340.374	1866
340.460	4180
340.547	2151
340.634	2773
340.720	10545
340.807	9564
340.894	1636
340.980	1581
341.067	1488
341.154	2327
341.240	2006
341.327	7086
341.414	2467
341.500	2925
341.587	2003
341.674	1168
341.760	4105
341.847	5790
341.933	3276
342.020	729
342.106	833
342.193	1573
342.279	3494
342.366	2648
342.452	4858
342.539	2250
342.625	4620
342.712	13186
342.798	7042
342.885	2989
342.971	527
343.058	406
343.144	1132
343.230	1713
343.317	1505
343.403	808
343.490	680
343.576	1034
343.662	1013
343.749	1580
343.835	1967
343.921	3841
344.008	16078
344.094	45642
344.180	13906
344.267	4214
344.353	10892
344.439	15893
344.525	7399
344.612	6981
344.698	8165
344.784	5354
344.870	1722
344.957	1543
345.043	2848
345.129	2275
345.215	4274
345.301	2635
345.387	1470
345.474	706
345.560	1082
345.646	1573
345.732	1462
345.818	1855
345.904	1995
345.990	2062
346.076	1688
346.162	3021
346.249	2067
346.335	1016
346.421	1254
346.507	3912
346.593	16343
346.679	6196
346.765	1234
346.851	1411
346.937	1219
347.023	2084
347.108	478
347.194	1730
347.280	1702
347.366	1459
347.452	3948
347.538	18798
347.624	16859
347.710	15278
347.796	2745
347.882	1187
347.967	1326
348.053	3029
348.139	1668
348.225	1523
348.311	978
348.397	1520
348.482	1800
348.568	2293
348.654	639
348.740	1275
348.825	842
348.911	1893
348.997	7146
349.083	21126
349.168	5331
349.254	1624
349.340	2003
349.425	1285
349.511	1879
349.597	2473
349.682	3588
349.768	12829
349.854	8713
349.939	2649
350.025	944
350.110	1666
350.196	1132
350.282	1073
350.367	658
350.453	1874
350.538	2296
350.624	2034
350.709	2094
350.795	895
350.880	1090
350.966	1385
351.051	2011
351.137	1889
351.222	848
351.308	3805
351.393	13798
351.479	4641
351.564	2156
351.649	1307
351.735	847
351.820	546
351.906	1334
351.991	984
352.076	6624
352.162	14386
352.247	3273
352.332	1805
352.418	3858
352.503	4537
352.588	16839
352.673	18860
352.759	4021
352.844	2414
352.929	2109
353.014	2748
353.100	1756
353.185	2147
353.270	3744
353.355	5838
353.441	2588
353.526	1902
353.611	4187
353.696	5811
353.781	3386
353.866	1210
353.952	1217
354.037	4515
354.122	9466
354.207	9598
354.292	4217
354.377	1585
354.462	2097
354.547	2155
354.632	2325
354.717	3344
354.802	1910
354.887	2272
354.972	1051
355.057	1379
355.142	1505
355.227	2151
355.312	2840
355.397	6219
355.482	14836
355.567	9814
355.652	5313
355.737	6576
355.822	13213
355.907	16312
355.991	2843
356.076	1458
356.161	2039
356.246	1374
356.331	1230
356.416	3545
356.501	18467
356.585	27228
356.670	5172
356.755	3468
356.840	4032
356.924	12096
357.009	52642
357.094	29265
357.179	6162
357.263	4469
357.348	4596
357.433	4845
357.517	3771
357.602	3433
357.687	2794
357.771	3434
357.856	14896
357.941	11546
358.025	11210
358.110	50508
358.195	34741
358.279	7033
358.364	4264
358.448	9491
358.533	31034
358.617	25776
358.702	23445
358.787	11723
358.871	5909
358.956	5020
359.040	1665
359.125	1664
359.209	2554
359.294	6250
359.378	14677
359.462	5412
359.547	2734
359.631	1930
359.716	1514
359.800	1813
359.885	3209
359.969	2215
360.053	2808
360.138	2884
360.222	2457
360.306	4493
360.391	4928
360.475	6503
360.559	19443
360.644	13308
360.728	10166
360.812	9814
360.896	34677
360.981	19578
361.065	11951
361.149	3444
361.233	3382
361.318	2043
361.402	2223
361.486	2906
361.570	1617
361.654	3218
361.739	5338
361.823	18574
361.907	37546
361.991	10100
362.075	3399
362.159	8532
362.243	7517
362.327	4219
362.411	4553
362.495	2605
362.580	2374
362.664	1726
362.748	1768
362.832	2081
362.916	1748
363.000	6106
363.084	16613
363.168	40579
363.252	13748
363.336	4743
363.420	5079
363.503	20436
363.587	33723
363.671	7008
363.755	3235
363.839	5951
363.923	2686
364.007	3897
364.091	5766
364.175	5463
364.258	34668
364.342	24035
364.426	8770
364.510	5732
364.594	5632
364.677	6722
364.761	26243
364.845	26617
364.929	8979
365.013	8860
365.096	5873
365.180	7851
365.264	7423
365.347	36281
365.431	21915
365.515	6102
365.598	2726
365.682	2963
365.766	4247
365.849	8113
365.933	3154
366.017	4130
366.100	4370
366.184	904
366.267	1450
366.351	2179
366.435	1010
366.518	1355
366.602	1138
366.685	1446
366.769	1660
366.852	3752
366.936	8207
367.019	3773
367.103	2224
367.186	8315
367.270	2751
367.353	766
367.436	2198
367.520	1521
367.603	2530
367.687	2700
367.770	5510
367.853	3358
367.937	7184
368.020	17159
368.104	4969
368.187	3092
368.270	7009
368.353	6294
368.437	5816
368.520	13047
368.603	10606
368.687	9691
368.770	23618
368.853	7940
368.936	5931
369.020	8621
369.103	2381
369.186	1407
369.269	1942
369.352	3721
369.436	5751
369.519	3917
369.602	1496
369.685	2651
369.768	2205
369.851	2250
369.934	886
370.018	1827
370.101	4325
370.184	4790
370.267	2863
370.350	4309
370.433	7579
370.516	12974
370.599	20736
370.682	6453
370.765	13055
370.848	15574
370.931	25676
371.014	13805
371.097	3676
371.180	2795
371.263	747
371.346	1276
371.429	2302
371.511	1685
371.594	3187
371.677	5897
371.760	9028
371.843	6179
371.926	17036
372.009	49429
372.091	22917
372.174	10099
372.257	22872
372.340	12592
372.423	8622
372.505	13755
372.588	5678
372.671	7287
372.754	23448
372.836	17107
372.919	9707
373.002	27354
373.085	9925
373.167	5285
373.250	10672
373.332	22879
373.415	27858
373.498	63120
373.580	31072
373.663	23743
373.746	43504
373.828	13942
373.911	6217
373.993	5646
374.076	19536
374.159	26892
374.241	7386
374.324	21034
374.406	18789
374.489	13560
374.571	49272
374.654	28274
374.736	9365
374.819	28109
374.901	40167
374.983	50563
375.066	13245
375.148	4669
375.231	13898
375.313	39767
375.395	18342
375.478	4374
375.560	2013
375.643	2167
375.725	6525
375.807	33271
375.890	35269
375.972	15154
376.054	8119
376.136	10773
376.219	6184
376.301	7627
376.383	31889
376.465	16288
376.548	7874
376.630	9116
376.712	25994
376.794	17261
376.877	2393
376.959	1027
377.041	1706
377.123	4553
377.205	8520
377.287	2645
377.369	1413
377.452	1286
377.534	1346
377.616	1539
377.698	733
377.780	1272
377.862	2063
377.944	1555
378.026	-79
378.108	923
378.190	1177
378.272	905
378.354	492
378.436	738
378.518	1573
378.600	10360
378.682	9742
378.764	14130
378.846	15566
378.928	3687
379.010	5596
379.091	3920
379.173	1745
379.255	1379
379.337	1976
379.419	5235
379.501	22550
379.583	12313
379.664	1829
379.746	5289
379.828	14678
379.910	22205
379.991	21835
380.073	4057
380.155	2420
380.237	1234
380.318	897
380.400	1045
380.482	2697
380.564	5794
380.645	4841
380.727	4986
380.809	3687
380.890	2335
380.972	1575
381.053	1478
381.135	1825
381.217	4491
381.298	17308
381.380	10498
381.461	6063
381.543	22592
381.624	40246
381.706	10033
381.787	4363
381.869	4762
381.951	8082
382.032	41824
382.113	37325
382.195	8632
382.276	5120
382.358	6884
382.439	23469
382.521	26278
382.602	42762
382.684	22135
382.765	33142
382.846	38620
382.928	40503
383.009	26097
383.090	15461
383.172	48540
383.253	90739
383.334	38425
383.416	37403
383.497	24695
383.578	9508
383.659	14765
383.741	41296
383.822	122888
383.903	79850
383.984	27517
384.066	48749
384.147	39178
384.228	8574
384.309	4915
384.390	3425
384.471	2961
384.553	3155
384.634	4179
384.715	5099
384.796	2798
384.877	2862
384.958	11558
385.039	20247
385.120	7969
385.201	3134
385.282	3405
385.363	5170
385.444	3523
385.525	5528
385.606	17551
385.687	20994
385.768	5440
385.849	5980
385.930	19009
386.011	42804
386.092	16189
386.173	3808
386.254	2254
386.335	2899
386.416	3065
386.496	8255
386.577	19476
386.658	8376
386.739	3926
386.820	3432
386.901	3254
386.981	2389
387.062	1657
387.143	1226
387.224	12922
387.304	18374
387.385	6292
387.466	3234
387.547	5249
387.627	3536
387.708	3348
387.789	22683
387.869	35124
387.950	11622
388.031	2985
388.111	1417
388.192	6502
388.273	10170
388.353	6514
388.434	2718
388.514	3470
388.595	18779
388.676	33935
388.756	20276
388.837	15822
388.917	13181
388.998	2198
389.078	2150
389.159	1289
389.239	813
389.320	3224
389.400	2059
389.480	4443
389.561	15519
389.641	10861
389.722	2549
389.802	5065
389.883	6106
389.963	16987
390.043	14490
390.124	4758
390.204	4759
390.284	17987
390.365	14768
390.445	12952
390.525	32445
390.605	30142
390.686	13903
390.766	4331
390.846	1467
390.927	927
391.007	1396
391.087	2373
391.167	1799
391.247	1557
391.328	2566
391.408	5317
391.488	5091
391.568	1429
391.648	1752
391.728	4177
391.808	3296
391.888	4019
391.969	6649
392.049	15950
392.129	9591
392.209	5342
392.289	16977
392.369	11571
392.449	11634
392.529	8039
392.609	4244
392.689	3819
392.769	14190
392.849	16851
392.929	9205
393.009	24836
393.089	18380
393.169	5547
393.248	9465
393.328	61846
393.408	98118
393.488	24767
393.568	5106
393.648	3298
393.728	1769
393.807	1889
393.887	3405
393.967	2852
394.047	4180
394.127	5579
394.206	10083
394.286	25347
394.366	109524
394.446	161384
394.525	58864
394.605	15564
394.685	8815
394.764	15539
394.844	27418
394.924	23559
395.003	6794
395.083	4363
395.163	2976
395.242	2735
395.322	3575
395.402	2049
395.481	3521
395.561	7170
395.640	29328
395.720	21476
395.799	28622
395.879	32373
395.958	17912
396.038	43132
396.117	144208
396.197	200336
396.276	94776
396.356	32397
396.435	20154
396.515	11236
396.594	7205
396.673	7965
396.753	15306
396.832	68142
396.912	75412
396.991	24682
397.070	6143
397.150	2626
397.229	2521
397.308	2104
397.388	2356
397.467	2114
397.546	293
397.625	-332
397.705	3583
397.784	3117
397.863	1644
397.942	935
398.022	1855
398.101	4580
398.180	27605
398.259	19219
398.338	4513
398.417	2156
398.497	1101
398.576	1614
398.655	954
398.734	799
398.813	1562
398.892	4687
398.971	26784
399.050	18870
399.129	1743
399.208	26
399.287	904
399.366	-35
399.445	1536
399.524	957
399.603	349
399.682	1455
399.761	4755
399.840	25301
399.919	28723
399.998	4915
400.077	1098
400.156	402
400.235	1973
400.313	1054
400.392	1053
400.471	6019
400.550	16491
400.629	5116
400.708	2658
400.786	1167
400.865	5763
400.944	8649
401.023	4303
401.102	445
401.180	177
401.259	688
401.338	335
401.416	1156
401.495	861
401.574	1753
401.652	667
401.731	1405
401.810	672
401.888	612
401.967	-643
402.046	669
402.124	1662
402.203	2095
402.281	2140
402.360	902
402.438	8134
402.517	7675
402.596	1830
402.674	1126
402.753	491
402.831	1125
402.910	727
402.988	2664
403.066	12775
403.145	10798
403.223	3510
403.302	10813
403.380	9748
403.459	7727
403.537	4124
403.615	1868
403.694	-81
403.772	694
403.850	-7
403.929	299
404.007	-46
404.085	1673
404.164	1732
404.242	1698
404.320	6837
404.398	26053
404.477	33741
404.555	37260
404.633	42476
404.711	25652
404.789	20269
404.868	4548
404.946	1637
405.024	749
405.102	399
405.180	620
405.258	-570
405.336	1153
405.415	581
405.493	2627
405.571	2416
405.649	-415
405.727	-99
405.805	1391
405.883	1388
405.961	957
406.039	2203
406.117	846
406.195	692
406.273	4766
406.351	28056
406.429	26046
406.507	4256
406.585	1449
406.663	972
406.740	1717
406.818	1772
406.896	766
406.974	936
407.052	491
407.130	12800
407.208	30728
407.285	8366
407.363	1327
407.441	1169
407.519	368
407.596	952
407.674	1793
407.752	5557
407.830	9741
407.907	5382
407.985	1578
408.063	959
408.141	-945
408.218	1739
408.296	1848
408.373	683
408.451	724
408.529	592
408.606	-35
408.684	-98
408.762	414
408.839	-169
408.917	-665
408.994	400
409.072	28
409.149	-136
409.227	355
409.304	650
409.382	-79
409.459	102
409.537	132
409.614	290
409.692	154
409.769	-31
409.846	492
409.924	1340
410.001	504
410.079	1011
410.156	982
410.233	1039
410.311	907
410.388	39
410.465	437
410.543	-77
410.620	598
410.697	413
410.775	506
410.852	-1076
410.929	628
411.006	1421
411.083	-104
411.161	2270
411.238	4663
411.315	2474
411.392	283
411.469	1194
411.547	1659
411.624	271
411.701	322
411.778	-146
411.855	1583
411.932	1318
412.009	-97
412.086	280
412.163	767
412.240	897
412.317	2026
412.394	1901
412.471	342
412.548	471
412.625	408
412.702	324
412.779	2533
412.856	1367
412.933	-33
413.010	539
413.087	528
413.164	5886
413.241	14610
413.318	3223
413.395	1269
413.471	2110
413.548	1301
413.625	429
413.702	-84
413.779	882
413.855	-252
413.932	-759
414.009	-377
414.086	409
414.162	462
414.239	1202
414.316	5038
414.393	18499
414.469	9317
414.546	308
414.623	92
414.699	45
414.776	786
414.853	-158
414.929	674
415.006	-244
415.082	760
415.159	387
415.236	569
415.312	329
415.389	845
415.465	1548
415.542	546
415.618	-354
415.695	1384
415.771	-74
415.848	-254
415.924	588
416.000	450
416.077	-374
416.153	-650
416.230	-1715
416.306	-178
416.383	-381
416.459	929
416.535	-287
416.612	-72
416.688	-325
416.764	207
416.841	-940
416.917	440
416.993	64
417.069	627
417.146	500
417.222	3786
417.298	1812
417.374	163
417.451	979
417.527	-55
417.603	205
417.679	407
417.755	-25
417.831	-229
417.908	20
417.984	-223
418.060	-780
418.136	1547
418.212	2294
418.288	720
418.364	623
418.440	-323
418.516	1141
418.592	1700
418.668	3316
418.744	4766
418.820	4529
418.896	725
418.972	-1274
419.048	524
419.124	2456
419.200	1632
419.276	-537
419.352	-881
419.428	85
419.504	-1125
419.579	528
419.655	-329
419.731	-428
419.807	1428
419.883	4410
419.959	4855
420.034	1179
420.110	1078
420.186	9792
420.262	12868
420.337	2010
420.413	44
420.489	-412
420.565	856
420.640	-293
420.716	312
420.792	-458
420.867	209
420.943	-432
421.019	1236
421.094	454
421.170	753
421.245	-260
421.321	709
421.397	-364
421.472	965
421.548	1624
421.623	3122
421.699	968
421.774	61
421.850	-786
421.925	1102
422.001	929
422.076	157
422.152	95
422.227	1423
422.302	1906
422.378	1403
422.453	2933
422.529	7683
422.604	30857
422.679	93815
422.755	71136
422.830	18574
422.905	4935
422.981	2392
423.056	692
423.131	1594
423.207	522
423.282	767
423.357	2586
423.432	1976
423.508	945
423.583	3533
423.658	4799
423.733	356
423.808	112
423.883	1371
423.959	818
424.034	-87
424.109	1047
424.184	-36
424.259	367
424.334	139
424.409	-264
424.484	-368
424.559	55
424.634	-47
424.709	-205
424.784	1100
424.859	-365
424.934	612
425.009	5579
425.084	13949
425.159	6889
425.234	1648
425.309	-276
425.384	2704
425.459	8972
425.534	3545
425.609	229
425.683	-164
425.758	-243
425.833	433
425.908	1191
425.983	1877
426.058	12905
426.132	9506
426.207	1157
426.282	2110
426.357	1742
426.431	138
426.506	-51
426.581	-230
426.655	198
426.730	-179
426.805	-772
426.879	532
426.954	56
427.029	606
427.103	7013
427.178	27322
427.253	20468
427.327	3153
427.402	1475
427.476	8591
427.551	6926
427.625	765
427.700	895
427.774	-722
427.849	1229
427.923	-70
427.998	-381
428.072	14
428.147	1242
428.221	3357
428.296	11881
428.370	7933
428.444	707
428.519	939
428.593	5464
428.667	6197
428.742	5896
428.816	5611
428.890	8555
428.965	20371
429.039	10038
429.113	8328
429.188	3540
429.262	53
429.336	665
429.410	5827
429.485	5093
429.559	4344
429.633	5788
429.707	832
429.781	949
429.855	10923
429.930	23140
430.004	15702
430.078	28107
430.152	28733
430.226	16198
430.300	21237
430.374	4414
430.448	1412
430.522	5537
430.596	25244
430.670	21990
430.744	14190
430.818	35296
430.892	13108
430.966	1422
431.040	1122
431.114	-69
431.188	-1090
431.262	-530
431.336	-2
431.410	430
431.484	6914
431.557	7147
431.631	782
431.705	279
431.779	530
431.853	6297
431.927	7655
432.000	602
432.074	-387
432.148	1337
432.222	-69
432.295	-917
432.369	-672
432.443	-369
432.516	6699
432.590	28297
432.664	18731
432.737	2186
432.811	-299
432.885	-487
432.958	464
433.032	-417
433.106	-1131
433.179	-412
433.253	-135
433.326	-1028
433.400	-670
433.473	-630
433.547	-729
433.620	-423
433.694	-327
433.767	1231
433.841	-200
433.914	-287
433.988	-596
434.061	-409
434.134	-355
434.208	-772
434.281	-1077
434.355	-1186
434.428	-39
434.501	-711
434.575	-507
434.648	-1017
434.721	-405
434.795	-1357
434.868	-215
434.941	-836
435.014	-1187
435.088	-556
435.161	-560
435.234	216
435.307	1406
435.381	-177
435.454	-766
435.527	93
435.600	-664
435.673	-1002
435.746	-813
435.819	-735
435.892	-351
435.966	-192
436.039	-570
436.112	279
436.185	-608
436.258	-735
436.331	-767
436.404	-943
436.477	-709
436.550	-176
436.623	-841
436.696	-734
436.769	-291
436.842	-548
436.915	-303
436.987	-816
437.060	-295
437.133	-232
437.206	-668
437.279	-129
437.352	165
437.425	-1078
437.498	-818
437.570	924
437.643	2302
437.716	721
437.789	-669
437.861	102
437.934	4539
438.007	3556
438.080	129
438.152	246
438.225	1073
438.298	7076
438.370	38620
438.443	30232
438.516	8132
438.588	766
438.661	-890
438.734	484
438.806	-359
438.879	361
438.951	128
439.024	2435
439.096	542
439.169	-742
439.241	219
439.314	-1154
439.386	270
439.459	1009
439.531	1841
439.604	916
439.676	-664
439.749	-220
439.821	-472
439.893	-836
439.966	-1219
440.038	-98
440.110	463
440.183	-413
440.255	-567
440.327	-127
440.400	2966
440.472	22966
440.544	29261
440.617	4965
440.689	1460
440.761	1159
440.833	4025
440.905	3173
440.978	-183
441.050	-407
441.122	-32
441.194	-315
441.266	-374
441.338	-652
441.411	343
441.483	4853
441.555	16814
441.627	6227
441.699	1076
441.771	1717
441.843	388
441.915	-639
441.987	-1006
442.059	-252
442.131	-125
442.203	476
442.275	769
442.347	2135
442.419	-45
442.491	1046
442.563	6321
442.635	6213
442.706	6378
442.778	8887
442.850	2024
442.922	-1085
442.994	-39
443.066	966
443.137	435
443.209	-349
443.281	-162
443.353	578
443.425	3954
443.496	11538
443.568	16392
443.640	7133
443.711	1737
443.783	-1
443.855	-138
443.926	-301
443.998	-2
444.070	400
444.141	651
444.213	941
444.285	1747
444.356	145
444.428	1384
444.499	348
444.571	-213
444.642	-123
444.714	-735
444.785	607
444.857	1355
444.928	4122
445.000	5174
445.071	2299
445.143	4453
445.214	1346
445.285	1558
445.357	7812
445.428	12594
445.500	26615
445.571	25774
445.642	11143
445.714	5347
445.785	11758
445.856	4580
445.928	1319
445.999	1588
446.070	930
446.141	425
446.213	1714
446.284	514
446.355	771
446.426	817
446.497	-80
446.569	152
446.640	2643
446.711	2378
446.782	289
446.853	308
446.924	930
446.995	-117
447.066	246
447.138	1117
447.209	1468
447.280	427
447.351	-1007
447.422	-326
447.493	51
447.564	329
447.635	1351
447.706	723
447.777	-919
447.847	197
447.918	-501
447.989	984
448.060	1125
448.131	3004
448.202	3865
448.273	2357
448.344	1052
448.414	468
448.485	-233
448.556	239
448.627	-303
448.698	422
448.768	-930
448.839	-226
448.910	1671
448.981	2875
449.051	45
449.122	211
449.193	-274
449.263	-501
449.334	67
449.405	299
449.475	2337
449.546	2784
449.616	1771
449.687	3110
449.758	822
449.828	323
449.899	195
449.969	384
450.040	-135
450.110	114
450.181	842
450.251	28
450.322	502
450.392	-34
450.463	296
450.533	-572
450.604	106
450.674	21
450.744	44
450.815	-99
450.885	431
450.955	26
451.026	-773
451.096	-156
451.166	-91
451.237	944
451.307	6985
451.377	5001
451.447	454
451.518	-175
451.588	-217
451.658	-220
451.728	511
451.799	4260
451.869	11787
451.939	4289
452.009	725
452.079	269
452.149	-59
452.219	638
452.289	6753
452.360	9718
452.430	2721
452.500	649
452.570	957
452.640	1022
452.710	3042
452.780	8256
452.850	6530
452.920	5531
452.990	3203
453.060	683
453.129	637
453.199	2385
453.269	5341
453.339	26589
453.409	47884
453.479	31305
453.549	50328
453.619	59659
453.688	38627
453.758	7468
453.828	1419
453.898	822
453.968	670
454.037	167
454.087	592
454.107	756
454.168	379
454.177	310
454.247	-309
454.249	-268
454.316	486
454.330	395
454.386	-27
454.411	745
454.456	1807
454.492	5186
454.525	8087
454.574	5492
454.595	4430
454.655	1155
454.665	611
454.734	1410
454.736	1451
454.804	2103
454.817	2972
454.873	5858
454.898	8144
454.943	11944
454.979	8778
455.013	5990
455.060	2767
455.082	1493
455.141	2072
455.152	2156
455.221	4304
455.222	4473
455.291	13280
455.303	13469
455.360	13813
455.384	16601
455.430	19339
455.465	18650
455.499	18087
455.546	12343
455.569	9705
455.627	8096
455.638	7821
455.707	2446
455.708	2443
455.777	-290
455.789	17
455.846	1238
455.869	1008
455.916	667
455.950	790
455.985	821
456.031	570
456.054	426
456.112	653
456.124	671
456.193	-56
456.193	-73
456.262	1080
456.274	1242
456.332	1773
456.355	1822
456.401	1610
456.436	1480
456.470	1359
456.516	727
456.540	465
456.597	-122
456.609	-281
456.678	879
456.678	875
456.747	587
456.759	639
456.817	439
456.840	469
456.886	642
456.920	528
456.955	314
457.001	244
457.024	454
457.082	1303
457.093	1371
457.162	1865
457.163	1887
457.232	2090
457.243	2168
457.301	1768
457.324	1375
457.370	1238
457.405	1185
457.439	982
457.485	907
457.508	910
457.566	886
457.577	838
457.646	1610
457.647	1614
457.715	1546
457.727	1740
457.784	2138
457.808	1978
457.853	1912
457.889	2388
457.922	2494
457.969	2229
457.991	2252
458.050	2659
458.060	2701
458.129	2745
458.130	2769
458.198	2832
458.211	2797
458.267	2015
458.292	1437
458.336	1316
458.372	1651
458.405	1650
458.453	1422
458.474	1596
458.533	2615
458.543	2705
458.611	4483
458.614	4536
458.680	4057
458.694	3791
458.749	3069
458.775	2227
458.818	1257
458.855	1743
458.887	2010
458.936	1475
458.955	1303
459.016	1445
459.024	1495
459.093	2043
459.097	2054
459.162	2159
459.177	2333
459.230	2317
459.257	2104
459.299	2349
459.338	3021
459.368	3171
459.418	3298
459.437	3323
459.499	2638
459.505	2544
459.574	2157
459.579	2126
459.643	2288
459.659	2434
459.711	2472
459.740	2292
459.780	2300
459.820	2796
459.849	2944
459.900	2623
459.917	2580
459.981	2754
459.986	2739
460.054	2337
460.061	2372
460.123	2941
460.141	3041
460.191	3502
460.222	3539
460.260	3749
460.302	4425
460.328	4174
460.382	3574
460.397	3576
460.462	2866
460.465	2853
460.534	3950
460.543	3932
460.602	8095
460.623	9910
460.671	16110
460.703	21775
460.739	22113
460.783	22957
460.808	20426
460.864	7047
460.876	6187
460.944	3697
460.945	3651
461.013	3163
461.024	2956
461.081	3333
461.104	3782
461.150	3444
461.184	2869
461.218	2905
461.264	3063
461.286	2911
461.345	2421
461.355	2496
461.423	3489
461.425	3504
461.491	2769
461.505	2722
461.559	5023
461.585	6073
461.628	9345
461.665	12139
461.696	14293
461.745	19490
461.764	17230
461.825	8248
461.832	8261
461.901	4779
461.905	4713
461.969	3561
461.985	3427
462.037	3424
462.065	3273
462.105	3221
462.145	3266
462.173	4690
462.225	7638
462.241	8502
462.305	12428
462.310	12203
462.378	8983
462.385	8386
462.446	5351
462.465	4290
462.514	3430
462.545	3523
462.582	3561
462.625	3580
462.650	3658
462.705	3618
462.718	3538
462.785	3526
462.786	3561
462.854	5005
462.865	5309
462.922	6545
462.945	7195
462.990	6041
463.025	4656
463.058	4258
463.104	3727
463.126	3615
463.184	3367
463.194	3368
463.262	3443
463.264	3451
463.330	3690
463.344	3697
463.398	3746
463.424	3839
463.466	4632
463.504	5292
463.533	4906
463.583	4204
463.601	4474
463.663	5473
463.669	5578
463.737	6450
463.743	6549
463.805	8835
463.823	9595
463.873	13811
463.903	16265
463.940	18355
463.982	21245
464.008	17673
464.062	9260
464.076	8788
464.142	5074
464.144	5023
464.211	3780
464.221	3668
464.279	4297
464.301	4605
464.347	4817
464.381	4812
464.414	5254
464.461	6197
464.482	6602
464.540	7359
464.550	7249
464.617	6401
464.620	6358
464.685	5809
464.699	5722
464.753	7954
464.779	9084
464.820	9809
464.859	10464
464.888	10411
464.938	10161
464.956	9868
465.018	8683
465.023	8655
465.091	8314
465.098	8240
465.158	7539
465.177	7366
465.226	7980
465.257	8351
465.293	8157
465.336	7872
465.361	8470
465.416	9798
465.428	9970
465.495	10779
465.496	10839
465.563	17659
465.575	18828
465.631	24416
465.654	26970
465.698	19007
465.734	11957
465.765	10456
465.813	7732
465.833	7683
465.893	8057
465.900	7943
465.968	6880
465.972	6794
466.035	7624
466.052	7862
466.102	8333
466.131	8507
466.170	8449
466.210	8393
466.237	8528
466.290	8782
466.304	9063
466.369	10260
466.372	10272
466.439	10062
466.449	10011
466.506	10729
466.528	10979
466.573	12425
466.607	13471
466.641	18731
466.687	26044
466.708	29474
466.766	38851
466.775	36627
466.842	19556
466.845	18704
466.909	12974
466.925	11586
466.977	11739
467.004	11883
467.044	11738
467.083	11541
467.111	12499
467.163	14260
467.178	14647
467.242	16135
467.245	16126
467.312	15322
467.321	15190
467.379	13736
467.400	13166
467.446	13664
467.480	13984
467.559	13385
467.638	13198
467.717	11230
467.796	13109
467.875	12531
467.955	13588
468.034	15001
468.113	29539
468.192	47042
468.271	20186
468.350	10054
468.429	10503
468.508	10383
468.588	10362
468.667	10284
468.746	11590
468.825	10523
468.904	10949
468.983	10009
469.062	13742
469.141	17704
469.220	12008
469.299	9385
469.378	11100
469.456	12803
469.535	13660
469.614	10912
469.693	11726
469.772	13851
469.851	17084
469.930	14729
470.009	10765
470.088	9772
470.166	10803
470.245	11000
470.324	13680
470.403	11712
470.482	10967
470.560	9866
470.639	10549
470.718	11052
470.797	10295
470.875	9932
470.954	14297
471.033	15802
471.111	9250
471.190	8294
471.269	8653
471.347	8749
471.426	10337
471.505	9510
471.583	12366
471.662	10650
471.740	10748
471.819	10207
471.898	10524
471.976	9650
472.055	10620
472.133	10162
472.212	12621
472.290	12005
472.369	10753
472.447	8348
472.526	9923
472.604	8594
472.683	10045
472.761	10140
472.839	9574
472.918	9222
472.996	9507
473.075	10572
473.153	10661
473.231	9088
473.310	10483
473.388	9982
473.466	9484
473.545	10196
473.623	13386
473.701	12529
473.780	9419
473.858	9101
473.936	10343
474.014	9558
474.093	10317
474.171	12006
474.249	16814
474.327	13856
474.405	9849
474.484	8252
474.562	9630
474.640	8600
474.718	10437
474.796	9455
474.874	10001
474.952	8664
475.030	9343
475.108	8782
475.187	10632
475.265	9668
475.343	11420
475.421	10368
475.499	10415
475.577	9704
475.655	12032
475.733	16498
475.811	29872
475.889	27648
475.966	22682
476.044	9218
476.122	9429
476.200	9661
476.278	9830
476.356	7786
476.434	9519
476.512	8926
476.590	10683
476.667	9422
476.745	8412
476.823	8708
476.901	8210
476.979	7924
477.056	9330
477.134	8631
477.212	10707
477.290	9149
477.367	9144
477.445	7758
477.523	7956
477.601	7855
477.678	9378
477.756	8797
477.834	11321
477.911	8110
477.989	8944
478.066	8288
478.144	9230
478.222	8011
478.299	9223
478.377	9484
478.454	8330
478.532	7426
478.609	8224
478.687	8431
478.764	8168
478.842	8246
478.919	9255
478.997	8354
479.074	8241
479.152	8214
479.229	10963
479.307	8574
479.384	7756
479.461	7680
479.539	7852
479.616	8879
479.694	8485
479.771	7940
479.848	9032
479.926	10026
480.003	13385
480.080	8203
480.157	8341
480.235	7294
480.312	8124
480.389	7948
480.467	12460
480.544	14769
480.621	10116
480.698	8597
480.775	9041
480.853	9012
480.930	8457
481.007	7436
481.084	9052
481.161	9024
481.238	10088
481.315	7406
481.392	8267
481.470	8099
481.547	7775
481.624	8012
481.701	7881
481.778	7340
481.855	8633
481.932	10082
482.009	16581
482.086	14750
482.163	8186
482.240	7804
482.317	9932
482.393	10104
482.470	8882
482.547	7773
482.624	7718
482.701	7784
482.778	8446
482.855	6526
482.932	7880
483.009	6543
483.085	8219
483.162	7258
483.239	9093
483.316	6752
483.393	7516
483.469	6612
483.546	8981
483.623	8078
483.699	8343
483.776	8172
483.853	9156
483.930	10306
484.006	21104
484.083	41451
484.160	28214
484.236	39606
484.313	38358
484.389	27033
484.466	22703
484.543	21659
484.619	21750
484.696	21232
484.772	21547
484.849	23223
484.925	21596
485.002	20232
485.078	21596
485.155	21054
485.231	20173
485.308	19363
485.384	20013
485.461	21160
485.537	28590
485.614	37120
485.690	22160
485.766	18992
485.843	19404
485.919	21041
485.995	24655
486.072	17536
486.148	18283
486.224	17456
486.301	18149
486.377	19750
486.453	20336
486.530	19012
486.606	24194
486.682	28834
486.758	29823
486.835	33251
486.911	26805
486.987	35694
487.063	37961
487.139	41512
487.215	35277
487.292	22332
487.368	19548
487.444	19231
487.520	21444
487.596	20678
487.672	20605
487.748	23087
487.824	31746
487.900	22482
487.976	19153
488.052	18032
488.128	22504
488.204	19564
488.280	18982
488.356	18235
488.432	28923
488.508	48316
488.584	24659
488.660	16722
488.736	16900
488.812	15834
488.888	21097
488.964	22812
489.039	34900
489.115	53117
489.191	41036
489.267	18015
489.343	17144
489.418	15404
489.494	15440
489.570	14564
489.646	15972
489.722	14649
489.797	14844
489.873	17178
489.949	33984
490.024	36094
490.100	15811
490.176	14157
490.251	14770
490.327	18286
490.403	16068
490.478	13394
490.554	13257
490.629	12733
490.705	12970
490.781	13249
490.856	14032
490.932	14592
491.007	14993
491.083	14959
491.158	14107
491.234	14821
491.309	26186
491.385	31824
491.460	16176
491.536	13465
491.611	14407
491.686	13141
491.762	16373
491.837	22776
491.913	39818
491.988	45844
492.063	68737
492.139	27747
492.214	18555
492.289	12120
492.365	11446
492.440	12195
492.515	12373
492.590	12759
492.666	11660
492.741	12190
492.816	19627
492.891	13515
492.967	12547
493.042	10286
493.117	12625
493.192	13058
493.267	17325
493.342	46274
493.418	86586
493.493	21970
493.568	11923
493.643	10530
493.718	12483
493.793	14408
493.868	17519
493.943	12694
494.018	12011
494.093	10719
494.168	11069
494.243	9690
494.318	10073
494.393	8756
494.468	11128
494.543	9598
494.618	10427
494.693	10786
494.768	10304
494.842	10338
494.917	9883
494.992	9548
495.067	10110
495.142	8760
495.217	10123
495.292	10409
495.366	10845
495.441	12820
495.516	15475
495.591	17206
495.665	35645
495.740	97831
495.815	62365
495.890	15116
495.964	12582
496.039	13216
496.114	12760
496.188	11380
496.263	14097
496.338	12389
496.412	13126
496.487	15068
496.561	15089
496.636	15383
496.710	14432
496.785	13846
496.860	15641
496.934	13802
497.009	13969
497.083	12820
497.158	14984
497.232	15818
497.307	16815
497.381	16221
497.455	17827
497.530	21948
497.604	19287
497.679	17890
497.753	24168
497.827	32575
497.902	32351
497.976	35864
498.050	49502
498.125	165212
498.199	243362
498.273	52924
498.348	37434
498.422	32120
498.496	29054
498.570	27025
498.645	22633
498.719	20920
498.793	22688
498.867	27410
498.941	34721
499.016	58314
499.090	207965
499.164	112600
499.238	17688
499.312	12996
499.386	15322
499.460	15609
499.534	14989
499.609	15363
499.683	21149
499.757	20920
499.831	29374
499.905	114423
499.979	163604
500.053	30229
500.127	25034
500.201	18022
500.275	14139
500.349	13817
500.422	14787
500.496	18110
500.570	29987
500.644	59709
500.718	152415
500.792	53372
500.866	13754
500.940	14626
501.013	15660
501.087	13158
501.161	19041
501.235	25060
501.309	40020
501.382	107524
501.456	138769
501.530	29297
501.603	44878
501.677	26332
501.751	11835
501.825	12607
501.898	17930
501.972	47854
502.046	44587
502.119	13230
502.193	20618
502.266	53437
502.340	38643
502.413	21458
502.487	50533
502.561	33986
502.634	14818
502.708	9639
502.781	9613
502.855	9067
502.928	9202
503.002	7974
503.075	8095
503.149	8932
503.222	10268
503.295	8614
503.369	13246
503.442	13422
503.516	28378
503.589	88654
503.662	77600
503.736	22345
503.809	40710
503.882	41195
503.956	43831
504.029	55297
504.102	19204
504.175	18404
504.249	11162
504.322	9219
504.395	11319
504.468	8188
504.542	8777
504.615	8416
504.688	7662
504.761	6749
504.834	10362
504.907	7936
504.980	13310
505.053	9301
505.127	9468
505.200	13067
505.273	12216
505.346	8712
505.419	7038
505.492	5880
505.565	8460
505.638	7366
505.711	7287
505.784	6954
505.857	6539
505.930	7594
506.003	7189
506.076	8855
506.149	9018
506.221	11500
506.294	11914
506.367	16255
506.440	62236
506.513	52433
506.586	12631
506.659	8168
506.731	7126
506.804	8748
506.877	10451
506.950	9257
507.022	7899
507.095	7349
507.168	11290
507.241	7591
507.313	6711
507.386	6647
507.459	8989
507.531	7444
507.604	7663
507.677	6943
507.749	6644
507.822	7386
507.894	13693
507.967	21140
508.040	16164
508.112	11934
508.185	11762
508.257	9761
508.330	13853
508.402	11596
508.475	10929
508.547	10596
508.620	11709
508.692	14143
508.765	12659
508.837	8561
508.909	10034
508.982	9280
509.054	10140
509.127	9074
509.199	8926
509.271	9377
509.344	8884
509.416	8382
509.488	9246
509.560	9555
509.633	10316
509.705	10518
509.777	10446
509.849	13298
509.922	11571
509.994	11181
510.066	11562
510.138	10336
510.210	18491
510.283	19581
510.355	16743
510.427	13759
510.499	13309
510.571	11470
510.643	12097
510.715	14663
510.787	14868
510.859	12200
510.931	13070
511.003	14583
511.076	17267
511.148	11610
511.219	12802
511.291	14535
511.363	19137
511.435	12057
511.507	12133
511.579	11546
511.651	11434
511.723	10362
511.795	11156
511.867	10242
511.939	11241
512.010	16017
512.082	17052
512.154	10082
512.226	11694
512.298	13225
512.369	21366
512.441	17650
512.513	15599
512.585	13260
512.656	12865
512.728	14041
512.800	12779
512.871	10757
512.943	12553
513.015	11006
513.086	12204
513.158	11126
513.230	12453
513.301	14078
513.373	15606
513.444	10965
513.516	11443
513.588	11158
513.659	11908
513.731	12514
513.802	11675
513.874	14862
513.945	25816
514.016	15117
514.088	11672
514.159	10101
514.231	13035
514.302	18131
514.374	17231
514.445	13005
514.516	19864
514.588	18342
514.659	13379
514.730	18158
514.802	19023
514.873	13783
514.944	18352
515.016	13453
515.087	14675
515.158	14685
515.229	21429
515.301	16262
515.372	20909
515.443	16993
515.514	12926
515.585	10619
515.656	12102
515.728	10142
515.799	10836
515.870	10822
515.941	10620
516.012	10281
516.083	13821
516.154	14056
516.225	16646
516.296	14411
516.367	13789
516.438	14051
516.509	16440
516.580	17619
516.651	31932
516.722	109476
516.793	92500
516.864	21542
516.935	21510
517.006	20929
517.077	25482
517.148	39725
517.219	95305
517.289	221147
517.360	94623
517.431	45933
517.502	15712
517.573	14020
517.643	13791
517.714	13829
517.785	16455
517.856	14689
517.926	18203
517.997	17492
518.068	19583
518.138	24283
518.209	27979
518.280	60591
518.350	270861
518.421	176261
518.492	26072
518.562	15650
518.633	16016
518.703	12538
518.774	15318
518.845	17312
518.915	19708
518.986	14289
519.056	15851
519.127	21640
519.197	30204
519.268	64946
519.338	65513
519.408	17793
519.479	18216
519.549	16522
519.620	13064
519.690	10797
519.760	11103
519.831	9617
519.901	11542
519.971	10125
520.042	10465
520.112	10966
520.182	13187
520.253	13675
520.323	12522
520.393	13269
520.463	21728
520.534	13810
520.604	26379
520.674	16839
520.744	13403
520.814	23930
520.885	31367
520.955	21608
521.025	77688
521.095	53512
521.165	14005
521.235	11450
521.305	10613
521.375	9408
521.445	10625
521.515	10573
521.585	12194
521.655	13219
521.725	11318
521.795	10773
521.865	10156
521.935	11567
522.005	13507
522.075	9061
522.145	10498
522.215	9898
522.285	14065
522.355	14880
522.424	24714
522.494	25726
522.564	16092
522.634	16458
522.704	46137
522.774	31299
522.843	11773
522.913	8952
522.983	11461
523.053	9959
523.122	10576
523.192	9659
523.262	21615
523.331	32972
523.401	12243
523.471	8020
523.540	10274
523.610	6776
523.680	9023
523.749	9008
523.819	10198
523.888	10207
523.958	9350
524.027	8538
524.097	9930
524.166	8187
524.236	8621
524.305	9904
524.375	9413
524.444	7694
524.514	9476
524.583	8669
524.653	10794
524.722	10629
524.791	9808
524.861	8141
524.930	9116
524.999	7736
525.069	11784
525.138	9580
525.207	10963
525.277	9429
525.346	9486
525.415	8277
525.484	10424
525.554	9897
525.623	10353
525.692	8900
525.761	10095
525.830	7691
525.900	8416
525.969	9446
526.038	11608
526.107	9917
526.176	18858
526.245	19476
526.314	14737
526.383	15692
526.452	18415
526.522	23087
526.591	34949
526.660	26873
526.729	18915
526.797	15850
526.867	24030
526.935	95343
527.004	125403
527.073	57580
527.142	14182
527.211	9345
527.280	9774
527.349	9967
527.418	9110
527.487	8250
527.555	8137
527.624	7190
527.693	7290
527.762	8559
527.831	7636
527.899	6871
527.968	8161
528.037	6653
528.106	9749
528.174	11653
528.243	12706
528.312	12104
528.380	17649
528.449	9355
528.518	9737
528.586	6181
528.655	9143
528.723	8229
528.792	7764
528.861	7432
528.929	7603
528.998	7529
529.066	7322
529.135	6719
529.203	7592
529.272	6935
529.340	8912
529.409	8460
529.477	8646
529.545	7914
529.614	10568
529.682	9765
529.751	12215
529.819	11350
529.887	11568
529.956	7790
530.024	9285
530.092	7731
530.161	8574
530.229	10353
530.297	9963
530.365	8346
530.434	8588
530.502	6808
530.570	8800
530.638	6793
530.707	9459
530.775	9630
530.843	8667
530.911	7773
530.979	8703
531.047	8065
531.115	10092
531.183	7774
531.252	8789
531.320	7507
531.388	9395
531.456	7936
531.524	8505
531.592	8660
531.660	10782
531.728	8625
531.796	8614
531.864	7755
531.932	9401
532.000	8184
532.067	9220
532.135	9240
532.203	10857
532.271	10891
532.339	14024
532.407	24167
532.475	22199
532.542	13189
532.610	13399
532.678	13524
532.746	29142
532.814	98338
532.881	45613
532.949	12834
533.017	10528
533.084	9630
533.152	9622
533.220	8493
533.287	9330
533.355	9612
533.423	9278
533.490	8325
533.558	9303
533.625	8672
533.693	11491
533.761	9878
533.828	11812
533.896	10137
533.963	15138
534.031	19110
534.098	22496
534.166	15616
534.233	11663
534.300	11746
534.368	13483
534.435	10913
534.503	11680
534.570	10260
534.637	11070
534.705	9400
534.772	10270
534.840	8897
534.907	13113
534.974	17086
535.041	10153
535.109	10115
535.176	9164
535.243	8984
535.310	9698
535.378	7919
535.445	8856
535.512	8149
535.579	9087
535.646	7683
535.714	9623
535.781	10733
535.848	12645
535.915	11695
535.982	13858
536.049	14260
536.116	14411
536.183	11491
536.250	11032
536.317	10484
536.384	11437
536.451	12751
536.518	13550
536.585	9361
536.652	12476
536.719	13460
536.786	13185
536.853	10736
536.920	14016
536.987	17506
537.053	16564
537.120	37674
537.187	61780
537.254	12337
537.321	9628
537.388	9621
537.454	8563
537.521	7336
537.588	8148
537.654	9714
537.721	11034
537.788	11412
537.855	9928
537.921	9686
537.988	9440
538.055	9351
538.121	9537
538.188	9153
538.254	12064
538.321	15861
538.388	15706
538.454	9070
538.521	9834
538.587	8757
538.654	8900
538.720	8724
538.787	9848
538.853	9290
538.920	10252
538.986	10117
539.053	10633
539.119	9014
539.185	10452
539.252	10657
539.318	12888
539.385	12267
539.451	12010
539.517	12568
539.583	12823
539.650	15138
539.716	39979
539.782	23663
539.849	12359
539.915	9877
539.981	10417
540.047	10312
540.114	11078
540.180	12025
540.246	11125
540.312	10749
540.378	16052
540.444	19384
540.510	16895
540.576	41029
540.643	29271
540.709	9949
540.775	10480
540.841	10180
540.907	12147
540.973	16097
541.039	15442
541.105	15273
541.171	12247
541.237	9583
541.303	11471
541.369	12351
541.435	12892
541.500	16094
541.566	14407
541.632	9435
541.698	10903
541.764	9650
541.830	10493
541.896	9558
541.961	11262
542.027	9736
542.093	10039
542.159	9331
542.224	11639
542.290	13352
542.356	16180
542.421	18940
542.487	13994
542.553	10369
542.618	12420
542.684	10998
542.750	11498
542.815	10481
542.881	13981
542.947	31302
543.012	42664
543.078	12822
543.143	10211
543.209	10852
543.274	10924
543.340	12174
543.405	15984
543.471	28188
543.536	15369
543.602	10686
543.667	10375
543.732	11092
543.798	10353
543.863	10530
543.928	11398
543.994	9894
544.059	10078
544.124	9745
544.190	9873
544.255	11582
544.320	11339
544.386	9967
544.451	13357
544.516	12902
544.581	13549
544.646	20571
544.712	46294
544.777	19134
544.842	13632
544.907	13073
544.972	12749
545.037	10663
545.102	13383
545.168	12046
545.233	12775
545.298	12492
545.363	14240
545.428	15108
545.493	18574
545.558	31270
545.623	25895
545.688	12797
545.753	12804
545.818	11793
545.883	12809
545.947	12268
546.012	12646
546.077	12607
546.142	13718
546.207	12228
546.272	14135
546.337	13712
546.401	13751
546.466	12492
546.531	12280
546.596	12524
546.661	13298
546.725	13180
546.790	12176
546.855	12214
546.919	11938
546.984	11717
547.049	13663
547.113	13644
547.178	12854
547.243	11791
547.307	14342
547.372	13449
547.436	16051
547.501	13515
547.565	13362
547.630	14517
547.695	14794
547.759	14749
547.823	15713
547.888	13492
547.952	13424
548.017	12414
548.081	14796
548.146	15533
548.210	16056
548.274	12449
548.339	13266
548.403	13642
548.468	14079
548.532	12397
548.596	13247
548.660	12349
548.725	14546
548.789	13580
548.853	16792
548.917	13018
548.982	15707
549.046	17215
549.110	13287
549.174	12972
549.238	12930
549.303	12445
549.367	14239
549.431	12774
549.495	12978
549.559	13024
549.623	13978
549.687	13932
549.751	17425
549.815	15505
549.879	16478
549.943	14126
550.007	15187
550.071	14271
550.135	16965
550.199	15726
550.263	15453
550.327	14567
550.391	16707
550.455	15316
550.519	15037
550.582	14124
550.646	17415
550.710	18781
550.774	15865
550.838	14931
550.901	15741
550.965	15494
551.029	16064
551.093	16697
551.156	18897
551.220	24392
551.284	32478
551.347	19418
551.411	27202
551.475	38312
551.538	19837
551.602	15770
551.666	15766
551.729	13915
551.793	15385
551.856	15022
551.920	15568
551.983	15418
552.047	15313
552.110	13985
552.174	13873
552.237	14195
552.301	14468
552.364	13514
552.428	14467
552.491	13307
552.554	15355
552.618	13745
552.681	15329
552.745	13792
552.808	17190
552.871	19845
552.934	17459
552.998	14845
553.061	16542
553.124	14967
553.187	16641
553.251	16675
553.314	17913
553.377	17746
553.440	21459
553.503	37894
553.567	92959
553.630	37769
553.693	16811
553.756	15130
553.819	15518
553.882	13900
553.945	14973
554.008	14599
554.071	14326
554.134	14244
554.197	14247
554.260	13465
554.323	16787
554.386	14182
554.449	15927
554.512	14649
554.575	14720
554.638	14526
554.701	14284
554.764	14254
554.827	14540
554.889	13066
554.952	13265
555.015	12999
555.078	14507
555.141	13636
555.203	14115
555.266	13342
555.329	14839
555.391	13502
555.454	13798
555.517	12604
555.580	13368
555.642	12006
555.705	13069
555.768	12996
555.830	13898
555.893	13231
555.955	13870
556.018	12742
556.080	13641
556.143	12105
556.206	12656
556.268	12881
556.330	13717
556.393	12690
556.455	13595
556.518	14492
556.580	17506
556.643	12680
556.705	12707
556.767	11006
556.830	13884
556.892	12494
556.955	15482
557.017	14549
557.079	13937
557.142	11527
557.204	13692
557.266	16091
557.328	18132
557.391	11465
557.453	12886
557.515	12334
557.577	13412
557.639	13607
557.701	12366
557.764	11021
557.826	11962
557.888	12688
557.950	11588
558.012	11318
558.074	13523
558.136	13235
558.198	19444
558.260	16464
558.322	13312
558.384	11946
558.446	14749
558.508	13334
558.570	15295
558.632	17437
558.694	26255
558.756	19486
558.818	25461
558.880	61729
558.942	39437
559.003	20888
559.065	18718
559.127	13810
559.189	14151
559.251	13923
559.312	15457
559.374	17415
559.436	36941
559.498	33508
559.559	14746
559.621	13274
559.683	15171
559.744	15321
559.806	24659
559.868	36281
559.929	19927
559.991	15785
560.052	15799
560.114	19060
560.176	20830
560.237	15695
560.299	21313
560.360	14968
560.422	13931
560.483	12952
560.545	13615
560.606	12654
560.667	12777
560.729	11989
560.790	12510
560.852	11992
560.913	13085
560.974	11866
561.036	12651
561.097	12592
561.158	13443
561.220	13011
561.281	13694
561.342	13307
561.403	15660
561.465	15026
561.526	21411
561.587	30511
561.648	18049
561.709	13401
561.771	14896
561.832	13764
561.893	13461
561.954	12928
562.015	14347
562.076	13819
562.137	15198
562.198	13604
562.259	14764
562.320	13693
562.381	15391
562.442	15908
562.503	16611
562.564	14193
562.625	13764
562.686	14091
562.747	14717
562.808	13655
562.869	14944
562.930	15826
562.991	16063
563.051	15227
563.112	15741
563.173	14522
563.234	13912
563.294	14477
563.355	14833
563.416	14181
563.477	15244
563.537	13470
563.598	15359
563.659	13852
563.720	15479
563.780	14971
563.841	15222
563.901	14093
563.962	15270
564.023	14819
564.083	15922
564.144	14522
564.204	15725
564.265	14802
564.325	15876
564.386	18982
564.446	22165
564.507	14958
564.567	15331
564.628	14231
564.688	15265
564.749	14908
564.809	16253
564.869	16630
564.930	15922
564.990	14795
565.050	16069
565.111	15819
565.171	14912
565.231	14963
565.292	16231
565.352	14876
565.412	15549
565.472	15181
565.532	16126
565.593	15849
565.653	15190
565.713	15086
565.773	17619
565.833	15735
565.893	18837
565.953	15985
566.013	16153
566.074	16708
566.134	17700
566.194	20648
566.254	23908
566.314	19605
566.374	18715
566.434	18266
566.494	18237
566.554	17369
566.614	19774
566.673	19165
566.733	19778
566.793	18839
566.853	20416
566.913	19729
566.973	22291
567.033	20581
567.092	20942
567.152	20494
567.212	20951
567.272	20723
567.331	22308
567.391	21846
567.451	23203
567.511	24404
567.570	26590
567.630	22042
567.690	20963
567.749	21105
567.809	22162
567.868	24043
567.928	26136
567.988	28901
568.047	32357
568.107	35552
568.166	44699
568.226	59586
568.285	88970
568.345	92312
568.404	74669
568.464	64588
568.523	59840
568.582	58494
568.642	60958
568.701	68498
568.761	90916
568.820	133199
568.879	161774
568.939	131050
568.998	100157
569.057	77214
569.116	63464
569.176	51701
569.235	42939
569.294	38126
569.353	33556
569.413	30285
569.472	29866
569.531	26682
569.590	24632
569.649	23348
569.708	22919
569.767	21579
569.827	21242
569.886	20558
569.945	19688
570.004	18363
570.063	18804
570.122	17336
570.181	19640
570.240	18243
570.299	19398
570.358	18481
570.417	18010
570.475	16479
570.534	16085
570.593	16379
570.652	16775
570.711	16171
570.770	15580
570.829	15611
570.887	16245
570.946	16433
571.005	14651
571.064	14490
571.122	16188
571.181	15290
571.240	16153
571.299	14446
571.357	16352
571.416	15141
571.475	15881
571.533	16086
571.592	15482
571.650	14786
571.709	13147
571.768	14222
571.826	14054
571.885	14038
571.943	14802
572.002	14145
572.060	14767
572.119	13555
572.177	15670
572.236	13852
572.294	13430
572.352	12772
572.411	14063
572.469	13492
572.528	13789
572.586	13253
572.644	13936
572.703	14787
572.761	14139
572.819	12513
572.877	14489
572.936	12300
572.994	13707
573.052	12711
573.110	12802
573.169	12730
573.227	12484
573.285	13074
573.343	13605
573.401	12212
573.459	13623
573.517	12244
573.576	13109
573.634	12027
573.692	13055
573.750	12373
573.808	13067
573.866	12677
573.924	14702
573.982	13423
574.040	13642
574.098	12252
574.155	14026
574.213	11582
574.271	12382
574.329	11673
574.387	12638
574.445	12152
574.503	12037
574.560	11655
574.618	13001
574.676	11083
574.734	12437
574.792	12116
574.849	12311
574.907	11467
574.965	11947
575.022	11091
575.080	12562
575.138	11937
575.195	13473
575.253	12817
575.311	13289
575.368	12299
575.426	12903
575.483	12133
575.541	13514
575.598	10806
575.656	12158
575.713	12177
575.771	12374
575.828	12222
575.886	12783
575.943	11559
576.001	13250
576.058	12554
576.115	13110
576.173	12883
576.230	15177
576.287	14019
576.345	15435
576.402	12975
576.459	12614
576.517	12912
576.574	14330
576.631	13063
576.688	13922
576.746	12111
576.803	13523
576.860	11820
576.917	13667
576.974	12502
577.031	13716
577.089	12375
577.146	12754
577.203	13560
577.260	14264
577.317	12524
577.374	13923
577.431	13678
577.488	14417
577.545	12604
577.602	14294
577.659	13413
577.716	14019
577.773	13940
577.830	13999
577.886	12284
577.943	15022
578.000	14270
578.057	14142
578.114	14933
578.171	16320
578.227	18822
578.284	22782
578.341	18281
578.398	15926
578.454	15459
578.511	15253
578.568	14781
578.625	14675
578.681	13475
578.738	13787
578.794	13268
578.851	14624
578.908	13771
578.964	15961
579.021	16389
579.077	15120
579.134	14752
579.190	14982
579.247	13982
579.303	13896
579.360	14030
579.416	13738
579.473	14255
579.529	15037
579.586	14226
579.642	14768
579.698	14328
579.755	15116
579.811	15416
579.867	16356
579.924	15717
579.980	16792
580.036	17040
580.093	20123
580.149	24551
580.205	30969
580.261	28418
580.317	21331
580.374	17988
580.430	18805
580.486	18015
580.542	17014
580.598	15661
580.619	15962
580.654	16500
580.692	15568
580.710	15133
580.765	16070
580.767	16117
580.823	15531
580.838	15742
580.879	16360
580.911	15554
580.935	14994
580.984	16049
580.991	16210
581.047	15454
581.057	15657
581.103	16665
581.130	16630
581.159	16616
581.203	18691
581.215	19262
581.270	18189
581.276	18131
581.326	17672
581.349	16888
581.382	15765
581.422	16826
581.438	17287
581.494	15874
581.494	15871
581.550	16665
581.567	16078
581.606	14924
581.640	16175
581.661	16914
581.713	15841
581.717	15768
581.773	16442
581.786	16296
581.829	15863
581.859	16515
581.885	17134
581.932	16518
581.940	16395
581.996	17674
582.004	17552
582.052	16975
582.077	17113
582.107	17255
582.150	16326
582.163	16080
582.219	17278
582.223	17232
582.274	16664
582.296	16823
582.330	17163
582.368	17438
582.386	17505
582.441	17124
582.441	17129
582.497	16787
582.514	17072
582.552	17757
582.587	17932
582.608	17960
582.659	18935
582.663	19020
582.719	17829
582.732	17775
582.774	17510
582.805	17927
582.830	18394
582.877	18870
582.885	18946
582.941	18217
582.950	18321
582.996	18815
583.023	19311
583.052	19916
583.095	21562
583.107	22073
583.162	22550
583.168	23034
583.218	27284
583.240	26298
583.273	24438
583.313	23095
583.328	22702
583.384	21447
583.385	21465
583.439	21758
583.458	21070
583.494	19987
583.531	20325
583.549	20465
583.603	19687
583.605	19662
583.660	20856
583.676	20474
583.715	19533
583.748	20172
583.770	20636
583.820	20766
583.825	20772
583.881	20978
583.893	20895
583.936	20527
583.965	20948
583.991	21254
584.038	20618
584.046	20574
584.101	21382
584.110	21456
584.156	21448
584.183	21684
584.211	21984
584.255	21448
584.266	21305
584.321	21887
584.328	21887
584.376	22124
584.400	22694
584.431	23277
584.472	21971
584.486	21505
584.541	22959
584.545	23010
584.596	23737
584.617	23593
584.651	23738
584.689	24011
584.706	23991
584.761	24641
584.762	24647
584.816	24937
584.834	25165
584.871	25680
584.906	25351
584.926	25042
584.978	26022
584.980	26061
585.035	25992
585.051	26357
585.090	27708
585.123	27906
585.145	27923
585.195	28595
585.200	28634
585.254	29012
585.267	29383
585.309	30945
585.340	31273
585.364	31551
585.412	32919
585.419	32933
585.473	31361
585.484	31268
585.528	31725
585.556	32453
585.583	33403
585.628	35151
585.637	35889
585.692	40682
585.700	41970
585.747	49960
585.772	51108
585.801	47067
585.845	39598
585.856	38387
585.910	35175
585.917	35082
585.965	36335
585.989	36238
586.019	36446
586.061	36997
586.074	37091
586.128	37809
586.133	37884
586.183	38695
586.205	38968
586.237	39633
586.277	41008
586.292	41252
586.346	41459
586.349	41498
586.401	42895
586.421	43231
586.455	43643
586.493	45265
586.509	46472
586.564	49455
586.565	49585
586.618	58372
586.637	60831
586.672	60701
586.709	57675
586.727	55407
586.781	51518
586.781	51511
586.835	54044
586.853	54179
586.889	54252
586.925	55437
586.944	56253
586.996	58276
586.998	58323
587.052	60601
587.068	61365
587.106	62919
587.140	64053
587.161	64988
587.212	67558
587.215	67664
587.269	71117
587.284	71709
587.323	73870
587.356	76462
587.377	77579
587.427	80070
587.431	80332
587.485	84380
587.499	85587
587.539	89305
587.571	92233
587.593	94081
587.643	98146
587.648	98666
587.702	105794
587.715	107479
587.755	112451
587.786	117050
587.810	120784
587.858	128215
587.864	129140
587.917	138964
587.930	141397
587.971	150811
588.001	158152
588.025	164225
588.073	176485
588.079	178210
588.133	195159
588.145	199214
588.187	215435
588.217	227515
588.241	239422
588.288	263727
588.295	267232
588.348	297533
588.360	304321
588.402	335112
588.431	357606
588.456	379918
588.503	424302
588.510	432354
588.564	498614
588.575	512743
588.617	580992
588.646	628204
588.671	682470
588.718	786078
588.725	805716
588.778	952845
588.789	980678
588.832	1073681
588.861	1129120
588.886	1102335
588.932	1021932
588.939	998065
588.993	777835
589.004	746554
589.047	921847
589.075	1045882
589.100	1112194
589.147	1196382
589.154	1184277
589.207	1060484
589.218	1033386
589.261	954003
589.290	900672
589.314	894334
589.361	884518
589.368	894683
589.421	977106
589.433	993492
589.475	1066985
589.504	1110399
589.528	1062641
589.576	932783
589.582	931672
589.635	944188
589.647	949824
589.689	1040203
589.718	1082137
589.742	1000095
589.790	822838
589.795	806908
589.849	646072
589.861	608345
589.902	531351
589.932	475069
589.955	442985
590.004	375774
590.009	371069
590.062	320442
590.075	308038
590.115	281008
590.146	260864
590.168	249484
590.218	225051
590.222	223454
590.275	202920
590.289	197611
590.328	185708
590.360	176338
590.381	170733
590.431	157485
590.435	156787
590.488	145494
590.503	142347
590.541	135981
590.574	130700
590.594	127623
590.645	119608
590.647	119377
590.700	113271
590.716	111419
590.753	107234
590.787	103629
590.806	101969
590.859	97257
590.859	97187
590.912	91885
590.930	90086
590.965	87582
591.001	85393
591.018	84307
591.071	80861
591.072	80817
591.124	78754
591.143	77914
591.177	75637
591.214	73376
591.230	73072
591.283	71852
591.285	71792
591.336	70435
591.356	69754
591.389	68452
591.427	66914
591.442	66053
591.495	62864
591.498	62609
591.547	60686
591.569	59798
591.600	59211
591.640	58414
591.653	58226
591.706	57302
591.711	57191
591.759	56458
591.782	55980
591.811	56351
591.853	57012
591.864	56510
591.917	53598
591.924	53148
591.969	52166
591.995	51580
592.022	50899
592.066	49726
592.075	49829
592.127	50297
592.137	50369
592.180	52227
592.208	53338
592.233	51566
592.279	48084
592.285	47896
592.338	46074
592.350	45645
592.390	44668
592.421	43870
592.443	43816
592.491	43673
592.495	43589
592.548	42100
592.562	41681
592.600	41709
592.633	41679
592.653	41443
592.704	40558
592.705	40770
592.775	39766
592.846	39654
592.916	39322
592.987	39732
593.058	39182
593.128	36438
593.199	35429
593.270	35040
593.341	34514
593.411	34290
593.482	34243
593.553	34417
593.623	31793
593.694	33094
593.764	33285
593.835	32077
593.906	31122
593.976	30349
594.047	30803
594.117	32800
594.188	34170
594.258	30218
594.329	28232
594.399	28644
594.470	28385
594.540	27815
594.611	27178
594.681	26665
594.751	26211
594.822	27449
594.892	28340
594.963	27708
595.033	27155
595.103	27010
595.174	28023
595.244	32322
595.314	41180
595.384	31249
595.455	25080
595.525	26567
595.595	26114
595.665	26827
595.736	25117
595.806	24546
595.876	24958
595.946	23975
596.016	23819
596.087	23952
596.157	24534
596.227	23849
596.297	24904
596.367	24474
596.437	25719
596.507	28888
596.577	37026
596.647	28345
596.717	23855
596.787	24286
596.857	22738
596.927	23731
596.997	22850
597.067	23412
597.137	25249
597.207	26276
597.277	23862
597.347	25025
597.417	22583
597.487	23307
597.557	23879
597.626	23529
597.696	24359
597.766	25945
597.836	31874
597.906	29539
597.975	21944
598.045	22581
598.115	22770
598.185	22229
598.254	22351
598.324	23411
598.394	23101
598.464	22913
598.533	22156
598.603	20777
598.672	22038
598.742	22799
598.812	21464
598.881	22115
598.951	20901
599.020	20610
599.090	21702
599.159	20945
599.229	20242
599.299	20571
599.368	20085
599.437	20561
599.507	20061
599.576	20940
599.646	21343
599.715	22818
599.785	21222
599.854	21174
599.924	21614
599.993	22369
600.062	20267
600.132	20979
600.201	21049
600.270	21920
600.340	22029
600.409	20414
600.478	20274
600.547	20429
600.617	20581
600.686	20849
600.755	19664
600.824	19840
600.894	20398
600.963	19108
601.032	19382
601.101	19312
601.170	18798
601.239	20534
601.308	19710
601.378	19380
601.447	19288
601.516	19862
601.585	19747
601.654	20080
601.723	20222
601.792	19996
601.861	20938
601.930	22780
601.999	23218
602.068	20801
602.137	20555
602.206	20844
602.275	19481
602.343	21488
602.412	22831
602.481	20919
602.550	18768
602.619	19075
602.688	20482
602.756	20693
602.825	19422
602.894	19217
602.963	19770
603.032	19031
603.100	18723
603.169	19271
603.238	18608
603.307	19680
603.375	19570
603.444	18495
603.513	19192
603.581	18292
603.650	19343
603.719	18493
603.787	17054
603.856	18250
603.924	17675
603.993	19547
604.061	17848
604.130	18605
604.198	18471
604.267	18356
604.335	19355
604.404	18240
604.472	17955
604.541	18758
604.609	18380
604.678	19058
604.746	19197
604.815	19632
604.883	19939
604.951	19410
605.020	18224
605.088	19661
605.156	18230
605.225	17440
605.293	18026
605.361	17950
605.429	18376
605.498	18062
605.566	18558
605.634	18533
605.702	17866
605.771	18949
605.839	18594
605.907	17972
605.975	17641
606.043	17916
606.111	18084
606.180	19496
606.248	20095
606.316	22483
606.384	20033
606.452	21040
606.520	20562
606.588	19825
606.656	15872
606.724	15721
606.792	15479
606.860	15233
606.928	13778
606.996	13131
607.064	14390
607.132	14436
607.200	14544
607.267	14200
607.335	14365
607.403	14305
607.471	14300
607.539	14499
607.607	15008
607.674	13934
607.742	13835
607.810	14942
607.878	14121
607.946	14294
608.013	13717
608.081	13927
608.149	13942
608.216	15482
608.284	14082
608.352	13768
608.419	14715
608.487	18237
608.555	19073
608.622	13567
608.690	13695
608.757	15113
608.825	14921
608.893	14708
608.960	16060
609.028	18523
609.095	21299
609.163	17815
609.230	14404
609.298	15599
609.365	13373
609.432	14272
609.500	13853
609.567	16003
609.635	16906
609.702	16776
609.769	15935
609.837	17143
609.904	16649
609.971	16080
610.039	17841
610.106	20933
610.173	31628
610.241	67021
610.308	112068
610.375	102000
610.442	37249
610.509	18821
610.577	17007
610.644	15682
610.711	15057
610.778	14913
610.845	14054
610.912	15657
610.980	16356
611.047	21825
611.114	22526
611.181	15778
611.248	14376
611.315	14244
611.382	14423
611.449	14318
611.516	14552
611.583	14863
611.650	13968
611.717	14871
611.784	14935
611.851	14813
611.918	16720
611.984	17226
612.051	20903
612.118	34628
612.185	80048
612.252	108593
612.319	29660
612.386	17483
612.452	15943
612.519	17554
612.586	20197
612.653	20723
612.719	15599
612.786	15565
612.853	14611
612.919	13745
612.986	14498
613.053	14267
613.120	13002
613.186	13722
613.253	14188
613.319	13570
613.386	14135
613.453	13742
613.519	15444
613.586	16939
613.652	24642
613.719	22001
613.785	20744
613.852	15328
613.918	14748
613.985	15763
614.051	18426
614.118	33429
614.184	56489
614.250	21477
614.317	14430
614.383	13571
614.449	12763
614.516	14185
614.582	13745
614.648	14233
614.715	12907
614.781	13315
614.847	13931
614.914	15025
614.980	13976
615.046	13981
615.112	13140
615.179	14558
615.245	16595
615.311	21065
615.377	32103
615.443	49218
615.509	34292
615.575	21556
615.642	17398
615.708	18078
615.774	18015
615.840	20197
615.906	25328
615.972	36252
616.038	66192
616.104	113731
616.170	135844
616.236	188155
616.302	57704
616.368	26147
616.434	20493
616.500	19379
616.565	18539
616.631	19591
616.697	19058
616.763	17766
616.829	20461
616.895	28566
616.961	36615
617.026	25150
617.092	17192
617.158	15321
617.224	14455
617.289	15768
617.355	15108
617.421	14248
617.487	15829
617.552	14696
617.618	13792
617.684	13120
617.749	14977
617.815	14112
617.880	12612
617.946	13782
618.012	14084
618.077	13769
618.143	14285
618.208	14772
618.274	14370
618.339	15771
618.405	14207
618.470	14802
618.536	14414
618.601	16283
618.667	17027
618.732	15041
618.798	15579
618.863	14800
618.928	14761
618.994	15305
619.059	15994
619.124	20954
619.190	21687
619.255	14725
619.320	14628
619.386	15014
619.451	13678
619.516	13224
619.581	13355
619.647	14081
619.712	14613
619.777	14507
619.842	14233
619.907	14787
619.972	14665
620.038	15163
620.103	14821
620.168	14010
620.233	14124
620.298	13576
620.363	12980
620.428	14305
620.493	13814
620.558	13660
620.623	13702
620.688	13256
620.753	13650
620.818	14058
620.883	13515
620.948	12989
621.013	13557
621.078	14026
621.143	12243
621.207	15663
621.272	14470
621.337	15721
621.402	15958
621.467	18105
621.532	23194
621.596	18662
621.661	16281
621.726	16300
621.791	15640
621.855	15772
621.920	17136
621.985	17627
622.049	19799
622.114	19537
622.179	18572
622.243	17491
622.308	17469
622.373	17662
622.437	17877
622.502	17638
622.566	16456
622.631	16371
622.695	16740
622.760	16507
622.824	16859
622.889	17176
622.953	17883
623.018	22207
623.082	28140
623.147	18437
623.211	16536
623.276	16722
623.340	16838
623.404	16024
623.469	15551
623.533	17060
623.597	15633
623.662	15743
623.726	14538
623.790	15205
623.854	15274
623.919	16116
623.983	14692
624.047	16663
624.111	14502
624.176	15988
624.240	16374
624.304	18913
624.368	15990
624.432	15467
624.496	15512
624.560	16067
624.625	17621
624.689	16809
624.753	15533
624.817	14933
624.881	14543
624.945	15033
625.009	14705
625.073	14731
625.137	15340
625.201	17711
625.265	20185
625.329	15567
625.393	15279
625.456	16322
625.520	14060
625.584	16887
625.648	19503
625.712	26830
625.776	49504
625.839	81390
625.903	53017
625.967	18440
626.031	22576
626.095	42310
626.158	27796
626.222	14317
626.286	12552
626.349	12491
626.413	12230
626.477	13891
626.540	12553
626.604	12779
626.668	12668
626.731	12416
626.795	12920
626.858	12496
626.922	12933
626.986	13245
627.049	12387
627.113	11753
627.176	12289
627.240	11740
627.303	11933
627.366	12109
627.430	12022
627.493	12352
627.557	12384
627.620	12124
627.684	12184
627.747	12234
627.810	11737
627.874	12042
627.937	10660
628.000	12308
628.064	12455
628.127	10876
628.190	10909
628.253	11719
628.317	10971
628.380	10900
628.443	10451
628.506	10709
628.569	10924
628.632	10248
628.696	10320
628.759	9855
628.822	10854
628.885	9942
628.948	9987
629.011	10033
629.074	10064
629.137	10619
629.200	9927
629.263	11615
629.326	10376
629.389	9880
629.452	10445
629.515	11529
629.578	10219
629.641	10599
629.704	10521
629.767	11062
629.830	11324
629.892	9565
629.955	9674
630.018	10278
630.081	10765
630.144	13048
630.207	10908
630.269	11481
630.332	10820
630.395	11806
630.458	9630
630.520	9597
630.583	9554
630.646	8346
630.708	8379
630.771	10308
630.834	9284
630.896	9986
630.959	8391
631.021	9715
631.084	9320
631.146	9902
631.209	11617
631.272	9981
631.334	9000
631.397	8549
631.459	8646
631.522	9663
631.584	8722
631.646	9957
631.709	9300
631.771	11187
631.834	10793
631.896	9340
631.958	8560
632.021	8519
632.083	7090
632.145	8645
632.208	7918
632.270	9714
632.332	8229
632.395	7450
632.457	8804
632.519	8734
632.581	8858
632.643	7388
632.706	8938
632.768	7855
632.830	8633
632.892	7834
632.954	8317
633.016	8612
633.078	7931
633.141	8374
633.203	7858
633.265	7987
633.327	7229
633.389	7541
633.451	8330
633.513	9398
633.575	10399
633.637	9787
633.698	10296
633.760	8471
633.822	6898
633.884	8594
633.946	7212
634.008	7857
634.070	6986
634.132	9542
634.193	10319
634.255	8105
634.317	6992
634.379	8066
634.441	7545
634.502	7550
634.564	7216
634.626	6921
634.687	7285
634.749	7796
634.811	7015
634.873	6598
634.934	7890
634.996	7426
635.057	7330
635.119	6937
635.181	7119
635.242	7931
635.304	6579
635.365	7998
635.427	6280
635.488	6987
635.550	7622
635.611	7566
635.673	6774
635.734	7940
635.796	7064
635.857	7335
635.918	8256
635.980	7407
636.041	7073
636.102	7549
636.164	7760
636.225	7494
636.286	6490
636.348	7758
636.409	6526
636.470	6456
636.531	6805
636.593	7336
636.654	8458
636.715	6898
636.776	6141
636.838	5973
636.899	6284
636.960	7081
637.021	5373
637.082	6395
637.143	6200
637.204	6038
637.265	4844
637.326	6226
637.387	5734
637.448	5096
637.509	5895
637.570	6140
637.631	6027
637.692	5839
637.753	5376
637.814	5425
637.875	4995
637.936	7099
637.997	5116
638.058	6014
638.119	6153
638.179	6438
638.240	6210
638.301	6081
638.362	5114
638.423	5914
638.483	6551
638.544	5824
638.605	5219
638.666	5143
638.726	6046
638.787	5849
638.848	4691
638.908	5951
638.969	5617
639.030	5871
639.090	5552
639.151	5163
639.211	5406
639.272	7024
639.332	9983
639.393	10734
639.453	5606
639.514	5603
639.574	5248
639.635	4771
639.695	5826
639.756	4831
639.816	5810
639.877	5869
639.937	8501
639.997	13009
640.058	8152
640.118	5869
640.178	5764
640.239	5456
640.299	4456
640.359	4863
640.420	5105
640.480	5159
640.540	4193
640.600	5599
640.661	5266
640.721	4877
640.781	6414
640.841	6479
640.901	5500
640.961	5450
641.021	5093
641.082	5964
641.142	7951
641.202	7648
641.262	4160
641.322	5644
641.382	4283
641.442	4263
641.502	4421
641.562	5541
641.622	4741
641.682	4974
641.742	5235
641.802	5878
641.861	4930
641.921	5553
641.981	5663
642.041	6167
642.101	6079
642.161	7632
642.221	4193
642.280	4311
642.340	4380
642.400	4657
642.460	4945
642.519	4812
642.579	5086
642.639	5016
642.698	3449
642.758	5312
642.818	4241
642.877	4737
642.937	4208
642.997	5528
643.056	7094
643.116	6784
643.175	5714
643.235	4549
643.294	4505
643.354	5218
643.414	4954
643.473	5768
643.532	5208
643.592	6251
643.651	7120
643.711	10357
643.770	15930
643.830	29531
643.889	86095
643.948	62614
644.008	8699
644.067	5489
644.126	5213
644.186	5283
644.245	4926
644.304	3202
644.363	5307
644.423	3679
644.482	3764
644.541	4544
644.600	3605
644.659	5795
644.719	3799
644.778	4948
644.837	6362
644.896	8462
644.955	15864
645.014	14318
645.073	6787
645.132	5098
645.191	4322
645.250	4389
645.309	4676
645.368	4435
645.427	5655
645.486	4379
645.545	5867
645.604	5672
645.663	4656
645.722	3472
645.781	4996
645.840	4240
645.898	3716
645.957	5524
646.016	5511
646.075	8452
646.134	13229
646.192	25518
646.251	67516
646.310	29335
646.369	6009
646.427	5523
646.486	3972
646.545	4293
646.603	4590
646.662	3940
646.721	4568
646.779	3324
646.838	3288
646.896	4118
646.955	4753
647.014	4274
647.072	4966
647.131	9531
647.189	11786
647.248	4099
647.306	4661
647.365	3955
647.423	2201
647.481	4964
647.540	2854
647.598	3581
647.657	3323
647.715	4892
647.773	3301
647.832	3819
647.890	2843
647.948	4007
648.007	4009
648.065	3723
648.123	3488
648.181	4689
648.240	5231
648.298	5649
648.356	4090
648.414	4391
648.472	3488
648.531	4732
648.589	4732
648.647	3302
648.705	3220
648.763	3338
648.821	2973
648.879	3357
648.937	3709
648.995	4405
649.053	4018
649.111	3761
649.169	4927
649.227	7007
649.285	9516
649.343	23999
649.401	32861
649.459	13583
649.516	15186
649.574	7880
649.632	12041
649.690	24811
649.748	11421
649.806	7057
649.863	14025
649.921	12115
649.979	9848
650.037	4889
650.094	2895
650.152	2858
650.210	3023
650.268	3917
650.325	3871
650.383	3733
650.440	2458
650.498	3622
650.556	3255
650.613	3607
650.671	2862
650.728	3186
650.786	3823
650.843	3670
650.901	2804
650.958	3290
651.016	2595
651.073	3191
651.131	2438
651.188	2719
651.246	3503
651.303	2139
651.360	3194
651.418	2245
651.475	3330
651.532	2227
651.590	3535
651.647	2283
651.704	3635
651.762	2704
651.819	3472
651.876	2264
651.933	3418
651.990	3584
652.048	2840
652.105	2469
652.162	2790
652.219	3102
652.276	2405
652.333	3100
652.390	2268
652.448	3867
652.505	3344
652.562	3182
652.619	3393
652.676	4841
652.733	8113
652.790	4496
652.847	2438
652.904	2610
652.961	1970
653.017	2258
653.074	2991
653.131	2806
653.188	1726
653.245	2577
653.302	2876
653.359	2822
653.415	2974
653.472	2801
653.529	3264
653.586	2337
653.642	2578
653.699	2709
653.756	2558
653.813	2089
653.869	2364
653.926	2080
653.983	2459
654.039	3094
654.096	1933
654.152	2628
654.209	1810
654.266	3731
654.322	1973
654.379	3177
654.435	3220
654.492	3533
654.548	3854
654.605	6239
654.661	6859
654.717	2394
654.774	3228
654.830	3189
654.887	3175
654.943	3118
655.000	3037
655.056	3022
655.112	3007
655.168	2461
655.225	3072
655.281	3369
655.337	3397
655.394	5380
655.450	6282
655.506	4725
655.562	4549
655.618	7874
655.675	2541
655.731	2695
655.787	2537
655.843	2526
655.899	1774
655.955	3463
656.011	2509
656.067	1064
656.123	2405
656.179	3063
656.235	3041
656.291	2086
656.347	3133
656.403	2177
656.459	2496
656.515	3239
656.571	3756
656.627	3119
656.683	2293
656.739	3207
656.795	3119
656.850	2929
656.906	3288
656.962	2865
657.018	1871
657.074	2064
657.129	2105
657.185	2475
657.241	2913
657.297	2411
657.352	2522
657.408	2539
657.464	3277
657.519	2736
657.575	1636
657.630	2619
657.686	3370
657.742	1483
657.797	3103
657.853	1836
657.908	3750
657.964	2172
658.019	2382
658.075	2651
658.130	2363
658.186	1481
658.241	2522
658.297	2257
658.352	2424
658.407	2297
658.463	2043
658.518	2627
658.573	3101
658.629	1989
658.684	2624
658.739	2433
658.795	1769
658.850	2269
658.905	1822
658.960	2584
659.016	2144
659.071	1819
659.126	2911
659.181	2090
659.236	3522
659.291	5614
659.346	3797
659.401	2754
659.457	3633
659.512	4713
659.567	4789
659.622	2568
659.677	2462
659.732	1936
659.787	2674
659.842	3007
659.897	3697
659.952	3617
660.007	2676
660.061	2542
660.116	1167
660.171	1804
660.226	1727
660.281	3210
660.336	2311
660.391	2191
660.445	2267
660.500	2690
660.555	1917
660.610	2289
660.664	2927
660.719	2127
660.774	2559
660.828	2816
660.883	2999
660.938	2572
660.992	2074
661.047	3194
661.101	2563
661.156	2654
661.211	2285
661.265	1768
661.320	2176
661.374	2411
661.429	1753
661.483	2436
661.538	2147
661.592	1731
661.647	2075
661.701	3418
661.755	2172
661.810	3699
661.864	1487
661.919	2631
661.973	2776
662.027	2500
662.081	1504
662.136	2184
662.190	2610
662.244	3308
662.299	2401
662.353	3007
662.407	1757
662.461	2158
662.515	2928
662.569	2895
662.624	2883
662.678	2697
662.732	1390
662.786	2103
662.840	2707
662.894	3284
662.948	1695
663.002	2787
663.056	2223
663.110	1766
663.164	1751
663.218	2532
663.272	1297
663.326	2605
663.380	3154
663.434	2225
663.488	2135
663.542	2972
663.595	1915
663.649	1950
663.703	2125
663.757	3043
663.811	1929
663.864	1874
663.918	2059
663.972	1827
664.026	2054
664.079	2397
664.133	2270
664.187	2755
664.240	1959
664.294	2786
664.348	2274
664.401	2496
664.455	2411
664.508	1799
664.562	2192
664.615	2689
664.669	1426
664.722	2529
664.776	2196
664.829	2180
664.883	2469
664.936	1945
664.990	2373
665.043	2586
665.097	2134
665.150	2989
665.203	2418
665.257	2963
665.310	2349
665.363	2684
665.417	1952
665.470	2823
665.523	2625
665.576	2940
665.630	2847
665.683	2354
665.736	2232
665.789	3285
665.842	2381
665.895	2464
665.949	2967
666.002	2665
666.055	2230
666.108	2142
666.161	3113
666.214	3416
666.267	1921
666.320	3089
666.373	3146
666.426	2702
666.479	1734
666.532	2967
666.585	3343
666.638	2929
666.691	3037
666.744	3705
666.796	2626
666.849	2662
666.902	2976
666.955	2463
667.008	1861
667.060	2309
667.113	1764
667.166	1799
667.219	1178
667.271	2014
667.324	1926
667.377	2603
667.430	2747
667.482	2717
667.535	3664
667.587	2426
667.640	2795
667.693	2698
667.745	3433
667.798	5618
667.850	2672
667.903	2019
667.955	2131
668.008	1980
668.060	2285
668.113	2270
668.165	2635
668.218	2618
668.270	2819
668.322	2237
668.375	2467
668.427	3121
668.479	1913
668.532	2744
668.584	2435
668.636	2228
668.689	2535
668.741	2208
668.793	2434
668.845	2207
668.898	2351
668.950	2238
669.002	2642
669.054	1589
669.106	2371
669.158	3155
669.211	3266
669.263	2838
669.315	2843
669.367	3732
669.419	3713
669.471	3833
669.523	2679
669.575	4179
669.627	4222
669.679	3062
669.731	2606
669.783	3682
669.835	3109
669.886	3674
669.938	3552
669.990	2949
670.042	2589
670.094	2957
670.146	3557
670.197	4349
670.249	4813
670.301	7240
670.353	8005
670.404	11682
670.456	16360
670.508	23737
670.560	36907
670.611	58833
670.663	96667
670.715	176537
670.766	364331
670.818	320346
670.869	82757
670.921	25385
670.972	13719
671.024	10149
671.075	7696
671.127	5613
671.178	5217
671.230	5176
671.281	4468
671.333	4041
671.384	3232
671.436	3246
671.487	3668
671.538	4036
671.590	3706
671.641	4425
671.692	3615
671.744	5350
671.795	6820
671.846	4137
671.897	2846
671.949	2424
672.000	2752
672.051	2527
672.102	3357
672.153	2083
672.204	2477
672.256	3147
672.307	2064
672.358	2463
672.409	1985
672.460	2553
672.511	2440
672.562	1721
672.613	2605
672.664	2335
672.715	1958
672.766	1708
672.817	2195
672.868	2665
672.919	2623
672.970	2017
673.021	2278
673.071	2125
673.122	2253
673.173	3018
673.224	2355
673.275	2538
673.326	1710
673.376	1937
673.427	1145
673.478	3353
673.528	2572
673.579	2374
673.630	2007
673.680	2607
673.731	1456
673.782	1502
673.832	1335
673.883	2320
673.934	2354
673.984	1710
674.035	1483
674.085	2397
674.136	2949
674.186	2587
674.237	2502
674.287	3021
674.338	3946
674.388	1518
674.438	1588
674.489	1925
674.539	2071
674.589	3106
674.640	2115
674.690	2168
674.740	1248
674.791	2944
674.841	1952
674.891	2158
674.942	1220
674.992	2197
675.042	1690
675.092	1560
675.142	1615
675.193	2492
675.243	1091
675.293	1589
675.343	1227
675.393	1509
675.443	2065
675.493	2377
675.543	1389
675.593	2086
675.643	2117
675.693	2541
675.743	1812
675.793	2426
675.843	1564
675.893	2546
675.943	2142
675.993	1809
676.043	1576
676.093	2132
676.142	838
676.192	1817
676.242	1974
676.292	997
676.341	1393
676.391	1953
676.441	1895
676.491	1817
676.540	1770
676.590	2693
676.640	1680
676.689	1968
676.739	698
676.789	2031
676.838	1332
676.888	1746
676.937	1181
676.987	1721
677.037	1308
677.086	1000
677.136	1822
677.185	1423
677.235	1443
677.284	1884
677.333	1808
677.383	1234
677.432	1136
677.482	1620
677.531	1536
677.580	767
677.630	1687
677.679	1499
677.728	1191
677.778	1705
677.827	1659
677.876	1686
677.925	1456
677.975	1445
678.024	974
678.073	1160
678.122	1232
678.171	1900
678.220	1415
678.269	2208
678.319	1699
678.368	1845
678.417	1661
678.466	2248
678.515	1640
678.564	2253
678.613	1616
678.662	1188
678.711	1079
678.760	2036
678.809	1814
678.857	1723
678.906	1302
678.955	1726
679.004	1877
679.053	1775
679.102	1520
679.151	1745
679.199	1221
679.248	1123
679.297	1633
679.346	1457
679.394	1661
679.443	963
679.492	345
679.540	1558
679.589	1193
679.638	1719
679.686	1682
679.735	1877
679.784	1582
679.832	1567
679.881	1046
679.929	1753
679.978	1172
680.026	1013
680.075	1238
680.123	1446
680.172	692
680.220	1481
680.268	694
680.317	1004
680.365	902
680.414	1197
680.462	1150
680.510	1679
680.559	378
680.607	1404
680.655	1022
680.703	1611
680.752	894
680.800	1327
680.848	651
680.896	1546
680.945	1101
680.993	1180
681.041	985
681.089	958
681.137	873
681.185	811
681.233	1101
681.258	1001
681.281	888
681.329	599
681.377	1440
681.380	1417
681.425	650
681.473	1861
681.502	1517
681.521	1238
681.569	2066
681.617	747
681.624	861
681.665	1473
681.713	1192
681.745	964
681.761	815
681.809	1148
681.857	1824
681.867	1609
681.904	805
681.952	2213
681.989	1524
682.000	1294
682.048	1495
682.096	1536
682.111	1720
682.143	2032
682.191	1840
682.233	1749
682.239	1723
682.286	1630
682.334	1574
682.354	1610
682.382	1601
682.430	1676
682.476	1819
682.477	1807
682.525	1787
682.572	1316
682.598	1615
682.620	1847
682.667	1930
682.715	2366
682.720	2324
682.763	1734
682.810	2013
682.841	1970
682.857	1930
682.905	1596
682.952	2224
682.963	2302
683.000	2439
683.047	1928
683.085	2692
683.095	2895
683.142	2028
683.190	2054
683.206	2029
683.237	1937
683.284	2647
683.328	2044
683.332	1979
683.379	2824
683.426	2725
683.449	2733
683.473	2721
683.521	2454
683.568	2935
683.571	2919
683.615	2516
683.662	2281
683.693	2160
683.709	2058
683.757	2791
683.804	2675
683.814	2618
683.851	2445
683.898	3083
683.936	3032
683.945	2992
683.992	2993
684.039	2874
684.057	2896
684.086	2951
684.133	3192
684.179	3130
684.180	3112
684.227	3568
684.274	3271
684.300	3576
684.321	3811
684.368	3506
684.415	3829
684.422	3740
684.462	3082
684.509	3392
684.543	3031
684.556	2897
684.603	2962
684.649	2856
684.665	3167
684.696	3821
684.743	3686
684.786	3347
684.790	3313
684.837	3243
684.883	3705
684.908	3575
684.930	3437
684.977	4602
685.023	4220
685.029	4272
685.070	4484
685.117	3876
685.150	3845
685.164	3851
685.210	4326
685.257	4550
685.272	4489
685.303	4365
685.350	4256
685.393	4332
685.396	4323
685.443	4870
685.490	4953
685.514	4723
685.536	4528
685.583	4880
685.629	4719
685.636	4716
685.675	4527
685.722	4902
685.757	4758
685.768	4730
685.815	5217
685.861	4751
685.878	4776
685.908	4814
685.954	4588
686.000	5172
686.000	5180
686.047	4510
686.093	5300
686.121	6114
686.139	6592
686.185	5719
686.232	5820
686.242	5965
686.278	6092
686.324	5292
686.363	5274
686.370	5316
686.416	5114
686.463	5532
686.484	5153
686.509	4746
686.555	5146
686.601	4906
686.606	4938
686.647	5174
686.693	5085
686.727	5054
686.739	5044
686.785	5332
686.831	5371
686.848	5202
686.877	4881
686.923	4886
686.969	4478
686.969	4475
687.015	5078
687.061	4864
687.090	5036
687.107	5145
687.153	5316
687.199	5492
687.211	5459
687.245	5251
687.291	5469
687.332	5326
687.336	5340
687.382	6040
687.428	5884
687.453	5989
687.474	5886
687.520	5617
687.565	5628
687.574	5535
687.611	5322
687.657	5236
687.695	5240
687.702	5273
687.748	5618
687.794	6183
687.816	6357
687.839	6459
687.885	5954
687.931	6052
687.937	6040
687.976	5790
688.022	5552
688.058	5508
688.067	5556
688.113	5862
688.158	6078
688.179	5994
688.204	5879
688.249	5987
688.295	6235
688.300	6226
688.340	6120
688.386	6376
688.421	6083
688.431	6034
688.477	5680
688.522	6352
688.542	6273
688.567	6151
688.613	6536
688.658	6416
688.663	6447
688.703	6663
688.749	6389
688.784	6263
688.794	6272
688.839	6846
688.884	6684
688.905	6729
688.930	6660
688.975	6498
689.020	6695
689.026	6625
689.065	6316
689.110	6307
689.146	6717
689.155	6840
689.201	6241
689.246	6631
689.267	6731
689.291	6725
689.336	6429
689.381	6641
689.388	6532
689.426	6270
689.471	6483
689.509	6676
689.516	6712
689.561	6754
689.606	6736
689.630	6830
689.651	6839
689.696	6735
689.741	6695
689.750	6734
689.785	7024
689.830	7097
689.871	6888
689.875	6854
689.920	7178
689.965	6338
689.992	6395
690.010	6576
690.054	6776
690.099	6859
690.112	6963
690.144	7129
690.189	6926
690.233	6362
690.233	6370
690.278	6948
690.323	6714
690.354	7244
690.367	7438
690.412	7229
690.457	7542
690.474	7445
690.501	7521
690.546	7995
690.590	8155
690.595	8184
690.635	8296
690.680	8380
690.716	8621
690.724	8789
690.769	9458
690.813	10528
690.836	10472
690.857	11046
690.902	13391
690.946	15638
690.957	16098
690.991	20512
691.035	26990
691.077	34105
691.080	34596
691.124	41655
691.168	46504
691.198	49939
691.213	46778
691.257	37925
691.301	29569
691.318	26201
691.346	23365
691.390	18788
691.434	13814
691.439	13341
691.478	12797
691.522	11365
691.559	10301
691.567	10248
691.611	10122
691.655	9601
691.680	9369
691.699	9191
691.743	9062
691.787	8593
691.800	8462
691.831	8486
691.875	8111
691.919	8285
691.921	8271
691.964	8723
692.008	9120
692.041	9369
692.052	9345
692.096	9157
692.139	9289
692.162	9033
692.183	8813
692.227	9015
692.271	8658
692.282	8628
692.315	9048
692.359	9471
692.402	10446
692.403	10465
692.447	9459
692.490	9288
692.523	8778
692.534	8835
692.578	9351
692.622	9569
692.643	9748
692.666	9592
692.709	9131
692.753	8502
692.763	8443
692.797	8690
692.840	8745
692.884	8820
692.884	8841
692.928	9081
692.971	9336
693.004	9342
693.015	9352
693.059	9699
693.102	9723
693.124	9693
693.146	9743
693.189	9988
693.233	10226
693.245	10304
693.276	10692
693.320	10912
693.363	11319
693.365	11309
693.407	11987
693.450	12683
693.485	12928
693.493	13211
693.537	15165
693.580	16987
693.605	18096
693.624	19985
693.667	24057
693.710	28370
693.725	29942
693.753	39486
693.797	54407
693.840	70349
693.845	72203
693.883	86445
693.926	99001
693.966	110460
693.970	108552
694.013	87182
694.056	66352
694.086	51957
694.099	48834
694.142	38521
694.185	28352
694.206	23423
694.229	22030
694.272	19156
694.315	16762
694.326	15988
694.358	15239
694.401	14271
694.444	13273
694.446	13199
694.487	13010
694.530	12766
694.566	12497
694.573	12439
694.616	11799
694.659	11228
694.686	10879
694.702	10746
694.745	10210
694.787	9727
694.806	9540
694.830	9574
694.873	9398
694.916	9454
694.926	9361
694.959	9303
695.002	9605
695.044	9528
695.046	9515
695.087	9708
695.130	9601
695.166	9595
695.172	9649
695.215	9758
695.258	10086
695.286	10147
695.301	10103
695.343	9922
695.386	9739
695.406	9661
695.428	9693
695.471	9615
695.514	9627
695.526	9562
695.556	9319
695.599	9166
695.641	8877
695.646	8823
695.684	9286
695.726	9866
695.766	10239
695.769	10223
695.811	9741
695.854	9193
695.886	8726
695.896	8770
695.938	8937
695.981	9123
696.005	9135
696.023	9134
696.065	9103
696.108	9263
696.125	9206
696.150	9311
696.192	9643
696.235	9792
696.245	9824
696.277	9728
696.319	9450
696.361	9328
696.365	9290
696.404	9809
696.446	10414
696.485	10823
696.488	10846
696.530	10838
696.572	10738
696.604	10722
696.614	10724
696.656	10600
696.698	10485
696.724	10400
696.740	10327
696.783	9961
696.825	9639
696.844	9437
696.867	9454
696.909	9593
696.951	9494
696.964	9527
696.992	9742
697.034	9760
697.076	9944
697.083	9937
697.118	10078
697.160	10205
697.202	10401
697.203	10377
697.244	10099
697.286	9836
697.323	9442
697.327	9476
697.369	9687
697.411	9884
697.442	9985
697.453	9974
697.494	9780
697.536	9637
697.562	9541
697.578	9654
697.620	9781
697.661	9919
697.682	9955
697.703	9847
697.744	9690
697.786	9537
697.801	9426
697.828	9831
697.869	10446
697.911	11019
697.921	11138
697.952	10861
697.994	10437
698.035	10041
698.040	9963
698.077	9912
698.118	9872
698.160	9747
698.160	9719
698.201	9792
698.243	9796
698.279	9811
698.284	9849
698.325	9962
698.367	10014
698.399	10059
698.408	10077
698.449	10014
698.491	9942
698.518	9889
698.532	9895
698.573	9786
698.614	9724
698.638	9653
698.656	9620
698.697	9470
698.738	9333
698.757	9244
698.779	9479
698.820	9865
698.862	10262
698.877	10383
698.903	10447
698.944	10499
698.985	10556
698.996	10544
699.026	10639
699.067	10733
699.116	10817
699.235	9645
699.354	9720
699.474	9546
699.593	10959
699.713	11750
699.832	10129
699.951	9859
700.070	10448
700.190	10237
700.309	10746
700.428	10503
700.547	10476
700.667	10133
700.786	10226
700.905	10676
701.024	9715
701.143	10671
701.262	8752
701.381	9325
701.500	9571
701.619	9671
701.738	9535
701.857	8642
701.976	9283
702.095	9317
702.214	9251
702.333	9852
702.452	9754
702.571	9734
702.690	9079
702.809	9424
702.928	9310
703.047	8341
703.165	9888
703.284	8207
703.403	9052
703.522	8712
703.640	9735
703.759	9429
703.878	12533
703.997	10288
704.115	9073
704.234	8695
704.353	9031
704.471	8623
704.590	7853
704.708	8446
704.827	7818
704.946	8177
705.064	8926
705.183	8301
705.301	8714
705.420	11824
705.538	13571
705.656	11066
705.775	11049
705.893	14263
706.012	30322
706.130	14880
706.249	11225
706.367	11311
706.485	11228
706.604	11451
706.722	11441
706.840	12108
706.958	13232
707.077	12022
707.195	9977
707.313	10055
707.431	9814
707.549	9310
707.668	9607
707.786	10381
707.904	9850
708.022	9108
708.140	9193
708.258	9070
708.376	9720
708.494	8558
708.612	10057
708.730	11635
708.848	13079
708.966	12871
709.084	11381
709.202	11444
709.320	11535
709.438	11776
709.556	12020
709.674	11663
709.791	11184
709.909	11761
710.027	11545
710.145	10917
710.263	11537
710.380	10907
710.498	11789
710.616	10979
710.733	11529
710.851	10686
710.969	11295
711.086	10705
711.204	11480
711.322	10815
711.439	11156
711.557	11628
711.674	10635
711.792	10539
711.909	11249
712.027	12479
712.144	10755
712.262	9696
712.379	9729
712.497	12893
712.614	15595
712.732	13095
712.849	11635
712.966	13252
713.084	14105
713.201	13416
713.318	12971
713.436	11839
713.553	12853
713.670	12152
713.787	12305
713.905	13846
714.022	11996
714.139	12406
714.256	12115
714.373	11777
714.490	13144
714.608	14330
714.725	26587
714.842	67707
714.959	20333
715.076	12306
715.193	10916
715.310	11498
715.427	10997
715.544	10941
715.661	10597
715.778	9859
715.895	11150
716.011	10688
716.128	10418
716.245	10523
716.362	10663
716.479	12417
716.596	11025
716.713	10075
716.829	10612
716.946	10549
717.063	10361
717.180	9691
717.296	9913
717.413	9703
717.530	9528
717.646	9939
717.763	9666
717.880	9093
717.996	9782
718.113	9167
718.229	9736
718.346	9368
718.462	9042
718.579	10525
718.695	13364
718.812	15555
718.928	11672
719.045	12091
719.161	8747
719.277	9824
719.394	9164
719.510	9302
719.626	9233
719.743	9079
719.859	9347
719.975	9026
720.092	11774
720.208	25634
720.324	17838
720.440	8981
720.557	9980
720.673	10545
720.789	15150
720.905	23738
721.021	26526
721.137	9389
721.253	8747
721.369	9067
721.486	9138
721.602	10469
721.718	10535
721.834	8036
721.950	8116
722.066	7425
722.181	8382
722.297	8141
722.413	7904
722.529	7831
722.645	7816
722.761	7827
722.877	7577
722.993	7701
723.108	8035
723.224	8581
723.340	7770
723.456	7034
723.571	6900
723.687	7611
723.803	7878
723.918	7419
724.034	7476
724.150	7238
724.265	7589
724.381	10030
724.497	20364
724.612	9384
724.728	7157
724.843	7153
724.959	7158
725.074	9573
725.190	18328
725.305	9265
725.421	7803
725.536	6675
725.651	7343
725.767	6182
725.882	7170
725.997	6499
726.113	6688
726.228	6761
726.343	6473
726.459	5975
726.574	7518
726.689	6572
726.804	5543
726.920	7178
727.035	6329
727.150	6571
727.265	7186
727.380	6665
727.495	6141
727.610	6436
727.725	6868
727.841	7101
727.956	9665
728.071	15475
728.186	7063
728.301	5163
728.416	6368
728.531	6000
728.645	5975
728.760	5843
728.875	6595
728.990	6915
729.105	6390
729.220	6293
729.335	6361
729.449	5204
729.564	5228
729.679	5106
729.794	5451
729.908	5272
730.023	6795
730.138	5280
730.253	5040
730.367	5694
730.482	6526
730.596	5593
730.711	6141
730.826	5980
730.940	6270
731.055	5627
731.169	5329
731.284	5341
731.398	5302
731.513	6140
731.627	6558
731.742	5256
731.856	7421
731.970	5848
732.085	4808
732.199	5441
732.313	6060
732.428	6584
732.542	9836
732.656	12689
732.771	5901
732.885	4619
732.999	5429
733.113	6023
733.227	6034
733.342	5836
733.456	4664
733.570	4846
733.684	4802
733.798	4899
733.912	5026
734.026	3959
734.140	4564
734.254	4550
734.368	5354
734.482	11644
734.596	5969
734.710	4544
734.824	4967
734.938	5120
735.052	4746
735.166	5151
735.280	6046
735.393	5035
735.507	4445
735.621	6028
735.735	7950
735.849	8507
735.962	5408
736.076	4844
736.190	5141
736.303	5979
736.417	8399
736.531	5439
736.644	4548
736.758	4874
736.872	4514
736.985	4338
737.099	4770
737.212	3936
737.326	4268
737.439	4437
737.553	4679
737.666	4774
737.780	4341
737.893	4257
738.007	3895
738.120	4498
738.233	3638
738.347	3804
738.460	4471
738.573	3972
738.687	4517
738.800	4659
738.913	4952
739.026	5784
739.140	4630
739.253	6273
739.366	4336
739.479	4032
739.592	3623
739.705	4170
739.818	4407
739.932	4501
740.045	4824
740.158	4168
740.271	4201
740.384	4196
740.497	4560
740.610	4571
740.723	3948
740.836	4787
740.949	4714
741.062	4750
741.174	6344
741.287	5102
741.400	4127
741.513	4123
741.626	4476
741.739	4749
741.851	4667
741.964	4044
742.077	4465
742.189	4022
742.302	4692
742.415	5134
742.527	5209
742.640	3453
742.753	4349
742.865	3966
742.978	4495
743.090	3940
743.203	3941
743.316	4763
743.428	4442
743.541	3980
743.653	4406
743.766	3758
743.878	4116
743.990	4425
744.103	5807
744.215	4418
744.327	4243
744.440	4596
744.552	6141
744.664	5883
744.777	3813
744.889	3673
745.001	4688
745.113	3827
745.226	2968
745.338	4663
745.450	4323
745.562	4843
745.674	4062
745.786	3204
745.898	3671
746.010	3703
746.122	4382
746.234	3436
746.347	4787
746.459	3995
746.570	4450
746.682	3858
746.794	4451
746.906	3847
747.018	3534
747.130	4648
747.242	4060
747.354	3976
747.466	4644
747.577	3392
747.689	4426
747.801	3987
747.913	3525
748.024	4555
748.136	3142
748.248	4307
748.359	3987
748.471	3205
748.583	4095
748.694	3981
748.806	5167
748.918	4943
749.029	5383
749.141	4333
749.252	4807
749.364	4135
749.475	5639
749.587	7375
749.698	4408
749.809	4500
749.921	4239
750.032	3818
750.144	4209
750.255	4165
750.366	3596
750.478	3823
750.589	4408
750.700	4204
750.811	4433
750.923	4629
751.034	5043
751.145	8452
751.256	5689
751.367	4316
751.479	3841
751.590	4384
751.701	4871
751.812	3646
751.923	4711
752.034	3490
752.145	4198
752.256	3905
752.367	3691
752.478	4652
752.589	3750
752.700	3674
752.811	4499
752.922	4244
753.032	3564
753.143	4238
753.254	4385
753.365	4299
753.476	3494
753.586	4691
753.697	3493
753.808	4621
753.919	4006
754.029	4405
754.140	3258
754.251	3333
754.361	3616
754.472	3725
754.582	4441
754.693	4264
754.804	4230
754.914	4436
755.025	3446
755.135	3877
755.246	5158
755.356	4334
755.466	4813
755.577	4509
755.687	4700
755.798	4347
755.908	4611
756.018	4490
756.129	3971
756.239	3849
756.349	4164
756.460	4590
756.570	4610
756.680	4569
756.790	3858
756.900	4733
757.011	5343
757.121	4282
757.231	4368
757.341	5029
757.451	4277
757.561	5049
757.671	4587
757.781	4176
757.891	4809
758.001	4869
758.111	5061
758.221	4864
758.331	5459
758.441	5386
758.551	6425
758.661	6762
758.771	5447
758.880	4973
758.990	5784
759.100	6241
759.210	5347
759.320	5971
759.429	5637
759.539	5666
759.649	6520
759.758	6026
759.868	5872
759.978	6113
760.087	5567
760.197	5917
760.307	6697
760.416	6498
760.526	6284
760.635	6887
760.745	7343
760.854	7237
760.964	7318
761.073	6763
761.182	6556
761.292	7724
761.401	8479
761.511	7920
761.620	8263
761.729	7775
761.839	8301
761.948	8811
762.057	8794
762.166	9163
762.276	9049
762.385	9163
762.494	9046
762.603	9727
762.712	10639
762.822	10659
762.931	11418
763.040	11448
763.149	12380
763.258	12187
763.367	13410
763.476	13910
763.585	14772
763.694	15074
763.803	16181
763.912	16918
764.021	17738
764.130	18148
764.238	19532
764.347	20754
764.456	23266
764.565	24282
764.674	25311
764.783	27541
764.891	30884
765.000	34686
765.109	39369
765.217	44449
765.326	51968
765.435	60881
765.543	74238
765.652	89039
765.761	115103
765.869	149878
765.978	204460
766.086	292464
766.195	427586
766.303	608212
766.412	666891
766.520	504247
766.629	674875
766.737	570172
766.846	382447
766.954	260414
767.062	187142
767.171	141887
767.279	109753
767.387	86141
767.496	71933
767.604	60983
767.712	52907
767.820	46956
767.928	43042
768.037	39953
768.145	36749
768.253	33956
768.361	33322
768.469	33211
768.577	32607
768.685	34170
768.793	37298
768.901	38413
769.009	44888
769.117	52237
769.225	65249
769.333	87117
769.441	124941
769.549	191084
769.657	318686
769.765	522723
769.873	577043
769.981	559572
770.088	488893
770.196	283773
770.304	176222
770.412	122624
770.519	90208
770.627	71038
770.735	56874
770.842	46460
770.950	40408
771.058	35258
771.165	31278
771.273	28012
771.380	25465
771.488	23153
771.595	21155
771.703	20133
771.810	17783
771.918	17047
772.025	16364
772.133	14316
772.240	13808
772.348	14162
772.455	12889
772.562	12724
772.670	11317
772.777	11675
772.884	11068
772.991	10796
773.099	10323
773.206	9304
773.313	9859
773.420	9274
773.528	8419
773.635	7966
773.742	8396
773.849	7545
773.956	7266
774.063	7862
774.170	7631
774.277	7860
774.384	6992
774.491	6539
774.598	6600
774.705	7218
774.812	6488
774.919	7208
775.026	6348
775.133	7494
775.239	6715
775.346	6265
775.453	6305
775.560	5404
775.667	5498
775.773	5897
775.880	6364
775.987	4963
776.093	5341
776.200	5778
776.307	4643
776.413	5056
776.520	5257
776.627	4688
776.733	5657
776.840	4644
776.946	6423
777.053	5142
777.159	5032
777.266	4566
777.372	4765
777.478	5814
777.585	5524
777.691	5441
777.798	4810
777.904	4497
778.010	4826
778.117	6286
778.223	5011
778.329	4539
778.435	3639
778.542	4514
778.648	4345
778.754	4721
778.860	3720
778.966	3703
779.072	3960
779.178	4629
779.284	3850
779.391	4235
779.497	4051
779.603	5251
779.708	8188
779.815	15790
779.920	44497
780.026	139274
780.132	70353
780.238	9599
780.344	5898
780.450	5152
780.556	3789
780.661	3849
780.767	3310
780.873	3849
780.979	4021
781.085	2788
781.190	2721
781.296	3714
781.402	2444
781.507	3323
781.613	3576
781.719	2519
781.824	2931
781.930	3319
782.035	3728
782.141	3295
782.246	2175
782.352	2940
782.457	2528
782.563	2776
782.668	2751
782.773	3637
782.879	2485
782.984	3093
783.090	3035
783.195	3476
783.300	4207
783.405	3482
783.511	2635
783.616	2711
783.721	3939
783.826	2126
783.932	3193
784.037	3387
784.142	3001
784.247	3035
784.352	4244
784.457	2056
784.562	2923
784.667	3006
784.772	2968
784.877	2879
784.982	3892
785.087	2855
785.192	2856
785.297	2508
785.402	2551
785.507	3017
785.611	2755
785.716	2605
785.821	2812
785.926	2248
786.031	3080
786.135	2503
786.240	3255
786.345	2134
786.450	2346
786.554	1954
786.659	2258
786.763	1089
786.868	2611
786.973	3022
787.077	2401
787.182	1800
787.286	2287
787.391	2175
787.495	2876
787.600	1412
787.704	2343
787.809	2329
787.913	2286
788.017	1994
788.122	2578
788.226	2481
788.330	2228
788.435	2457
788.539	2586
788.643	1522
788.747	2418
788.852	1435
788.956	2081
789.060	1463
789.164	1966
789.268	1732
789.372	1755
789.476	1899
789.580	1936
789.684	2190
789.788	1357
789.892	1515
789.996	2603
790.100	2509
790.204	1975
790.308	2263
790.412	2218
790.516	2627
790.620	2695
790.724	1609
790.828	1910
790.931	1380
791.035	2870
791.139	1705
791.242	2712
791.346	2337
791.450	2968
791.554	1195
791.657	1967
791.761	2039
791.864	2147
791.968	1595
792.072	2605
792.175	1173
792.279	1570
792.382	2244
792.486	2147
792.589	1946
792.693	2402
792.796	1248
792.899	2143
793.003	2441
793.106	1788
793.209	1149
793.313	2210
793.416	901
793.519	2067
793.623	2211
793.726	2324
793.829	3375
793.932	1947
794.035	1239
794.138	2571
794.242	3186
794.345	3535
794.448	5086
794.551	8718
794.654	26849
794.757	78389
794.860	44088
794.963	6169
795.066	2441
795.169	2820
795.272	1853
795.375	2549
795.477	1922
795.580	2498
795.683	861
795.786	2497
795.889	1117
795.991	2738
796.094	1956
796.197	1221
796.300	2653
796.402	1953
796.505	781
796.608	1201
796.710	1467
796.813	1205
796.915	1712
797.018	2098
797.120	1474
797.223	1097
797.326	2292
797.428	1685
797.530	1174
797.633	1101
797.735	2068
797.838	1542
797.940	3470
798.042	2172
798.145	2053
798.247	2146
798.349	1343
798.452	2187
798.554	893
798.656	980
798.758	1870
798.860	2193
798.962	1146
799.065	1181
799.167	1081
799.269	1408
799.371	1515
799.473	2148
799.575	1012
799.677	1944
799.779	2639
799.881	1892
799.983	3215
800.085	2189
800.187	871
800.289	537
800.390	2083
800.492	1831
800.594	1715
800.696	779
800.798	1667
800.899	1834
801.001	1321
801.103	793
801.205	444
801.306	1078
801.408	1048
801.509	735
801.611	696
801.713	696
801.814	1166
801.916	1032
802.017	753
802.119	907
802.220	1109
802.322	1017
802.423	1451
802.525	1527
802.626	1640
802.727	1029
802.829	1116
802.930	353
803.031	2448
803.133	1758
803.234	892
803.335	821
803.436	820
803.538	1312
803.639	-165
803.740	1528
803.841	1110
803.942	1057
804.043	1081
804.144	661
804.245	863
804.346	454
804.447	383
804.548	1657
804.649	2122
804.750	987
804.851	1505
804.952	1005
805.053	671
805.154	118
805.255	327
805.355	1371
805.456	589
805.557	1280
805.658	940
805.758	1027
805.859	552
805.960	1401
806.061	742
806.161	1153
806.262	957
806.362	1100
806.463	1258
806.564	886
806.664	1382
806.765	753
806.865	968
806.966	1659
807.066	1644
807.166	954
807.267	876
807.367	1038
807.468	580
807.568	525
807.668	1229
807.769	1434
807.869	765
807.969	903
808.069	854
808.170	1194
808.270	505
808.370	918
808.470	1410
808.570	1241
808.670	711
808.770	614
808.870	628
808.970	1050
809.070	572
809.170	786
809.271	1203
809.370	557
809.470	623
809.570	783
809.670	372
809.770	1142
809.870	345
809.970	1325
810.070	350
810.169	957
810.269	138
810.369	1080
810.469	416
810.568	1601
810.668	908
810.768	1263
810.867	1009
810.967	479
811.066	1463
811.166	502
811.265	794
811.365	243
811.464	83
811.564	968
811.663	1417
811.763	301
811.862	1251
811.962	610
812.061	1002
812.160	578
812.260	850
812.359	1621
812.458	1617
812.557	2497
812.657	6695
812.756	5394
812.855	1102
812.954	760
813.053	1232
813.153	1230
813.252	1300
813.351	1518
813.450	1505
813.549	1173
813.648	671
813.747	929
813.846	910
813.945	1325
814.044	701
814.143	1794
814.242	1383
814.341	1256
814.439	1160
814.538	2086
814.637	1587
814.736	1544
814.835	1974
814.933	1364
815.032	1395
815.131	1144
815.229	1488
815.328	1711
815.427	1214
815.525	1199
815.624	833
815.722	644
815.821	1333
815.919	1577
816.018	645
816.116	1553
816.215	2316
816.313	2381
816.412	2076
816.510	2666
816.609	2170
816.707	3472
816.805	2511
816.904	3333
817.002	2634
817.100	3708
817.198	3321
817.296	3661
817.395	4772
817.493	6131
817.591	6634
817.689	8746
817.787	11504
817.885	17267
817.983	26730
818.081	50799
818.179	103533
818.277	229617
818.375	371561
818.473	222821
818.571	85647
818.669	44365
818.767	31521
818.865	28003
818.963	29877
819.061	36206
819.158	54478
819.256	94132
819.354	181186
819.452	353370
819.549	428454
819.647	258673
819.745	117929
819.842	60841
819.940	38965
820.038	26480
820.135	20012
820.233	16044
820.330	12056
820.428	9448
820.525	8692
820.623	8139
820.720	5462
820.818	5485
820.915	4728
821.012	4217
821.110	4004
821.207	4284
821.304	2721
821.402	3282
821.499	3544
821.596	3231
821.693	3090
821.791	3644
821.888	3179
821.985	3880
822.082	4002
822.179	3126
822.276	1829
822.373	2440
822.470	1292
822.567	1719
822.664	1270
822.761	1414
822.858	608
822.955	1222
823.052	1823
823.149	1366
823.246	2101
823.343	1407
823.440	1454
823.536	671
823.633	638
823.730	1131
823.827	1168
823.923	581
824.020	1248
824.117	1071
824.213	444
824.310	2112
824.407	1281
824.503	987
824.600	658
824.696	993
824.793	1080
824.889	647
824.986	597
825.082	871
825.179	1377
825.275	729
825.371	579
825.468	703
825.564	-124
825.660	1233
825.757	1045
825.853	1866
825.949	323
826.045	1540
826.142	-51
826.238	1178
826.334	775
826.430	609
826.526	438
826.622	388
826.718	270
826.814	675
826.910	999
827.006	342
827.102	-304
827.198	290
827.294	-232
827.390	547
827.486	482
827.582	-503
827.678	-293
827.774	833
827.869	118
827.965	889
828.061	-608
828.157	408
828.252	263
828.348	362
828.444	1229
828.539	635
828.635	436
828.731	820
828.826	537
828.922	512
829.017	565
829.113	463
829.208	147
829.304	88
829.399	912
829.495	276
829.590	308
829.685	526
829.781	510
829.876	496
829.971	-97
830.066	79
830.162	-13
830.257	-121
830.352	-434
830.447	371
830.543	577
830.638	35
830.733	850
830.828	-210
830.923	12
831.018	251
831.113	7
831.208	-319
831.303	259
831.398	838
831.493	259
831.588	226
831.683	-238
831.778	333
831.873	462
831.967	661
832.062	-203
832.157	68
832.252	705
832.346	-603
832.441	1237
832.536	773
832.631	1188
832.725	2612
832.820	651
832.914	314
833.009	-433
833.104	1002
833.198	1075
833.293	332
833.387	474
833.482	-34
833.576	-428
833.670	536
833.765	-1076
833.859	445
833.954	-48
834.048	-424
834.142	556
834.237	-37
834.331	-304
834.425	187
834.519	-761
834.613	437
834.708	-25
834.802	666
834.896	226
834.990	389
835.084	-51
835.178	-398
835.272	41
835.366	624
835.460	-420
835.554	-540
835.648	-16
835.742	-287
835.836	630
835.930	-18
836.024	290
836.117	47
836.211	455
836.305	310
836.399	1296
836.493	770
836.586	188
836.680	170
836.774	-342
836.867	1252
836.961	-155
837.055	31
837.148	67
837.242	539
837.335	-328
837.429	-12
837.522	-60
837.616	276
837.709	40
837.803	1776
837.896	150
837.989	617
838.083	263
838.176	1204
838.269	1841
838.363	1009
838.456	405
838.549	724
838.642	220
838.735	2545
838.829	2278
838.922	559
839.015	-127
839.108	-424
839.201	797
839.294	565
839.387	301
839.480	426
839.573	-125
839.666	1149
839.759	764
839.852	-413
839.945	-342
840.038	-448
840.131	301
840.223	-1
840.316	170
840.409	77
840.502	-225
840.594	-340
840.687	-969
840.780	-69
840.873	-196
840.965	406
841.058	538
841.150	1675
841.243	1480
841.336	585
841.428	-181
841.521	150
841.613	-92
841.706	1101
841.798	-376
841.890	317
841.983	-181
842.075	699
842.167	228
842.260	-86
842.352	268
842.444	467
842.537	1532
842.629	3375
842.721	2222
842.813	95
842.905	-400
842.997	368
843.090	275
843.182	700
843.274	982
843.366	4106
843.458	7054
843.550	9473
843.642	2881
843.734	979
843.826	344
843.918	1316
844.009	296
844.101	374
844.193	-191
844.285	308
844.377	127
844.469	104
844.560	-76
844.652	210
844.744	857
844.835	160
844.927	-39
845.019	367
845.110	368
845.202	27
845.293	316
845.385	808
845.476	930
845.568	26
845.659	-189
845.751	924
845.842	-353
845.934	-340
846.025	-229
846.116	735
846.208	385
846.299	-169
846.390	125
846.482	208
846.573	244
846.664	680
846.755	1099
846.846	595
846.937	-539
847.029	515
847.120	-128
847.211	-407
847.302	477
847.393	-923
847.484	137
847.575	-267
847.666	-281
847.757	249
847.847	-619
847.938	1082
848.029	-33
848.120	323
848.211	-109
848.302	373
848.392	46
848.483	168
848.574	-311
848.664	-6
848.755	-311
848.846	544
848.936	-65
849.027	101
849.118	-173
849.208	-551
849.299	-440
849.389	706
849.480	254
849.570	877
849.661	244
849.751	739
849.841	1130
849.932	-486
850.022	6
850.112	7
850.203	265
850.293	-363
850.383	-195
850.474	-558
850.564	218
850.654	177
850.744	119
850.834	-118
850.924	-137
851.014	235
851.104	-49
851.194	-369
851.284	-307
851.374	630
851.464	163
851.554	130
851.644	-618
851.734	918
851.824	1085
851.914	1563
852.004	2613
852.094	4406
852.183	1545
852.273	600
852.363	-92
852.452	-174
852.542	-465
852.632	-829
852.721	-695
852.811	-639
852.901	-408
852.990	-265
853.080	-1089
853.169	-523
853.259	-382
853.348	-224
853.438	-590
853.527	812
853.617	262
853.706	-170
853.795	19
853.885	1788
853.974	3115
854.063	5140
854.152	11510
854.242	10464
854.331	1634
854.420	310
854.509	-623
854.598	386
854.687	-363
854.777	-163
854.866	423
854.955	145
855.044	-1088
855.133	-384
855.222	-117
855.311	-180
855.400	131
855.488	167
855.577	-916
855.666	-103
855.755	815
855.844	-79
855.933	-65
856.021	440
856.110	226
856.199	84
856.288	86
856.376	-31
856.465	-1311
856.554	-401
856.642	-641
856.731	-503
856.819	-429
856.908	-625
856.996	-739
857.085	32
857.173	352
857.262	9
857.350	-909
857.438	-601
857.527	158
857.615	-753
857.703	-532
857.792	-282
857.880	-598
857.968	-320
858.056	-577
858.145	-496
858.233	-240
858.321	234
858.409	-167
858.497	-830
858.585	-928
858.673	117
858.761	-518
858.849	-445
858.937	-114
859.025	380
859.113	-447
859.201	-1095
859.289	-71
859.377	-692
859.465	-135
859.552	-413
859.640	-287
859.728	-193
859.816	-245
859.903	-13
859.991	-751
860.079	-417
860.166	150
860.254	-402
860.342	-759
860.429	-567
860.517	-90
860.604	-129
860.692	-782
860.779	124
860.867	-121
860.954	-539
861.042	8
861.129	-380
861.216	-119
861.304	-120
861.391	206
861.478	411
861.565	-675
861.653	455
861.740	-452
861.827	-719
861.914	-598
862.001	-1523
862.089	-355
862.176	-656
862.263	-1030
862.350	-292
862.437	-298
862.524	-321
862.611	-369
862.698	-439
862.785	-634
862.871	-568
862.958	-102
863.045	-92
863.132	-468
863.219	-469
863.306	-530
863.392	-117
863.479	-875
863.566	-538
863.652	-103
863.739	-793
863.826	-249
863.912	-188
863.999	-858
864.086	609
864.172	-41
864.259	-940
864.345	-1184
864.432	594
864.518	-893
864.604	-276
864.691	-543
864.777	-336
864.863	7
864.950	3
865.036	-50
865.122	-432
865.209	-192
865.295	-580
865.381	-792
865.467	251
865.553	-228
865.639	-909
865.726	-661
865.812	974
865.898	1521
865.984	2133
866.070	3937
866.156	8243
866.242	4485
866.328	260
866.414	-931
866.499	-1095
866.585	-265
866.671	-1430
866.757	-833
866.843	103
866.928	-566
867.014	52
867.100	39
867.186	-781
867.271	-402
867.357	416
867.442	-474
867.528	-274
867.614	-384
867.699	501
867.785	-280
867.870	-817
867.956	45
868.041	567
868.127	-40
868.212	72
868.297	100
868.383	-141
868.468	-221
868.553	254
868.639	882
868.724	663
868.809	3410
868.894	1308
868.979	-470
869.065	336
869.150	-812
869.235	-392
869.320	229
869.405	-235
869.490	-1470
869.575	-868
869.660	-590
869.745	-642
869.830	-364
869.915	-640
870.000	-495
870.085	-714
870.169	-365
870.254	-696
870.339	-773
870.424	-867
870.509	-351
870.593	-641
870.678	-660
870.763	-347
870.847	-79
870.932	-657
871.016	-1360
871.101	-221
871.186	-369
871.270	-718
871.355	-1750
871.439	-186
871.523	-1209
871.608	383
871.692	338
871.777	-901
871.861	-727
871.945	-1517
872.030	-733
872.114	-624
872.198	-17
872.282	-815
872.367	-137
872.451	-641
872.535	-1227
872.619	-539
872.703	-316
872.787	-572
872.871	-489
872.955	-1019
873.039	-560
873.123	-29
873.207	45
873.291	-366
873.375	-595
873.459	-842
873.543	-510
873.627	-725
873.711	-726
873.794	102
873.878	-568
873.962	-88
874.045	-756
874.129	-977
874.137	-859
874.213	320
874.245	106
874.296	-238
874.352	-661
874.380	-867
874.460	-122
874.464	-93
874.547	-1228
874.568	-916
874.631	26
874.676	-201
874.714	-400
874.784	-506
874.798	-526
874.881	-23
874.892	-106
874.965	-693
874.999	-792
875.048	-900
875.107	-513
875.131	-372
875.215	-137
875.215	-137
875.298	-845
875.323	-671
875.381	-267
875.430	-453
875.465	-530
875.538	-585
875.548	-612
875.631	-940
875.646	-836
875.714	-299
875.753	-476
875.798	-642
875.861	-384
875.881	-309
875.964	-206
875.968	-196
876.047	22
876.076	-74
876.130	-309
876.183	-372
876.213	-430
876.291	214
876.296	267
876.379	-563
876.398	-484
876.462	-285
876.506	-684
876.545	-1017
876.613	-675
876.628	-608
876.711	586
876.721	470
876.794	-335
876.828	-617
876.877	-1064
876.935	-395
876.960	-90
877.043	294
877.043	290
877.125	-750
877.150	-620
877.208	-228
877.258	-111
877.291	-27
877.365	25
877.374	35
877.456	366
877.472	225
877.539	-320
877.579	-82
877.622	76
877.687	317
877.704	407
877.787	505
877.794	412
877.869	-593
877.901	-226
877.952	351
878.008	284
878.034	228
878.115	-412
878.117	-421
878.199	-507
878.222	-389
878.282	-67
878.329	69
878.364	93
878.437	-61
878.447	-58
878.529	-461
878.544	-378
878.611	10
878.651	134
878.694	72
878.758	59
878.776	171
878.858	-758
878.865	-682
878.941	92
878.972	-131
879.023	-546
879.078	44
879.105	367
879.185	-125
879.187	-133
879.269	850
879.292	679
879.351	113
879.399	36
879.433	23
879.506	106
879.516	118
879.598	-23
879.613	-14
879.680	10
879.720	293
879.762	675
879.827	96
879.844	-110
879.926	57
879.933	14
880.007	-312
880.040	-203
880.089	97
880.147	-85
880.171	-187
880.253	300
880.254	300
880.335	740
880.360	826
880.417	1161
880.467	1469
880.499	1619
880.574	2925
880.580	3022
880.662	1851
880.680	1646
880.744	662
880.787	250
880.825	189
880.893	591
880.907	612
880.989	-358
881.000	-285
881.070	445
881.106	299
881.152	2
881.213	-97
881.233	-71
881.315	50
881.319	82
881.396	617
881.426	538
881.478	349
881.532	388
881.559	401
881.639	-245
881.641	-261
881.722	162
881.745	10
881.803	69
881.852	355
881.885	361
881.958	83
881.966	92
882.047	474
882.064	636
882.129	1093
882.171	1163
882.210	1175
882.277	928
882.291	908
882.372	684
882.383	678
882.454	351
882.489	227
882.535	352
882.596	671
882.616	690
882.697	434
882.702	423
882.778	723
882.808	772
882.859	413
882.914	288
882.940	505
883.020	541
883.021	539
883.102	145
883.127	115
883.183	632
883.233	529
883.264	243
883.339	336
883.345	393
883.426	371
883.445	533
883.507	530
883.551	123
883.587	-27
883.657	558
883.668	693
883.749	947
883.763	988
883.830	558
883.869	337
883.910	468
883.975	724
883.991	796
884.072	925
884.081	935
884.152	752
884.187	648
884.233	422
884.292	95
884.314	46
884.394	213
884.398	200
884.475	571
884.504	777
884.555	933
884.610	1150
884.636	1065
884.716	517
884.716	521
884.797	536
884.821	421
884.877	474
884.927	572
884.958	488
885.033	307
885.038	331
885.118	932
885.139	927
885.199	356
885.244	219
885.279	725
885.350	1557
885.359	1471
885.439	554
885.456	354
885.520	442
885.561	719
885.600	819
885.667	556
885.680	542
885.760	748
885.773	772
885.840	908
885.878	918
885.920	1062
885.984	1390
886.000	1309
886.080	598
886.089	523
886.160	614
886.195	701
886.240	747
886.300	817
886.320	781
886.400	698
886.406	677
886.480	809
886.511	855
886.560	890
886.616	906
886.640	918
886.720	923
886.722	921
886.800	784
886.827	671
886.879	913
886.932	1108
886.959	1038
887.038	996
887.039	1005
887.119	1232
887.143	1289
887.198	936
887.248	663
887.278	614
887.354	273
887.358	301
887.437	930
887.459	1126
887.517	825
887.564	473
887.596	613
887.669	886
887.676	884
887.755	880
887.774	872
887.835	1012
887.880	1133
887.914	1204
887.985	1226
887.994	1220
888.073	1093
888.090	1083
888.153	806
888.195	577
888.232	847
888.300	1349
888.311	1319
888.391	1024
888.405	976
888.470	1664
888.510	2039
888.549	1671
888.615	1030
888.628	1059
888.708	1220
888.720	1251
888.787	1298
888.825	1264
888.866	1083
888.930	797
888.945	835
889.024	1004
889.035	1031
889.103	1477
889.140	1685
889.182	1422
889.245	1026
889.261	1058
889.340	1196
889.349	1210
889.419	1098
889.454	1021
889.498	1072
889.559	1169
889.577	1079
889.656	649
889.664	606
889.735	1290
889.768	1611
889.814	1512
889.873	1371
889.978	1580
890.083	1879
890.187	2189
890.292	1626
890.397	2035
890.501	458
890.606	1735
890.710	2075
890.815	1362
890.919	1456
891.024	1327
891.128	1337
891.233	1976
891.337	1075
891.442	1341
891.546	2342
891.650	1549
891.755	1026
891.859	1748
891.963	1494
892.068	1143
892.172	1609
892.276	885
892.380	1041
892.484	862
892.589	1547
892.693	918
892.797	662
892.901	1809
893.005	263
893.109	1904
893.213	1918
893.317	1712
893.421	1066
893.525	1144
893.629	1149
893.733	1720
893.837	1333
893.941	1864
894.045	2416
894.148	2810
894.252	7088
894.356	5035
894.460	1956
894.564	1261
894.667	989
894.771	1143
894.875	1461
894.978	1197
895.082	739
895.186	1780
895.289	1476
895.393	1726
895.496	1060
895.600	1533
895.703	801
895.807	1154
895.910	1828
896.014	1326
896.117	1350
896.221	1739
896.324	921
896.427	2389
896.531	2273
896.634	1481
896.737	1249
896.840	663
896.944	1245
897.047	1625
897.150	909
897.253	1270
897.356	1057
897.460	1279
897.563	774
897.666	1181
897.769	759
897.872	995
897.975	994
898.078	520
898.181	26
898.284	1213
898.387	735
898.490	1377
898.593	1590
898.695	963
898.798	935
898.901	1474
899.004	719
899.107	1614
899.209	1547
899.312	1454
899.415	1041
899.518	1257
899.620	891
899.723	1012
899.826	1093
899.928	1746
900.031	1399
900.133	1431
900.236	616
900.338	1593
900.441	1222
900.543	1357
900.646	1064
900.748	1595
900.851	696
900.953	1572
901.055	1265
901.158	1092
901.260	281
901.362	679
901.465	570
901.567	579
901.669	1310
901.771	1538
901.873	1058
901.976	1377
902.078	1067
902.180	643
902.282	1532
902.384	1148
902.486	1121
902.588	1532
902.690	420
902.792	1271
902.894	582
902.996	1593
903.098	698
903.200	1448
903.302	649
903.404	1220
903.505	1040
903.607	1114
903.709	1323
903.811	972
903.913	482
904.014	660
904.116	718
904.218	1151
904.319	952
904.421	1269
904.523	590
904.624	819
904.726	1481
904.827	884
904.929	701
905.030	90
905.132	983
905.233	1019
905.335	412
905.436	1206
905.537	463
905.639	756
905.740	829
905.841	1217
905.943	414
906.044	1290
906.145	1011
906.247	473
906.348	1295
906.449	1131
906.550	593
906.651	1241
906.752	908
906.854	585
906.955	1155
907.056	1204
907.157	1203
907.258	973
907.359	1140
907.460	788
907.561	551
907.662	1081
907.762	339
907.863	-438
907.964	650
908.065	752
908.166	1045
908.267	707
908.367	1209
908.468	599
908.569	1384
908.670	260
908.770	985
908.871	1254
908.971	446
909.072	602
909.173	191
909.273	848
909.374	1411
909.474	748
909.575	1593
909.675	871
909.776	1235
909.876	1103
909.977	776
910.077	1259
910.177	932
910.278	1503
910.378	752
910.478	933
910.579	700
910.679	474
910.779	388
910.879	1817
910.980	373
911.080	936
911.180	805
911.280	825
911.380	1186
911.480	1008
911.580	854
911.680	911
911.780	1060
911.880	168
911.980	256
912.080	1026
912.180	372
912.280	636
912.380	970
912.480	189
912.580	834
912.679	1053
912.779	980
912.879	678
912.979	242
913.078	15
913.178	924
913.278	724
913.377	571
913.477	1288
913.577	811
913.676	649
913.776	-38
913.875	59
913.975	1365
914.074	936
914.174	640
914.273	58
914.373	847
914.472	-60
914.572	433
914.671	-61
914.770	199
914.870	933
914.969	1130
915.068	432
915.167	880
915.267	391
915.366	-119
915.465	842
915.564	655
915.663	446
915.763	428
915.862	504
915.961	331
916.060	30
916.159	457
916.258	566
916.357	604
916.456	1207
916.555	320
916.654	1048
916.752	576
916.851	1040
916.950	128
917.049	560
917.148	958
917.247	787
917.345	620
917.444	353
917.543	36
917.642	-126
917.740	167
917.839	245
917.937	333
918.036	463
918.135	692
918.233	716
918.332	172
918.430	-283
918.529	11
918.627	-260
918.726	-57
918.824	670
918.923	-348
919.021	998
919.119	-385
919.218	-326
919.316	103
919.414	531
919.512	515
919.611	383
919.709	1134
919.807	-250
919.905	601
920.003	711
920.102	140
920.200	484
920.298	212
920.396	353
920.494	588
920.592	319
920.690	-482
920.788	122
920.886	49
920.984	203
921.082	-453
921.180	909
921.277	50
921.375	1106
921.473	42
921.571	272
921.669	-16
921.766	700
921.864	460
921.962	751
922.060	231
922.157	631
922.255	-61
922.352	653
922.450	872
922.548	185
922.645	-299
922.743	721
922.840	-298
922.938	634
923.035	597
923.133	-125
923.230	278
923.327	-254
923.425	366
923.522	673
923.619	180
923.717	580
923.814	69
923.911	28
924.008	307
924.106	-217
924.203	496
924.300	-105
924.397	-23
924.494	836
924.591	850
924.688	260
924.786	9
924.883	501
924.979	222
925.077	175
925.173	697
925.270	693
925.367	483
925.464	227
925.561	-258
925.658	429
925.755	797
925.852	602
925.948	671
926.045	274
926.142	260
926.239	180
926.335	75
926.432	926
926.529	351
926.625	812
926.722	-170
926.818	865
926.915	514
927.011	675
927.108	111
927.204	1082
927.301	143
927.397	309
927.494	337
927.590	500
927.687	-528
927.783	-32
927.879	-231
927.976	370
928.072	491
928.168	-263
928.264	457
928.361	191
928.457	392
928.553	1120
928.649	0
928.745	405
928.841	111
928.937	106
929.033	517
929.129	439
929.225	687
929.321	486
929.417	-125
929.513	166
929.609	-6
929.705	503
929.801	-70
929.897	45
929.993	454
930.089	166
930.184	406
930.280	166
930.376	134
930.471	20
930.567	310
930.663	769
930.758	388
930.854	39
930.950	-98
931.045	-66
931.141	-61
931.236	372
931.332	770
931.427	-35
931.523	-173
931.618	313
931.714	-49
931.809	300
931.905	11
932.000	143
932.095	284
932.191	156
932.286	-224
932.381	762
932.476	75
932.572	-170
932.667	323
932.762	43
932.857	-269
932.952	649
933.047	552
933.142	204
933.237	869
933.332	398
933.427	387
933.522	374
933.617	102
933.712	-253
933.807	-695
933.902	-107
933.997	-161
934.092	716
934.187	37
934.282	453
934.376	-424
934.471	72
934.566	-176
934.661	202
934.755	-178
934.850	194
934.945	586
935.039	320
935.134	882
935.228	-21
935.323	727
935.417	374
935.512	-428
935.606	-167
935.701	-375
935.795	796
935.890	-288
935.984	351
936.079	279
936.173	403
936.267	293
936.362	-32
936.456	-471
936.550	129
936.644	66
936.738	580
936.833	295
936.927	-264
937.021	-201
937.115	626
937.209	-345
937.303	563
937.397	540
937.491	262
937.585	166
937.679	-274
937.773	-418
937.867	286
937.961	532
938.055	-68
938.149	-110
938.243	273
938.337	447
938.430	-393
938.524	519
938.618	202
938.712	-187
938.805	677
938.899	123
938.993	586
939.086	-410
939.180	199
939.274	-908
939.367	-320
939.461	529
939.554	369
939.648	-564
939.741	204
939.835	597
939.928	840
940.022	139
940.115	452
940.208	-659
940.302	85
940.395	-8
940.488	-793
940.582	489
940.675	-143
940.768	143
940.861	-218
940.954	720
941.048	-405
941.141	62
941.234	136
941.327	-125
941.420	376
941.513	231
941.606	45
941.699	143
941.792	295
941.885	951
941.978	166
942.071	-306
942.164	117
942.257	-140
942.349	-274
942.442	805
942.535	654
942.628	169
942.721	763
942.813	135
942.906	-127
942.999	-634
943.091	-70
943.184	423
943.277	-478
943.369	523
943.462	-576
943.554	222
943.647	-50
943.739	436
943.832	902
943.924	-725
944.017	87
944.109	-160
944.201	-4
944.294	-117
944.386	566
944.478	91
944.571	168
944.663	292
944.755	444
944.847	506
944.940	-4
945.032	-430
945.124	-375
945.216	743
945.308	26
945.400	440
945.492	-57
945.584	-477
945.676	483
945.768	457
945.860	-380
945.952	-438
946.044	-59
946.136	-1199
946.228	11
946.320	293
946.412	544
946.503	-380
946.595	-499
946.687	29
946.779	-349
946.870	-953
946.962	-300
947.054	801
947.145	117
947.237	-340
947.329	-390
947.420	-328
947.512	328
947.603	48
947.695	363
947.786	259
947.878	-77
947.969	-576
948.061	-1070
948.152	-14
948.243	-117
948.335	243
948.426	303
948.517	-504
948.609	-1068
948.700	288
948.791	563
948.882	361
948.973	33
949.065	-147
949.156	-342
949.247	-105
949.338	-33
949.429	-1258
949.520	-276
949.611	-637
949.702	-83
949.793	96
949.884	-607
949.975	214
950.066	-335
950.157	-52
950.247	-147
950.338	-620
950.429	-539
950.520	-480
950.611	29
950.701	-422
950.792	599
950.883	204
950.973	-385
951.064	-33
951.155	-773
951.245	13
951.336	-356
951.427	235
951.517	-481
951.608	-923
951.698	-447
951.788	-275
951.879	-166
951.969	-666
952.060	-215
952.150	-366
952.240	111
952.331	-1208
952.421	399
952.511	-236
952.602	-609
952.692	-544
952.782	27
952.872	-516
952.962	-233
953.052	183
953.143	-571
953.233	-153
953.323	-443
953.413	-749
953.503	-146
953.593	-914
953.683	-234
953.773	-881
953.863	-165
953.953	-1198
954.042	-256
954.132	-541
954.222	137
954.312	-460
954.402	503
954.492	-84
954.581	-279
954.671	-204
954.761	49
954.850	36
954.940	147
955.030	-279
955.119	-575
955.209	49
955.298	-372
955.388	-303
955.477	-183
955.567	-744
955.656	-557
955.746	372
955.835	71
955.925	-187
956.014	-539
956.103	63
956.193	-159
956.282	-203
956.371	416
956.461	-348
956.550	251
956.639	494
956.728	-245
956.817	-460
956.906	-21
956.995	117
957.085	-487
957.174	381
957.263	-311
957.352	-303
957.441	-714
957.530	-165
957.619	76
957.708	-570
957.796	-75
957.885	-445
957.974	-251
958.063	453
958.152	390
958.241	-453
958.329	-237
958.418	-38
958.507	-638
958.596	333
958.684	-49
958.773	126
958.861	-361
958.950	-297
959.039	561
959.127	149
959.216	762
959.304	15
959.393	279
959.481	-47
959.570	27
959.658	165
959.746	452
959.835	544
959.923	153
960.011	367
960.100	453
960.188	337
960.276	-6
960.365	293
960.453	-497
960.541	-683
960.629	87
960.717	-491
960.805	-32
960.893	-115
960.981	771
961.069	-193
961.158	479
961.245	-583
961.333	-196
961.421	-888
961.509	322
961.597	-861
961.685	203
961.773	-442
961.861	250
961.949	-74
962.036	-159
962.124	-327
962.212	-441
962.299	-151
962.387	-464
962.475	-1312
962.562	-276
962.650	-87
962.738	-477
962.825	-133
962.913	-452
963.000	-442
963.088	-158
963.175	-97
963.263	-263
963.350	-172
963.438	-5
963.525	-236
963.612	-471
963.700	-297
963.787	1717
963.874	1952
963.962	395
964.049	-306
964.136	247
964.223	-627
964.310	-59
964.398	-92
964.485	-757
964.572	-444
964.659	751
964.746	-428
964.833	605
964.920	-520
965.007	375
965.094	-1224
965.181	-385
965.268	-83
965.355	260
965.441	-328
965.528	-295
965.615	-121
965.702	-225
965.789	-102
965.875	296
965.962	-210
966.049	-1049
966.136	-607
966.222	-883
966.309	-1294
966.395	-252
966.482	-400
966.569	77
966.655	-930
966.742	-381
966.828	-472
966.915	-433
967.001	-250
967.087	-875
967.174	-413
967.260	-28
967.347	-212
967.433	-746
967.519	956
967.605	1285
967.692	-526
967.778	-281
967.864	40
967.950	-331
968.036	-468
968.123	-269
968.209	-712
968.295	-699
968.381	-346
968.467	-407
968.553	-899
968.639	-319
968.725	-904
968.811	-303
968.897	290
968.983	-835
969.069	-707
969.154	-706
969.240	-716
969.326	95
969.412	-339
969.497	-723
969.583	-1371
969.669	-613
969.755	-684
969.840	-329
969.926	-46
970.012	-703
970.097	-922
970.183	-407
970.268	242
970.354	-67
970.439	-535
970.525	423
970.610	334
970.696	374
970.781	28
970.866	-689
970.952	-767
971.037	-840
971.122	-304
971.208	-98
971.293	-768
971.378	-1249
971.463	-287
971.549	-488
971.634	-584
971.719	-204
971.804	-284
971.889	225
971.974	-1140
972.059	-37
972.144	452
972.229	183
972.314	-319
972.399	-739
972.484	-1110
972.569	-417
972.654	-732
972.739	-103
972.824	-312
972.908	208
972.993	-660
973.078	351
973.163	-945
973.247	-1033
973.332	-1126
973.417	-286
973.501	-1182
973.586	19
973.671	-169
973.755	-583
973.840	81
973.924	-1073
974.009	-1088
974.093	-431
974.178	-201
974.262	-343
974.346	256
974.431	-140
974.515	-160
974.600	-969
974.684	-400
974.768	-220
974.852	-894
974.937	-1771
975.021	-1470
975.105	-837
975.189	-818
975.273	-463
975.358	-892
975.442	-727
975.526	-484
975.610	-693
975.694	75
975.778	-590
975.862	-1312
975.946	-1348
976.030	-99
976.114	-129
976.198	-444
976.281	-321
976.365	-256
976.449	-1353
976.533	-659
976.617	-922
976.700	-634
976.784	-835
976.868	-1335
976.951	-699
977.035	-1154
977.119	-1253
977.202	-134
977.286	-1149
977.369	-714
977.453	-957
977.536	-493
977.620	-886
977.703	-918
977.787	-809
977.870	-566
977.953	257
978.037	-937
978.120	-86
978.203	-480
978.287	-577
978.370	-769
978.453	-360
978.536	-524
978.620	-114
978.703	206
978.786	249
978.869	-1300
978.952	-1066
979.035	48
979.118	-83
979.201	-822
979.284	-549
979.367	-683
979.450	-1006
979.533	-1412
979.616	-58
979.699	-1619
979.782	-309
979.865	-461
979.948	-1040
980.030	-926
980.113	-1158
980.196	-1158
980.279	24
980.361	-946
980.444	-729
980.526	-1061
980.609	-821
980.692	-1685
980.774	-562
980.857	-2082
980.939	-623
981.022	-833
981.104	-539
981.187	-1131
981.269	-462
981.352	-982
981.434	-1003
981.516	-770
981.599	555
981.681	-1004
981.763	-1137
981.846	-428
981.928	-609
982.010	-1491
982.092	-934
982.174	-941
982.256	-295
982.339	-1736
982.421	-1145
982.503	-767
982.585	-731
982.667	-1116
982.749	-894
982.831	-776
982.913	-1171
982.995	-13
983.077	-1847
983.158	-632
983.240	-1440
983.322	-307
983.404	-801
983.486	-1254
983.568	-745
983.649	-316
983.731	-351
983.813	-1345
983.894	-542
983.976	-1177
984.058	-1794
984.139	-1131
984.221	-812
984.302	-1045
984.384	-1389
984.465	-1338
984.547	-699
984.628	-784
984.710	-1059
984.791	-1638
984.872	-537
984.954	-1180
985.035	-1229
985.116	-1339
985.198	-765
985.279	-505
985.360	-1026
985.441	-612
985.522	-1021
985.604	-1093
985.685	-2136
985.766	-379
985.847	-115
985.928	-1564
986.009	-1363
986.090	-1162
986.171	-1436
986.252	-1519
986.333	-942
986.414	-684
986.495	-671
986.576	-1608
986.656	-1303
986.737	-704
986.818	-1007
986.899	-949
986.980	-703
987.060	-641
987.141	-843
987.222	-1130
987.302	-504
987.383	-340
987.464	-1874
987.544	-737
987.625	-1040
987.705	-995
987.786	-828
987.866	-1304
987.947	-246
988.027	-961
988.108	-1150
988.188	-913
988.268	-798
988.349	-1299
988.429	-733
988.509	-1244
988.589	-1357
988.670	-1485
988.750	-877
988.830	-657
988.910	-788
988.990	-1720
989.070	-1267
989.151	-646
989.231	-1488
989.311	-1486
989.391	-1070
989.471	-934
989.551	-1005
989.631	-1261
989.711	-379
989.791	-1460
989.870	-1314
989.950	-1156
990.030	-1313
990.110	-980
990.190	-1348
990.269	-869
990.349	-924
990.429	-1277
990.509	-1005
990.588	-1189
990.668	-1435
990.747	-838
990.827	-1016
990.907	-1095
990.986	-1072
991.066	-1620
991.145	-730
991.225	-1833
991.304	-1529
991.383	-1396
991.463	-727
991.542	-1346
991.622	-1375
991.701	-1978
991.780	-1247
991.859	-921
991.939	-766
992.018	-825
992.097	-1362
992.176	-928
992.256	-968
992.335	-1632
992.414	386
992.493	-796
992.572	-1207
992.651	-403
992.730	-916
992.809	-1281
992.888	-1539
992.967	-1174
993.046	-1589
993.125	-2285
993.203	-576
993.282	-1134
993.361	-1227
993.440	-1088
993.519	-1365
993.597	-1265
993.676	-1516
993.755	-1279
993.834	-1173
993.912	-1755
993.991	-481
994.069	-1121
994.148	-234
994.226	-2117
994.305	-1183
994.384	-2068
994.462	-952
994.540	-1145
994.619	-1354
994.697	-1171
994.776	-1136
994.854	-117
994.932	-842
995.011	-988
995.089	-1544
995.167	-1355
995.245	-1227
995.324	-1333
995.402	-1184
995.480	-1629
995.558	-1172
995.636	-1780
995.714	-694
995.792	-825
995.870	-665
995.948	-1015
996.026	-460
996.104	-1161
996.182	-1155
996.260	-1357
996.338	-1260
996.416	-1574
996.494	-1487
996.572	-1522
996.649	-857
996.727	-791
996.805	-651
996.883	-1016
996.960	-1513
997.038	-1066
997.116	-743
997.193	-1815
997.271	-755
997.348	-1261
997.426	-1637
997.504	-1662
997.581	-1279
997.658	-1540
997.736	-1241
997.813	-1691
997.891	-640
997.968	-834
998.046	-1017
998.123	-2076
998.200	-692
998.277	-1569
998.355	-1527
998.432	-2167
998.509	-985
998.586	-1528
998.663	-908
998.741	-1508
998.818	-869
998.895	-1823
998.972	-1237
999.049	-1557
999.126	-1616
999.203	-1268
999.280	-2092
999.357	-1418
999.434	-1281
999.511	-1209
999.587	-1088
999.664	-1788
999.741	-1650
999.818	-1239
999.895	-414
999.971	-1421
1000.048	-1343
1000.125	-386
1000.202	-1368
1000.278	-1342
1000.355	-909
1000.431	-1468
1000.508	-1669
1000.584	-1064
1000.661	-1023
1000.738	-1459
1000.814	-977
1000.890	-1720
1000.967	-971
1001.043	-687
1001.120	-1193
1001.196	-1654
1001.272	-1320
1001.349	-1488
1001.425	-1441
1001.501	-1048
1001.577	-952
1001.654	-1806
1001.730	-518
1001.806	-1291
1001.882	-821
1001.958	-1368
1002.034	-525
1002.110	-857
1002.186	-941
1002.262	-1292
1002.338	-949
1002.414	-843
1002.490	-1447
1002.566	-1208
1002.642	-1296
1002.718	-615
1002.794	-687
1002.870	-1456
1002.945	-1295
1003.021	-904
1003.097	-1765
1003.173	-1157
1003.248	-1490
1003.324	-704
1003.400	-584
1003.475	-2148
1003.551	-1581
1003.626	-1855
1003.702	-682
1003.777	-1603
1003.853	-1073
1003.928	-1702
1004.004	-1390
1004.079	-795
1004.155	-1199
1004.230	-1326
1004.305	-1067
1004.381	-2087
1004.456	-1493
1004.531	-1585
1004.607	-648
1004.682	-1206
1004.757	-1319
1004.832	-881
1004.907	-1288
1004.982	-728
1005.057	-883
1005.133	-1269
1005.208	-1141
1005.283	-892
1005.358	-1200
1005.433	-1503
1005.508	-1308
1005.583	-2433
1005.657	-1035
1005.732	-889
1005.807	-1257
1005.882	-1687
1005.957	-1364
1006.032	-1283
1006.106	-961
1006.181	-831
1006.256	-843
1006.331	-1400
1006.405	-1586
1006.480	-816
1006.554	-1406
1006.629	-1652
1006.704	-1580
1006.778	-1916
1006.853	-1483
1006.927	-1946
1007.002	-1591
1007.076	-1091
1007.150	-1492
1007.225	-1170
1007.299	-708
1007.373	-1936
1007.448	-1544
1007.522	-775
1007.596	-861
1007.671	-1757
1007.745	-764
1007.819	-2228
1007.893	-1486
1007.967	-656
1008.041	-897
1008.115	-1272
1008.190	-1580
1008.264	-1035
1008.338	-1788
1008.412	-1217
1008.486	-1025
1008.560	-1047
1008.633	-1663
1008.707	-1635
1008.781	-1876
1008.855	-930
1008.929	-469
1009.003	-1671
1009.076	-1416
1009.150	-1468
1009.224	-743
1009.298	-1484
1009.371	-1731
1009.445	-1246
1009.519	-1087
1009.592	-2123
1009.666	-1577
1009.739	-2071
1009.813	-1890
1009.886	-887
1009.960	-1942
1010.033	-860
1010.107	-648
1010.180	-1420
1010.253	-1282
1010.327	-1119
1010.400	-1427
1010.473	-2084
1010.547	130
1010.620	-1484
1010.693	-1112
1010.766	-1752
1010.840	-988
1010.913	-1861
1010.986	-1551
1011.059	-2384
1011.132	-1189
1011.205	-617
1011.278	-935
1011.351	-931
1011.424	-735
1011.497	-1983
1011.570	-1675
1011.643	-1519
1011.716	-923
1011.789	-1085
1011.862	-684
1011.934	-1706
1012.007	-1375
1012.080	-1317
1012.153	-1213
1012.225	-1702
1012.298	-1304
1012.371	-1891
1012.443	-606
1012.516	-2206
1012.588	-779
1012.661	-1265
1012.733	-1594
1012.806	-919
1012.879	-1265
1012.951	-901
1013.023	-852
1013.096	-1041
1013.168	-1650
1013.241	-1333
1013.313	-910
1013.385	-1745
1013.458	-1053
1013.530	-1310
1013.602	-1834
1013.674	-1090
1013.746	-1729
1013.819	-1184
1013.891	-1103
1013.963	-1119
1014.035	-1338
1014.107	-915
1014.179	-1670
1014.251	-1242
1014.323	-1080
1014.395	-1143
1014.467	-1992
1014.539	-940
1014.611	-1007
1014.683	-925
1014.754	-909
1014.826	-1506
1014.898	-1151
1014.970	-1996
1015.042	-1018
1015.113	-745
1015.185	-1661
1015.257	-1326
1015.328	-1237
1015.400	-1535
1015.471	-467
1015.543	-1649
1015.615	-1310
1015.686	-1747
1015.757	-1657
1015.829	-1259
1015.901	-1359
1015.972	-1208
1016.043	-1000
1016.115	-1203
1016.186	-1308
1016.257	-2198
1016.328	-1035
1016.400	-304
1016.471	-1576
1016.542	-1210
1016.613	-1356
1016.685	-993
1016.756	-983
1016.827	-1357
1016.898	-1702
1016.969	-1301
1017.040	-1751
1017.111	-1993
1017.182	-917
1017.253	-1281
1017.324	-1760
1017.395	-1128
1017.466	-572
1017.537	-1748
1017.608	-1149
1017.678	-1895
1017.749	-1006
1017.820	-1453
1017.891	-1790
1017.961	-1655
1018.032	-1164
1018.103	-964
1018.173	-1386
1018.244	-1604
1018.315	-1787
1018.385	-1342
1018.456	-1551
1018.526	-1745
1018.597	-1684
1018.667	-2152
1018.738	-1680
1018.808	-1031
1018.878	-989
1018.949	-2192
1019.019	-1027
1019.089	-1419
1019.160	-999
1019.230	-1400
1019.300	-1382
1019.371	-1565
1019.441	-1295
1019.511	-1868
1019.581	-1637
1019.651	-1887
1019.721	-1123
1019.791	-1409
1019.861	-883
1019.931	-719
1020.001	-2033
1020.071	-995
1020.141	-850
1020.211	-1402
1020.281	-1659
1020.351	-1632
1020.421	-1231
1020.491	-1413
1020.560	-1170
1020.630	-1273
1020.700	-1311
1020.770	-1684
1020.839	-1203
1020.909	-1387
1020.979	-1197
1021.048	-963
1021.118	-1416
1021.187	-1339
1021.257	-1667
1021.326	-1841
1021.396	-1090
1021.465	-1163
1021.535	-1028
1021.604	-2425
1021.674	-1451
1021.743	-1206
1021.812	-772
1021.882	-1683
1021.951	-895
1022.020	-1731
1022.089	-434
1022.159	-1485
1022.228	-1264
1022.297	-1291
1022.366	-1418
1022.435	-1825
1022.504	-987
1022.573	-1803
1022.642	-1241
1022.711	-1945
1022.781	-1276
1022.849	-1104
1022.918	-1511
1022.987	-1227
1023.056	-1445
1023.125	-1542
1023.194	-866
1023.263	-1307
1023.331	-1173
1023.400	-1925
1023.469	-1299
1023.538	-1426
1023.606	-1561
1023.675	-1221
1023.744	-1073
1023.812	-1568
1023.881	-1543
1023.949	-1018
1024.018	-1826
1024.086	-1788
1024.155	-1214
1024.223	-1719
1024.292	-1079
1024.360	-2434
1024.429	-736
1024.497	-1770
1024.565	-1583
1024.634	-1790
1024.702	-1117
1024.770	-1723
1024.838	-1927
1024.907	-1198
1024.975	-2006
1025.043	-1462
1025.111	-1556
1025.179	-1355
1025.247	-1381
1025.315	-1916
1025.383	-1114
1025.451	-1426
1025.519	-1558
1025.587	-1572
1025.655	-988
1025.723	-1184
1025.791	-1581
1025.859	-1309
1025.927	-1219
1025.995	-1466
1026.062	-2043
1026.130	-1669
1026.198	-957
1026.266	-1221
1026.333	-1489
1026.401	-1218
1026.469	-1247
1026.536	-2050
1026.604	-1478
1026.671	-2338
1026.739	-1419
1026.806	-1479
1026.874	-1109
1026.941	-964
1027.009	-1710
1027.076	-1861
1027.144	-968
1027.211	-1707
1027.278	-1849
1027.345	-1026
1027.413	-1777
1027.480	-1690
1027.547	-1874
1027.614	-1361
1027.682	-1363
1027.749	-1899
1027.816	-1214
1027.883	-1214
1027.950	-1272
1028.017	-1804
1028.084	-686
1028.151	-1740
1028.218	-1499
1028.285	-1688
1028.352	-1039
1028.419	-2492
1028.486	-2059
1028.553	-1111
1028.619	-2062
1028.686	-1542
1028.753	-1256
1028.820	-2233
1028.886	-1152
1028.953	-1644
1029.020	-1062
1029.086	-1257
1029.153	-1517
1029.220	-1698
1029.286	-1677
1029.353	-1866
1029.419	-1569
1029.486	-1347
1029.552	-952
1029.619	-1781
1029.685	-1345
1029.751	-1543
1029.818	-653
1029.884	-2656
1029.951	-817
1030.017	-1869
1030.083	-936
1030.149	-1538
1030.216	-1619
1030.282	-1410
1030.348	-2172
1030.414	-1957
1030.480	-1147
1030.546	-1478
1030.612	-837
1030.678	-1353
1030.744	-1766
1030.810	-1820
1030.876	-1495
1030.942	-1327
1031.008	-2540
1031.074	-2155
1031.140	-1602
1031.206	-1454
1031.272	-1372
1031.337	-1668
1031.403	-1836
1031.469	-2183
1031.534	-1990
1031.600	-868
1031.666	-2164
1031.731	-1667
1031.797	-1718
1031.863	-1337
1031.928	-1465
1031.994	-2051
1032.059	-1162
1032.125	-1505
1032.190	-1618
1032.256	-1772
1032.321	-1538
1032.386	-2174
1032.452	-780
1032.517	-1023
1032.582	-2027
1032.647	-1515
1032.713	-1887
1032.778	-2231
1032.843	-2010
1032.908	-1926
1032.974	-1024
1033.039	-2189
1033.104	-1639
1033.169	-2248
1033.234	-1940
1033.299	-1536
1033.364	-1904
1033.429	-2048
1033.494	-1767
1033.559	-1675
1033.624	-2047
1033.688	-2009
1033.753	-2157
1033.818	-1113
1033.883	-1268
1033.948	-1994
1034.013	-1773
1034.077	-2062
1034.142	-1648
1034.207	-1875
1034.271	-2347
1034.336	-1336
1034.400	-1695
1034.465	-2238
1034.530	-1459
1034.594	-2533
1034.658	-1871
1034.723	-1712
1034.787	-2312
1034.852	-2113
1034.916	-1781
1034.981	-1918
1035.045	-1933
1035.109	-1975
1035.173	-1544
1035.238	-1993
1035.302	-1395
1035.366	-1662
1035.430	-2422
1035.495	-2419
1035.559	-1618
1035.623	-2269
1035.687	-2005
1035.751	-1211
1035.815	-1550
1035.879	-1812
1035.943	-1527
1036.007	-1921
1036.071	-2171
1036.135	-1530
1036.198	-1717
1036.262	-2079
1036.326	-1601
1036.390	-1539
1036.454	-2210
1036.517	-2287
1036.581	-2312
1036.645	-2315
1036.709	-2300
1036.772	-1949
1036.836	-2237
1036.900	-1665
1036.963	-2050
1037.026	-1508
1037.090	-1932
1037.154	-1752
1037.217	-1649
1037.280	-2404
1037.344	-1796
1037.407	-2230
1037.471	-1747
1037.534	-2000
1037.597	-1564
1037.661	-2223
1037.724	-1499
1037.787	-1275
1037.850	-2043
1037.913	-1855
1037.977	-1729
1038.040	-1630
1038.103	-1943
1038.166	-2764
1038.229	-1652
1038.292	-1858
1038.355	-1665
1038.418	-2020
1038.481	-1637
1038.544	-1241
1038.607	-2249
1038.670	-1795
1038.732	-1948
1038.795	-2810
1038.858	-1597
1038.921	-1307
1038.984	-1582
1039.046	-2003
1039.109	-2431
1039.172	-2040
1039.234	-1342
1039.297	-2077
1039.360	-1328
1039.422	-2230
1039.485	-2454
1039.547	-2722
1039.610	-1918
1039.672	-2084
1039.734	-2189
1039.797	-1583
1039.859	-1699
1039.922	-1977
1039.984	-2011
1040.046	-2317
1040.109	-1965
1040.171	-1714
1040.233	-1694
1040.295	-1708
1040.358	-1316
1040.420	-2255
1040.482	-2094
1040.544	-2123
1040.606	-2785
1040.668	-2299
1040.730	-2270
1040.792	-2123
1040.854	-1539
1040.916	-1939
1040.978	-2210
1041.040	-1937
1041.102	-1537
1041.164	-1864
1041.225	-1815
1041.287	-2525
1041.349	-2444
1041.411	-2417
1041.472	-2150
1041.534	-2596
1041.596	-1285
1041.657	-1994
1041.719	-2034
1041.781	-2580
1041.842	-2060
1041.904	-2194
1041.965	-2642
1042.027	-2106
1042.088	-2257
1042.150	-1771
1042.211	-2168
1042.272	-1646
1042.334	-2059
1042.395	-2771
1042.456	-1480
1042.518	-1433
1042.579	-2100
1042.640	-2213
1042.701	-2378
1042.763	-2141
1042.824	-1917
1042.885	-3137
1042.946	-1936
1043.007	-2067
1043.068	-2576
1043.129	-2718
1043.190	-2412
1043.251	-2135
1043.312	-2514
1043.373	-1951
1043.434	-1657
1043.495	-1928
1043.556	-1892
1043.616	-2064
1043.677	-1816
1043.738	-1082
1043.799	-2138
1043.859	-2377
1043.920	-1645
1043.981	-2260
1044.041	-1521
1044.102	-2332
1044.162	-1756
1044.223	-2282
1044.284	-1793
1044.344	-1921
1044.405	-1901
1044.465	-1615
1044.525	-2273
1044.586	-1814
1044.646	-2414
1044.707	-2032
1044.767	-2340
1044.827	-2341
1044.887	-3317
1044.948	-2192
1045.008	-1382
1045.068	-2485
1045.128	-1590
1045.188	-2052
1045.249	-2067
1045.309	-1897
1045.369	-1546
1045.429	-2042
1045.489	-1562
1045.549	-2000
1045.609	-2091
1045.669	-2024
1045.729	-1127
1045.789	-1531
1045.848	-1540
1045.908	-1542
1045.968	-1185
1046.028	-1896
1046.088	-1954
1046.147	-1394
1046.207	-1095
1046.267	-2425
1046.326	-877
1046.386	-2123
1046.446	-556
1046.505	-1273
1046.565	-1312
1046.624	-1476
1046.684	-1942
1046.743	-1070
1046.803	-825
1046.862	-721
1046.922	0
