'Start Wavelength	183.907
'End Wavelength	1046.922
'Gate Delay	5.000
'Gate Width (ms)	1.050
'Laser Output Level	0.000
'X Position	0.000
'Y Position	0.000
'Z Position	0.000
'Grid Point Number	1.000
'Shot Number	100.000
183.907	123.000
183.977	-167.000
184.047	195
184.116	-256
184.186	-116
184.256	-125
184.325	-739
184.395	-766
184.465	162
184.534	-621
184.604	-929
184.674	177
184.743	-702
184.813	335
184.883	-118
184.952	188
185.022	-413
185.092	-248
185.161	-519
185.231	-519
185.301	-331
185.370	735
185.440	-573
185.509	-478
185.579	-16
185.649	-228
185.718	154
185.788	-217
185.857	-432
185.927	-243
185.996	-484
186.066	-803
186.136	-176
186.205	-62
186.275	232
186.344	-235
186.414	-464
186.483	-703
186.553	493
186.622	333
186.692	-758
186.761	-1079
186.831	370
186.900	223
186.970	-699
187.039	166
187.109	54
187.178	92
187.248	-199
187.317	-98
187.387	-483
187.456	424
187.526	330
187.595	-222
187.664	-392
187.734	-73
187.803	-486
187.873	-134
187.942	-659
188.012	-374
188.081	311
188.150	334
188.220	-66
188.289	-197
188.358	-508
188.428	172
188.497	-1031
188.567	-663
188.636	-618
188.705	-292
188.775	-666
188.844	-669
188.913	774
188.983	-210
189.052	-437
189.121	594
189.191	-357
189.260	972
189.329	-151
189.399	-435
189.468	-417
189.537	-59
189.606	-148
189.676	34
189.745	-269
189.814	655
189.883	-435
189.953	339
190.022	-349
190.091	668
190.161	-193
190.230	578
190.299	-230
190.368	-366
190.437	-233
190.507	-53
190.576	-625
190.645	-463
190.714	-736
190.783	-1048
190.853	506
190.922	71
190.991	-432
191.060	189
191.129	-912
191.198	60
191.268	335
191.337	-42
191.406	476
191.475	-721
191.544	-821
191.613	246
191.682	-385
191.752	-78
191.821	417
191.890	276
191.959	-600
192.028	-168
192.097	-558
192.166	175
192.235	-458
192.304	-74
192.373	-650
192.442	-348
192.511	-581
192.580	140
192.650	-276
192.719	-307
192.788	-781
192.857	309
192.926	-963
192.995	-409
193.064	190
193.133	283
193.202	-139
193.271	242
193.340	374
193.409	488
193.478	291
193.547	162
193.615	409
193.684	702
193.753	843
193.822	1027
193.891	0
193.960	-291
194.029	-82
194.098	33
194.167	-559
194.236	505
194.305	-556
194.374	428
194.443	-183
194.512	-79
194.580	-658
194.649	97
194.718	-315
194.787	-157
194.856	-318
194.925	46
194.994	-838
195.062	367
195.131	-284
195.200	270
195.269	156
195.338	33
195.407	-67
195.475	-397
195.544	-98
195.613	-166
195.682	-13
195.751	82
195.819	-542
195.888	32
195.957	157
196.026	838
196.094	371
196.163	-237
196.232	-421
196.301	32
196.369	302
196.438	-38
196.507	-504
196.576	-554
196.644	-457
196.713	9
196.782	-314
196.850	700
196.919	-250
196.988	-46
197.056	-266
197.125	386
197.194	-243
197.262	975
197.331	-435
197.400	-140
197.468	-612
197.537	141
197.606	-1226
197.674	659
197.743	1112
197.812	316
197.880	-296
197.949	-296
198.017	515
198.086	83
198.155	16
198.223	554
198.292	837
198.360	-390
198.429	-322
198.497	33
198.566	445
198.635	985
198.703	-146
198.772	-32
198.840	604
198.909	370
198.977	72
199.046	785
199.114	197
199.183	832
199.251	94
199.320	-285
199.388	-204
199.457	-329
199.525	-254
199.594	-334
199.662	45
199.731	-30
199.799	353
199.867	161
199.936	-167
200.004	437
200.073	162
200.141	-42
200.210	104
200.278	-150
200.346	70
200.415	551
200.483	-153
200.552	558
200.620	328
200.688	399
200.757	530
200.825	-591
200.893	-567
200.962	454
201.030	-142
201.098	-147
201.167	719
201.235	391
201.303	-662
201.372	821
201.440	158
201.508	527
201.577	-146
201.645	314
201.713	66
201.781	665
201.850	145
201.918	976
201.986	-48
202.055	243
202.123	-532
202.191	397
202.259	773
202.327	-362
202.396	423
202.464	155
202.532	304
202.600	1129
202.669	618
202.737	284
202.805	-50
202.873	281
202.941	34
203.009	154
203.078	-792
203.146	1
203.214	-6
203.282	-228
203.350	750
203.418	457
203.487	-246
203.555	593
203.623	-33
203.691	118
203.759	-601
203.827	335
203.895	467
203.963	163
204.031	-75
204.099	-7
204.168	-580
204.236	797
204.304	482
204.372	78
204.440	-269
204.508	165
204.576	-580
204.644	454
204.712	281
204.780	277
204.848	730
204.916	340
204.984	-13
205.052	1468
205.120	421
205.188	-29
205.256	593
205.324	67
205.392	-348
205.460	645
205.528	-627
205.596	557
205.664	-38
205.732	319
205.799	608
205.867	1895
205.935	129
206.003	878
206.071	-149
206.139	-52
206.207	217
206.275	378
206.343	211
206.411	338
206.478	473
206.546	385
206.614	-660
206.682	261
206.750	-224
206.818	3
206.885	360
206.953	-521
207.021	969
207.089	684
207.157	568
207.225	-361
207.292	118
207.360	136
207.428	691
207.496	221
207.563	995
207.631	716
207.699	70
207.767	106
207.834	876
207.902	36
207.970	-204
208.038	769
208.105	757
208.173	23
208.241	668
208.309	1084
208.376	12
208.444	1062
208.512	273
208.579	199
208.647	-192
208.715	671
208.782	973
208.850	931
208.918	-585
208.985	114
209.053	326
209.120	1176
209.188	80
209.256	450
209.323	-635
209.391	407
209.459	903
209.526	918
209.594	140
209.661	1080
209.729	208
209.796	744
209.864	648
209.932	-73
209.999	1408
210.067	690
210.134	-7
210.202	913
210.269	1041
210.337	1498
210.404	361
210.472	650
210.539	732
210.607	314
210.674	1135
210.742	597
210.809	-26
210.877	748
210.944	1244
211.012	-16
211.079	1540
211.146	744
211.214	361
211.281	1277
211.349	1431
211.416	1880
211.484	1633
211.551	267
211.618	719
211.686	1152
211.753	352
211.821	980
211.888	581
211.955	654
212.023	943
212.090	786
212.157	642
212.225	986
212.292	1699
212.359	2556
212.427	5312
212.494	2427
212.561	1649
212.629	1043
212.696	246
212.763	2094
212.831	626
212.898	1276
212.965	187
213.032	923
213.100	142
213.167	972
213.234	1936
213.301	1308
213.369	1128
213.436	405
213.503	64
213.570	1138
213.638	1191
213.705	1048
213.772	270
213.839	767
213.906	1729
213.973	1437
214.041	-58
214.108	1694
214.175	570
214.242	652
214.309	1064
214.376	1003
214.444	244
214.511	838
214.578	1059
214.645	758
214.712	1444
214.779	1183
214.846	213
214.913	1312
214.980	1403
215.048	2253
215.115	1923
215.182	1185
215.249	1211
215.316	987
215.383	1498
215.450	1862
215.517	-178
215.584	940
215.651	330
215.718	767
215.785	1361
215.852	674
215.919	1727
215.986	783
216.053	1209
216.120	935
216.187	1149
216.254	1667
216.321	1684
216.388	1101
216.455	937
216.522	1681
216.589	1552
216.656	2959
216.722	1733
216.789	1891
216.856	1476
216.923	1088
216.990	1222
217.057	2207
217.124	1839
217.191	2034
217.258	1884
217.324	2415
217.391	3067
217.458	2767
217.525	1720
217.592	1455
217.659	-581
217.725	2013
217.792	1020
217.859	1569
217.926	1067
217.993	840
218.059	1164
218.126	1123
218.193	1331
218.260	646
218.327	904
218.393	1006
218.460	50
218.527	610
218.594	718
218.660	1285
218.727	2104
218.794	677
218.860	602
218.927	156
218.994	804
219.061	361
219.127	285
219.194	1354
219.261	1268
219.327	975
219.394	1499
219.461	271
219.527	866
219.594	555
219.661	456
219.727	-17
219.794	962
219.860	780
219.927	1497
219.994	1729
220.060	2411
220.127	2780
220.193	2345
220.260	2046
220.326	3534
220.393	3885
220.460	3774
220.526	3418
220.593	1942
220.659	3915
220.726	2204
220.792	5709
220.859	4010
220.925	6330
220.992	7150
221.058	6247
221.125	6540
221.191	4648
221.258	1912
221.324	2131
221.391	1983
221.457	1764
221.524	1322
221.590	2408
221.657	5157
221.723	3050
221.789	2097
221.856	2957
221.922	881
221.989	1271
222.055	1294
222.121	176
222.188	3095
222.254	1982
222.321	2228
222.387	257
222.453	750
222.520	1380
222.586	409
222.652	1307
222.719	-376
222.785	1316
222.851	1082
222.918	469
222.984	452
223.050	1200
223.116	-686
223.183	2495
223.249	414
223.315	-277
223.382	744
223.448	645
223.514	-140
223.580	526
223.647	159
223.713	785
223.779	135
223.845	365
223.911	-27
223.978	-423
224.044	453
224.110	482
224.176	673
224.242	1226
224.309	48
224.375	652
224.441	469
224.507	133
224.573	-468
224.639	798
224.705	-395
224.772	1014
224.838	282
224.904	1178
224.970	90
225.036	989
225.102	-503
225.168	1522
225.234	1246
225.300	745
225.366	271
225.432	1575
225.499	647
225.565	1446
225.631	875
225.697	1212
225.763	1579
225.829	1474
225.895	1064
225.961	2404
226.027	2379
226.093	1644
226.159	3277
226.225	4723
226.291	8245
226.357	12286
226.423	7181
226.489	4896
226.554	2944
226.620	2901
226.686	4282
226.752	6039
226.818	8756
226.884	14244
226.950	12241
227.016	7136
227.082	4533
227.148	3198
227.214	2838
227.279	3090
227.345	2011
227.411	1910
227.477	2448
227.543	4539
227.609	4852
227.674	3137
227.740	1666
227.806	2624
227.872	553
227.938	1314
228.003	3711
228.069	881
228.135	1137
228.201	1214
228.267	414
228.332	1431
228.398	871
228.464	1267
228.530	852
228.595	1180
228.661	33
228.727	1128
228.792	2036
228.858	1583
228.924	-181
228.990	2129
229.055	939
229.121	1044
229.187	820
229.252	1213
229.318	375
229.384	1605
229.449	1050
229.515	-631
229.581	-262
229.646	2132
229.712	1006
229.777	1747
229.843	1864
229.909	2260
229.974	2682
230.040	2172
230.105	1049
230.171	1971
230.236	2323
230.302	2851
230.368	1750
230.433	1212
230.499	1847
230.564	2830
230.630	980
230.695	1321
230.761	2144
230.826	158
230.892	2558
230.957	545
231.023	1128
231.088	697
231.154	1226
231.219	1728
231.284	1163
231.350	2083
231.415	400
231.481	1387
231.546	1360
231.612	1408
231.677	764
231.742	-305
231.808	1474
231.873	754
231.939	-1043
232.004	2455
232.069	2231
232.135	931
232.200	601
232.265	1129
232.331	894
232.396	456
232.461	57
232.527	30
232.592	138
232.657	1085
232.723	585
232.788	876
232.853	2123
232.918	661
232.984	-100
233.049	1123
233.114	94
233.179	1736
233.245	2369
233.310	2501
233.375	243
233.440	1270
233.506	832
233.571	-33
233.636	353
233.701	977
233.766	1444
233.832	1950
233.897	463
233.962	115
234.027	2373
234.092	1501
234.157	1078
234.222	1715
234.288	1693
234.353	4933
234.418	3895
234.483	3651
234.548	1828
234.613	1749
234.678	2615
234.743	2160
234.808	4804
234.873	2632
234.938	3128
235.004	1331
235.069	1342
235.134	1260
235.199	1906
235.264	1550
235.329	767
235.394	2080
235.459	1956
235.524	695
235.589	1688
235.654	1567
235.719	931
235.784	2072
235.849	1485
235.913	2693
235.978	2864
236.043	3069
236.108	2091
236.173	1345
236.238	1676
236.303	1530
236.368	831
236.433	3552
236.498	4203
236.563	4515
236.627	7796
236.692	20999
236.757	19054
236.822	8631
236.887	5179
236.952	5765
237.017	3509
237.081	5658
237.146	5231
237.211	14185
237.276	21371
237.341	25907
237.405	16499
237.470	8337
237.535	4579
237.600	4130
237.664	3820
237.729	2556
237.794	3359
237.859	9093
237.923	4266
237.988	2467
238.053	3005
238.118	3467
238.182	6864
238.247	7352
238.312	1793
238.376	2838
238.441	635
238.506	2758
238.570	265
238.635	1871
238.700	1386
238.764	1245
238.829	2781
238.893	2661
238.958	2899
239.023	2418
239.087	912
239.152	2926
239.216	1460
239.281	1888
239.346	1951
239.410	1011
239.475	673
239.539	7378
239.604	3966
239.668	2980
239.733	1591
239.797	3945
239.862	10250
239.926	9008
239.991	3002
240.055	1993
240.120	1409
240.184	1927
240.249	973
240.313	1202
240.378	1183
240.442	4202
240.507	5692
240.571	2078
240.635	1637
240.700	3915
240.764	726
240.829	1492
240.893	-254
240.957	2254
241.022	3702
241.086	6520
241.151	1878
241.215	716
241.279	2809
241.344	2824
241.408	2684
241.472	2532
241.537	2596
241.601	2700
241.665	1099
241.730	1816
241.794	2937
241.858	2006
241.922	1843
241.987	2528
242.051	1620
242.115	1214
242.179	1601
242.244	1402
242.308	3336
242.372	1935
242.436	1681
242.501	2077
242.565	1249
242.629	1643
242.693	2004
242.757	819
242.822	1387
242.886	2818
242.950	2175
243.014	1017
243.078	2092
243.142	2287
243.206	1948
243.271	2958
243.335	1686
243.399	4600
243.463	9855
243.527	26428
243.591	7414
243.655	4081
243.719	1501
243.783	3217
243.847	4774
243.911	6076
243.975	6059
244.040	3297
244.104	3862
244.168	2677
244.232	3123
244.296	4029
244.360	4401
244.424	1723
244.488	2521
244.552	2675
244.615	678
244.679	1225
244.743	1794
244.807	1625
244.871	814
244.935	1905
244.999	255
245.063	1899
245.127	2900
245.191	3682
245.255	2202
245.319	3130
245.383	1059
245.446	3204
245.510	729
245.574	1867
245.638	1997
245.702	810
245.766	4425
245.829	3335
245.893	1965
245.957	1733
246.021	2830
246.085	2325
246.149	2272
246.212	7418
246.276	8352
246.340	4124
246.404	3177
246.467	3914
246.531	3244
246.595	3484
246.659	3948
246.722	1909
246.786	3394
246.850	3727
246.913	3928
246.977	1521
247.041	2484
247.104	3116
247.168	2275
247.232	6779
247.295	12100
247.359	5475
247.423	3302
247.486	5271
247.550	3340
247.614	2613
247.677	3986
247.741	1989
247.804	2414
247.868	3489
247.932	5647
247.995	11762
248.059	4181
248.122	2154
248.186	5161
248.249	6952
248.313	18466
248.376	19406
248.440	12792
248.503	3795
248.567	6175
248.630	6708
248.694	8563
248.757	11471
248.821	20754
248.884	13854
248.948	12182
249.011	16274
249.075	22664
249.138	19454
249.202	8958
249.265	6004
249.328	6529
249.392	5189
249.455	5323
249.519	4092
249.582	4670
249.645	7634
249.709	6331
249.772	4678
249.835	3675
249.899	4568
249.962	4296
250.025	2953
250.089	8253
250.152	11249
250.215	6209
250.279	4194
250.342	4644
250.405	5277
250.468	3981
250.532	5725
250.595	8203
250.658	26997
250.721	40784
250.785	15064
250.848	9318
250.911	5530
250.974	5386
251.038	6642
251.101	13158
251.164	7473
251.227	8878
251.290	7366
251.354	11877
251.417	37803
251.480	35462
251.543	27334
251.606	62421
251.669	46744
251.732	20162
251.795	20297
251.859	19490
251.922	41802
251.985	24395
252.048	11289
252.111	9430
252.174	8372
252.237	14060
252.300	25229
252.363	28695
252.426	49823
252.489	21525
252.552	12686
252.615	8197
252.678	10121
252.741	19263
252.804	26910
252.867	54113
252.930	31608
252.993	16493
253.056	10665
253.119	7353
253.182	6335
253.245	9811
253.308	7973
253.371	7081
253.434	6756
253.497	7171
253.559	11742
253.622	8304
253.685	10612
253.748	9858
253.811	5444
253.874	5753
253.937	5760
254.000	4849
254.062	9293
254.125	11718
254.188	14286
254.251	10509
254.314	4272
254.376	9012
254.439	10661
254.502	7530
254.565	8381
254.628	14873
254.690	7893
254.753	3823
254.816	3672
254.878	4387
254.941	9278
255.004	8699
255.067	4024
255.129	3579
255.192	1945
255.255	1460
255.317	3627
255.380	1886
255.443	1303
255.505	1147
255.568	1148
255.631	1397
255.693	2783
255.756	837
255.819	2583
255.881	1451
255.944	2044
256.006	1069
256.069	2388
256.132	1475
256.194	3310
256.257	5543
256.319	4428
256.382	3990
256.444	4354
256.507	3546
256.569	3073
256.632	3417
256.694	4931
256.757	16490
256.819	41778
256.882	17169
256.944	8027
257.007	6163
257.069	5155
257.132	4602
257.194	5081
257.257	3701
257.319	4298
257.381	6001
257.444	14006
257.506	45860
257.569	48856
257.631	23650
257.693	12488
257.756	5685
257.818	4706
257.880	2789
257.943	3972
258.005	2406
258.067	3090
258.130	2408
258.192	3596
258.254	5523
258.317	4090
258.379	3778
258.441	8295
258.503	6788
258.566	8701
258.628	8099
258.690	2141
258.753	3435
258.815	6736
258.877	3719
258.939	2816
259.001	3391
259.064	3035
259.126	3070
259.188	3467
259.250	3728
259.312	4402
259.375	9635
259.437	5990
259.499	2577
259.561	2505
259.623	4592
259.685	3121
259.747	2565
259.809	7765
259.872	11751
259.934	20638
259.996	18529
260.058	6286
260.120	2809
260.182	1926
260.244	2229
260.306	1826
260.368	2706
260.430	2547
260.492	6995
260.554	11411
260.616	5712
260.678	11673
260.740	11879
260.802	3133
260.864	3116
260.926	2149
260.988	3729
261.050	3345
261.112	10011
261.174	18954
261.236	9395
261.298	4156
261.359	5921
261.421	7936
261.483	1826
261.545	3456
261.607	1338
261.669	2750
261.731	3737
261.793	8867
261.854	3772
261.916	4420
261.978	2770
262.040	3263
262.102	2123
262.164	3614
262.225	2296
262.287	2027
262.349	6095
262.411	4904
262.472	2929
262.534	3432
262.596	6179
262.658	3084
262.719	1656
262.781	3532
262.843	5309
262.904	3774
262.966	2919
263.028	3461
263.090	15454
263.151	37134
263.213	13195
263.275	8152
263.336	3562
263.398	2562
263.459	1240
263.521	2161
263.583	6548
263.644	4671
263.706	1538
263.767	1159
263.829	1043
263.891	396
263.952	400
264.014	1184
264.075	4587
264.137	10678
264.198	4118
264.260	1541
264.321	1640
264.383	6539
264.444	16621
264.506	4858
264.567	2931
264.629	7689
264.690	13935
264.752	4458
264.813	2673
264.875	2388
264.936	2817
264.998	1644
265.059	1448
265.120	2878
265.182	4687
265.243	25079
265.305	23496
265.366	6614
265.427	2882
265.489	3807
265.550	1839
265.611	3557
265.673	2831
265.734	2004
265.795	2809
265.857	1489
265.918	3029
265.979	8029
266.040	36730
266.102	28784
266.163	9203
266.224	6188
266.286	3796
266.347	1370
266.408	2781
266.469	2650
266.530	1944
266.592	1764
266.653	3977
266.714	6538
266.775	1956
266.836	2296
266.898	1058
266.959	3504
267.020	2835
267.081	2760
267.142	1367
267.203	1737
267.264	856
267.326	1387
267.387	1180
267.448	952
267.509	1941
267.570	1121
267.631	627
267.692	852
267.753	1398
267.814	879
267.875	4547
267.936	7484
267.997	5910
268.058	5629
268.119	2271
268.180	3434
268.241	647
268.302	1541
268.363	1142
268.424	1819
268.485	1476
268.546	1497
268.607	565
268.668	779
268.729	62
268.790	1609
268.851	1665
268.912	5244
268.972	6234
269.033	2396
269.094	122
269.155	2229
269.216	1406
269.277	1625
269.338	1302
269.398	1773
269.459	1770
269.520	2167
269.581	2849
269.642	4467
269.702	2683
269.763	2539
269.824	1590
269.885	3374
269.945	4197
270.006	2590
270.067	1156
270.128	1041
270.188	1099
270.249	929
270.310	476
270.370	1870
270.431	1075
270.492	1160
270.553	1799
270.613	3602
270.674	6782
270.734	2838
270.795	1508
270.856	2952
270.916	1457
270.977	1616
271.038	2093
271.098	2023
271.159	3606
271.219	3210
271.280	1897
271.340	1099
271.401	955
271.462	3685
271.522	2218
271.583	1956
271.643	1498
271.704	1630
271.764	2625
271.825	7025
271.885	20028
271.946	22686
272.006	8425
272.066	12076
272.127	17603
272.187	7449
272.248	3896
272.308	4035
272.369	12908
272.429	6581
272.489	5957
272.550	5290
272.610	6359
272.671	4146
272.731	3738
272.791	5327
272.852	3126
272.912	3292
272.972	1882
273.033	2069
273.093	2624
273.153	3932
273.214	2511
273.274	2150
273.334	11915
273.394	17513
273.455	6386
273.515	7555
273.575	14847
273.635	6413
273.696	8626
273.756	15976
273.816	6335
273.876	4299
273.936	7509
273.997	10676
274.057	3761
274.117	3489
274.177	5459
274.237	22007
274.297	15802
274.358	11172
274.418	12853
274.478	9757
274.538	3481
274.598	2893
274.658	8788
274.718	10561
274.778	4243
274.838	2137
274.898	5209
274.958	13156
275.018	15388
275.078	10128
275.138	4197
275.198	2974
275.258	1200
275.318	2666
275.378	5231
275.438	6193
275.498	4076
275.558	7825
275.618	14906
275.678	10584
275.738	7395
275.798	6708
275.858	2966
275.918	1893
275.978	2810
276.038	2989
276.098	2111
276.157	4960
276.217	13049
276.277	5458
276.337	4628
276.397	1898
276.457	2622
276.517	2083
276.576	2147
276.636	1576
276.696	3220
276.756	8242
276.815	4217
276.875	2579
276.935	2426
276.995	3483
277.055	2221
277.114	1857
277.174	2595
277.234	9195
277.293	3911
277.353	2904
277.413	1657
277.472	1537
277.532	1985
277.592	1766
277.651	7933
277.711	10536
277.771	5241
277.830	17384
277.890	11098
277.950	9385
278.009	22410
278.069	8134
278.128	9372
278.188	11622
278.248	6001
278.307	13349
278.367	6921
278.426	3158
278.486	1775
278.545	1997
278.605	2349
278.664	2406
278.724	2271
278.783	7559
278.843	15314
278.902	5086
278.962	3217
279.021	3582
279.081	3926
279.140	4092
279.199	3503
279.259	5185
279.318	3099
279.378	6893
279.437	10412
279.496	30001
279.556	64944
279.615	39648
279.675	13082
279.734	9666
279.793	15001
279.853	21435
279.912	9742
279.971	6478
280.031	6021
280.090	10869
280.149	16993
280.208	12204
280.268	45663
280.327	36667
280.386	9113
280.445	8556
280.505	7742
280.564	4090
280.623	3638
280.682	6469
280.742	8222
280.801	3059
280.860	2080
280.919	2199
280.978	2236
281.037	1847
281.097	1932
281.156	2216
281.215	1631
281.274	3004
281.333	10247
281.392	6530
281.451	1974
281.510	1412
281.569	815
281.628	1061
281.688	1804
281.747	1002
281.806	1250
281.865	2138
281.924	721
281.983	1296
282.042	403
282.101	1096
282.160	1168
282.219	804
282.278	1490
282.337	5966
282.396	3766
282.454	2015
282.513	2199
282.572	10745
282.631	4880
282.690	1960
282.749	891
282.808	2140
282.867	1746
282.926	2078
282.985	1335
283.043	1196
283.102	1400
283.161	2179
283.220	5776
283.279	10105
283.338	4728
283.396	1442
283.455	1087
283.514	2170
283.573	2519
283.631	2449
283.690	1573
283.749	1722
283.808	4960
283.866	4276
283.925	1832
283.984	1574
284.043	3033
284.101	2701
284.160	1447
284.219	3420
284.277	2396
284.336	3607
284.395	13123
284.453	9459
284.512	3403
284.570	5138
284.629	3574
284.688	3341
284.746	3249
284.805	4851
284.863	6590
284.922	7553
284.981	8990
285.039	13844
285.098	24010
285.156	49688
285.215	72411
285.273	72907
285.332	46992
285.390	26738
285.449	16192
285.507	11300
285.566	7822
285.624	7009
285.683	5204
285.741	4886
285.799	3441
285.858	3752
285.916	3512
285.975	3197
286.033	2522
286.091	2014
286.150	1906
286.208	1103
286.267	2374
286.325	2713
286.383	4252
286.442	3759
286.500	1590
286.558	1712
286.616	687
286.675	2620
286.733	2344
286.791	2385
286.850	2175
286.908	3226
286.966	5305
287.024	1575
287.083	1059
287.141	1335
287.199	1107
287.257	2705
287.315	1969
287.374	2797
287.432	6514
287.490	3912
287.548	1979
287.606	1900
287.664	1646
287.723	3016
287.781	4054
287.839	2851
287.897	3771
287.955	4645
288.013	6393
288.071	14953
288.129	50220
288.187	105997
288.245	49619
288.303	17375
288.361	8992
288.419	6525
288.477	4761
288.535	4139
288.593	3349
288.651	2059
288.709	1820
288.767	2212
288.825	1191
288.883	1825
288.941	1893
288.999	860
289.057	1395
289.115	1550
289.173	1350
289.231	1982
289.289	1021
289.346	1057
289.404	2006
289.462	3661
289.520	2857
289.578	1530
289.636	1326
289.694	631
289.751	479
289.809	1328
289.867	1145
289.925	3059
289.983	2674
290.040	1850
290.098	771
290.156	1764
290.214	2362
290.271	882
290.329	1953
290.387	1050
290.444	813
290.502	1382
290.560	1354
290.617	1576
290.675	675
290.733	1507
290.790	1533
290.848	1303
290.906	1332
290.963	1607
291.021	972
291.078	569
291.136	1717
291.194	7795
291.251	11529
291.309	3470
291.366	1263
291.424	991
291.481	1131
291.539	1066
291.596	734
291.654	605
291.711	1286
291.769	1202
291.826	2037
291.884	1602
291.941	1218
291.999	1192
292.056	1628
292.114	1235
292.171	1738
292.228	1865
292.286	2116
292.343	3642
292.401	3601
292.458	2920
292.515	1655
292.573	2228
292.630	1901
292.687	1549
292.745	572
292.802	3848
292.859	8220
292.917	11437
292.974	6929
293.031	2241
293.089	1601
293.146	1853
293.203	855
293.260	606
293.318	2063
293.375	4726
293.432	2243
293.489	2192
293.546	2298
293.604	3015
293.661	6613
293.718	16541
293.775	9526
293.832	5078
293.889	3364
293.947	3881
294.004	3141
294.061	2896
294.118	6064
294.175	14384
294.232	18176
294.289	6756
294.346	4163
294.403	3907
294.460	2637
294.517	2220
294.574	2707
294.631	2056
294.688	2394
294.745	6514
294.802	22361
294.859	26227
294.916	10250
294.973	6340
295.030	3300
295.087	3314
295.144	2072
295.201	3078
295.258	1830
295.315	3203
295.372	8560
295.429	13588
295.486	6789
295.542	5133
295.599	13794
295.656	22074
295.713	14108
295.770	12782
295.827	6081
295.883	3768
295.940	2825
295.997	5348
296.054	4886
296.111	3304
296.167	2219
296.224	1922
296.281	1320
296.338	2101
296.394	2229
296.451	2941
296.508	7187
296.564	12158
296.621	8645
296.678	18367
296.734	22747
296.791	10096
296.848	5309
296.904	5950
296.961	11014
297.018	16231
297.074	12038
297.131	4773
297.187	4312
297.244	5466
297.301	15851
297.357	22932
297.414	9910
297.470	5345
297.527	3565
297.583	2291
297.640	2620
297.696	2300
297.753	2103
297.809	2002
297.866	991
297.922	1615
297.979	814
298.035	1492
298.092	2965
298.148	9732
298.204	8685
298.261	4975
298.317	9631
298.374	19974
298.430	11864
298.486	5491
298.543	3655
298.599	3879
298.656	4721
298.712	7531
298.768	16758
298.824	10374
298.881	4666
298.937	2788
298.993	3475
299.050	3687
299.106	3488
299.162	2663
299.218	3313
299.275	2606
299.331	3635
299.387	6177
299.443	17808
299.500	20333
299.556	10712
299.612	5178
299.668	4844
299.724	8717
299.780	8758
299.837	4738
299.893	5813
299.949	17475
300.005	19752
300.061	17966
300.117	26678
300.173	13015
300.229	6458
300.285	7822
300.341	8543
300.397	5543
300.453	3051
300.510	2891
300.566	3247
300.622	5167
300.678	16199
300.734	24397
300.790	17534
300.845	17917
300.901	14076
300.957	19638
301.013	14021
301.069	5505
301.125	3883
301.181	4866
301.237	3133
301.293	2340
301.349	2712
301.405	2408
301.461	2961
301.516	3047
301.572	3011
301.628	5652
301.684	4808
301.740	8399
301.796	10335
301.851	8375
301.907	13029
301.963	11961
302.019	17950
302.074	42325
302.130	41634
302.186	21093
302.242	10343
302.297	6404
302.353	6592
302.409	11470
302.464	9587
302.520	8220
302.576	17981
302.631	19678
302.687	11238
302.743	6418
302.798	3574
302.854	3264
302.910	4068
302.965	4041
303.021	6920
303.076	7264
303.132	8333
303.187	9553
303.243	4880
303.299	3377
303.354	3144
303.410	3006
303.465	3537
303.521	3329
303.576	2822
303.632	3426
303.687	5852
303.743	15187
303.798	12110
303.853	6432
303.909	4571
303.964	3778
304.020	5221
304.075	8477
304.130	6825
304.186	12154
304.241	12901
304.297	9859
304.352	5031
304.358	4971
304.407	4481
304.449	4385
304.463	4355
304.518	4823
304.539	4394
304.573	3698
304.629	3634
304.630	3681
304.684	6143
304.720	10894
304.739	13112
304.794	17852
304.811	15443
304.850	9605
304.902	5119
304.905	4851
304.960	3648
304.992	4017
305.015	4265
305.071	4469
305.083	4385
305.126	3997
305.173	3278
305.181	3180
305.236	2409
305.264	2588
305.292	2820
305.347	3661
305.354	3683
305.402	3810
305.445	4927
305.457	5189
305.512	5221
305.535	5565
305.567	6280
305.622	6215
305.626	6296
305.678	10020
305.716	18690
305.733	21026
305.788	20143
305.807	17751
305.843	15041
305.897	19378
305.898	19397
305.953	16990
305.988	11583
306.008	9153
306.063	6663
306.078	5965
306.118	4190
306.168	3377
306.173	3342
306.228	3029
306.259	2955
306.283	2967
306.338	3461
306.349	3536
306.393	3855
306.440	4374
306.448	4480
306.503	4721
306.530	4674
306.558	6316
306.613	13637
306.620	14475
306.668	18831
306.711	23409
306.723	23099
306.778	16123
306.801	12270
306.833	9281
306.888	5164
306.892	5032
306.943	4718
306.982	4072
306.997	3811
307.052	3496
307.072	3756
307.107	5034
307.162	6675
307.163	6684
307.217	8714
307.253	10219
307.272	10196
307.327	9945
307.343	9461
307.381	9046
307.434	8066
307.436	8361
307.491	18036
307.524	24659
307.546	24401
307.600	20331
307.614	17998
307.655	12132
307.704	7855
307.710	8017
307.765	10241
307.795	12777
307.819	14858
307.874	20737
307.885	21137
307.929	18701
307.975	16352
307.984	17505
308.038	26342
308.065	32339
308.093	53899
308.148	104307
308.156	113383
308.202	142063
308.246	156923
308.257	150713
308.312	91126
308.336	66233
308.366	51794
308.421	31065
308.426	29138
308.475	19739
308.517	14206
308.530	13471
308.585	11364
308.607	10957
308.639	11793
308.694	13101
308.697	13212
308.748	22479
308.787	30969
308.803	29814
308.857	21547
308.877	18494
308.912	18566
308.967	19543
308.967	19541
309.021	27669
309.058	34012
309.076	44539
309.130	79225
309.148	91525
309.185	139007
309.238	214971
309.239	215443
309.293	207046
309.328	189573
309.348	166164
309.402	90972
309.418	70689
309.457	52705
309.508	32976
309.511	32538
309.566	27190
309.598	24430
309.620	25445
309.674	28679
309.688	29789
309.729	27829
309.778	23923
309.783	23670
309.837	20580
309.868	18688
309.892	25152
309.946	41488
309.959	45715
310.001	52502
310.049	58002
310.055	55792
310.109	32051
310.139	19062
310.163	16078
310.218	10700
310.229	9709
310.272	8437
310.319	7174
310.326	7102
310.381	6636
310.409	6537
310.435	6552
310.489	6457
310.499	6432
310.543	6772
310.589	7072
310.598	7114
310.652	7318
310.679	7467
310.706	6944
310.760	5454
310.769	5222
310.814	4946
310.859	4762
310.868	4788
310.923	4897
310.948	4948
310.977	5710
311.031	6992
311.038	7174
311.085	7023
311.128	6660
311.139	6595
311.193	6383
311.218	6149
311.247	5929
311.301	5594
311.308	5526
311.356	5959
311.398	6444
311.410	6271
311.464	5195
311.488	4752
311.518	5071
311.572	5534
311.578	5577
311.626	7800
311.668	9737
311.680	9857
311.734	10156
311.758	10284
311.788	10021
311.842	9454
311.847	9362
311.896	13464
311.937	17025
311.950	16469
312.004	13730
312.027	12479
312.058	10402
312.112	6625
312.117	6232
312.165	6691
312.207	7054
312.297	12499
312.386	9812
312.476	9093
312.566	14729
312.656	8276
312.745	5317
312.835	8111
312.925	8132
313.015	7059
313.104	8037
313.194	6542
313.284	6769
313.374	9571
313.463	7931
313.553	6816
313.643	6618
313.732	5809
313.822	5956
313.912	7114
314.001	8684
314.091	11049
314.180	13382
314.270	10125
314.360	11634
314.449	9489
314.539	6608
314.628	7632
314.718	8936
314.808	9376
314.897	6948
314.987	7404
315.076	9118
315.166	10610
315.255	9364
315.345	9678
315.434	9661
315.524	9439
315.613	9835
315.703	12456
315.792	18522
315.881	39558
315.971	14841
316.060	18191
316.150	23702
316.239	22589
316.328	8927
316.418	7495
316.507	7765
316.597	10164
316.686	9395
316.775	13818
316.865	23144
316.954	6812
317.043	5894
317.133	6476
317.222	6048
317.311	6224
317.400	5005
317.490	9899
317.579	9281
317.668	7065
317.757	12221
317.847	29127
317.936	65217
318.025	28083
318.114	18922
318.203	12592
318.293	21492
318.382	38849
318.471	29110
318.560	45461
318.649	73492
318.738	14513
318.828	11194
318.917	11605
319.006	13556
319.095	35910
319.184	94744
319.273	42148
319.362	20627
319.451	9229
319.540	9761
319.629	21738
319.718	26792
319.807	14938
319.896	38522
319.985	108448
320.074	30549
320.163	12135
320.252	17637
320.341	19325
320.430	15792
320.519	17705
320.608	10599
320.697	10381
320.786	9091
320.875	12579
320.964	15701
321.053	22970
321.142	31403
321.230	29856
321.319	29257
321.408	57017
321.497	22023
321.586	23355
321.675	29111
321.764	24843
321.852	20058
321.941	33274
322.030	20279
322.119	29503
322.207	54177
322.296	38798
322.385	24167
322.474	28426
322.562	68772
322.651	31537
322.740	28190
322.829	36828
322.917	33558
323.006	20557
323.095	18976
323.183	14537
323.272	21805
323.361	37896
323.449	85761
323.538	29836
323.626	70478
323.715	33650
323.804	19811
323.892	61221
323.981	28316
324.069	13437
324.158	37501
324.246	27889
324.335	16048
324.424	20089
324.512	9624
324.601	13686
324.689	28526
324.778	43028
324.866	25535
324.954	8657
325.043	9694
325.131	16939
325.220	26598
325.308	28940
325.397	23266
325.485	12275
325.574	8212
325.662	8415
325.750	7721
325.839	7669
325.927	6424
326.015	8902
326.104	12248
326.192	14827
326.280	6441
326.369	7556
326.457	11503
326.545	17034
326.634	7175
326.722	5764
326.810	6659
326.898	6795
326.987	9330
327.075	16880
327.163	15383
327.251	9786
327.340	21183
327.428	23617
327.516	7576
327.604	7461
327.692	6866
327.781	8981
327.869	12991
327.957	9779
328.045	8563
328.133	5961
328.221	7995
328.309	6384
328.397	6504
328.485	8463
328.574	12787
328.662	35479
328.750	16919
328.838	8764
328.926	7112
329.014	7277
329.102	11156
329.190	28976
329.278	13609
329.366	6988
329.454	6242
329.542	6990
329.630	5917
329.718	8063
329.806	9692
329.893	11511
329.981	14186
330.069	28292
330.157	100204
330.245	189059
330.333	89441
330.421	21734
330.509	18535
330.597	44671
330.684	26742
330.772	13489
330.860	19453
330.948	25570
331.036	10854
331.123	5894
331.211	6708
331.299	9632
331.387	27054
331.475	33747
331.562	10241
331.650	6569
331.738	8036
331.825	9990
331.913	5929
332.001	6018
332.089	9903
332.176	16287
332.264	33379
332.352	22700
332.439	10412
332.527	7816
332.614	7020
332.702	8034
332.790	8116
332.877	17428
332.965	25975
333.052	8237
333.140	9284
333.228	16030
333.315	7056
333.403	8817
333.490	20539
333.578	14823
333.665	16701
333.753	10831
333.840	7174
333.928	10822
334.015	22347
334.103	42394
334.190	104119
334.278	25911
334.365	15985
334.452	12539
334.540	10658
334.627	12990
334.715	16618
334.802	32566
334.889	119975
334.977	90721
335.064	19198
335.151	13049
335.239	12597
335.326	17271
335.413	67985
335.501	65065
335.588	14076
335.675	12216
335.762	18855
335.850	27193
335.937	21782
336.024	49830
336.111	133675
336.199	51166
336.286	17035
336.373	10578
336.460	8871
336.547	8969
336.635	10377
336.722	9130
336.809	9005
336.896	14645
336.983	45410
337.070	92458
337.157	105970
337.245	74729
337.332	42758
337.419	9654
337.506	8365
337.593	10203
337.680	41854
337.767	87783
337.854	25150
337.941	29433
338.028	27234
338.115	11228
338.202	17129
338.289	27243
338.376	68961
338.463	24136
338.550	63327
338.637	47455
338.724	18304
338.811	21364
338.898	6878
338.984	7719
339.071	9185
339.158	11067
339.245	23496
339.332	14432
339.419	18652
339.506	14085
339.593	4984
339.679	5758
339.766	6413
339.853	9519
339.940	15025
340.027	6886
340.113	7050
340.200	8727
340.287	7137
340.374	10403
340.460	14706
340.547	7696
340.634	13286
340.720	41241
340.807	18965
340.894	5909
340.980	6049
341.067	5941
341.154	7319
341.240	12833
341.327	19189
341.414	10255
341.500	10508
341.587	7164
341.674	6926
341.760	15483
341.847	15257
341.933	5875
342.020	4103
342.106	4322
342.193	7037
342.279	11081
342.366	10157
342.452	13565
342.539	8203
342.625	21553
342.712	40481
342.798	16377
342.885	7942
342.971	3872
343.058	4492
343.144	4344
343.230	4830
343.317	7204
343.403	4861
343.490	4175
343.576	4491
343.662	5801
343.749	5709
343.835	7659
343.921	15846
344.008	79987
344.094	129294
344.180	27338
344.267	15823
344.353	49324
344.439	40638
344.525	21264
344.612	17766
344.698	15246
344.784	8907
344.870	6263
344.957	6455
345.043	9330
345.129	7508
345.215	13796
345.301	10059
345.387	7435
345.474	3925
345.560	4834
345.646	6228
345.732	6088
345.818	8233
345.904	7180
345.990	6739
346.076	7804
346.162	13708
346.249	7630
346.335	4878
346.421	6649
346.507	24406
346.593	56722
346.679	12791
346.765	7883
346.851	6821
346.937	6439
347.023	5863
347.108	6527
347.194	5605
347.280	6713
347.366	8631
347.452	26053
347.538	71093
347.624	54495
347.710	39215
347.796	8146
347.882	6499
347.967	6603
348.053	9842
348.139	6519
348.225	5354
348.311	5195
348.397	5956
348.482	8068
348.568	8750
348.654	5707
348.740	11123
348.825	10316
348.911	12972
348.997	40980
349.083	57282
349.168	11258
349.254	8330
349.340	7458
349.425	4866
349.511	8310
349.597	10178
349.682	18343
349.768	45018
349.854	19576
349.939	7010
350.025	5808
350.110	6311
350.196	5601
350.282	4107
350.367	5254
350.453	9247
350.538	8567
350.624	9499
350.709	8736
350.795	4653
350.880	5389
350.966	6824
351.051	9400
351.137	6198
351.222	6714
351.308	21032
351.393	40372
351.479	12300
351.564	5919
351.649	5420
351.735	4428
351.820	4653
351.906	5794
351.991	8823
352.076	32559
352.162	35549
352.247	8575
352.332	7928
352.418	16354
352.503	21329
352.588	63469
352.673	40820
352.759	11318
352.844	6950
352.929	8131
353.014	8619
353.100	9400
353.185	17902
353.270	19080
353.355	14400
353.441	6255
353.526	7304
353.611	15534
353.696	14436
353.781	10124
353.866	4753
353.952	7944
354.037	15983
354.122	29644
354.207	26025
354.292	10395
354.377	5694
354.462	5083
354.547	6762
354.632	8459
354.717	15891
354.802	20739
354.887	8163
354.972	4642
355.057	4667
355.142	4573
355.227	7294
355.312	11155
355.397	22342
355.482	46690
355.567	21279
355.652	17912
355.737	20601
355.822	56304
355.907	35385
355.991	8433
356.076	5671
356.161	5810
356.246	5912
356.331	6762
356.416	16899
356.501	83899
356.585	67414
356.670	13249
356.755	11132
356.840	18239
356.924	80582
357.009	180174
357.094	60486
357.179	18068
357.263	12963
357.348	13114
357.433	13278
357.517	12278
357.602	10077
357.687	9129
357.771	20507
357.856	43234
357.941	23883
358.025	60255
358.110	173133
358.195	69837
358.279	15729
358.364	14763
358.448	46432
358.533	102864
358.617	71571
358.702	68581
358.787	24571
358.871	16692
358.956	13085
359.040	6486
359.125	5783
359.209	9638
359.294	26038
359.378	30769
359.462	14017
359.547	9143
359.631	6753
359.716	5103
359.800	7542
359.885	11478
359.969	6709
360.053	8036
360.138	7336
360.222	10858
360.306	16655
360.391	12845
360.475	28058
360.559	46839
360.644	40251
360.728	28343
360.812	55914
360.896	108417
360.981	54121
361.065	30711
361.149	11556
361.233	9702
361.318	8341
361.402	8983
361.486	8252
361.570	7430
361.654	10385
361.739	24099
361.823	86336
361.907	102538
361.991	24104
362.075	21715
362.159	33643
362.243	28967
362.327	37746
362.411	36304
362.495	19528
362.580	12739
362.664	11249
362.748	13112
362.832	19654
362.916	37927
363.000	87497
363.084	143329
363.168	133184
363.252	37459
363.336	20006
363.420	26831
363.503	88730
363.587	82403
363.671	17550
363.755	15487
363.839	19727
363.923	12417
364.007	25075
364.091	27355
364.175	53519
364.258	151269
364.342	137415
364.426	137795
364.510	66211
364.594	36062
364.677	39087
364.761	105940
364.845	63909
364.929	29411
365.013	21679
365.096	21154
365.180	22577
365.264	44211
365.347	118615
365.431	50083
365.515	16055
365.598	8391
365.682	9508
365.766	20095
365.849	20810
365.933	10984
366.017	15740
366.100	11518
366.184	5308
366.267	8038
366.351	7128
366.435	6421
366.518	4384
366.602	5063
366.685	6431
366.769	8316
366.852	16425
366.936	22651
367.019	11536
367.103	14734
367.186	23083
367.270	7656
367.353	4752
367.436	7394
367.520	5695
367.603	8562
367.687	12097
367.770	17268
367.853	13599
367.937	38816
368.020	48110
368.104	13464
368.187	15808
368.270	21605
368.353	19218
368.437	25245
368.520	47570
368.603	30540
368.687	46040
368.770	66208
368.853	18950
368.936	22471
369.020	21764
369.103	8554
369.186	7128
369.269	7899
369.352	14543
369.436	18594
369.519	12393
369.602	6653
369.685	8481
369.768	7829
369.851	7008
369.934	5099
370.018	8904
370.101	14997
370.184	14590
370.267	12143
370.350	19875
370.433	29438
370.516	61855
370.599	63096
370.682	24316
370.765	44659
370.848	54372
370.931	83906
371.014	35849
371.097	9497
371.180	7367
371.263	5520
371.346	3408
371.429	5944
371.511	6487
371.594	12206
371.677	20863
371.760	25498
371.843	21111
371.926	84221
372.009	139895
372.091	45219
372.174	39306
372.257	72814
372.340	28664
372.423	33449
372.505	36724
372.588	16124
372.671	34946
372.754	81094
372.836	39162
372.919	49883
373.002	74319
373.085	21815
373.167	18103
373.250	43371
373.332	80043
373.415	117918
373.498	186469
373.580	74615
373.663	112525
373.746	119136
373.828	30177
373.911	17540
373.993	25107
374.076	80859
374.159	62077
374.241	32173
374.324	75318
374.406	47398
374.489	73889
374.571	154330
374.654	59756
374.736	42935
374.819	105971
374.901	146953
374.983	126654
375.066	25680
375.148	17176
375.231	70379
375.313	109164
375.395	39590
375.478	10995
375.560	9331
375.643	11956
375.725	42947
375.807	124573
375.890	91610
375.972	42385
376.054	28746
376.136	38107
376.219	19639
376.301	47612
376.383	102698
376.465	37906
376.548	28884
376.630	42067
376.712	91431
376.794	36875
376.877	8251
376.959	5907
377.041	9331
377.123	21666
377.205	21760
377.287	6602
377.369	7343
377.452	7280
377.534	5800
377.616	5778
377.698	6076
377.780	4392
377.862	5903
377.944	6239
378.026	4740
378.108	5450
378.190	5153
378.272	5521
378.354	4088
378.436	4495
378.518	14115
378.600	38313
378.682	31458
378.764	54990
378.846	38612
378.928	16565
379.010	19195
379.091	11153
379.173	7343
379.255	5606
379.337	9856
379.419	33727
379.501	70714
379.583	27316
379.664	11253
379.746	23771
379.828	58430
379.910	71517
379.991	54492
380.073	10037
380.155	9624
380.237	7024
380.318	5900
380.400	6589
380.482	14053
380.564	19835
380.645	23575
380.727	20311
380.809	11573
380.890	8659
380.972	7090
381.053	6243
381.135	8923
381.217	23820
381.298	54034
381.380	25892
381.461	30292
381.543	101205
381.624	100184
381.706	21028
381.787	15089
381.869	16529
381.951	55745
382.032	146490
382.113	83361
382.195	21471
382.276	21295
382.358	44645
382.439	86996
382.521	98890
382.602	128788
382.684	68820
382.765	124259
382.846	116102
382.928	112468
383.009	61230
383.090	65237
383.172	191323
383.253	227330
383.334	104639
383.416	125272
383.497	60440
383.578	31640
383.659	62279
383.741	196611
383.822	361917
383.903	173618
383.984	100178
384.066	161613
384.147	91562
384.228	22223
384.309	18827
384.390	14755
384.471	12152
384.553	12709
384.634	17252
384.715	17130
384.796	10811
384.877	17093
384.958	52905
385.039	55100
385.120	21738
385.201	12571
385.282	16984
385.363	18067
385.444	15761
385.525	29647
385.606	71887
385.687	52163
385.768	20167
385.849	28506
385.930	87822
386.011	118567
386.092	33676
386.173	12643
386.254	12093
386.335	12868
386.416	14901
386.496	41354
386.577	53334
386.658	23639
386.739	16577
386.820	17873
386.901	14911
386.981	13944
387.062	11750
387.143	21457
387.224	56684
387.304	46889
387.385	21768
387.466	17394
387.547	20830
387.627	14985
387.708	33033
387.789	98140
387.869	96518
387.950	28647
388.031	11168
388.111	14084
388.192	30584
388.273	39429
388.353	22886
388.434	13256
388.514	26281
388.595	85323
388.676	96252
388.756	52631
388.837	51275
388.917	29542
388.998	9784
389.078	9629
389.159	8283
389.239	6990
389.320	13027
389.400	11277
389.480	28329
389.561	55014
389.641	25587
389.722	14152
389.802	18628
389.883	30564
389.963	62279
390.043	38413
390.124	17056
390.204	29344
390.284	61988
390.365	40195
390.445	63860
390.525	113420
390.605	83762
390.686	29622
390.766	13325
390.846	9518
390.927	6717
391.007	7874
391.087	10480
391.167	10208
391.247	8001
391.328	14063
391.408	22262
391.488	16575
391.568	6986
391.648	11399
391.728	14887
391.808	13269
391.888	15358
391.969	37343
392.049	49225
392.129	27279
392.209	34638
392.289	62346
392.369	39155
392.449	43328
392.529	25539
392.609	21364
392.689	29995
392.769	65977
392.849	53832
392.929	58395
393.009	105979
393.089	83705
393.169	106564
393.248	301348
393.328	715971
393.408	657341
393.488	224670
393.568	78771
393.648	42495
393.728	28040
393.807	20734
393.887	20179
393.967	18251
394.047	20755
394.127	25976
394.206	45566
394.286	150883
394.366	420377
394.446	389679
394.525	114398
394.605	39262
394.685	35364
394.764	65930
394.844	96925
394.924	61631
395.003	21011
395.083	15134
395.163	13977
395.242	13282
395.322	14692
395.402	10722
395.481	17726
395.561	50607
395.640	104664
395.720	92755
395.799	114407
395.879	83435
395.958	72177
396.038	219116
396.117	529917
396.197	512891
396.276	206981
396.356	84277
396.435	61429
396.515	43884
396.594	50129
396.673	96941
396.753	303331
396.832	638111
396.912	444094
396.991	121513
397.070	43232
397.150	24699
397.229	24388
397.308	38573
397.388	53920
397.467	26987
397.546	12716
397.625	9265
397.705	13726
397.784	12197
397.863	8488
397.942	8028
398.022	11487
398.101	39860
398.180	89366
398.259	45771
398.338	13804
398.417	8882
398.497	7475
398.576	8946
398.655	6081
398.734	9032
398.813	11953
398.892	38993
398.971	93989
399.050	40137
399.129	7147
399.208	5077
399.287	6501
399.366	5523
399.445	6511
399.524	6277
399.603	5187
399.682	12242
399.761	36218
399.840	97510
399.919	65388
399.998	10430
400.077	4382
400.156	3974
400.235	7970
400.313	6232
400.392	9631
400.471	33449
400.550	44171
400.629	12126
400.708	8477
400.786	11590
400.865	27588
400.944	26568
401.023	11766
401.102	4264
401.180	4896
401.259	5416
401.338	6720
401.416	8043
401.495	7145
401.574	7439
401.652	6646
401.731	8988
401.810	8512
401.888	5870
401.967	4418
402.046	5462
402.124	8013
402.203	8961
402.281	7833
402.360	12589
402.438	31674
402.517	20683
402.596	8110
402.674	7177
402.753	6218
402.831	4984
402.910	10578
402.988	36478
403.066	85020
403.145	45183
403.223	38937
403.302	77755
403.380	60957
403.459	59667
403.537	23423
403.615	10242
403.694	4226
403.772	5220
403.850	4309
403.929	4663
404.007	6737
404.085	14950
404.164	17679
404.242	11500
404.320	33465
404.398	74891
404.477	79081
404.555	133350
404.633	107591
404.711	57802
404.789	30834
404.868	11767
404.946	5971
405.024	4453
405.102	3618
405.180	3282
405.258	3780
405.336	5555
405.415	5425
405.493	13207
405.571	12401
405.649	4561
405.727	5657
405.805	9383
405.883	8938
405.961	9941
406.039	9941
406.117	5122
406.195	9961
406.273	39693
406.351	104818
406.429	57609
406.507	13924
406.585	6300
406.663	6363
406.740	7427
406.818	6053
406.896	3987
406.974	6129
407.052	15881
407.130	71879
407.208	78299
407.285	15844
407.363	4466
407.441	5550
407.519	4200
407.596	9475
407.674	35068
407.752	81850
407.830	59010
407.907	21948
407.985	7582
408.063	5558
408.141	4616
408.218	10703
408.296	11788
408.373	9536
408.451	7165
408.529	5929
408.606	3326
408.684	3242
408.762	2516
408.839	3330
408.917	3288
408.994	5039
409.072	3825
409.149	4855
409.227	8396
409.304	9597
409.382	10128
409.459	10496
409.537	13651
409.614	12724
409.692	10668
409.769	11510
409.846	14712
409.924	18427
410.001	14768
410.079	12608
410.156	14574
410.233	17053
410.311	8112
410.388	7173
410.465	8087
410.543	7352
410.620	5554
410.697	6825
410.775	6685
410.852	3151
410.929	7957
411.006	9478
411.083	6597
411.161	13750
411.238	14812
411.315	9000
411.392	4888
411.469	8137
411.547	8074
411.624	4647
411.701	4724
411.778	5800
411.855	10111
411.932	6165
412.009	4170
412.086	4823
412.163	5110
412.240	6888
412.317	8981
412.394	7764
412.471	3525
412.548	3909
412.625	4680
412.702	8319
412.779	17126
412.856	12481
412.933	3956
413.010	4625
413.087	8754
413.164	30483
413.241	36180
413.318	9555
413.395	8665
413.471	9354
413.548	4552
413.625	4803
413.702	5170
413.779	4470
413.855	2709
413.932	2466
414.009	2244
414.086	2882
414.162	4945
414.239	14370
414.316	35698
414.393	55586
414.469	17719
414.546	3829
414.623	2859
414.699	3691
414.776	4465
414.853	3697
414.929	4211
415.006	4827
415.082	6486
415.159	4990
415.236	4125
415.312	4814
415.389	7058
415.465	8298
415.542	5150
415.618	4122
415.695	6708
415.771	4825
415.848	4233
415.924	4708
416.000	3570
416.077	4117
416.153	1407
416.230	1537
416.306	2479
416.383	2626
416.459	2634
416.535	2084
416.612	3004
416.688	3952
416.764	4841
416.841	2893
416.917	2858
416.993	3100
417.069	4764
417.146	8223
417.222	10488
417.298	5822
417.374	4046
417.451	5275
417.527	4675
417.603	5344
417.679	3839
417.755	4152
417.831	2365
417.908	2739
417.984	2020
418.060	3227
418.136	7849
418.212	9245
418.288	4306
418.364	3320
418.440	2749
418.516	6369
418.592	11058
418.668	16555
418.744	17823
418.820	13189
418.896	3884
418.972	2526
419.048	3847
419.124	10113
419.200	6203
419.276	3376
419.352	1858
419.428	3385
419.504	4893
419.579	5548
419.655	3962
419.731	4918
419.807	13080
419.883	21533
419.959	13253
420.034	5855
420.110	14166
420.186	39413
420.262	25966
420.337	7684
420.413	6000
420.489	4195
420.565	4215
420.640	4271
420.716	4820
420.792	3021
420.867	4801
420.943	4883
421.019	8173
421.094	7700
421.170	6861
421.245	6056
421.321	6203
421.397	8673
421.472	22668
421.548	44347
421.623	25195
421.699	12025
421.774	11521
421.850	12800
421.925	17175
422.001	17228
422.076	19507
422.152	24741
422.227	34765
422.302	46979
422.378	73741
422.453	135692
422.529	264474
422.604	424643
422.679	469578
422.755	418297
422.830	225246
422.905	110303
422.981	64971
423.056	44728
423.131	32296
423.207	24334
423.282	22348
423.357	23943
423.432	18466
423.508	20013
423.583	27116
423.658	19775
423.733	11753
423.808	12780
423.883	11723
423.959	11436
424.034	9840
424.109	9133
424.184	6151
424.259	5452
424.334	5178
424.409	5131
424.484	4635
424.559	5477
424.634	5364
424.709	6364
424.784	7033
424.859	4251
424.934	9404
425.009	31087
425.084	41856
425.159	14651
425.234	4919
425.309	5805
425.384	14020
425.459	17122
425.534	6390
425.609	4761
425.683	3802
425.758	4576
425.833	4399
425.908	6396
425.983	20167
426.058	42786
426.132	18295
426.207	6509
426.282	10619
426.357	9065
426.431	3260
426.506	4155
426.581	4012
426.655	4304
426.730	3773
426.805	2985
426.879	4344
426.954	5033
427.029	11327
427.103	48165
427.178	90905
427.253	34595
427.327	7336
427.402	13468
427.476	24654
427.551	10692
427.625	5651
427.700	5589
427.774	3915
427.849	5562
427.923	3689
427.998	4722
428.072	6403
428.147	18176
428.221	68855
428.296	141644
428.370	61114
428.444	11541
428.519	15354
428.593	25484
428.667	21384
428.742	27289
428.816	37180
428.890	115520
428.965	134465
429.039	42483
429.113	28311
429.188	9926
429.262	4543
429.336	10575
429.410	20583
429.485	16401
429.559	21696
429.633	16257
429.707	8473
429.781	31803
429.855	124817
429.930	138147
430.004	77690
430.078	111778
430.152	117746
430.226	195528
430.300	152263
430.374	28383
430.448	14426
430.522	46144
430.596	95506
430.670	71311
430.744	153913
430.818	155179
430.892	28110
430.966	7026
431.040	4287
431.114	2614
431.188	2489
431.262	3708
431.336	3698
431.410	14141
431.484	29976
431.557	15516
431.631	3899
431.705	9023
431.779	47515
431.853	131520
431.927	71369
432.000	9013
432.074	4192
432.148	5895
432.222	4421
432.295	2513
432.369	2975
432.443	9339
432.516	48625
432.590	86541
432.664	28886
432.737	4960
432.811	1475
432.885	1103
432.958	2108
433.032	1844
433.106	842
433.179	1698
433.253	1774
433.326	2343
433.400	1719
433.473	1097
433.547	638
433.620	2484
433.694	5272
433.767	4744
433.841	1600
433.914	2097
433.988	1962
434.061	2158
434.134	1860
434.208	1544
434.281	1175
434.355	1677
434.428	1256
434.501	1623
434.575	2140
434.648	2357
434.721	1773
434.795	1650
434.868	874
434.941	1267
435.014	1183
435.088	1485
435.161	3587
435.234	4675
435.307	6771
435.381	3990
435.454	4450
435.527	5823
435.600	5590
435.673	6286
435.746	4565
435.819	3874
435.892	3269
435.966	3389
436.039	2760
436.112	3430
436.185	1921
436.258	1481
436.331	1330
436.404	2190
436.477	939
436.550	758
436.623	1637
436.696	1367
436.769	2250
436.842	2360
436.915	3246
436.987	3901
437.060	1577
437.133	1914
437.206	2358
437.279	2504
437.352	1616
437.425	2682
437.498	4413
437.570	8046
437.643	5424
437.716	1709
437.789	1946
437.861	7435
437.934	15998
438.007	6153
438.080	2158
438.152	3722
438.225	10051
438.298	55820
438.370	112132
438.443	42249
438.516	11961
438.588	3111
438.661	1419
438.734	2282
438.806	2485
438.879	3323
438.951	5298
439.024	7874
439.096	2239
439.169	1604
439.241	1162
439.314	2836
439.386	4422
439.459	7209
439.531	7947
439.604	3553
439.676	1453
439.749	1798
439.821	1330
439.893	1248
439.966	2332
440.038	4160
440.110	3573
440.183	1929
440.255	2254
440.327	5443
440.400	29304
440.472	81444
440.544	40160
440.617	6189
440.689	6618
440.761	8832
440.833	11706
440.905	7457
440.978	1728
441.050	1513
441.122	1559
441.194	1887
441.266	1770
441.338	1527
441.411	6655
441.483	30497
441.555	33230
441.627	6926
441.699	6769
441.771	5881
441.843	2944
441.915	2540
441.987	2585
442.059	2240
442.131	5409
442.203	6351
442.275	8368
442.347	10552
442.419	22929
442.491	98195
442.563	155984
442.635	56423
442.706	31686
442.778	18811
442.850	5015
442.922	4390
442.994	5830
443.066	8745
443.137	7627
443.209	8205
443.281	13522
443.353	34761
443.425	128810
443.496	301283
443.568	243890
443.640	80536
443.711	18521
443.783	8800
443.855	5284
443.926	3829
443.998	5668
444.070	6107
444.141	5336
444.213	6834
444.285	7073
444.356	6237
444.428	5668
444.499	2936
444.571	1879
444.642	3370
444.714	3511
444.785	6399
444.857	10729
444.928	20674
445.000	12345
445.071	16469
445.143	18249
445.214	15400
445.285	30156
445.357	84640
445.428	233836
445.500	368488
445.571	238174
445.642	120377
445.714	50895
445.785	35786
445.856	11338
445.928	9111
445.999	7788
446.070	6747
446.141	6952
446.213	8070
446.284	4565
446.355	5138
446.426	3309
446.497	3839
446.569	6784
446.640	8158
446.711	4715
446.782	3049
446.853	3519
446.924	3949
446.995	2834
447.066	4286
447.138	8052
447.209	3479
447.280	925
447.351	1080
447.422	1617
447.493	3762
447.564	3976
447.635	4881
447.706	1675
447.777	1522
447.847	786
447.918	1260
447.989	3093
448.060	6100
448.131	13760
448.202	9217
448.273	5286
448.344	2717
448.414	1549
448.485	1912
448.556	1899
448.627	777
448.698	1833
448.768	1793
448.839	2203
448.910	6596
448.981	5132
449.051	2017
449.122	750
449.193	558
449.263	1413
449.334	1470
449.405	3059
449.475	7417
449.546	5265
449.616	8066
449.687	5976
449.758	2084
449.828	1868
449.899	2163
449.969	1848
450.040	2232
450.110	2422
450.181	2734
450.251	1195
450.322	1528
450.392	2044
450.463	2119
450.533	1649
450.604	2756
450.674	1418
450.744	1578
450.815	766
450.885	2796
450.955	1085
451.026	1770
451.096	2967
451.166	2923
451.237	10851
451.307	19013
451.377	5618
451.447	1519
451.518	1228
451.588	1486
451.658	2037
451.728	7002
451.799	23517
451.869	19256
451.939	3672
452.009	1476
452.079	1673
452.149	2574
452.219	7489
452.289	27419
452.360	13214
452.430	2658
452.500	2965
452.570	4398
452.640	9323
452.710	24434
452.780	28137
452.850	17928
452.920	11473
452.990	5366
453.060	4565
453.129	5446
453.199	7096
453.269	36276
453.339	51732
453.409	67235
453.479	89024
453.549	118143
453.619	112729
453.688	31510
453.758	5489
453.828	3328
453.898	2280
453.968	1969
454.037	992
454.087	1469
454.107	1639
454.168	1535
454.177	1490
454.247	942
454.249	1027
454.316	2314
454.330	2600
454.386	3249
454.411	7316
454.456	13815
454.492	14017
454.525	14254
454.574	7280
454.595	4266
454.655	2700
454.665	2485
454.734	3894
454.736	4110
454.804	8561
454.817	11749
454.873	23618
454.898	22270
454.943	19729
454.979	12553
455.013	6458
455.060	4460
455.082	3800
455.141	6455
455.152	6803
455.221	21055
455.222	21351
455.291	31802
455.303	31990
455.360	31673
455.384	40172
455.430	52961
455.465	38765
455.499	25988
455.546	23300
455.569	21588
455.627	11030
455.638	9310
455.707	2590
455.708	2625
455.777	3071
455.789	3050
455.846	2737
455.869	2735
455.916	2833
455.950	3200
455.985	3246
456.031	2509
456.054	2207
456.112	2531
456.124	2588
456.193	3883
456.193	3852
456.262	3108
456.274	3437
456.332	4688
456.355	4455
456.401	3813
456.436	3459
456.470	3112
456.516	2518
456.540	2301
456.597	2223
456.609	2164
456.678	2125
456.678	2097
456.747	2383
456.759	2347
456.817	2167
456.840	2430
456.886	2813
456.920	2981
456.955	3194
457.001	3534
457.024	3627
457.082	3757
457.093	3769
457.162	5127
457.163	5163
457.232	5875
457.243	5686
457.301	4499
457.324	4008
457.370	3352
457.405	3496
457.439	3611
457.485	4081
457.508	4437
457.566	5317
457.577	5646
457.646	7895
457.647	7969
457.715	15777
457.727	17335
457.784	26434
457.808	32596
457.853	38432
457.889	41596
457.922	40017
457.969	30347
457.991	31585
458.050	40497
458.060	42193
458.129	66538
458.130	67203
458.198	55215
458.211	49239
458.267	27344
458.292	19444
458.336	16241
458.372	17059
458.405	24151
458.453	36260
458.474	43521
458.533	70830
458.543	72418
458.611	97591
458.614	97902
458.680	53697
458.694	41980
458.749	20772
458.775	15185
458.818	10953
458.855	9657
458.887	8786
458.936	7319
458.955	6877
459.016	6151
459.024	6094
459.093	6449
459.097	6462
459.162	6134
459.177	6213
459.230	7648
459.257	8392
459.299	9353
459.338	9965
459.368	9803
459.418	10478
459.437	9958
459.499	6648
459.505	6540
459.574	5759
459.579	5762
459.643	5807
459.659	5803
459.711	5687
459.740	6056
459.780	6976
459.820	7205
459.849	7098
459.900	7578
459.917	7566
459.981	6871
459.986	6801
460.054	6329
460.061	6330
460.123	7815
460.141	8083
460.191	8223
460.222	8418
460.260	8785
460.302	9894
460.328	9962
460.382	8792
460.397	9184
460.462	12112
460.465	12751
460.534	27816
460.543	29853
460.602	65290
460.623	79351
460.671	115195
460.703	149283
460.739	128183
460.783	77991
460.808	61295
460.864	16590
460.876	12882
460.944	8694
460.945	8655
461.013	7996
461.024	7999
461.081	8567
461.104	8810
461.150	8232
461.184	7585
461.218	7435
461.264	7321
461.286	7270
461.345	7292
461.355	7335
461.423	7853
461.425	7859
461.491	9246
461.505	9637
461.559	16484
461.585	19636
461.628	25950
461.665	33013
461.696	34931
461.745	39576
461.764	35244
461.825	11535
461.832	10880
461.901	8696
461.905	8678
461.969	7744
461.985	7532
462.037	8700
462.065	9350
462.105	10639
462.145	11941
462.173	14863
462.225	20659
462.241	22019
462.305	29543
462.310	28818
462.378	14536
462.385	12699
462.446	9382
462.465	8970
462.514	9219
462.545	9329
462.582	9791
462.625	10703
462.650	11563
462.705	13205
462.718	13162
462.785	12882
462.786	12907
462.854	14199
462.865	14478
462.922	16202
462.945	16901
462.990	13728
463.025	10409
463.058	9529
463.104	8636
463.126	8583
463.184	9186
463.194	9278
463.262	9329
463.264	9339
463.330	11114
463.344	11408
463.398	11777
463.424	12114
463.466	11341
463.504	10434
463.533	10341
463.583	10059
463.601	10573
463.663	12289
463.669	12461
463.737	15124
463.743	15311
463.805	25059
463.823	27900
463.873	36884
463.903	42871
463.940	43069
463.982	43411
464.008	35696
464.062	16145
464.076	15301
464.142	12179
464.144	12256
464.211	15536
464.221	16062
464.279	22501
464.301	25055
464.347	26361
464.381	27189
464.414	22608
464.461	15854
464.482	16061
464.540	17174
464.550	16828
464.617	13593
464.620	13470
464.685	14554
464.699	14777
464.753	16089
464.779	16789
464.820	17909
464.859	19003
464.888	19162
464.938	19113
464.956	19376
465.018	20317
465.023	20035
465.091	15837
465.098	15373
465.158	15495
465.177	15595
465.226	15732
465.257	15649
465.293	16020
465.336	16509
465.361	17539
465.416	19730
465.428	21372
465.495	30226
465.496	30360
465.563	43314
465.575	45633
465.631	51509
465.654	53965
465.698	35791
465.734	19509
465.765	18235
465.813	16928
465.833	16617
465.893	15926
465.900	15961
465.968	16035
465.972	16014
466.035	17225
466.052	17501
466.102	19034
466.131	19878
466.170	20022
466.210	20068
466.237	19665
466.290	18746
466.304	18848
466.369	19102
466.372	19163
466.439	20015
466.449	20079
466.506	21495
466.528	22018
466.573	31751
466.607	38924
466.641	49426
466.687	64009
466.708	67854
466.766	78460
466.775	73009
466.842	30284
466.845	28208
466.909	24214
466.925	23315
466.977	23886
467.004	24139
467.044	25652
467.083	27083
467.111	27361
467.163	27714
467.178	27947
467.242	28681
467.245	28854
467.312	31310
467.321	31578
467.379	38502
467.400	40904
467.446	46623
467.480	50594
467.559	28160
467.638	24874
467.717	24056
467.796	25490
467.875	26448
467.955	27871
468.034	45789
468.113	76149
468.192	101471
468.271	34588
468.350	33214
468.429	34317
468.508	32253
468.588	26414
468.667	24916
468.746	25479
468.825	23958
468.904	21527
468.983	26125
469.062	34429
469.141	37494
469.220	20195
469.299	18774
469.378	21083
469.456	23293
469.535	21703
469.614	21931
469.693	23270
469.772	27856
469.851	35898
469.930	23527
470.009	19580
470.088	17948
470.166	19539
470.245	21446
470.324	23063
470.403	20842
470.482	19189
470.560	19941
470.639	22148
470.718	21903
470.797	19392
470.875	23812
470.954	29759
471.033	30148
471.111	16392
471.190	16739
471.269	16618
471.347	16567
471.426	18734
471.505	21498
471.583	21104
471.662	19976
471.740	18563
471.819	19455
471.898	18927
471.976	17523
472.055	18780
472.133	23692
472.212	31066
472.290	26185
472.369	18441
472.447	17345
472.526	17186
472.604	18371
472.683	19417
472.761	21325
472.839	21005
472.918	17111
472.996	18439
473.075	20558
473.153	21188
473.231	17535
473.310	20434
473.388	19235
473.466	18498
473.545	20496
473.623	22766
473.701	21687
473.780	17978
473.858	16902
473.936	21460
474.014	19740
474.093	24538
474.171	34256
474.249	38336
474.327	24209
474.405	16545
474.484	17768
474.562	16875
474.640	17421
474.718	18495
474.796	18546
474.874	19540
474.952	18453
475.030	18395
475.108	18580
475.187	21818
475.265	24549
475.343	30920
475.421	33498
475.499	19873
475.577	19905
475.655	27294
475.733	44589
475.811	75329
475.889	62875
475.966	42177
476.044	25248
476.122	27454
476.200	27607
476.278	23171
476.356	16051
476.434	19008
476.512	22804
476.590	28520
476.667	24699
476.745	15958
476.823	17249
476.901	17830
476.979	17231
477.056	17565
477.134	17439
477.212	17133
477.290	16644
477.367	16145
477.445	16093
477.523	15787
477.601	15300
477.678	16495
477.756	19712
477.834	22048
477.911	17383
477.989	17632
478.066	18358
478.144	21278
478.222	26540
478.299	37002
478.377	33386
478.454	19837
478.532	16182
478.609	18060
478.687	18630
478.764	15483
478.842	16518
478.919	16307
478.997	16410
479.074	15253
479.152	19905
479.229	22728
479.307	16262
479.384	12775
479.461	14612
479.539	16085
479.616	18483
479.694	16453
479.771	17931
479.848	21776
479.926	25839
480.003	25611
480.080	16055
480.157	15604
480.235	14327
480.312	15585
480.389	20320
480.467	28514
480.544	32955
480.621	20306
480.698	19482
480.775	21320
480.853	20383
480.930	18599
481.007	20864
481.084	30425
481.161	39921
481.238	23704
481.315	16233
481.392	16110
481.470	17171
481.547	17626
481.624	17895
481.701	18557
481.778	19482
481.855	22654
481.932	34477
482.009	47473
482.086	32149
482.163	25836
482.240	34387
482.317	47755
482.393	36919
482.470	20904
482.547	20900
482.624	18634
482.701	18957
482.778	18777
482.855	17459
482.932	16705
483.009	18525
483.085	24418
483.162	33340
483.239	27520
483.316	19390
483.393	19919
483.469	20933
483.546	23772
483.623	22623
483.699	19674
483.776	19920
483.853	24702
483.930	45515
484.006	77955
484.083	106442
484.160	51178
484.236	61284
484.313	49244
484.389	40888
484.466	44652
484.543	46992
484.619	41907
484.696	41771
484.772	42940
484.849	42914
484.925	34128
485.002	34715
485.078	36186
485.155	38820
485.231	39891
485.308	34227
485.384	38390
485.461	49939
485.537	68700
485.614	73526
485.690	33240
485.766	30723
485.843	35618
485.919	43974
485.995	45073
486.072	29577
486.148	29157
486.224	29135
486.301	32478
486.377	35020
486.453	34283
486.530	34814
486.606	41166
486.682	46138
486.758	57313
486.835	68491
486.911	56843
486.987	82100
487.063	76787
487.139	87975
487.215	72324
487.292	43989
487.368	40730
487.444	45678
487.520	59051
487.596	71995
487.672	125103
487.748	290456
487.824	389992
487.900	150993
487.976	65204
488.052	49768
488.128	49409
488.204	41845
488.280	43035
488.356	62126
488.432	84204
488.508	112496
488.584	40878
488.660	30574
488.736	29925
488.812	30571
488.888	36975
488.964	48663
489.039	86758
489.115	115377
489.191	71693
489.267	35426
489.343	32042
489.418	26952
489.494	26030
489.570	25939
489.646	32025
489.722	28363
489.797	30159
489.873	52238
489.949	98372
490.024	77496
490.100	31624
490.176	33628
490.251	30483
490.327	34323
490.403	26538
490.478	24754
490.554	23722
490.629	24455
490.705	23036
490.781	24687
490.856	25381
490.932	28437
491.007	28454
491.083	24988
491.158	25041
491.234	39882
491.309	73006
491.385	67782
491.460	28235
491.536	28188
491.611	23528
491.686	24938
491.762	32127
491.837	56185
491.913	93140
491.988	122776
492.063	141923
492.139	58814
492.214	38976
492.289	22816
492.365	28191
492.440	35598
492.515	26665
492.590	24030
492.666	22808
492.741	29666
492.816	40771
492.891	25071
492.967	21809
493.042	19662
493.117	22142
493.192	23847
493.267	49283
493.342	126182
493.418	157736
493.493	29186
493.568	18563
493.643	20292
493.718	26039
493.793	36257
493.868	35533
493.943	25480
494.018	21608
494.093	19393
494.168	19492
494.243	18318
494.318	19185
494.393	20624
494.468	21814
494.543	17820
494.618	20114
494.693	18776
494.768	19602
494.842	21151
494.917	22524
494.992	22377
495.067	20810
495.142	19460
495.217	20668
495.292	19943
495.366	23592
495.441	28319
495.516	30588
495.591	43074
495.665	118852
495.740	224925
495.815	95833
495.890	29667
495.964	24329
496.039	29115
496.114	34099
496.188	45138
496.263	34089
496.338	26129
496.412	29113
496.487	32324
496.561	32275
496.636	32748
496.710	30926
496.785	33487
496.860	35744
496.934	30358
497.009	31035
497.083	31052
497.158	33082
497.232	38547
497.307	43038
497.381	40324
497.455	48452
497.530	57278
497.604	46683
497.679	49907
497.753	67355
497.827	76986
497.902	67265
497.976	82735
498.050	191610
498.125	502598
498.199	447963
498.273	93574
498.348	77469
498.422	71869
498.496	68823
498.570	64401
498.645	58059
498.719	54085
498.793	59087
498.867	71661
498.941	101011
499.016	258425
499.090	517388
499.164	168923
499.238	40996
499.312	37170
499.386	40322
499.460	36644
499.534	34489
499.609	40925
499.683	51147
499.757	53540
499.831	131407
499.905	379025
499.979	313476
500.053	61841
500.127	59552
500.201	40181
500.275	30687
500.349	29375
500.422	31985
500.496	42939
500.570	89869
500.644	237199
500.718	371932
500.792	77293
500.866	35524
500.940	40469
501.013	32594
501.087	31651
501.161	45984
501.235	65086
501.309	159706
501.382	370378
501.456	283627
501.530	80699
501.603	122799
501.677	48511
501.751	24866
501.825	31406
501.898	65667
501.972	152840
502.046	88227
502.119	33023
502.193	79573
502.266	161805
502.340	78098
502.413	84711
502.487	144768
502.561	79132
502.634	31700
502.708	23404
502.781	21752
502.855	21763
502.928	19514
503.002	19263
503.075	19090
503.149	20832
503.222	22430
503.295	22793
503.369	27510
503.442	42796
503.516	134887
503.589	289961
503.662	179314
503.736	70919
503.809	138910
503.882	124755
503.956	174418
504.029	172189
504.102	173214
504.175	198669
504.249	91010
504.322	52103
504.395	38105
504.468	26954
504.542	25601
504.615	20502
504.688	19542
504.761	16869
504.834	22954
504.907	24680
504.980	32507
505.053	23693
505.127	24365
505.200	30012
505.273	30151
505.346	21069
505.419	17752
505.492	16326
505.565	15906
505.638	17234
505.711	15506
505.784	14670
505.857	14022
505.930	16986
506.003	14549
506.076	18005
506.149	21955
506.221	24624
506.294	26677
506.367	77193
506.440	198597
506.513	96573
506.586	28943
506.659	17604
506.731	16354
506.804	19738
506.877	24671
506.950	19969
507.022	17375
507.095	22968
507.168	27166
507.241	16225
507.313	14119
507.386	15981
507.459	20571
507.531	15965
507.604	13942
507.677	14640
507.749	13840
507.822	18590
507.894	29443
507.967	33325
508.040	20908
508.112	20197
508.185	20633
508.257	18234
508.330	25244
508.402	18648
508.475	19482
508.547	20850
508.620	23106
508.692	35680
508.765	23216
508.837	15553
508.909	16762
508.982	17054
509.054	18845
509.127	16249
509.199	16316
509.271	15500
509.344	15808
509.416	15515
509.488	15120
509.560	15746
509.633	16661
509.705	17875
509.777	19953
509.849	23407
509.922	19024
509.994	17008
510.066	17587
510.138	18117
510.210	31339
510.283	29053
510.355	24705
510.427	21410
510.499	22015
510.571	24361
510.643	21989
510.715	29928
510.787	24817
510.859	21244
510.931	24580
511.003	27950
511.076	25805
511.148	20269
511.219	22541
511.291	34258
511.363	36722
511.435	20379
511.507	20476
511.579	19538
511.651	20741
511.723	20126
511.795	17518
511.867	17587
511.939	25789
512.010	45216
512.082	35635
512.154	19323
512.226	21722
512.298	30032
512.369	32949
512.441	26954
512.513	26803
512.585	21088
512.656	23024
512.728	23912
512.800	19918
512.871	20438
512.943	20856
513.015	17281
513.086	20229
513.158	20813
513.230	21475
513.301	27265
513.373	26951
513.444	21383
513.516	20704
513.588	18253
513.659	20405
513.731	21711
513.802	21173
513.874	38320
513.945	54287
514.016	25133
514.088	18654
514.159	19872
514.231	26053
514.302	30470
514.374	25757
514.445	28269
514.516	54961
514.588	37044
514.659	28492
514.730	47520
514.802	35723
514.873	29819
514.944	36693
515.016	31803
515.087	30576
515.158	39205
515.229	49501
515.301	35520
515.372	44739
515.443	36546
515.514	29073
515.585	24277
515.656	23349
515.728	21022
515.799	21309
515.870	23237
515.941	23776
516.012	20987
516.083	25612
516.154	26084
516.225	28520
516.296	29728
516.367	25834
516.438	25176
516.509	30378
516.580	42503
516.651	114912
516.722	306411
516.793	143199
516.864	42523
516.935	39891
517.006	39670
517.077	53486
517.148	119797
517.219	331460
517.289	469430
517.360	241775
517.431	82675
517.502	31171
517.573	27985
517.643	30454
517.714	36091
517.785	32238
517.856	30507
517.926	36893
517.997	36217
518.068	38135
518.138	46256
518.209	74087
518.280	258718
518.350	699891
518.421	275624
518.492	58117
518.562	49834
518.633	57986
518.703	75041
518.774	147665
518.845	283761
518.915	217915
518.986	87060
519.056	58752
519.127	71847
519.197	109578
519.268	235339
519.338	134570
519.408	41426
519.479	43539
519.549	31778
519.620	26089
519.690	21814
519.760	23363
519.831	23494
519.901	22622
519.971	23548
520.042	27948
520.112	27666
520.182	28869
520.253	29135
520.323	23704
520.393	30838
520.463	41997
520.534	36654
520.604	57770
520.674	30257
520.744	32937
520.814	60404
520.885	54548
520.955	96925
521.025	266755
521.095	92697
521.165	31182
521.235	24882
521.305	20680
521.375	20014
521.445	21841
521.515	24440
521.585	30059
521.655	25763
521.725	24264
521.795	22492
521.865	19599
521.935	32622
522.005	26099
522.075	19219
522.145	23027
522.215	26509
522.285	34964
522.355	47025
522.424	79422
522.494	64335
522.564	34122
522.634	57902
522.704	128768
522.774	49970
522.843	22886
522.913	23069
522.983	25890
523.053	20641
523.122	22324
523.192	27321
523.262	73557
523.331	65850
523.401	26291
523.471	18125
523.540	18966
523.610	15873
523.680	17200
523.749	19569
523.819	27026
523.888	23853
523.958	18684
524.027	19060
524.097	20788
524.166	18589
524.236	18880
524.305	20141
524.375	17167
524.444	17652
524.514	21367
524.583	21378
524.653	24352
524.722	27522
524.791	19481
524.861	20479
524.930	18969
524.999	20099
525.069	25523
525.138	25339
525.207	28824
525.277	23838
525.346	24250
525.415	23542
525.484	25454
525.554	29577
525.623	31838
525.692	35026
525.761	34537
525.830	37108
525.900	43903
525.969	66295
526.038	111861
526.107	261244
526.176	602691
526.245	402620
526.314	157046
526.383	343290
526.452	405594
526.522	683731
526.591	515445
526.660	130861
526.729	73616
526.797	79916
526.867	171340
526.935	600501
527.004	1149927
527.073	552246
527.142	82843
527.211	42803
527.280	36301
527.349	32199
527.418	22416
527.487	22899
527.555	19852
527.624	18004
527.693	17647
527.762	18812
527.831	15661
527.899	17674
527.968	16921
528.037	16704
528.106	21762
528.174	30482
528.243	29730
528.312	38904
528.380	42286
528.449	19650
528.518	16758
528.586	13551
528.655	16739
528.723	16179
528.792	16884
528.861	18073
528.929	16108
528.998	17897
529.066	23088
529.135	29701
529.203	27743
529.272	38187
529.340	39876
529.409	37942
529.477	34398
529.545	37880
529.614	43663
529.682	51522
529.751	52961
529.819	56649
529.887	55339
529.956	46891
530.024	46537
530.092	40986
530.161	46336
530.229	53484
530.297	49344
530.365	45803
530.434	49824
530.502	47010
530.570	44146
530.638	38604
530.707	39531
530.775	40228
530.843	41044
530.911	43370
530.979	41958
531.047	47979
531.115	45616
531.183	40491
531.252	39018
531.320	38045
531.388	37770
531.456	44275
531.524	43359
531.592	47938
531.660	53698
531.728	46610
531.796	44983
531.864	43494
531.932	45543
532.000	46691
532.067	51678
532.135	51591
532.203	56178
532.271	58761
532.339	68227
532.407	95442
532.475	70541
532.542	53194
532.610	56973
532.678	70418
532.746	162702
532.814	270780
532.881	94860
532.949	55938
533.017	52397
533.084	48073
533.152	47666
533.220	46642
533.287	50468
533.355	49437
533.423	50968
533.490	49911
533.558	50039
533.625	48571
533.693	46098
533.761	45174
533.828	46401
533.896	48051
533.963	61457
534.031	68182
534.098	81042
534.166	55670
534.233	47419
534.300	48958
534.368	48543
534.435	46573
534.503	46468
534.570	50850
534.637	49761
534.705	53456
534.772	59870
534.840	99966
534.907	332767
534.974	292016
535.041	61935
535.109	47142
535.176	40024
535.243	40904
535.310	40859
535.378	39132
535.445	35112
535.512	33644
535.579	35518
535.646	33164
535.714	35496
535.781	37021
535.848	37942
535.915	39571
535.982	40115
536.049	37852
536.116	38197
536.183	33929
536.250	34675
536.317	33534
536.384	35726
536.451	39659
536.518	40010
536.585	35170
536.652	42869
536.719	44484
536.786	36026
536.853	34175
536.920	43275
536.987	51388
537.053	55401
537.120	158487
537.187	109877
537.254	31650
537.321	30105
537.388	29542
537.454	27119
537.521	25407
537.588	25827
537.654	28515
537.721	29394
537.788	29292
537.855	26596
537.921	28335
537.988	27653
538.055	29193
538.121	26593
538.188	28057
538.254	34747
538.321	45581
538.388	33398
538.454	26847
538.521	26651
538.587	25127
538.654	25954
538.720	25092
538.787	24655
538.853	25572
538.920	28578
538.986	28973
539.053	26346
539.119	26451
539.185	25632
539.252	28588
539.318	36018
539.385	30982
539.451	28990
539.517	29448
539.583	32171
539.650	61225
539.716	111295
539.782	36403
539.849	23210
539.915	26377
539.981	26515
540.047	26508
540.114	26556
540.180	26616
540.246	25739
540.312	32533
540.378	47095
540.444	43733
540.510	60195
540.576	120118
540.643	41922
540.709	23575
540.775	24238
540.841	24241
540.907	32509
540.973	41313
541.039	34010
541.105	32238
541.171	25384
541.237	22313
541.303	25384
541.369	28129
541.435	31663
541.500	40165
541.566	28018
541.632	22562
541.698	22046
541.764	22884
541.830	21700
541.896	21775
541.961	23787
542.027	23794
542.093	23592
542.159	25379
542.224	25057
542.290	32470
542.356	41797
542.421	41360
542.487	28466
542.553	25526
542.618	27190
542.684	23834
542.750	22683
542.815	26902
542.881	45745
542.947	115810
543.012	69610
543.078	23482
543.143	21910
543.209	23201
543.274	23979
543.340	27786
543.405	54906
543.471	64605
543.536	24288
543.602	22269
543.667	21398
543.732	23811
543.798	23703
543.863	23546
543.928	21027
543.994	19852
544.059	22525
544.124	21789
544.190	21964
544.255	21667
544.320	22380
544.386	22962
544.451	28045
544.516	29430
544.581	33989
544.646	83534
544.712	97694
544.777	30889
544.842	29184
544.907	30921
544.972	25821
545.037	26372
545.102	29600
545.168	27740
545.233	29073
545.298	30155
545.363	34741
545.428	37126
545.493	60744
545.558	92271
545.623	42473
545.688	29397
545.753	27914
545.818	28369
545.883	29781
545.947	29269
546.012	31242
546.077	31862
546.142	32029
546.207	30801
546.272	36589
546.337	35578
546.401	33701
546.466	34525
546.531	35528
546.596	45342
546.661	46066
546.725	35884
546.790	35326
546.855	38428
546.919	37760
546.984	41131
547.049	44914
547.113	51140
547.178	49598
547.243	56537
547.307	63399
547.372	70566
547.436	71874
547.501	65592
547.565	69339
547.630	68164
547.695	68916
547.759	72812
547.823	68793
547.888	66317
547.952	66361
548.017	73614
548.081	86738
548.146	84795
548.210	79101
548.274	74649
548.339	71459
548.403	66410
548.468	62915
548.532	64601
548.596	67450
548.660	66158
548.725	72696
548.789	79523
548.853	77724
548.917	72758
548.982	81720
549.046	75161
549.110	59425
549.174	60624
549.238	68390
549.303	71604
549.367	74824
549.431	69776
549.495	67672
549.559	67099
549.623	78530
549.687	84166
549.751	95177
549.815	97098
549.879	94973
549.943	90683
550.007	98001
550.071	99776
550.135	99334
550.199	87508
550.263	83919
550.327	88373
550.391	102378
550.455	94824
550.519	94870
550.582	102423
550.646	119418
550.710	117546
550.774	110445
550.838	112297
550.901	117111
550.965	127304
551.029	134021
551.093	147907
551.156	179175
551.220	239859
551.284	224762
551.347	160511
551.411	203042
551.475	185610
551.538	122578
551.602	110174
551.666	105160
551.729	97800
551.793	97107
551.856	96824
551.920	97084
551.983	95978
552.047	95143
552.110	96179
552.174	99737
552.237	97192
552.301	88770
552.364	85852
552.428	86427
552.491	89123
552.554	91400
552.618	91093
552.681	97254
552.745	100029
552.808	99144
552.871	105737
552.934	97776
552.998	93465
553.061	94049
553.124	89015
553.187	90490
553.251	93117
553.314	95063
553.377	98608
553.440	131444
553.503	270768
553.567	315582
553.630	116238
553.693	98642
553.756	96876
553.819	92730
553.882	90632
553.945	91695
554.008	90533
554.071	91116
554.134	90694
554.197	86036
554.260	85526
554.323	90190
554.386	89502
554.449	93263
554.512	92338
554.575	89156
554.638	89037
554.701	87855
554.764	86259
554.827	84374
554.889	79554
554.952	75213
555.015	75277
555.078	77439
555.141	77089
555.203	75949
555.266	74749
555.329	74812
555.391	74264
555.454	74265
555.517	72210
555.580	68948
555.642	69387
555.705	66537
555.768	65231
555.830	65100
555.893	61275
555.955	60045
556.018	59761
556.080	61716
556.143	61004
556.206	60440
556.268	61234
556.330	61377
556.393	60096
556.455	62116
556.518	72479
556.580	66081
556.643	53887
556.705	53236
556.767	53548
556.830	53883
556.892	54915
556.955	60831
557.017	53759
557.079	49404
557.142	49302
557.204	54256
557.266	70581
557.328	59395
557.391	45654
557.453	45122
557.515	45686
557.577	49926
557.639	49949
557.701	48096
557.764	46871
557.826	48709
557.888	51359
557.950	52130
558.012	58396
558.074	88750
558.136	227002
558.198	397735
558.260	120618
558.322	62712
558.384	62311
558.446	66810
558.508	71768
558.570	84458
558.632	113590
558.694	155196
558.756	251315
558.818	781952
558.880	1308368
558.942	462185
559.003	439600
559.065	173265
559.127	83414
559.189	80765
559.251	92624
559.312	152312
559.374	421618
559.436	1011446
559.498	385957
559.559	98048
559.621	81323
559.683	100451
559.744	193457
559.806	606467
559.868	637635
559.929	129752
559.991	95945
560.052	179743
560.114	416212
560.176	219257
560.237	281059
560.299	326223
560.360	73219
560.422	42630
560.483	38840
560.545	36516
560.606	36150
560.667	34751
560.729	32892
560.790	31873
560.852	32008
560.913	31649
560.974	30986
561.036	30941
561.097	30102
561.158	30791
561.220	29343
561.281	29438
561.342	30109
561.403	32661
561.465	38809
561.526	67705
561.587	71943
561.648	34000
561.709	30485
561.771	29464
561.832	29322
561.893	28210
561.954	28415
562.015	29294
562.076	28645
562.137	28380
562.198	28182
562.259	28632
562.320	30106
562.381	31260
562.442	36384
562.503	30782
562.564	28627
562.625	28061
562.686	28167
562.747	30447
562.808	28678
562.869	29229
562.930	34545
562.991	37900
563.051	32229
563.112	29976
563.173	28813
563.234	27950
563.294	27070
563.355	27435
563.416	27636
563.477	27338
563.537	28633
563.598	28926
563.659	27823
563.720	28613
563.780	28673
563.841	29439
563.901	28228
563.962	28834
564.023	26818
564.083	27315
564.144	28052
564.204	27855
564.265	28825
564.325	34801
564.386	57273
564.446	47298
564.507	27778
564.567	28048
564.628	27959
564.688	27451
564.749	29191
564.809	34219
564.869	36455
564.930	28207
564.990	28692
565.050	26775
565.111	27724
565.171	28541
565.231	27686
565.292	28010
565.352	27228
565.412	29776
565.472	30641
565.532	30886
565.593	29165
565.653	30072
565.713	31137
565.773	32104
565.833	34722
565.893	37892
565.953	31650
566.013	32428
566.074	34738
566.134	41793
566.194	56569
566.254	54249
566.314	41780
566.374	36989
566.434	37270
566.494	37230
566.554	38104
566.614	39773
566.673	41240
566.733	43833
566.793	44250
566.853	47031
566.913	48200
566.973	49314
567.033	48970
567.092	48368
567.152	48677
567.212	48594
567.272	50291
567.331	53131
567.391	53551
567.451	58378
567.511	68218
567.570	63230
567.630	51096
567.690	49981
567.749	51730
567.809	53361
567.868	56876
567.928	64606
567.988	73289
568.047	80826
568.107	97180
568.166	124470
568.226	169718
568.285	210715
568.345	206586
568.404	191557
568.464	174916
568.523	164977
568.582	166934
568.642	179883
568.701	207646
568.761	266634
568.820	346836
568.879	355996
568.939	321881
568.998	268536
569.057	222849
569.116	189090
569.176	159540
569.235	135691
569.294	117873
569.353	104139
569.413	91909
569.472	82972
569.531	75865
569.590	70002
569.649	65399
569.708	59484
569.767	56108
569.827	57510
569.886	50614
569.945	46470
570.004	44238
570.063	43377
570.122	42080
570.181	42245
570.240	43612
570.299	42559
570.358	39658
570.417	34904
570.475	33303
570.534	34445
570.593	34306
570.652	34964
570.711	33845
570.770	31174
570.829	32677
570.887	32006
570.946	32424
571.005	28954
571.064	29349
571.122	30876
571.181	32151
571.240	28205
571.299	28209
571.357	29642
571.416	30999
571.475	32170
571.533	31494
571.592	29286
571.650	29518
571.709	27369
571.768	27587
571.826	28944
571.885	28269
571.943	26302
572.002	25941
572.060	26423
572.119	25344
572.177	24254
572.236	23635
572.294	24248
572.352	24190
572.411	24211
572.469	22840
572.528	23827
572.586	23230
572.644	26912
572.703	29327
572.761	24934
572.819	23657
572.877	23488
572.936	22615
572.994	22096
573.052	22754
573.110	23605
573.169	23859
573.227	22932
573.285	21752
573.343	21675
573.401	22649
573.459	22202
573.517	22003
573.576	23177
573.634	23079
573.692	22893
573.750	22829
573.808	23266
573.866	24396
573.924	29287
573.982	26865
574.040	24475
574.098	22262
574.155	21846
574.213	21618
574.271	21880
574.329	22987
574.387	21921
574.445	21060
574.503	20025
574.560	20620
574.618	20745
574.676	19344
574.734	20909
574.792	20139
574.849	20031
574.907	18526
574.965	19101
575.022	17899
575.080	19142
575.138	18984
575.195	19335
575.253	19752
575.311	20522
575.368	19528
575.426	17878
575.483	18830
575.541	19431
575.598	18760
575.656	20154
575.713	20609
575.771	19515
575.828	19120
575.886	19072
575.943	20472
576.001	21608
576.058	20619
576.115	22334
576.173	24502
576.230	24717
576.287	25119
576.345	23109
576.402	20628
576.459	22367
576.517	21959
576.574	22509
576.631	22110
576.688	20727
576.746	21181
576.803	21296
576.860	21639
576.917	23147
576.974	20493
577.031	20636
577.089	19781
577.146	21204
577.203	21514
577.260	23239
577.317	23228
577.374	23969
577.431	21531
577.488	21119
577.545	20584
577.602	21596
577.659	21264
577.716	23443
577.773	23703
577.830	22616
577.886	22328
577.943	20897
578.000	21981
578.057	23695
578.114	23123
578.171	25315
578.227	29862
578.284	29496
578.341	27083
578.398	25538
578.454	25215
578.511	26561
578.568	24707
578.625	23518
578.681	22541
578.738	22552
578.794	22830
578.851	22992
578.908	23938
578.964	23156
579.021	23702
579.077	24235
579.134	23258
579.190	20631
579.247	21044
579.303	21638
579.360	20705
579.416	21341
579.473	20326
579.529	20862
579.586	20937
579.642	22319
579.698	21692
579.755	22715
579.811	22308
579.867	23066
579.924	23269
579.980	25028
580.036	28067
580.093	30774
580.149	38657
580.205	40385
580.261	35199
580.317	32486
580.374	31033
580.430	30798
580.486	28820
580.542	27979
580.598	26461
580.619	25984
580.654	25188
580.692	25611
580.710	25872
580.765	24912
580.767	24912
580.823	25730
580.838	25754
580.879	25923
580.911	25417
580.935	25110
580.984	24988
580.991	25004
581.047	25497
581.057	25510
581.103	25745
581.130	26920
581.159	28179
581.203	29140
581.215	29441
581.270	29769
581.276	29661
581.326	28899
581.349	28360
581.382	27612
581.422	27658
581.438	27710
581.494	27050
581.494	27021
581.550	26451
581.567	26793
581.606	27586
581.640	27100
581.661	26818
581.713	26634
581.717	26644
581.773	25741
581.786	25930
581.829	26671
581.859	27013
581.885	27335
581.932	26218
581.940	26026
581.996	26768
582.004	26944
582.052	28075
582.077	27661
582.107	27214
582.150	28176
582.163	28490
582.219	27457
582.223	27489
582.274	28025
582.296	28495
582.330	29264
582.368	28832
582.386	28731
582.441	28911
582.441	28921
582.497	29130
582.514	29461
582.552	30531
582.587	31258
582.608	31624
582.659	30908
582.663	30847
582.719	29613
582.732	29657
582.774	30158
582.805	30454
582.830	30617
582.877	31232
582.885	31363
582.941	34130
582.950	34382
582.996	35636
583.023	37170
583.052	39022
583.095	39056
583.107	39038
583.162	40393
583.168	40465
583.218	40839
583.240	39132
583.273	36659
583.313	36004
583.328	35780
583.384	34779
583.385	34727
583.439	32962
583.458	32389
583.494	31383
583.531	31597
583.549	31850
583.603	31068
583.605	31030
583.660	31122
583.676	31032
583.715	30873
583.748	31493
583.770	31985
583.820	32309
583.825	32319
583.881	32166
583.893	32020
583.936	31420
583.965	31738
583.991	32077
584.038	32013
584.046	31974
584.101	32288
584.110	32351
584.156	32370
584.183	32536
584.211	32915
584.255	32421
584.266	32254
584.321	32744
584.328	32804
584.376	33525
584.400	33773
584.431	33851
584.472	33685
584.486	33613
584.541	35729
584.545	35692
584.596	34731
584.617	35063
584.651	36040
584.689	37027
584.706	37134
584.761	37258
584.762	37278
584.816	38034
584.834	38273
584.871	38354
584.906	38705
584.926	38900
584.978	40063
584.980	40099
585.035	41778
585.051	41904
585.090	42210
585.123	43184
585.145	43673
585.195	44288
585.200	44412
585.254	48327
585.267	49335
585.309	52601
585.340	55267
585.364	57059
585.412	58028
585.419	58079
585.473	63476
585.484	65828
585.528	78276
585.556	92278
585.583	111288
585.628	162293
585.637	177616
585.692	337553
585.700	356196
585.747	428259
585.772	357017
585.801	230367
585.845	113491
585.856	95695
585.910	67856
585.917	65377
585.965	58464
585.989	56533
586.019	55277
586.061	54744
586.074	54452
586.128	53114
586.133	53150
586.183	53890
586.205	54186
586.237	54243
586.277	53715
586.292	53576
586.346	54044
586.349	54157
586.401	55556
586.421	56086
586.455	56929
586.493	59327
586.509	61409
586.564	69238
586.565	69630
586.618	86821
586.637	86463
586.672	76324
586.709	68696
586.727	66846
586.781	66006
586.781	65950
586.835	65858
586.853	65695
586.889	64982
586.925	65222
586.944	65935
586.996	69268
586.998	69254
587.052	69452
587.068	70071
587.106	72107
587.140	73529
587.161	74254
587.212	77216
587.215	77323
587.269	80791
587.284	81909
587.323	84116
587.356	86074
587.377	87565
587.427	92317
587.431	92517
587.485	96544
587.499	97754
587.539	101723
587.571	105187
587.593	107311
587.643	112455
587.648	112999
587.702	121788
587.715	124037
587.755	130138
587.786	135345
587.810	139098
587.858	147101
587.864	148006
587.917	160924
587.930	164123
587.971	175329
588.001	184129
588.025	190638
588.073	204890
588.079	206779
588.133	226761
588.145	232248
588.187	252408
588.217	266584
588.241	280130
588.288	309835
588.295	313895
588.348	354328
588.360	363696
588.402	402507
588.431	432543
588.456	461659
588.503	522381
588.510	532485
588.564	622819
588.575	643107
588.617	738736
588.646	807114
588.671	884081
588.718	1031176
588.725	1059706
588.778	1270257
588.789	1306873
588.832	1421819
588.861	1470283
588.886	1405326
588.932	1247420
588.939	1227373
588.993	1139809
589.004	1139580
589.047	1398686
589.075	1544072
589.100	1513084
589.147	1402233
589.154	1379489
589.207	1176456
589.218	1134527
589.261	1062553
589.290	1019749
589.314	1034167
589.361	1071980
589.368	1091112
589.421	1254074
589.433	1283362
589.475	1380903
589.504	1415470
589.528	1340598
589.576	1212206
589.582	1220642
589.635	1374879
589.647	1395763
589.689	1277255
589.718	1163414
589.742	1043700
589.790	794349
589.795	776831
589.849	616369
589.861	581095
589.902	504700
589.932	449872
589.955	416133
590.004	350260
590.009	345206
590.062	299579
590.075	289104
590.115	262357
590.146	243966
590.168	233345
590.218	210935
590.222	209056
590.275	190819
590.289	186499
590.328	175340
590.360	166756
590.381	160855
590.431	148313
590.435	147437
590.488	137275
590.503	134872
590.541	129359
590.574	124806
590.594	121588
590.645	114109
590.647	113693
590.700	108085
590.716	106573
590.753	103279
590.787	100562
590.806	98327
590.859	92981
590.859	92771
590.912	88629
590.930	87600
590.965	85111
591.001	82832
591.018	81844
591.071	79190
591.072	79278
591.124	76495
591.143	75707
591.177	73428
591.214	71339
591.230	71137
591.283	70859
591.285	70940
591.336	68329
591.356	67478
591.389	66446
591.427	65297
591.442	64482
591.495	62066
591.498	61971
591.547	60806
591.569	60438
591.600	59575
591.640	58509
591.653	58064
591.706	56668
591.711	56613
591.759	56531
591.782	56574
591.811	57087
591.853	58063
591.864	57512
591.917	54784
591.924	54498
591.969	52896
591.995	52023
592.022	52075
592.066	52489
592.075	52610
592.127	53747
592.137	54060
592.180	56287
592.208	57606
592.233	54596
592.279	49180
592.285	48939
592.338	47510
592.350	47251
592.390	46092
592.421	45352
592.443	45478
592.491	45986
592.495	45873
592.548	45202
592.562	45085
592.600	44455
592.633	44043
592.653	43782
592.704	43047
592.705	43274
592.775	42456
592.846	43446
592.916	43564
592.987	44061
593.058	43305
593.128	40722
593.199	41391
593.270	39496
593.341	39823
593.411	40064
593.482	39580
593.553	40231
593.623	39863
593.694	39514
593.764	42515
593.835	40516
593.906	39282
593.976	38478
594.047	40463
594.117	45163
594.188	44313
594.258	37733
594.329	38396
594.399	39345
594.470	38414
594.540	39750
594.611	39791
594.681	39137
594.751	39800
594.822	40120
594.892	40827
594.963	42040
595.033	41844
595.103	42361
595.174	43565
595.244	52289
595.314	60084
595.384	42804
595.455	43126
595.525	43678
595.595	44593
595.665	44152
595.736	44113
595.806	44023
595.876	42829
595.946	44287
596.016	44905
596.087	46155
596.157	44878
596.227	45098
596.297	47222
596.367	48028
596.437	51850
596.507	58523
596.577	65220
596.647	53137
596.717	52353
596.787	52192
596.857	52237
596.927	53014
596.997	51845
597.067	54479
597.137	57491
597.207	57853
597.277	55211
597.347	53759
597.417	51759
597.487	52703
597.557	54792
597.626	54569
597.696	56265
597.766	59984
597.836	65491
597.906	53075
597.975	49456
598.045	50018
598.115	51978
598.185	53830
598.254	58502
598.324	61743
598.394	62606
598.464	60962
598.533	60027
598.603	57565
598.672	57383
598.742	58923
598.812	58764
598.881	59775
598.951	58136
599.020	58845
599.090	59899
599.159	61873
599.229	60216
599.299	59421
599.368	60540
599.437	60235
599.507	58566
599.576	58204
599.646	58473
599.715	59031
599.785	57294
599.854	58256
599.924	57762
599.993	57013
600.062	56644
600.132	56744
600.201	60409
600.270	65681
600.340	67947
600.409	65813
600.478	67175
600.547	67102
600.617	65160
600.686	58038
600.755	55079
600.824	54303
600.894	54017
600.963	53056
601.032	53189
601.101	54419
601.170	53680
601.239	54520
601.308	56106
601.378	55524
601.447	55515
601.516	55178
601.585	57342
601.654	61281
601.723	60450
601.792	59806
601.861	61967
601.930	68025
601.999	67292
602.068	65188
602.137	68205
602.206	68754
602.275	65623
602.343	67680
602.412	67907
602.481	65154
602.550	64332
602.619	66729
602.688	67640
602.756	69532
602.825	66485
602.894	68089
602.963	69289
603.032	71517
603.100	69916
603.169	68671
603.238	70024
603.307	68711
603.375	69312
603.444	71752
603.513	67346
603.581	68796
603.650	72646
603.719	64671
603.787	63555
603.856	66260
603.924	66833
603.993	68796
604.061	69230
604.130	71949
604.198	73126
604.267	72947
604.335	73738
604.404	75756
604.472	78073
604.541	78077
604.609	78829
604.678	80935
604.746	80413
604.815	84956
604.883	83355
604.951	81521
605.020	81301
605.088	80113
605.156	79308
605.225	79210
605.293	78881
605.361	80727
605.429	79988
605.498	82066
605.566	81420
605.634	85381
605.702	85416
605.771	88222
605.839	88505
605.907	84259
605.975	85194
606.043	82616
606.111	81721
606.180	85691
606.248	83780
606.316	85478
606.384	82920
606.452	79333
606.520	74867
606.588	71921
606.656	71151
606.724	70324
606.792	66818
606.860	60634
606.928	55524
606.996	54378
607.064	53139
607.132	54740
607.200	58008
607.267	59071
607.335	60244
607.403	61280
607.471	58458
607.539	57344
607.607	59392
607.674	52876
607.742	53302
607.810	52406
607.878	52485
607.946	53132
608.013	55715
608.081	56050
608.149	56700
608.216	58214
608.284	59507
608.352	58956
608.419	59894
608.487	65215
608.555	59553
608.622	58199
608.690	61412
608.757	66009
608.825	67402
608.893	65679
608.960	65127
609.028	66095
609.095	68848
609.163	61067
609.230	54786
609.298	51857
609.365	52171
609.432	57273
609.500	61155
609.567	66962
609.635	78238
609.702	80010
609.769	78151
609.837	65139
609.904	59658
609.971	62441
610.039	74771
610.106	102328
610.173	196757
610.241	451747
610.308	301303
610.375	118074
610.442	70130
610.509	60758
610.577	57845
610.644	58955
610.711	58855
610.778	60102
610.845	62574
610.912	66410
610.980	71140
611.047	79126
611.114	71221
611.181	64338
611.248	63211
611.315	66996
611.382	68526
611.449	70599
611.516	71174
611.583	70173
611.650	71422
611.717	74785
611.784	78171
611.851	85244
611.918	96425
611.984	119008
612.051	180723
612.118	370812
612.185	885767
612.252	584234
612.319	143367
612.386	104194
612.452	90262
612.519	87205
612.586	90565
612.653	83953
612.719	83241
612.786	80142
612.853	72640
612.919	72519
612.986	73376
613.053	67970
613.120	64887
613.186	63972
613.253	65776
613.319	64783
613.386	64690
613.453	66404
613.519	67629
613.586	69794
613.652	76919
613.719	72554
613.785	70359
613.852	67566
613.918	67132
613.985	72169
614.051	81693
614.118	109982
614.184	103854
614.250	69294
614.317	68429
614.383	65127
614.449	67066
614.516	66013
614.582	67588
614.648	65895
614.715	64642
614.781	65205
614.847	67152
614.914	64999
614.980	63970
615.046	65167
615.112	66087
615.179	68008
615.245	71983
615.311	78640
615.377	97448
615.443	106423
615.509	83413
615.575	78391
615.642	74089
615.708	77658
615.774	86087
615.840	99582
615.906	120254
615.972	167573
616.038	283869
616.104	525244
616.170	1096001
616.236	945512
616.302	234029
616.368	149264
616.434	108919
616.500	98218
616.565	105306
616.631	127993
616.697	110926
616.763	111270
616.829	160688
616.895	280965
616.961	278507
617.026	129430
617.092	81698
617.158	75596
617.224	70702
617.289	66686
617.355	63290
617.421	62661
617.487	62165
617.552	60229
617.618	59244
617.684	57176
617.749	60317
617.815	55264
617.880	54863
617.946	55406
618.012	56384
618.077	57433
618.143	54114
618.208	54749
618.274	57795
618.339	58870
618.405	51815
618.470	52321
618.536	52363
618.601	53460
618.667	49738
618.732	47025
618.798	46954
618.863	45838
618.928	45897
618.994	48368
619.059	49713
619.124	56056
619.190	48572
619.255	46559
619.320	46483
619.386	46812
619.451	44128
619.516	45045
619.581	45138
619.647	44396
619.712	46022
619.777	45355
619.842	45634
619.907	45653
619.972	45691
620.038	46536
620.103	44983
620.168	43861
620.233	45990
620.298	44719
620.363	45000
620.428	46779
620.493	46567
620.558	47098
620.623	47870
620.688	47585
620.753	46635
620.818	49131
620.883	48911
620.948	49007
621.013	47850
621.078	48045
621.143	47907
621.207	50892
621.272	49538
621.337	48862
621.402	49994
621.467	53977
621.532	55130
621.596	51033
621.661	47774
621.726	47703
621.791	47557
621.855	49048
621.920	50716
621.985	49011
622.049	53465
622.114	52183
622.179	51495
622.243	52720
622.308	53230
622.373	53539
622.437	52529
622.502	50541
622.566	49712
622.631	49627
622.695	51375
622.760	50462
622.824	50968
622.889	51476
622.953	51940
623.018	61518
623.082	60333
623.147	52522
623.211	51016
623.276	51215
623.340	48179
623.404	48557
623.469	46973
623.533	49184
623.597	47264
623.662	47114
623.726	44649
623.790	43375
623.854	42109
623.919	43944
623.983	43427
624.047	43567
624.111	43858
624.176	45333
624.240	45711
624.304	48100
624.368	44186
624.432	44859
624.496	45065
624.560	47335
624.625	48332
624.689	46919
624.753	48101
624.817	45958
624.881	44752
624.945	42142
625.009	41019
625.073	41386
625.137	42225
625.201	47016
625.265	47911
625.329	42594
625.393	44136
625.456	43315
625.520	45042
625.584	46911
625.648	52526
625.712	65977
625.776	108449
625.839	118237
625.903	58845
625.967	42974
626.031	56343
626.095	77591
626.158	44678
626.222	33851
626.286	32035
626.349	30586
626.413	29579
626.477	31355
626.540	30089
626.604	28934
626.668	30553
626.731	29870
626.795	29810
626.858	30543
626.922	28456
626.986	29612
627.049	27191
627.113	29370
627.176	29496
627.240	27982
627.303	28170
627.366	27568
627.430	28462
627.493	28173
627.557	26600
627.620	28079
627.684	27148
627.747	28709
627.810	24618
627.874	26427
627.937	24159
628.000	27814
628.064	24536
628.127	21198
628.190	24268
628.253	23837
628.317	22146
628.380	22131
628.443	21676
628.506	20401
628.569	20602
628.632	19008
628.696	19312
628.759	19079
628.822	19086
628.885	18726
628.948	19492
629.011	19534
629.074	17895
629.137	18410
629.200	17563
629.263	20132
629.326	16960
629.389	17367
629.452	17309
629.515	18296
629.578	17714
629.641	19634
629.704	18110
629.767	18210
629.830	17555
629.892	17036
629.955	16163
630.018	19297
630.081	17221
630.144	21194
630.207	16524
630.269	19179
630.332	18701
630.395	17593
630.458	15869
630.520	15491
630.583	16033
630.646	15682
630.708	16156
630.771	15267
630.834	16479
630.896	16857
630.959	15653
631.021	14730
631.084	15726
631.146	17013
631.209	18559
631.272	15609
631.334	16369
631.397	15629
631.459	15625
631.522	17540
631.584	16293
631.646	18379
631.709	17771
631.771	21194
631.834	18054
631.896	16667
631.958	14730
632.021	15968
632.083	13629
632.145	16313
632.208	15403
632.270	16230
632.332	13490
632.395	14528
632.457	15833
632.519	14099
632.581	15501
632.643	14350
632.706	15328
632.768	12835
632.830	14896
632.892	14480
632.954	13874
633.016	15985
633.078	13797
633.141	13976
633.203	13771
633.265	15073
633.327	13688
633.389	13889
633.451	15692
633.513	17392
633.575	17543
633.637	16454
633.698	15431
633.760	15422
633.822	15343
633.884	16268
633.946	15881
634.008	15972
634.070	17749
634.132	19695
634.193	19360
634.255	19501
634.317	19493
634.379	20244
634.441	18263
634.502	16407
634.564	16184
634.626	13897
634.687	13986
634.749	13681
634.811	14109
634.873	13299
634.934	13390
634.996	15067
635.057	13709
635.119	13664
635.181	14147
635.242	15396
635.304	12257
635.365	16010
635.427	13235
635.488	14637
635.550	13784
635.611	14659
635.673	11872
635.734	17211
635.796	16062
635.857	18421
635.918	16874
635.980	20133
636.041	19415
636.102	20744
636.164	20658
636.225	21264
636.286	16589
636.348	17353
636.409	15170
636.470	15425
636.531	14794
636.593	14060
636.654	14951
636.715	13400
636.776	12031
636.838	11657
636.899	12636
636.960	12083
637.021	11329
637.082	11866
637.143	12479
637.204	11198
637.265	11027
637.326	11968
637.387	10826
637.448	10883
637.509	12083
637.570	11278
637.631	12021
637.692	10934
637.753	8758
637.814	11733
637.875	10685
637.936	11687
637.997	10360
638.058	11349
638.119	11985
638.179	10937
638.240	10100
638.301	10605
638.362	9908
638.423	10131
638.483	12090
638.544	9086
638.605	10241
638.666	10372
638.726	10772
638.787	11059
638.848	9859
638.908	10161
638.969	10498
639.030	10756
639.090	8976
639.151	9701
639.211	11345
639.272	12434
639.332	16805
639.393	12111
639.453	11350
639.514	11426
639.574	10173
639.635	9375
639.695	10005
639.756	8722
639.816	10501
639.877	10927
639.937	15900
639.997	17807
640.058	9704
640.118	8339
640.178	10977
640.239	9810
640.299	8865
640.359	8536
640.420	10039
640.480	10998
640.540	10871
640.600	11337
640.661	12144
640.721	10437
640.781	15016
640.841	11724
640.901	11490
640.961	10468
641.021	11199
641.082	11514
641.142	13316
641.202	11495
641.262	7784
641.322	10183
641.382	8085
641.442	10498
641.502	8160
641.562	9509
641.622	9144
641.682	9852
641.742	9889
641.802	9998
641.861	10497
641.921	10351
641.981	10216
642.041	9639
642.101	11211
642.161	8765
642.221	8507
642.280	9183
642.340	8635
642.400	7633
642.460	9160
642.519	8293
642.579	8712
642.639	9678
642.698	6534
642.758	11499
642.818	8747
642.877	8467
642.937	10238
642.997	10667
643.056	13300
643.116	8661
643.175	10829
643.235	9833
643.294	10034
643.354	11479
643.414	13438
643.473	17714
643.532	19780
643.592	28027
643.651	43844
643.711	73101
643.770	136469
643.830	313083
643.889	650631
643.948	172837
644.008	31711
644.067	19478
644.126	14347
644.186	12248
644.245	11945
644.304	9155
644.363	11909
644.423	9074
644.482	9536
644.541	10634
644.600	9337
644.659	14427
644.719	17473
644.778	23995
644.837	37593
644.896	77176
644.955	175398
645.014	64894
645.073	17120
645.132	11462
645.191	11298
645.250	9207
645.309	11492
645.368	10966
645.427	14178
645.486	20920
645.545	36611
645.604	14153
645.663	10413
645.722	9824
645.781	12723
645.840	14184
645.898	17841
645.957	27202
646.016	38501
646.075	67159
646.134	124676
646.192	322206
646.251	480459
646.310	82350
646.369	22986
646.427	17597
646.486	12440
646.545	11070
646.603	10094
646.662	10023
646.721	8993
646.779	8973
646.838	9497
646.896	12600
646.955	16209
647.014	23552
647.072	41752
647.131	109474
647.189	58381
647.248	11096
647.306	9085
647.365	8619
647.423	5672
647.481	8426
647.540	5648
647.598	6851
647.657	5608
647.715	6941
647.773	5536
647.832	7781
647.890	5303
647.948	6212
648.007	7051
648.065	5570
648.123	5850
648.181	8642
648.240	9556
648.298	8114
648.356	6352
648.414	6796
648.472	6093
648.531	6625
648.589	5621
648.647	6473
648.705	6438
648.763	6694
648.821	7519
648.879	7568
648.937	8444
648.995	11282
649.053	14225
649.111	21076
649.169	31832
649.227	53195
649.285	106822
649.343	298488
649.401	156204
649.459	33516
649.516	22008
649.574	16435
649.632	29322
649.690	35933
649.748	20387
649.806	24768
649.863	43109
649.921	79385
649.979	56339
650.037	11174
650.094	5528
650.152	7883
650.210	5010
650.268	7514
650.325	7027
650.383	7985
650.440	4744
650.498	6415
650.556	6146
650.613	5321
650.671	4881
650.728	5695
650.786	5522
650.843	7110
650.901	4374
650.958	5330
651.016	4972
651.073	5549
651.131	4060
651.188	4153
651.246	4667
651.303	3824
651.360	4589
651.418	4289
651.475	4228
651.532	3741
651.590	4980
651.647	3774
651.704	3948
651.762	4499
651.819	5189
651.876	4254
651.933	3742
651.990	4962
652.048	3031
652.105	4012
652.162	4585
652.219	4221
652.276	4436
652.333	4990
652.390	3176
652.448	4612
652.505	4152
652.562	4271
652.619	5810
652.676	8969
652.733	10110
652.790	4455
652.847	3215
652.904	3869
652.961	2415
653.017	3274
653.074	4065
653.131	3933
653.188	3291
653.245	3828
653.302	3613
653.359	3893
653.415	4101
653.472	3291
653.529	4666
653.586	3158
653.642	3939
653.699	4217
653.756	2476
653.813	3342
653.869	4304
653.926	3132
653.983	3051
654.039	4148
654.096	4202
654.152	4752
654.209	2598
654.266	4370
654.322	2978
654.379	4239
654.435	5127
654.492	5146
654.548	6334
654.605	9893
654.661	7129
654.717	3601
654.774	3493
654.830	3767
654.887	4070
654.943	3986
655.000	4882
655.056	4424
655.112	4361
655.168	3343
655.225	4335
655.281	5005
655.337	5922
655.394	9068
655.450	7470
655.506	5921
655.562	9020
655.618	8582
655.675	3003
655.731	4141
655.787	3681
655.843	4901
655.899	2425
655.955	3932
656.011	3068
656.067	3086
656.123	4433
656.179	4146
656.235	4992
656.291	3315
656.347	4783
656.403	3882
656.459	2865
656.515	4189
656.571	4865
656.627	4218
656.683	3145
656.739	4436
656.795	3836
656.850	3905
656.906	4644
656.962	4952
657.018	3641
657.074	3981
657.129	5108
657.185	6774
657.241	11133
657.297	7712
657.352	3723
657.408	4147
657.464	4672
657.519	3937
657.575	3657
657.630	3437
657.686	3140
657.742	3391
657.797	3193
657.853	3462
657.908	3880
657.964	2670
658.019	3562
658.075	3669
658.130	3548
658.186	3393
658.241	3286
658.297	2342
658.352	3148
658.407	3818
658.463	3284
658.518	3753
658.573	3717
658.629	2941
658.684	2668
658.739	4309
658.795	2070
658.850	3030
658.905	2911
658.960	3805
659.016	3238
659.071	3867
659.126	3505
659.181	3868
659.236	5910
659.291	6790
659.346	5074
659.401	5082
659.457	5671
659.512	6817
659.567	5053
659.622	3335
659.677	3562
659.732	2818
659.787	3753
659.842	4052
659.897	4621
659.952	4319
660.007	3151
660.061	3393
660.116	3422
660.171	2794
660.226	2924
660.281	3853
660.336	2538
660.391	3799
660.445	2547
660.500	3768
660.555	2998
660.610	3561
660.664	3163
660.719	3218
660.774	3919
660.828	4093
660.883	3285
660.938	4520
660.992	1926
661.047	2913
661.101	2551
661.156	3067
661.211	2389
661.265	3633
661.320	3123
661.374	3460
661.429	2915
661.483	3420
661.538	2422
661.592	3942
661.647	3624
661.701	3961
661.755	3525
661.810	3289
661.864	3465
661.919	3599
661.973	4112
662.027	3617
662.081	1943
662.136	3102
662.190	3041
662.244	3987
662.299	3471
662.353	3482
662.407	2180
662.461	4209
662.515	2982
662.569	3450
662.624	3816
662.678	2420
662.732	2768
662.786	2914
662.840	3094
662.894	3054
662.948	2431
663.002	3792
663.056	3002
663.110	3333
663.164	3229
663.218	3399
663.272	3030
663.326	4055
663.380	3012
663.434	3379
663.488	3343
663.542	4198
663.595	3435
663.649	3457
663.703	3648
663.757	3893
663.811	3081
663.864	2475
663.918	3248
663.972	3385
664.026	3016
664.079	2851
664.133	3395
664.187	2707
664.240	3196
664.294	3161
664.348	3919
664.401	3284
664.455	2751
664.508	3125
664.562	2711
664.615	3142
664.669	2744
664.722	3155
664.776	3100
664.829	3309
664.883	2900
664.936	2473
664.990	3164
665.043	4096
665.097	3753
665.150	4409
665.203	3401
665.257	3906
665.310	3938
665.363	4090
665.417	3731
665.470	4273
665.523	3006
665.576	3719
665.630	3810
665.683	4115
665.736	3725
665.789	4270
665.842	3529
665.895	4167
665.949	3530
666.002	4084
666.055	4419
666.108	4768
666.161	3429
666.214	4489
666.267	4224
666.320	4494
666.373	3947
666.426	4140
666.479	3787
666.532	4382
666.585	4305
666.638	4758
666.691	4034
666.744	5481
666.796	4967
666.849	4812
666.902	4608
666.955	3767
667.008	3756
667.060	3701
667.113	3576
667.166	3234
667.219	3732
667.271	3789
667.324	3385
667.377	3351
667.430	4160
667.482	4722
667.535	4700
667.587	4483
667.640	4213
667.693	4632
667.745	6135
667.798	7072
667.850	4072
667.903	3841
667.955	3475
668.008	3975
668.060	4339
668.113	4147
668.165	4888
668.218	4460
668.270	4075
668.322	4121
668.375	3667
668.427	5012
668.479	4509
668.532	4020
668.584	4099
668.636	4412
668.689	3733
668.741	4246
668.793	4643
668.845	4127
668.898	4682
668.950	3044
669.002	4022
669.054	3401
669.106	3799
669.158	4752
669.211	4428
669.263	4285
669.315	6013
669.367	7118
669.419	4808
669.471	5096
669.523	4993
669.575	6080
669.627	5516
669.679	4378
669.731	4899
669.783	5650
669.835	5019
669.886	4640
669.938	5123
669.990	5009
670.042	4492
670.094	5858
670.146	5871
670.197	6702
670.249	7951
670.301	8743
670.353	12735
670.404	17967
670.456	23845
670.508	35709
670.560	53033
670.611	84060
670.663	141673
670.715	313285
670.766	492026
670.818	192912
670.869	39087
670.921	19305
670.972	13473
671.024	10028
671.075	7907
671.127	7687
671.178	5878
671.230	6170
671.281	6500
671.333	5529
671.384	6631
671.436	7875
671.487	9143
671.538	11139
671.590	13448
671.641	19579
671.692	30718
671.744	52944
671.795	48006
671.846	22963
671.897	11982
671.949	9338
672.000	6882
672.051	6426
672.102	5191
672.153	4970
672.204	4962
672.256	5085
672.307	4822
672.358	4820
672.409	4169
672.460	4642
672.511	4247
672.562	3234
672.613	4750
672.664	4735
672.715	3935
672.766	4547
672.817	4065
672.868	4481
672.919	3355
672.970	3600
673.021	3800
673.071	3327
673.122	3163
673.173	3689
673.224	3811
673.275	3757
673.326	3710
673.376	3955
673.427	3102
673.478	3247
673.528	3746
673.579	3751
673.630	3413
673.680	4964
673.731	3672
673.782	2577
673.832	2695
673.883	4042
673.934	3192
673.984	3731
674.035	3654
674.085	3248
674.136	3797
674.186	4139
674.237	4903
674.287	7332
674.338	5076
674.388	3343
674.438	3101
674.489	4645
674.539	4453
674.589	3784
674.640	4217
674.690	3588
674.740	3302
674.791	4153
674.841	4179
674.891	4641
674.942	3435
674.992	2711
675.042	3429
675.092	2601
675.142	3576
675.193	3361
675.243	3154
675.293	3736
675.343	3179
675.393	3092
675.443	3585
675.493	3883
675.543	2281
675.593	3090
675.643	3388
675.693	3980
675.743	3154
675.793	2590
675.843	3214
675.893	3567
675.943	3173
675.993	4002
676.043	3234
676.093	3537
676.142	3010
676.192	3599
676.242	2517
676.292	3049
676.341	3467
676.391	2913
676.441	2744
676.491	2751
676.540	2549
676.590	2853
676.640	2925
676.689	2730
676.739	1501
676.789	2214
676.838	2806
676.888	2265
676.937	2820
676.987	2358
677.037	2909
677.086	2697
677.136	2343
677.185	2321
677.235	1872
677.284	3068
677.333	2546
677.383	2570
677.432	2344
677.482	2575
677.531	3013
677.580	2839
677.630	2262
677.679	2656
677.728	2448
677.778	2634
677.827	2440
677.876	2354
677.925	2206
677.975	2545
678.024	2238
678.073	2837
678.122	3290
678.171	2906
678.220	1937
678.269	3837
678.319	3079
678.368	3170
678.417	2877
678.466	2665
678.515	2912
678.564	3354
678.613	3407
678.662	2940
678.711	3295
678.760	2928
678.809	2835
678.857	3089
678.906	2888
678.955	3429
679.004	3500
679.053	3560
679.102	3286
679.151	2718
679.199	2707
679.248	2397
679.297	2790
679.346	3584
679.394	1937
679.443	3098
679.492	2878
679.540	3537
679.589	2078
679.638	2962
679.686	2620
679.735	2163
679.784	2497
679.832	2948
679.881	2057
679.929	3167
679.978	2294
680.026	2343
680.075	2719
680.123	2877
680.172	2607
680.220	2551
680.268	1919
680.317	1618
680.365	2256
680.414	2588
680.462	2910
680.510	3113
680.559	1468
680.607	2525
680.655	1830
680.703	2407
680.752	2939
680.800	2270
680.848	1907
680.896	1947
680.945	2018
680.993	2317
681.041	2292
681.089	3167
681.137	1690
681.185	2416
681.233	1986
681.258	1974
681.281	1954
681.329	2325
681.377	1640
681.380	1647
681.425	1666
681.473	3218
681.502	3088
681.521	2977
681.569	2748
681.617	2466
681.624	2444
681.665	2259
681.713	1807
681.745	2527
681.761	2857
681.809	2188
681.857	2873
681.867	2823
681.904	2618
681.952	2915
681.989	2284
682.000	2091
682.048	2789
682.096	2026
682.111	2040
682.143	2028
682.191	2223
682.233	2311
682.239	2318
682.286	1739
682.334	2464
682.354	2267
682.382	1977
682.430	2541
682.476	2612
682.477	2607
682.525	1938
682.572	1995
682.598	2097
682.620	2178
682.667	2410
682.715	3040
682.720	3027
682.763	2786
682.810	3027
682.841	2287
682.857	1921
682.905	2234
682.952	2165
682.963	2158
683.000	2054
683.047	2366
683.085	3023
683.095	3192
683.142	2007
683.190	2850
683.206	2619
683.237	2170
683.284	2129
683.328	2326
683.332	2343
683.379	2183
683.426	2627
683.449	2830
683.473	2987
683.521	2658
683.568	2504
683.571	2512
683.615	2580
683.662	2760
683.693	2679
683.709	2592
683.757	1982
683.804	2777
683.814	2688
683.851	2459
683.898	2710
683.936	3184
683.945	3278
683.992	2936
684.039	2868
684.057	2746
684.086	2496
684.133	2507
684.179	3179
684.180	3199
684.227	3138
684.274	3761
684.300	3603
684.321	3453
684.368	2125
684.415	3013
684.422	2931
684.462	2451
684.509	2994
684.543	3334
684.556	3422
684.603	3091
684.649	2805
684.665	2849
684.696	3011
684.743	2871
684.786	3210
684.790	3229
684.837	2432
684.883	3029
684.908	3039
684.930	3073
684.977	3664
685.023	3085
685.029	3110
685.070	3132
685.117	3196
685.150	2837
685.164	2763
685.210	3333
685.257	3509
685.272	3694
685.303	3858
685.350	3281
685.393	2877
685.396	2856
685.443	3161
685.490	3473
685.514	3747
685.536	3949
685.583	3490
685.629	3663
685.636	3539
685.675	2770
685.722	3287
685.757	3113
685.768	3058
685.815	3365
685.861	3274
685.878	3346
685.908	3473
685.954	3347
686.000	3808
686.000	3815
686.047	3158
686.093	4221
686.121	4372
686.139	4392
686.185	4092
686.232	4390
686.242	4261
686.278	3854
686.324	3515
686.363	3581
686.370	3601
686.416	3515
686.463	3978
686.484	3858
686.509	3644
686.555	3531
686.601	3473
686.606	3524
686.647	4178
686.693	3079
686.727	3883
686.739	4123
686.785	3788
686.831	3263
686.848	3431
686.877	3743
686.923	4137
686.969	3198
686.969	3193
687.015	3690
687.061	3731
687.090	3917
687.107	4004
687.153	4085
687.199	3790
687.211	3644
687.245	3347
687.291	4047
687.332	3629
687.336	3574
687.382	4566
687.428	4077
687.453	4115
687.474	4160
687.520	3871
687.565	3641
687.574	3580
687.611	3426
687.657	3819
687.695	3684
687.702	3709
687.748	4607
687.794	5991
687.816	6086
687.839	5857
687.885	4619
687.931	4603
687.937	4505
687.976	3934
688.022	3748
688.058	3451
688.067	3454
688.113	3713
688.158	3209
688.179	3649
688.204	4065
688.249	3668
688.295	3551
688.300	3540
688.340	3759
688.386	4389
688.421	4125
688.431	3974
688.477	4000
688.522	4099
688.542	4071
688.567	4136
688.613	3446
688.658	3916
688.663	3867
688.703	3468
688.749	4054
688.784	4250
688.794	4306
688.839	3854
688.884	4166
688.905	4017
688.930	3889
688.975	4195
689.020	4109
689.026	4056
689.065	3598
689.110	4102
689.146	4198
689.155	4227
689.201	3994
689.246	3677
689.267	3680
689.291	3779
689.336	4100
689.381	4006
689.388	4040
689.426	4181
689.471	4393
689.509	4347
689.516	4326
689.561	4006
689.606	4167
689.630	4069
689.651	4009
689.696	3836
689.741	4097
689.750	4065
689.785	4102
689.830	4410
689.871	4152
689.875	4095
689.920	4113
689.965	3791
689.992	3781
690.010	3975
690.054	3777
690.099	4171
690.112	4259
690.144	4417
690.189	4559
690.233	4719
690.233	4724
690.278	4457
690.323	4569
690.354	4517
690.367	4583
690.412	4661
690.457	5084
690.474	5054
690.501	4827
690.546	5046
690.590	4654
690.595	4629
690.635	4696
690.680	4807
690.716	4817
690.724	4888
690.769	6016
690.813	6984
690.836	6826
690.857	7070
690.902	9084
690.946	10494
690.957	10875
690.991	14011
691.035	19397
691.077	24561
691.080	24601
691.124	22279
691.168	19400
691.198	17507
691.213	15991
691.257	12449
691.301	8487
691.318	7158
691.346	6758
691.390	6095
691.434	5711
691.439	5617
691.478	5378
691.522	5316
691.559	5192
691.567	5186
691.611	5591
691.655	5121
691.680	5111
691.699	5056
691.743	4781
691.787	4893
691.800	4845
691.831	4935
691.875	5174
691.919	5042
691.921	5037
691.964	4988
692.008	4945
692.041	4623
692.052	4552
692.096	4814
692.139	4976
692.162	4861
692.183	4779
692.227	4745
692.271	4853
692.282	4923
692.315	5156
692.359	4921
692.402	4890
692.403	4902
692.447	5468
692.490	5640
692.523	5830
692.534	5800
692.578	5855
692.622	5774
692.643	5741
692.666	5688
692.709	5054
692.753	5331
692.763	5186
692.797	4918
692.840	5026
692.884	4881
692.884	4892
692.928	5219
692.971	5209
693.004	5349
693.015	5421
693.059	5705
693.102	5672
693.124	5713
693.146	5731
693.189	5706
693.233	5927
693.245	5972
693.276	6151
693.320	6182
693.363	6318
693.365	6305
693.407	6675
693.450	7323
693.485	7827
693.493	8082
693.537	9454
693.580	10333
693.605	11210
693.624	12770
693.667	16106
693.710	19636
693.725	21026
693.753	27487
693.797	38336
693.840	49330
693.845	50360
693.883	46107
693.926	39436
693.966	33977
693.970	33189
694.013	24744
694.056	17237
694.086	11554
694.099	10980
694.142	9987
694.185	8755
694.206	8169
694.229	7885
694.272	7220
694.315	6736
694.326	6538
694.358	6405
694.401	6590
694.444	6238
694.446	6231
694.487	6208
694.530	5779
694.566	5694
694.573	5697
694.616	5334
694.659	5142
694.686	5005
694.702	5067
694.745	5496
694.787	5598
694.806	5529
694.830	5450
694.873	5777
694.916	5738
694.926	5777
694.959	5849
695.002	5626
695.044	5616
695.046	5614
695.087	5783
695.130	5490
695.166	5221
695.172	5229
695.215	5380
695.258	5347
695.286	5434
695.301	5505
695.343	5815
695.386	5904
695.406	5933
695.428	5854
695.471	5612
695.514	5537
695.526	5451
695.556	5560
695.599	5858
695.641	6076
695.646	6088
695.684	5957
695.726	5641
695.766	5529
695.769	5544
695.811	5591
695.854	5538
695.886	5481
695.896	5480
695.938	5281
695.981	5196
696.005	5189
696.023	5348
696.065	5558
696.108	5926
696.125	6010
696.150	5888
696.192	5718
696.235	5609
696.245	5539
696.277	5918
696.319	6357
696.361	6876
696.365	6907
696.404	6533
696.446	6119
696.485	5557
696.488	5587
696.530	5891
696.572	6214
696.604	6384
696.614	6327
696.656	6095
696.698	5905
696.724	5673
696.740	5784
696.783	6112
696.825	6613
696.844	6726
696.867	6549
696.909	6177
696.951	5879
696.964	5790
696.992	5815
697.034	5714
697.076	5652
697.083	5633
697.118	5820
697.160	5931
697.202	6193
697.203	6179
697.244	6054
697.286	6136
697.323	5944
697.327	5972
697.369	6212
697.411	6506
697.442	6701
697.453	6747
697.494	6794
697.536	6886
697.562	6890
697.578	6831
697.620	6621
697.661	6455
697.682	6354
697.703	6337
697.744	6378
697.786	6359
697.801	6273
697.828	6305
697.869	6471
697.911	6603
697.921	6615
697.952	6426
697.994	6174
698.035	5923
698.040	5878
698.077	5887
698.118	5865
698.160	5807
698.160	5790
698.201	6181
698.243	6475
698.279	6775
698.284	6777
698.325	6627
698.367	6455
698.399	6288
698.408	6364
698.449	6695
698.491	6951
698.518	7123
698.532	6997
698.573	6554
698.614	6142
698.638	5862
698.656	5907
698.697	6004
698.738	6088
698.757	6119
698.779	6194
698.820	6283
698.862	6387
698.877	6413
698.903	6731
698.944	7203
698.985	7677
698.996	7791
699.026	7502
699.067	7077
699.116	6556
699.235	7058
699.354	7564
699.474	6896
699.593	6667
699.713	7510
699.832	6803
699.951	6569
700.070	7107
700.190	6455
700.309	6367
700.428	6720
700.547	6136
700.667	6548
700.786	6485
700.905	6732
701.024	6451
701.143	6013
701.262	6286
701.381	6099
701.500	6955
701.619	6228
701.738	6632
701.857	5936
701.976	6103
702.095	6762
702.214	6495
702.333	6248
702.452	6181
702.571	4972
702.690	6319
702.809	5442
702.928	6220
703.047	5517
703.165	6093
703.284	5671
703.403	5925
703.522	6256
703.640	6395
703.759	6928
703.878	8014
703.997	6578
704.115	5836
704.234	5624
704.353	5543
704.471	5125
704.590	5701
704.708	5210
704.827	5665
704.946	5327
705.064	6925
705.183	5555
705.301	7141
705.420	8739
705.538	8104
705.656	7626
705.775	9275
705.893	18101
706.012	18164
706.130	7237
706.249	7666
706.367	7159
706.485	7980
706.604	7315
706.722	7842
706.840	8702
706.958	11039
707.077	8113
707.195	6475
707.313	7205
707.431	6310
707.549	7160
707.668	5787
707.786	7068
707.904	6180
708.022	6084
708.140	5839
708.258	6551
708.376	6804
708.494	5673
708.612	7026
708.730	9458
708.848	8447
708.966	8737
709.084	8061
709.202	7611
709.320	7795
709.438	7930
709.556	8170
709.674	8035
709.791	8045
709.909	7520
710.027	8329
710.145	7767
710.263	7088
710.380	7280
710.498	7854
710.616	7343
710.733	6735
710.851	7147
710.969	7480
711.086	7168
711.204	6709
711.322	7604
711.439	7312
711.557	7851
711.674	7241
711.792	7592
711.909	7300
712.027	8897
712.144	7129
712.262	6872
712.379	8131
712.497	9822
712.614	9688
712.732	8612
712.849	8698
712.966	9211
713.084	10489
713.201	8785
713.318	8561
713.436	9635
713.553	9101
713.670	9163
713.787	9554
713.905	10056
714.022	8412
714.139	9538
714.256	9817
714.373	13404
714.490	21561
714.608	55840
714.725	228943
714.842	178588
714.959	16040
715.076	10889
715.193	10040
715.310	9253
715.427	7570
715.544	7173
715.661	6933
715.778	7145
715.895	8334
716.011	7596
716.128	8684
716.245	7554
716.362	8275
716.479	7857
716.596	7569
716.713	8006
716.829	7609
716.946	7160
717.063	6811
717.180	7527
717.296	7193
717.413	7149
717.530	7024
717.646	6294
717.763	6378
717.880	6467
717.996	5605
718.113	6861
718.229	6950
718.346	6321
718.462	7007
718.579	7915
718.695	9525
718.812	7914
718.928	8507
719.045	6269
719.161	5827
719.277	6735
719.394	5796
719.510	7207
719.626	6777
719.743	8800
719.859	10281
719.975	18976
720.092	71689
720.208	125051
720.324	15243
720.440	8263
720.557	7809
720.673	9719
720.789	13271
720.905	23828
721.021	8480
721.137	5417
721.253	5582
721.369	6099
721.486	7452
721.602	8422
721.718	4823
721.834	5624
721.950	5939
722.066	4776
722.181	4478
722.297	5774
722.413	6218
722.529	5729
722.645	6337
722.761	5768
722.877	5657
722.993	4290
723.108	5830
723.224	5220
723.340	5364
723.456	4339
723.571	5547
723.687	5072
723.803	4250
723.918	4685
724.034	4547
724.150	5184
724.265	5954
724.381	11700
724.497	10417
724.612	5343
724.728	3608
724.843	4441
724.959	5534
725.074	11103
725.190	8875
725.305	5800
725.421	4784
725.536	4703
725.651	4330
725.767	3781
725.882	4462
725.997	4737
726.113	4105
726.228	4658
726.343	4241
726.459	3312
726.574	4135
726.689	4354
726.804	4361
726.920	4163
727.035	3805
727.150	4675
727.265	4176
727.380	4240
727.495	4845
727.610	4161
727.725	5010
727.841	6018
727.956	13349
728.071	7918
728.186	4344
728.301	3747
728.416	4569
728.531	4225
728.645	3364
728.760	4212
728.875	3938
728.990	3359
729.105	4219
729.220	4267
729.335	3407
729.449	3246
729.564	3455
729.679	3008
729.794	3807
729.908	4811
730.023	3232
730.138	3229
730.253	3586
730.367	4027
730.482	4058
730.596	3538
730.711	4392
730.826	5842
730.940	4365
731.055	3955
731.169	4333
731.284	3413
731.398	3735
731.513	4835
731.627	3249
731.742	5041
731.856	5628
731.970	4615
732.085	5584
732.199	6797
732.313	11159
732.428	30640
732.542	79362
732.656	35396
732.771	7693
732.885	5115
732.999	5623
733.113	4890
733.227	4871
733.342	5108
733.456	4671
733.570	3863
733.684	4611
733.798	3740
733.912	4482
734.026	3472
734.140	4282
734.254	4882
734.368	6965
734.482	7224
734.596	3933
734.710	3841
734.824	3732
734.938	3056
735.052	4075
735.166	4111
735.280	3387
735.393	4419
735.507	4283
735.621	5089
735.735	7026
735.849	3643
735.962	3221
736.076	3514
736.190	4011
736.303	5561
736.417	6133
736.531	4151
736.644	3102
736.758	2904
736.872	3649
736.985	3206
737.099	3289
737.212	3676
737.326	3116
737.439	3363
737.553	3338
737.666	3401
737.780	3047
737.893	3126
738.007	2790
738.120	2384
738.233	3573
738.347	3730
738.460	3696
738.573	3100
738.687	3448
738.800	3228
738.913	3421
739.026	3334
739.140	3499
739.253	3771
739.366	3226
739.479	2988
739.592	3009
739.705	3419
739.818	3144
739.932	2836
740.045	3476
740.158	3127
740.271	3388
740.384	2276
740.497	2219
740.610	4159
740.723	3357
740.836	3556
740.949	3512
741.062	4097
741.174	3984
741.287	3222
741.400	2613
741.513	3180
741.626	3405
741.739	2776
741.851	2762
741.964	2559
742.077	2532
742.189	3125
742.302	3312
742.415	3225
742.527	2605
742.640	2979
742.753	2742
742.865	2554
742.978	2096
743.090	2555
743.203	2839
743.316	3457
743.428	2727
743.541	2540
743.653	2290
743.766	2702
743.878	3006
743.990	2834
744.103	3861
744.215	3063
744.327	2486
744.440	4316
744.552	3794
744.664	3141
744.777	2099
744.889	2553
745.001	3148
745.113	2751
745.226	2863
745.338	3461
745.450	2351
745.562	2601
745.674	2197
745.786	2191
745.898	2322
746.010	2947
746.122	2401
746.234	3277
746.347	2192
746.459	2988
746.570	2501
746.682	2985
746.794	3196
746.906	2927
747.018	2369
747.130	2557
747.242	2691
747.354	2777
747.466	2925
747.577	2494
747.689	2514
747.801	3449
747.913	3080
748.024	2830
748.136	2248
748.248	2320
748.359	2595
748.471	2564
748.583	2592
748.694	2799
748.806	3871
748.918	2955
749.029	2640
749.141	2855
749.252	2628
749.364	2440
749.475	3682
749.587	3419
749.698	2520
749.809	2988
749.921	2936
750.032	2165
750.144	2767
750.255	2362
750.366	2740
750.478	2182
750.589	2587
750.700	2108
750.811	3065
750.923	4100
751.034	5696
751.145	4126
751.256	1567
751.367	2195
751.479	2505
751.590	1558
751.701	2217
751.812	2200
751.923	2809
752.034	2463
752.145	2222
752.256	2680
752.367	1555
752.478	1617
752.589	1809
752.700	1250
752.811	2219
752.922	2359
753.032	1613
753.143	2780
753.254	1401
753.365	3373
753.476	2650
753.586	2567
753.697	2277
753.808	3051
753.919	1353
754.029	3047
754.140	1714
754.251	2539
754.361	2551
754.472	2680
754.582	1662
754.693	2453
754.804	2442
754.914	1739
755.025	1501
755.135	2453
755.246	2424
755.356	1654
755.466	2705
755.577	2505
755.687	3320
755.798	2084
755.908	2086
756.018	2116
756.129	2290
756.239	2807
756.349	2824
756.460	2096
756.570	2867
756.680	2542
756.790	2202
756.900	2838
757.011	2595
757.121	2568
757.231	2856
757.341	2635
757.451	2564
757.561	2375
757.671	2415
757.781	1219
757.891	3842
758.001	2385
758.111	2466
758.221	2819
758.331	3657
758.441	2688
758.551	3434
758.661	3087
758.771	3020
758.880	3242
758.990	2398
759.100	3092
759.210	2920
759.320	3747
759.429	3141
759.539	3176
759.649	3416
759.758	3302
759.868	3746
759.978	3325
760.087	4504
760.197	3747
760.307	4309
760.416	3932
760.526	3489
760.635	4171
760.745	4566
760.854	4640
760.964	4665
761.073	4682
761.182	4400
761.292	5308
761.401	5229
761.511	4736
761.620	4256
761.729	5015
761.839	4163
761.948	4806
762.057	4515
762.166	4653
762.276	3494
762.385	6157
762.494	5026
762.603	5635
762.712	5844
762.822	5546
762.931	5374
763.040	6018
763.149	4974
763.258	6555
763.367	6214
763.476	7362
763.585	6952
763.694	7629
763.803	7971
763.912	7986
764.021	9204
764.130	9184
764.238	10575
764.347	11120
764.456	11892
764.565	12998
764.674	13216
764.783	14554
764.891	15665
765.000	19537
765.109	22037
765.217	23902
765.326	30075
765.435	35440
765.543	43108
765.652	53069
765.761	71578
765.869	99534
765.978	146905
766.086	226433
766.195	362745
766.303	538998
766.412	516217
766.520	557137
766.629	466883
766.737	276846
766.846	172652
766.954	116931
767.062	85144
767.171	65386
767.279	49841
767.387	38381
767.496	33667
767.604	29489
767.712	25326
767.820	22773
767.928	21778
768.037	20148
768.145	18786
768.253	17972
768.361	16278
768.469	16579
768.577	18223
768.685	18589
768.793	20654
768.901	22052
769.009	27111
769.117	31313
769.225	41377
769.333	61030
769.441	92074
769.549	158238
769.657	291192
769.765	473855
769.873	486467
769.981	417042
770.088	211127
770.196	115492
770.304	75447
770.412	52524
770.519	40373
770.627	32768
770.735	26216
770.842	22323
770.950	19521
771.058	17001
771.165	14855
771.273	13243
771.380	12576
771.488	11981
771.595	10271
771.703	8983
771.810	9113
771.918	9449
772.025	8282
772.133	8319
772.240	7247
772.348	7884
772.455	7802
772.562	6207
772.670	6379
772.777	6765
772.884	5507
772.991	6101
773.099	6254
773.206	4954
773.313	5315
773.420	5601
773.528	4652
773.635	4962
773.742	4561
773.849	4094
773.956	4952
774.063	4377
774.170	5124
774.277	4602
774.384	3799
774.491	3598
774.598	4242
774.705	3792
774.812	3965
774.919	4552
775.026	3783
775.133	3983
775.239	4212
775.346	4038
775.453	3673
775.560	4113
775.667	3734
775.773	3343
775.880	3842
775.987	3691
776.093	3828
776.200	3340
776.307	3086
776.413	3450
776.520	3600
776.627	3410
776.733	3956
776.840	2118
776.946	3902
777.053	4205
777.159	3145
777.266	2350
777.372	3921
777.478	2612
777.585	3492
777.691	2191
777.798	2516
777.904	3505
778.010	5132
778.117	2468
778.223	2583
778.329	1753
778.435	2717
778.542	3452
778.648	2783
778.754	2240
778.860	2350
778.966	2174
779.072	2188
779.178	3192
779.284	2772
779.391	2929
779.497	2365
779.603	5748
779.708	6730
779.815	18465
779.920	68674
780.026	87404
780.132	10902
780.238	3405
780.344	2157
780.450	3724
780.556	2696
780.661	1663
780.767	2145
780.873	2107
780.979	1936
781.085	1577
781.190	2482
781.296	1593
781.402	1328
781.507	1378
781.613	2276
781.719	1537
781.824	1743
781.930	1926
782.035	2751
782.141	2064
782.246	1618
782.352	2038
782.457	965
782.563	1489
782.668	1431
782.773	1620
782.879	2109
782.984	2372
783.090	2661
783.195	2947
783.300	1253
783.405	1584
783.511	817
783.616	2213
783.721	1331
783.826	1454
783.932	1551
784.037	2251
784.142	1991
784.247	1434
784.352	1040
784.457	1981
784.562	1902
784.667	1683
784.772	1253
784.877	1215
784.982	1817
785.087	1591
785.192	1728
785.297	1621
785.402	1061
785.507	1844
785.611	601
785.716	1483
785.821	1438
785.926	610
786.031	1681
786.135	983
786.240	1162
786.345	992
786.450	2157
786.554	977
786.659	1075
786.763	538
786.868	1752
786.973	1347
787.077	1212
787.182	1113
787.286	870
787.391	970
787.495	57
787.600	834
787.704	162
787.809	1460
787.913	322
788.017	1394
788.122	1150
788.226	1217
788.330	630
788.435	1063
788.539	1694
788.643	449
788.747	134
788.852	511
788.956	193
789.060	429
789.164	261
789.268	80
789.372	1278
789.476	861
789.580	-33
789.684	278
789.788	1642
789.892	658
789.996	2042
790.100	747
790.204	970
790.308	732
790.412	458
790.516	723
790.620	478
790.724	933
790.828	881
790.931	-553
791.035	1977
791.139	449
791.242	-332
791.346	2223
791.450	558
791.554	-275
791.657	13
791.761	1844
791.864	1437
791.968	1642
792.072	129
792.175	551
792.279	1306
792.382	1843
792.486	1402
792.589	-184
792.693	571
792.796	-13
792.899	1002
793.003	1277
793.106	-794
793.209	1017
793.313	1838
793.416	-1132
793.519	1915
793.623	1548
793.726	1639
793.829	669
793.932	478
794.035	-430
794.138	1460
794.242	1673
794.345	1883
794.448	4000
794.551	9486
794.654	38126
794.757	50323
794.860	7006
794.963	2062
795.066	405
795.169	1194
795.272	560
795.375	1367
795.477	87
795.580	1065
795.683	-894
795.786	1234
795.889	-926
795.991	765
796.094	1816
796.197	-388
796.300	1225
796.402	-285
796.505	117
796.608	149
796.710	542
796.813	741
796.915	573
797.018	513
797.120	866
797.223	-870
797.326	1470
797.428	340
797.530	110
797.633	382
797.735	2063
797.838	319
797.940	1467
798.042	-771
798.145	737
798.247	985
798.349	-768
798.452	624
798.554	122
798.656	-313
798.758	949
798.860	-10
798.962	431
799.065	-122
799.167	-38
799.269	1683
799.371	1209
799.473	497
799.575	287
799.677	1080
799.779	2018
799.881	-166
799.983	1153
800.085	607
800.187	299
800.289	-618
800.390	270
800.492	800
800.594	1249
800.696	-479
800.798	1279
800.899	-501
801.001	-239
801.103	-346
801.205	-184
801.306	323
801.408	-206
801.509	390
801.611	123
801.713	879
801.814	-266
801.916	-105
802.017	81
802.119	-245
802.220	655
802.322	-1379
802.423	2471
802.525	-1269
802.626	167
802.727	-355
802.829	327
802.930	-1709
803.031	1147
803.133	512
803.234	560
803.335	773
803.436	-243
803.538	-24
803.639	-398
803.740	-328
803.841	-774
803.942	47
804.043	170
804.144	-646
804.245	342
804.346	-83
804.447	-704
804.548	336
804.649	1180
804.750	378
804.851	-942
804.952	-464
805.053	170
805.154	-1192
805.255	764
805.355	-383
805.456	-223
805.557	-348
805.658	-833
805.758	1264
805.859	-185
805.960	-685
806.061	-340
806.161	-697
806.262	-36
806.362	-156
806.463	-179
806.564	307
806.664	-26
806.765	-76
806.865	369
806.966	-52
807.066	-830
807.166	712
807.267	552
807.367	-978
807.468	1192
807.568	-637
807.668	1153
807.769	1182
807.869	-166
807.969	-211
808.069	1039
808.170	368
808.270	-430
808.370	-68
808.470	-93
808.570	-586
808.670	76
808.770	571
808.870	-720
808.970	273
809.070	226
809.170	42
809.271	564
809.370	-1127
809.470	158
809.570	-204
809.670	-52
809.770	-443
809.870	-115
809.970	24
810.070	-275
810.169	-184
810.269	-1615
810.369	500
810.469	-363
810.568	-523
810.668	-513
810.768	-368
810.867	304
810.967	-804
811.066	782
811.166	185
811.265	393
811.365	-670
811.464	-603
811.564	-531
811.663	-70
811.763	-1162
811.862	247
811.962	277
812.061	-163
812.160	-750
812.260	392
812.359	153
812.458	33
812.557	2041
812.657	1377
812.756	1096
812.855	367
812.954	59
813.053	571
813.153	377
813.252	-546
813.351	-131
813.450	-351
813.549	-22
813.648	-900
813.747	-322
813.846	798
813.945	-401
814.044	130
814.143	889
814.242	307
814.341	-219
814.439	253
814.538	582
814.637	-99
814.736	357
814.835	-112
814.933	-497
815.032	-86
815.131	506
815.229	315
815.328	1712
815.427	213
815.525	642
815.624	584
815.722	-328
815.821	1061
815.919	489
816.018	206
816.116	1517
816.215	592
816.313	937
816.412	1296
816.510	1703
816.609	1804
816.707	2153
816.805	1126
816.904	1326
817.002	2244
817.100	2460
817.198	2727
817.296	1280
817.395	2770
817.493	4192
817.591	4253
817.689	6481
817.787	8654
817.885	15251
817.983	28811
818.081	62361
818.179	142684
818.277	294758
818.375	206293
818.473	60443
818.571	25241
818.669	17687
818.767	14805
818.865	16301
818.963	21697
819.061	30932
819.158	54521
819.256	114670
819.354	241631
819.452	405246
819.549	242488
819.647	80701
819.745	36053
819.842	22013
819.940	14846
820.038	11394
820.135	8588
820.233	6491
820.330	4313
820.428	3581
820.525	5530
820.623	3833
820.720	3075
820.818	3234
820.915	2570
821.012	2390
821.110	926
821.207	1833
821.304	1110
821.402	1925
821.499	1959
821.596	2281
821.693	1334
821.791	1838
821.888	2275
821.985	2247
822.082	933
822.179	1829
822.276	1019
822.373	1421
822.470	1075
822.567	925
822.664	223
822.761	1058
822.858	-108
822.955	1586
823.052	-149
823.149	209
823.246	670
823.343	97
823.440	1350
823.536	367
823.633	816
823.730	249
823.827	1785
823.923	475
824.020	1124
824.117	-139
824.213	-297
824.310	612
824.407	924
824.503	932
824.600	1434
824.696	-164
824.793	916
824.889	-1087
824.986	-71
825.082	-341
825.179	417
825.275	181
825.371	-24
825.468	1060
825.564	-343
825.660	491
825.757	629
825.853	871
825.949	-200
826.045	-229
826.142	-161
826.238	-106
826.334	636
826.430	-1058
826.526	1
826.622	-317
826.718	360
826.814	-126
826.910	1574
827.006	-35
827.102	-905
827.198	511
827.294	118
827.390	-602
827.486	527
827.582	-1713
827.678	-426
827.774	391
827.869	-789
827.965	190
828.061	-407
828.157	138
828.252	274
828.348	-976
828.444	817
828.539	-703
828.635	83
828.731	11
828.826	-78
828.922	-503
829.017	-309
829.113	293
829.208	-605
829.304	-1393
829.399	915
829.495	-333
829.590	596
829.685	-1117
829.781	42
829.876	-300
829.971	-136
830.066	-670
830.162	-268
830.257	-631
830.352	-590
830.447	347
830.543	-261
830.638	-1483
830.733	695
830.828	-712
830.923	435
831.018	-64
831.113	-306
831.208	-1069
831.303	-984
831.398	-440
831.493	-174
831.588	596
831.683	-1317
831.778	442
831.873	-413
831.967	-2
832.062	-555
832.157	-1314
832.252	646
832.346	-59
832.441	674
832.536	3
832.631	1390
832.725	103
832.820	-750
832.914	-249
833.009	-544
833.104	-335
833.198	46
833.293	-648
833.387	872
833.482	22
833.576	-1229
833.670	-12
833.765	35
833.859	-684
833.954	521
834.048	445
834.142	-245
834.237	-613
834.331	46
834.425	244
834.519	-388
834.613	123
834.708	-941
834.802	61
834.896	-375
834.990	-269
835.084	791
835.178	-121
835.272	-501
835.366	-904
835.460	-439
835.554	-420
835.648	-513
835.742	-384
835.836	289
835.930	-1685
836.024	211
836.117	580
836.211	-427
836.305	742
836.399	105
836.493	-995
836.586	451
836.680	-1277
836.774	-1633
836.867	805
836.961	-1072
837.055	352
837.148	-168
837.242	444
837.335	-694
837.429	-139
837.522	340
837.616	29
837.709	1489
837.803	-337
837.896	249
837.989	-34
838.083	479
838.176	1505
838.269	476
838.363	683
838.456	-923
838.549	-812
838.642	223
838.735	1698
838.829	340
838.922	-636
839.015	73
839.108	-933
839.201	-315
839.294	652
839.387	18
839.480	-1149
839.573	446
839.666	-335
839.759	-326
839.852	-993
839.945	126
840.038	-511
840.131	-252
840.223	-624
840.316	-184
840.409	-674
840.502	-452
840.594	78
840.687	-1338
840.780	-501
840.873	-1026
840.965	-255
841.058	451
841.150	1099
841.243	-407
841.336	-85
841.428	-315
841.521	-680
841.613	-830
841.706	-15
841.798	-825
841.890	-747
841.983	-741
842.075	-161
842.167	-497
842.260	-242
842.352	1243
842.444	-668
842.537	1864
842.629	1828
842.721	-248
842.813	-363
842.905	-1500
842.997	87
843.090	-1352
843.182	307
843.274	1498
843.366	4918
843.458	7544
843.550	3593
843.642	-617
843.734	-90
843.826	-617
843.918	335
844.009	354
844.101	-872
844.193	-68
844.285	159
844.377	-202
844.469	307
844.560	-564
844.652	249
844.744	-586
844.835	-487
844.927	282
845.019	-469
845.110	-3
845.202	-359
845.293	-171
845.385	-1020
845.476	-1129
845.568	-1
845.659	-185
845.751	28
845.842	-890
845.934	-1432
846.025	-708
846.116	-27
846.208	169
846.299	-407
846.390	-608
846.482	-749
846.573	49
846.664	-141
846.755	-129
846.846	-381
846.937	-1491
847.029	-633
847.120	-860
847.211	-631
847.302	128
847.393	-1337
847.484	506
847.575	-72
847.666	-891
847.757	-619
847.847	-297
847.938	267
848.029	-914
848.120	-187
848.211	-989
848.302	-1263
848.392	-779
848.483	140
848.574	-908
848.664	-303
848.755	-798
848.846	-1090
848.936	-408
849.027	-466
849.118	-221
849.208	-1498
849.299	-323
849.389	369
849.480	2873
849.570	5222
849.661	10894
849.751	14031
849.841	3885
849.932	-110
850.022	-575
850.112	-340
850.203	-168
850.293	-1179
850.383	-240
850.474	-905
850.564	-943
850.654	-936
850.744	124
850.834	-1058
850.924	-265
851.014	-282
851.104	-91
851.194	-1208
851.284	333
851.374	-500
851.464	-655
851.554	-1049
851.644	347
851.734	820
851.824	743
851.914	222
852.004	2522
852.094	2197
852.183	-258
852.273	438
852.363	-738
852.452	-679
852.542	-520
852.632	-956
852.721	-917
852.811	-1159
852.901	-815
852.990	-1188
853.080	29
853.169	-55
853.259	-989
853.348	-443
853.438	39
853.527	-102
853.617	1151
853.706	3427
853.795	7370
853.885	18207
853.974	33616
854.063	62168
854.152	82016
854.242	25340
854.331	4047
854.420	975
854.509	884
854.598	410
854.687	174
854.777	-229
854.866	-1281
854.955	243
855.044	-342
855.133	-780
855.222	-1065
855.311	-624
855.400	-310
855.488	-1169
855.577	-738
855.666	-256
855.755	-54
855.844	-448
855.933	595
856.021	-722
856.110	-365
856.199	-1156
856.288	91
856.376	-99
856.465	-1224
856.554	-431
856.642	-1285
856.731	-33
856.819	-261
856.908	-1123
856.996	-965
857.085	-593
857.173	-446
857.262	-450
857.350	-424
857.438	-374
857.527	340
857.615	-500
857.703	-87
857.792	-1284
857.880	-813
857.968	-622
858.056	-993
858.145	17
858.233	-793
858.321	-728
858.409	-230
858.497	-1078
858.585	-1012
858.673	41
858.761	-874
858.849	-582
858.937	-334
859.025	-814
859.113	-865
859.201	-1001
859.289	-313
859.377	-1652
859.465	-98
859.552	-646
859.640	-377
859.728	-258
859.816	-97
859.903	41
859.991	-1195
860.079	-738
860.166	-781
860.254	-705
860.342	-179
860.429	-815
860.517	-1040
860.604	-435
860.692	-688
860.779	-1400
860.867	-933
860.954	-402
861.042	-891
861.129	-275
861.216	-831
861.304	-1895
861.391	-323
861.478	-299
861.565	-553
861.653	134
861.740	-1031
861.827	-870
861.914	-53
862.001	-989
862.089	-742
862.176	-708
862.263	-1153
862.350	-414
862.437	-1269
862.524	-1146
862.611	-733
862.698	-420
862.785	-362
862.871	-226
862.958	-877
863.045	-922
863.132	-53
863.219	-724
863.306	-1868
863.392	224
863.479	-412
863.566	-651
863.652	-658
863.739	-1471
863.826	-29
863.912	-914
863.999	-1372
864.086	-595
864.172	-526
864.259	10
864.345	-65
864.432	-199
864.518	-203
864.604	-165
864.691	-836
864.777	-55
864.863	293
864.950	934
865.036	-293
865.122	1185
865.209	2172
865.295	293
865.381	1740
865.467	1203
865.553	1662
865.639	1541
865.726	4182
865.812	8712
865.898	16241
865.984	23758
866.070	46876
866.156	40930
866.242	9502
866.328	2051
866.414	897
866.499	1164
866.585	641
866.671	490
866.757	778
866.843	-366
866.928	-340
867.014	-112
867.100	662
867.186	186
867.271	949
867.357	677
867.442	551
867.528	409
867.614	475
867.699	458
867.785	178
867.870	22
867.956	572
868.041	191
868.127	852
868.212	-101
868.297	271
868.383	-178
868.468	932
868.553	947
868.639	502
868.724	2853
868.809	926
868.894	558
868.979	118
869.065	62
869.150	-707
869.235	-9
869.320	251
869.405	36
869.490	600
869.575	361
869.660	-151
869.745	817
869.830	-1074
869.915	149
870.000	240
870.085	-177
870.169	740
870.254	294
870.339	-715
870.424	-14
870.509	912
870.593	653
870.678	-23
870.763	308
870.847	379
870.932	-766
871.016	-345
871.101	-1055
871.186	397
871.270	-211
871.355	-675
871.439	428
871.523	103
871.608	-219
871.692	85
871.777	258
871.861	213
871.945	-399
872.030	-807
872.114	-168
872.198	-64
872.282	-606
872.367	-1266
872.451	156
872.535	-283
872.619	84
872.703	-176
872.787	-603
872.871	371
872.955	-308
873.039	189
873.123	124
873.207	268
873.291	-183
873.375	-540
873.459	446
873.543	-159
873.627	-1275
873.711	-474
873.794	724
873.878	-513
873.962	-309
874.045	7
874.129	193
874.137	210
874.213	378
874.245	231
874.296	-12
874.352	321
874.380	480
874.460	213
874.464	201
874.547	-645
874.568	-581
874.631	-388
874.676	313
874.714	893
874.784	669
874.798	623
874.881	1233
874.892	1057
874.965	-124
874.999	97
875.048	336
875.107	-59
875.131	-195
875.215	136
875.215	137
875.298	242
875.323	159
875.381	-30
875.430	131
875.465	202
875.538	198
875.548	196
875.631	211
875.646	173
875.714	6
875.753	256
875.798	582
875.861	151
875.881	22
875.964	-391
875.968	-326
876.047	731
876.076	652
876.130	572
876.183	765
876.213	854
876.291	1273
876.296	1291
876.379	-83
876.398	-144
876.462	-205
876.506	143
876.545	470
876.613	897
876.628	980
876.711	601
876.721	642
876.794	1057
876.828	1001
876.877	768
876.935	545
876.960	526
877.043	1404
877.043	1401
877.125	1141
877.150	1254
877.208	1343
877.258	532
877.291	91
877.365	609
877.374	667
877.456	1485
877.472	1344
877.539	771
877.579	912
877.622	1048
877.687	1052
877.704	1074
877.787	1685
877.794	1654
877.869	1244
877.901	1293
877.952	1304
878.008	1210
878.034	1196
878.115	701
878.117	699
878.199	1363
878.222	1356
878.282	1346
878.329	1752
878.364	1976
878.437	1640
878.447	1587
878.529	1197
878.544	1140
878.611	959
878.651	1226
878.694	1625
878.758	1373
878.776	1296
878.858	1384
878.865	1391
878.941	1356
878.972	1268
879.023	1072
879.078	872
879.105	1025
879.185	1507
879.187	1510
879.269	2136
879.292	1882
879.351	1390
879.399	1476
879.433	1481
879.506	1999
879.516	2097
879.598	1402
879.613	1470
879.680	1769
879.720	1596
879.762	1266
879.827	1366
879.844	1501
879.926	1688
879.933	1740
880.007	2038
880.040	1789
880.089	1484
880.147	1626
880.171	1811
880.253	2695
880.254	2689
880.335	2479
880.360	2497
880.417	3280
880.467	4278
880.499	4832
880.574	5391
880.580	5296
880.662	3149
880.680	2717
880.744	1899
880.787	1900
880.825	2120
880.893	1923
880.907	1940
880.989	2965
881.000	2909
881.070	2482
881.106	2522
881.152	2277
881.213	2176
881.233	2309
881.315	2279
881.319	2266
881.396	2240
881.426	2454
881.478	2722
881.532	2232
881.559	2023
881.639	2223
881.641	2236
881.722	2764
881.745	2656
881.803	2694
881.852	2924
881.885	2827
881.958	2208
881.966	2211
882.047	2207
882.064	2266
882.129	2783
882.171	3266
882.210	3660
882.277	3894
882.291	3850
882.372	3242
882.383	3199
882.454	3308
882.489	3315
882.535	3159
882.596	2946
882.616	2948
882.697	2865
882.702	2851
882.778	2741
882.808	2605
882.859	2673
882.914	2560
882.940	2487
883.020	2953
883.021	2968
883.102	3082
883.127	3038
883.183	3202
883.233	3326
883.264	3193
883.339	3064
883.345	3060
883.426	2624
883.445	2481
883.507	2715
883.551	3113
883.587	3527
883.657	3884
883.668	3899
883.749	4085
883.763	4106
883.830	3356
883.869	2872
883.910	2972
883.975	2999
883.991	3047
884.072	3438
884.081	3430
884.152	3719
884.187	4060
884.233	4170
884.292	3894
884.314	3682
884.394	3135
884.398	3086
884.475	3136
884.504	3127
884.555	2985
884.610	2973
884.636	3273
884.716	3984
884.716	4002
884.797	4295
884.821	4421
884.877	4271
884.927	3852
884.958	3838
885.033	3728
885.038	3709
885.118	3421
885.139	3248
885.199	3111
885.244	3355
885.279	3738
885.350	4089
885.359	4167
885.439	4656
885.456	4719
885.520	4264
885.561	4082
885.600	3840
885.667	3369
885.680	3514
885.760	4264
885.773	4348
885.840	4118
885.878	3929
885.920	4158
885.984	4625
886.000	4742
886.080	5029
886.089	5069
886.160	4990
886.195	4789
886.240	4694
886.300	4655
886.320	4683
886.400	4867
886.406	4834
886.480	4296
886.511	4220
886.560	4852
886.616	5247
886.640	5119
886.720	4850
886.722	4819
886.800	4223
886.827	4120
886.879	4755
886.932	5140
886.959	5031
887.038	4852
887.039	4875
887.119	5230
887.143	5288
887.198	5145
887.248	4974
887.278	4809
887.354	4386
887.358	4435
887.437	5141
887.459	5279
887.517	5495
887.564	5710
887.596	5544
887.669	4963
887.676	4938
887.755	4416
887.774	4295
887.835	4811
887.880	5140
887.914	5132
887.985	4925
887.994	5005
888.073	5725
888.090	5843
888.153	6031
888.195	6051
888.232	5566
888.300	4704
888.311	4834
888.391	5568
888.405	5688
888.470	5257
888.510	4937
888.549	5113
888.615	5371
888.628	5440
888.708	5653
888.720	5677
888.787	5527
888.825	5390
888.866	5210
888.930	4903
888.945	5213
889.024	6753
889.035	6932
889.103	6502
889.140	6230
889.182	5944
889.245	5492
889.261	5459
889.340	5204
889.349	5155
889.419	5528
889.454	5694
889.498	5522
889.559	5236
889.577	5406
889.656	6072
889.664	6119
889.735	6378
889.768	6466
889.814	6618
889.873	6767
889.978	6185
890.083	6676
890.187	6481
890.292	6223
890.397	6039
890.501	6040
890.606	6744
890.710	6858
890.815	7308
890.919	6095
891.024	6434
891.128	6680
891.233	5616
891.337	6985
891.442	5936
891.546	6431
891.650	6113
891.755	5158
891.859	7158
891.963	6890
892.068	6762
892.172	5587
892.276	4943
892.380	5937
892.484	6327
892.589	5648
892.693	5588
892.797	5619
892.901	5382
893.005	4975
893.109	6327
893.213	6903
893.317	5825
893.421	4870
893.525	4618
893.629	4949
893.733	5781
893.837	6245
893.941	5689
894.045	7134
894.148	9438
894.252	18791
894.356	10287
894.460	6567
894.564	6004
894.667	4621
894.771	4733
894.875	5359
894.978	5434
895.082	6350
895.186	5861
895.289	5183
895.393	6003
895.496	6119
895.600	4643
895.703	3981
895.807	4892
895.910	4592
896.014	5530
896.117	5739
896.221	5461
896.324	5631
896.427	4512
896.531	5040
896.634	5274
896.737	5675
896.840	5260
896.944	5572
897.047	5557
897.150	4905
897.253	5142
897.356	4169
897.460	4739
897.563	4701
897.666	5172
897.769	6048
897.872	4889
897.975	4670
898.078	5530
898.181	4651
898.284	5038
898.387	5471
898.490	5100
898.593	5545
898.695	4738
898.798	4743
898.901	4050
899.004	4889
899.107	4801
899.209	5540
899.312	5789
899.415	4825
899.518	4763
899.620	4040
899.723	4911
899.826	6401
899.928	5892
900.031	4791
900.133	5323
900.236	4884
900.338	3975
900.441	4168
900.543	4559
900.646	4333
900.748	4212
900.851	5775
900.953	4254
901.055	4767
901.158	4912
901.260	4587
901.362	4925
901.465	4296
901.567	4451
901.669	5304
901.771	4734
901.873	4685
901.976	4645
902.078	4914
902.180	4497
902.282	4228
902.384	4707
902.486	4882
902.588	5085
902.690	6235
902.792	4710
902.894	5134
902.996	5335
903.098	5448
903.200	4496
903.302	3669
903.404	5150
903.505	4971
903.607	5133
903.709	6438
903.811	4841
903.913	4525
904.014	3939
904.116	4294
904.218	4556
904.319	4978
904.421	5451
904.523	4905
904.624	4496
904.726	4331
904.827	3944
904.929	4118
905.030	4607
905.132	5131
905.233	4661
905.335	3954
905.436	5101
905.537	4308
905.639	5061
905.740	4463
905.841	4859
905.943	4918
906.044	4605
906.145	3896
906.247	3906
906.348	4485
906.449	4372
906.550	5617
906.651	5040
906.752	4801
906.854	4551
906.955	3978
907.056	4326
907.157	5286
907.258	5103
907.359	3785
907.460	4168
907.561	4477
907.662	3941
907.762	4689
907.863	5300
907.964	4530
908.065	5048
908.166	4595
908.267	4543
908.367	4367
908.468	3691
908.569	5002
908.670	4991
908.770	4735
908.871	5038
908.971	5939
909.072	4985
909.173	4502
909.273	4142
909.374	3867
909.474	4532
909.575	4491
909.675	5133
909.776	5530
909.876	4817
909.977	4917
910.077	3896
910.177	4863
910.278	4298
910.378	4957
910.478	4126
910.579	5071
910.679	4115
910.779	4285
910.879	5781
910.980	4796
911.080	3933
911.180	4450
911.280	4639
911.380	4314
911.480	5074
911.580	4400
911.680	5041
911.780	5081
911.880	4985
911.980	3962
912.080	3587
912.180	5336
912.280	4327
912.380	3808
912.480	3402
912.580	4581
912.679	4258
912.779	4671
912.879	4019
912.979	4341
913.078	4081
913.178	3557
913.278	3693
913.377	3899
913.477	4444
913.577	4551
913.676	4991
913.776	5279
913.875	4294
913.975	4803
914.074	4038
914.174	3911
914.273	3313
914.373	4729
914.472	3850
914.572	4245
914.671	4297
914.770	3626
914.870	4007
914.969	3431
915.068	4151
915.167	4729
915.267	3605
915.366	4350
915.465	4239
915.564	4532
915.663	4136
915.763	5060
915.862	5063
915.961	4895
916.060	3658
916.159	3700
916.258	3660
916.357	4135
916.456	4175
916.555	4389
916.654	4596
916.752	5084
916.851	4115
916.950	4668
917.049	4213
917.148	4662
917.247	4862
917.345	3542
917.444	3717
917.543	5227
917.642	4121
917.740	4987
917.839	4973
917.937	5089
918.036	4890
918.135	4333
918.233	3965
918.332	4785
918.430	3902
918.529	4081
918.627	5266
918.726	4359
918.824	3926
918.923	4167
919.021	4519
919.119	3598
919.218	4344
919.316	4025
919.414	4449
919.512	5127
919.611	4398
919.709	4923
919.807	5454
919.905	5188
920.003	4611
920.102	4402
920.200	4890
920.298	5162
920.396	5045
920.494	5241
920.592	4580
920.690	5424
920.788	4718
920.886	4791
920.984	5370
921.082	4841
921.180	5121
921.277	4938
921.375	5980
921.473	5576
921.571	6544
921.669	5901
921.766	6194
921.864	6334
921.962	6134
922.060	6458
922.157	6097
922.255	6766
922.352	5875
922.450	7073
922.548	6234
922.645	6963
922.743	8037
922.840	11505
922.938	11396
923.035	11261
923.133	12147
923.230	11615
923.327	13283
923.425	11752
923.522	12364
923.619	11391
923.717	10017
923.814	9967
923.911	10629
924.008	11508
924.106	9826
924.203	10532
924.300	10542
924.397	10030
924.494	10132
924.591	9578
924.688	9971
924.786	10688
924.883	10085
924.979	10515
925.077	10394
925.173	9830
925.270	9901
925.367	9823
925.464	9299
925.561	10639
925.658	10408
925.755	10110
925.852	10680
925.948	10771
926.045	10087
926.142	10131
926.239	9388
926.335	8571
926.432	9431
926.529	10222
926.625	9805
926.722	7972
926.818	9594
926.915	10072
927.011	9550
927.108	9916
927.204	9453
927.301	8759
927.397	9869
927.494	10143
927.590	7362
927.687	8470
927.783	9320
927.879	10307
927.976	8536
928.072	8411
928.168	9526
928.264	9253
928.361	8404
928.457	9226
928.553	8321
928.649	8814
928.745	9649
928.841	8091
928.937	8989
929.033	9243
929.129	9129
929.225	9760
929.321	7986
929.417	8391
929.513	9460
929.609	8712
929.705	7756
929.801	9123
929.897	7628
929.993	7843
930.089	8041
930.184	8397
930.280	8480
930.376	9033
930.471	7924
930.567	7222
930.663	7951
930.758	7162
930.854	8026
930.950	8130
931.045	6700
931.141	8330
931.236	9301
931.332	7511
931.427	6652
931.523	9658
931.618	7861
931.714	5924
931.809	7828
931.905	7979
932.000	6245
932.095	6603
932.191	8651
932.286	8963
932.381	7400
932.476	7590
932.572	7170
932.667	6958
932.762	6267
932.857	7882
932.952	8645
933.047	7363
933.142	6387
933.237	6924
933.332	8578
933.427	8079
933.522	7347
933.617	7311
933.712	7071
933.807	9556
933.902	8307
933.997	8456
934.092	5678
934.187	8097
934.282	7719
934.376	7216
934.471	7742
934.566	6829
934.661	7696
934.755	7846
934.850	7386
934.945	7526
935.039	6112
935.134	6676
935.228	6974
935.323	9241
935.417	6784
935.512	5584
935.606	5838
935.701	7637
935.795	7533
935.890	6345
935.984	6819
936.079	6097
936.173	7167
936.267	6344
936.362	6256
936.456	7088
936.550	7670
936.644	7210
936.738	6077
936.833	6598
936.927	6582
937.021	6642
937.115	6381
937.209	6904
937.303	6885
937.397	5675
937.491	6403
937.585	6186
937.679	6510
937.773	6373
937.867	4970
937.961	6149
938.055	6257
938.149	6720
938.243	4425
938.337	4627
938.430	5826
938.524	7065
938.618	5465
938.712	6064
938.805	6004
938.899	6850
938.993	6227
939.086	4905
939.180	3856
939.274	6066
939.367	5912
939.461	5746
939.554	5288
939.648	4737
939.741	4390
939.835	6552
939.928	7149
940.022	7339
940.115	5097
940.208	7004
940.302	7173
940.395	6996
940.488	4909
940.582	5180
940.675	4219
940.768	5966
940.861	6240
940.954	7015
941.048	5328
941.141	4793
941.234	5003
941.327	6181
941.420	6534
941.513	5764
941.606	4819
941.699	6399
941.792	5941
941.885	6738
941.978	5921
942.071	5025
942.164	3844
942.257	4813
942.349	5345
942.442	5121
942.535	3978
942.628	4999
942.721	5182
942.813	4829
942.906	5995
942.999	5038
943.091	3745
943.184	4805
943.277	4289
943.369	4301
943.462	4754
943.554	5009
943.647	4287
943.739	6635
943.832	5080
943.924	4531
944.017	5151
944.109	4240
944.201	4261
944.294	5396
944.386	4989
944.478	3655
944.571	4620
944.663	4238
944.755	5084
944.847	5347
944.940	4571
945.032	3376
945.124	4267
945.216	5694
945.308	5012
945.400	4708
945.492	5630
945.584	5320
945.676	4915
945.768	4423
945.860	5946
945.952	5656
946.044	4797
946.136	4056
946.228	4219
946.320	4353
946.412	5496
946.503	5400
946.595	5703
946.687	4179
946.779	3196
946.870	3435
946.962	3202
947.054	5040
947.145	4403
947.237	3757
947.329	5315
947.420	4665
947.512	3679
947.603	4034
947.695	3678
947.786	3795
947.878	4199
947.969	5349
948.061	4133
948.152	3958
948.243	3256
948.335	3580
948.426	3483
948.517	4293
948.609	5031
948.700	4223
948.791	3609
948.882	3414
948.973	3340
949.065	3972
949.156	3935
949.247	3547
949.338	4398
949.429	3620
949.520	4373
949.611	3895
949.702	3766
949.793	3938
949.884	4540
949.975	3463
950.066	3083
950.157	2819
950.247	4052
950.338	3835
950.429	3838
950.520	4861
950.611	3766
950.701	4112
950.792	4815
950.883	4999
950.973	3820
951.064	4849
951.155	4550
951.245	4765
951.336	3405
951.427	3637
951.517	4377
951.608	4253
951.698	3299
951.788	4021
951.879	3330
951.969	3243
952.060	4652
952.150	4175
952.240	4722
952.331	2570
952.421	5342
952.511	3455
952.602	3468
952.692	2326
952.782	3901
952.872	3427
952.962	4115
953.052	2984
953.143	3366
953.233	3629
953.323	3741
953.413	3529
953.503	4117
953.593	3844
953.683	3535
953.773	2860
953.863	3698
953.953	3090
954.042	3756
954.132	3641
954.222	3834
954.312	3614
954.402	3844
954.492	4557
954.581	5201
954.671	3292
954.761	3111
954.850	4197
954.940	2586
955.030	2989
955.119	3762
955.209	3516
955.298	3526
955.388	4477
955.477	4273
955.567	2955
955.656	4047
955.746	3341
955.835	3405
955.925	3337
956.014	4997
956.103	4855
956.193	4401
956.282	4114
956.371	3820
956.461	3891
956.550	3512
956.639	3724
956.728	3131
956.817	3166
956.906	4139
956.995	4450
957.085	2754
957.174	4638
957.263	3974
957.352	3585
957.441	3998
957.530	3899
957.619	3565
957.708	3396
957.796	3523
957.885	3870
957.974	3651
958.063	4450
958.152	2983
958.241	2497
958.329	3704
958.418	3270
958.507	3935
958.596	5010
958.684	3735
958.773	5082
958.861	3632
958.950	5251
959.039	4391
959.127	3931
959.216	5213
959.304	5189
959.393	5411
959.481	5135
959.570	4271
959.658	4388
959.746	4257
959.835	6477
959.923	5526
960.011	4173
960.100	4892
960.188	4970
960.276	4845
960.365	3521
960.453	2979
960.541	4090
960.629	3634
960.717	3885
960.805	3181
960.893	4082
960.981	4032
961.069	5159
961.158	3997
961.245	4170
961.333	3833
961.421	3248
961.509	3513
961.597	3459
961.685	3905
961.773	3166
961.861	2367
961.949	3712
962.036	2202
962.124	3448
962.212	2783
962.299	3107
962.387	3052
962.475	2545
962.562	2470
962.650	3812
962.738	3300
962.825	1578
962.913	2748
963.000	2660
963.088	2690
963.175	3052
963.263	3319
963.350	3459
963.438	3524
963.525	3546
963.612	5936
963.700	10711
963.787	12951
963.874	6301
963.962	3219
964.049	3261
964.136	2052
964.223	2917
964.310	2003
964.398	3894
964.485	3438
964.572	4286
964.659	3924
964.746	3152
964.833	1969
964.920	1716
965.007	3421
965.094	3188
965.181	2022
965.268	2999
965.355	3165
965.441	3305
965.528	1684
965.615	3163
965.702	2740
965.789	2149
965.875	2781
965.962	2544
966.049	2260
966.136	3376
966.222	1987
966.309	3490
966.395	2498
966.482	3703
966.569	2115
966.655	2616
966.742	2740
966.828	2498
966.915	2450
967.001	3263
967.087	1583
967.174	3072
967.260	3574
967.347	4051
967.433	7674
967.519	8126
967.605	4430
967.692	2827
967.778	2309
967.864	2560
967.950	2330
968.036	2445
968.123	2034
968.209	2180
968.295	1015
968.381	2790
968.467	3030
968.553	1724
968.639	3292
968.725	2769
968.811	3603
968.897	3605
968.983	2278
969.069	1686
969.154	2502
969.240	1402
969.326	1913
969.412	2344
969.497	2082
969.583	1951
969.669	3504
969.755	3224
969.840	2218
969.926	4328
970.012	3431
970.097	4494
970.183	2981
970.268	3370
970.354	4073
970.439	4895
970.525	6131
970.610	2161
970.696	3354
970.781	2109
970.866	1508
970.952	2249
971.037	816
971.122	2562
971.208	2558
971.293	2704
971.378	1345
971.463	1928
971.549	2059
971.634	1330
971.719	2962
971.804	2416
971.889	3178
971.974	1944
972.059	1676
972.144	2737
972.229	2572
972.314	2354
972.399	2342
972.484	1736
972.569	3234
972.654	2356
972.739	5430
972.824	3865
972.908	1396
972.993	1802
973.078	1592
973.163	2226
973.247	1956
973.332	778
973.417	3046
973.501	1489
973.586	2523
973.671	2001
973.755	1723
973.840	2972
973.924	3153
974.009	3841
974.093	2717
974.178	5044
974.262	3356
974.346	3170
974.431	1269
974.515	2612
974.600	2415
974.684	2267
974.768	1757
974.852	2586
974.937	1448
975.021	2996
975.105	2141
975.189	1768
975.273	1955
975.358	1753
975.442	1144
975.526	2945
975.610	1177
975.694	1077
975.778	2597
975.862	1744
975.946	-74
976.030	2841
976.114	1662
976.198	2377
976.281	1432
976.365	2162
976.449	1668
976.533	2348
976.617	1200
976.700	2227
976.784	1734
976.868	1519
976.951	2330
977.035	2552
977.119	2316
977.202	2098
977.286	1767
977.369	3300
977.453	3159
977.536	2661
977.620	1763
977.703	1665
977.787	1178
977.870	2200
977.953	2985
978.037	955
978.120	3006
978.203	3788
978.287	3736
978.370	2182
978.453	1695
978.536	1705
978.620	3117
978.703	2377
978.786	1184
978.869	1622
978.952	762
979.035	3526
979.118	2098
979.201	1938
979.284	2500
979.367	1704
979.450	2742
979.533	1362
979.616	1506
979.699	661
979.782	1547
979.865	1689
979.948	917
980.030	1417
980.113	1294
980.196	968
980.279	2044
980.361	1335
980.444	1520
980.526	2398
980.609	2992
980.692	2183
980.774	3146
980.857	1106
980.939	3183
981.022	2100
981.104	1237
981.187	1558
981.269	2107
981.352	1874
981.434	1169
981.516	1549
981.599	2434
981.681	2081
981.763	2213
981.846	1764
981.928	1352
982.010	1901
982.092	1806
982.174	2191
982.256	1727
982.339	1202
982.421	1666
982.503	1775
982.585	859
982.667	1778
982.749	1575
982.831	1766
982.913	1796
982.995	2297
983.077	1014
983.158	3219
983.240	966
983.322	3016
983.404	2487
983.486	2586
983.568	3101
983.649	1766
983.731	1982
983.813	1466
983.894	1831
983.976	1215
984.058	2097
984.139	2540
984.221	776
984.302	1752
984.384	2122
984.465	1536
984.547	1479
984.628	1543
984.710	2479
984.791	1978
984.872	2097
984.954	1909
985.035	1328
985.116	1584
985.198	825
985.279	3024
985.360	1730
985.441	1849
985.522	2685
985.604	1901
985.685	318
985.766	2517
985.847	2266
985.928	1757
986.009	1054
986.090	2117
986.171	2989
986.252	1680
986.333	1844
986.414	1477
986.495	1978
986.576	1623
986.656	2337
986.737	2070
986.818	1917
986.899	1325
986.980	1729
987.060	3006
987.141	2119
987.222	2598
987.302	1964
987.383	2733
987.464	2256
987.544	3010
987.625	2074
987.705	3625
987.786	2616
987.866	1699
987.947	3025
988.027	2978
988.108	1248
988.188	2374
988.268	2509
988.349	2159
988.429	2203
988.509	2680
988.589	2079
988.670	674
988.750	3472
988.830	2175
988.910	2263
988.990	1683
989.070	1777
989.151	1890
989.231	1859
989.311	2416
989.391	1372
989.471	1571
989.551	1663
989.631	1639
989.711	2713
989.791	626
989.870	1818
989.950	2913
990.030	1024
990.110	1793
990.190	1268
990.269	959
990.349	1099
990.429	975
990.509	1473
990.588	1280
990.668	1682
990.747	2051
990.827	1111
990.907	2639
990.986	1137
991.066	1397
991.145	547
991.225	1700
991.304	1154
991.383	1725
991.463	1109
991.542	2233
991.622	1530
991.701	666
991.780	-19
991.859	1145
991.939	816
992.018	1451
992.097	1553
992.176	1565
992.256	693
992.335	563
992.414	1100
992.493	1018
992.572	782
992.651	2535
992.730	1233
992.809	1538
992.888	499
992.967	789
993.046	1560
993.125	204
993.203	1414
993.282	1451
993.361	1240
993.440	1211
993.519	139
993.597	1105
993.676	1267
993.755	1466
993.834	1647
993.912	279
993.991	1829
994.069	730
994.148	854
994.226	1165
994.305	552
994.384	471
994.462	2252
994.540	434
994.619	755
994.697	1722
994.776	891
994.854	1141
994.932	758
995.011	977
995.089	-213
995.167	905
995.245	1307
995.324	459
995.402	2163
995.480	881
995.558	281
995.636	-212
995.714	-268
995.792	947
995.870	80
995.948	-204
996.026	511
996.104	377
996.182	1402
996.260	402
996.338	641
996.416	-620
996.494	476
996.572	820
996.649	689
996.727	-452
996.805	859
996.883	701
996.960	875
997.038	990
997.116	-15
997.193	550
997.271	547
997.348	303
997.426	428
997.504	342
997.581	365
997.658	576
997.736	445
997.813	-527
997.891	1071
997.968	35
998.046	767
998.123	988
998.200	1017
998.277	327
998.355	446
998.432	-392
998.509	68
998.586	824
998.663	98
998.741	193
998.818	-111
998.895	359
998.972	432
999.049	44
999.126	-163
999.203	939
999.280	481
999.357	-180
999.434	194
999.511	868
999.587	462
999.664	-1536
999.741	45
999.818	513
999.895	-503
999.971	448
1000.048	697
1000.125	1173
1000.202	-792
1000.278	488
1000.355	677
1000.431	-35
1000.508	-534
1000.584	133
1000.661	808
1000.738	-651
1000.814	181
1000.890	359
1000.967	-346
1001.043	1461
1001.120	-660
1001.196	-265
1001.272	-229
1001.349	-110
1001.425	408
1001.501	439
1001.577	-1042
1001.654	-91
1001.730	225
1001.806	722
1001.882	-1359
1001.958	841
1002.034	235
1002.110	333
1002.186	-737
1002.262	-322
1002.338	-1032
1002.414	593
1002.490	381
1002.566	-45
1002.642	-616
1002.718	376
1002.794	144
1002.870	-49
1002.945	435
1003.021	-432
1003.097	-340
1003.173	466
1003.248	-765
1003.324	-57
1003.400	159
1003.475	240
1003.551	-483
1003.626	326
1003.702	-482
1003.777	-406
1003.853	-1011
1003.928	-259
1004.004	-1054
1004.079	-244
1004.155	-448
1004.230	-1453
1004.305	238
1004.381	211
1004.456	-370
1004.531	-383
1004.607	-950
1004.682	-1022
1004.757	-198
1004.832	-751
1004.907	-530
1004.982	271
1005.057	244
1005.133	-583
1005.208	-737
1005.283	-1247
1005.358	71
1005.433	-331
1005.508	-642
1005.583	-883
1005.657	-609
1005.732	67
1005.807	-1656
1005.882	-197
1005.957	-1177
1006.032	-401
1006.106	-148
1006.181	-573
1006.256	-290
1006.331	-446
1006.405	-234
1006.480	-843
1006.554	-1411
1006.629	-927
1006.704	-1224
1006.778	-129
1006.853	-509
1006.927	-317
1007.002	-147
1007.076	-230
1007.150	-612
1007.225	-712
1007.299	-185
1007.373	-915
1007.448	-100
1007.522	-306
1007.596	-533
1007.671	-721
1007.745	-492
1007.819	-1358
1007.893	-124
1007.967	-406
1008.041	-1738
1008.115	-443
1008.190	-1154
1008.264	453
1008.338	-1588
1008.412	-622
1008.486	-645
1008.560	-673
1008.633	117
1008.707	-421
1008.781	-242
1008.855	-625
1008.929	-878
1009.003	-473
1009.076	-717
1009.150	-505
1009.224	-735
1009.298	-483
1009.371	-1607
1009.445	-1
1009.519	-452
1009.592	-1124
1009.666	-969
1009.739	-1397
1009.813	-1491
1009.886	-191
1009.960	-1836
1010.033	-562
1010.107	-151
1010.180	-1479
1010.253	-690
1010.327	-1054
1010.400	-1216
1010.473	-864
1010.547	-6
1010.620	-837
1010.693	-469
1010.766	-1051
1010.840	-983
1010.913	-712
1010.986	-1317
1011.059	-1530
1011.132	-1620
1011.205	-45
1011.278	-577
1011.351	-1295
1011.424	-1368
1011.497	-1556
1011.570	-1062
1011.643	-337
1011.716	-1505
1011.789	-1055
1011.862	-1373
1011.934	-699
1012.007	-1888
1012.080	-660
1012.153	-611
1012.225	-37
1012.298	-1120
1012.371	-593
1012.443	-233
1012.516	-1421
1012.588	-507
1012.661	-245
1012.733	-1703
1012.806	-268
1012.879	-1500
1012.951	-107
1013.023	-858
1013.096	-1129
1013.168	-730
1013.241	159
1013.313	-1156
1013.385	-819
1013.458	-1053
1013.530	320
1013.602	-1490
1013.674	-221
1013.746	-1573
1013.819	-1211
1013.891	-883
1013.963	-1568
1014.035	-1447
1014.107	-433
1014.179	-797
1014.251	-1094
1014.323	-1025
1014.395	-703
1014.467	-698
1014.539	-602
1014.611	-591
1014.683	-1557
1014.754	-1240
1014.826	-1709
1014.898	-1008
1014.970	-1603
1015.042	-433
1015.113	-644
1015.185	-1888
1015.257	-1670
1015.328	-882
1015.400	-1009
1015.471	-1109
1015.543	-1467
1015.615	-949
1015.686	-1336
1015.757	-972
1015.829	-907
1015.901	-1577
1015.972	-1238
1016.043	-1293
1016.115	-997
1016.186	-1077
1016.257	-1235
1016.328	-509
1016.400	-226
1016.471	-1330
1016.542	-1549
1016.613	-1139
1016.685	-882
1016.756	-506
1016.827	-1189
1016.898	-1365
1016.969	-427
1017.040	-1318
1017.111	-1053
1017.182	-1225
1017.253	-477
1017.324	-1222
1017.395	-846
1017.466	-624
1017.537	-1628
1017.608	-1323
1017.678	-2268
1017.749	-908
1017.820	-1670
1017.891	-1907
1017.961	-1857
1018.032	-1708
1018.103	-456
1018.173	-1036
1018.244	-1424
1018.315	-1084
1018.385	-884
1018.456	-1710
1018.526	-1483
1018.597	-2352
1018.667	-1150
1018.738	-1495
1018.808	-1479
1018.878	-1292
1018.949	-773
1019.019	-1078
1019.089	-322
1019.160	-1450
1019.230	-1678
1019.300	-771
1019.371	-1677
1019.441	-1238
1019.511	-615
1019.581	-1359
1019.651	-267
1019.721	-206
1019.791	-844
1019.861	-1427
1019.931	-1404
1020.001	-1187
1020.071	-1323
1020.141	-1357
1020.211	-946
1020.281	-1949
1020.351	-1423
1020.421	-1041
1020.491	-902
1020.560	-1934
1020.630	-1250
1020.700	-1066
1020.770	-1824
1020.839	-874
1020.909	-1233
1020.979	-1539
1021.048	-874
1021.118	-1867
1021.187	-1277
1021.257	-1470
1021.326	-303
1021.396	-1643
1021.465	-358
1021.535	-1608
1021.604	-1220
1021.674	-1520
1021.743	-1501
1021.812	-1119
1021.882	-914
1021.951	-1376
1022.020	-167
1022.089	-1728
1022.159	-635
1022.228	-1023
1022.297	-1166
1022.366	-2537
1022.435	-1227
1022.504	-1146
1022.573	-1624
1022.642	-1077
1022.711	-756
1022.781	-965
1022.849	-650
1022.918	-2149
1022.987	-1938
1023.056	-576
1023.125	-1307
1023.194	-1605
1023.263	-755
1023.331	-404
1023.400	-1554
1023.469	-1676
1023.538	-1306
1023.606	-1483
1023.675	-1843
1023.744	-1955
1023.812	-1262
1023.881	-293
1023.949	-1340
1024.018	-1801
1024.086	-1055
1024.155	-1567
1024.223	-1584
1024.292	-1262
1024.360	-1541
1024.429	-1082
1024.497	-1227
1024.565	-1001
1024.634	-1340
1024.702	-1186
1024.770	-1027
1024.838	-2228
1024.907	-843
1024.975	-1508
1025.043	-1582
1025.111	-1764
1025.179	-2199
1025.247	-1204
1025.315	-929
1025.383	-513
1025.451	-1469
1025.519	-1420
1025.587	-1242
1025.655	-1420
1025.723	-1533
1025.791	-1348
1025.859	-1174
1025.927	-1099
1025.995	-1331
1026.062	-1287
1026.130	-1664
1026.198	-1056
1026.266	-910
1026.333	-1349
1026.401	-453
1026.469	-1274
1026.536	-1070
1026.604	-1354
1026.671	-1319
1026.739	-2297
1026.806	-1509
1026.874	-1889
1026.941	-931
1027.009	-2072
1027.076	-1679
1027.144	-464
1027.211	-1677
1027.278	-1695
1027.345	-1614
1027.413	-1167
1027.480	-1915
1027.547	-2200
1027.614	-2125
1027.682	-938
1027.749	-1695
1027.816	-1766
1027.883	-523
1027.950	-1141
1028.017	-957
1028.084	-1624
1028.151	-1685
1028.218	-1026
1028.285	-1067
1028.352	-1839
1028.419	-1722
1028.486	-1784
1028.553	-1038
1028.619	-2006
1028.686	-1321
1028.753	-1423
1028.820	-1504
1028.886	-1915
1028.953	-1084
1029.020	-1561
1029.086	-1712
1029.153	-1858
1029.220	-569
1029.286	-1484
1029.353	-1237
1029.419	-1529
1029.486	-1497
1029.552	-1432
1029.619	-1654
1029.685	-1910
1029.751	-1665
1029.818	-1441
1029.884	-1476
1029.951	-864
1030.017	-1219
1030.083	-1107
1030.149	-1111
1030.216	-1744
1030.282	-1566
1030.348	-1523
1030.414	-1655
1030.480	-2034
1030.546	-1585
1030.612	-1477
1030.678	-1248
1030.744	-2369
1030.810	-1705
1030.876	-1757
1030.942	-1351
1031.008	-1534
1031.074	-2277
1031.140	-1198
1031.206	-643
1031.272	-2432
1031.337	-1890
1031.403	-1274
1031.469	-2722
1031.534	-1546
1031.600	-1179
1031.666	-1694
1031.731	-2011
1031.797	-1365
1031.863	-1467
1031.928	-1919
1031.994	-1706
1032.059	-1377
1032.125	-1186
1032.190	-1987
1032.256	-1726
1032.321	-2034
1032.386	-1908
1032.452	-1028
1032.517	-1462
1032.582	-2438
1032.647	-1425
1032.713	-1176
1032.778	-1036
1032.843	-1320
1032.908	-1708
1032.974	-2093
1033.039	-1875
1033.104	-759
1033.169	-1127
1033.234	-1039
1033.299	-1029
1033.364	-1351
1033.429	-847
1033.494	-1405
1033.559	-1773
1033.624	-2082
1033.688	-429
1033.753	-1255
1033.818	-1077
1033.883	-1433
1033.948	-944
1034.013	-1281
1034.077	-1373
1034.142	425
1034.207	492
1034.271	718
1034.336	1546
1034.400	770
1034.465	-213
1034.530	-920
1034.594	-1394
1034.658	-2025
1034.723	-2002
1034.787	-1741
1034.852	-1700
1034.916	-1105
1034.981	-2198
1035.045	-884
1035.109	-1966
1035.173	-1025
1035.238	-2483
1035.302	-2703
1035.366	-1887
1035.430	-1995
1035.495	-2150
1035.559	-786
1035.623	-1879
1035.687	-2496
1035.751	-1965
1035.815	-2461
1035.879	-1461
1035.943	-1423
1036.007	-1424
1036.071	-2881
1036.135	-1610
1036.198	-1618
1036.262	-1701
1036.326	-1570
1036.390	-993
1036.454	-1845
1036.517	-1659
1036.581	-2534
1036.645	-893
1036.709	-1708
1036.772	-2096
1036.836	-2047
1036.900	-1177
1036.963	-2322
1037.026	-2058
1037.090	-1549
1037.154	-1725
1037.217	-2453
1037.280	-2333
1037.344	-1137
1037.407	-2127
1037.471	-1857
1037.534	-1999
1037.597	-1397
1037.661	-1836
1037.724	-1995
1037.787	-1971
1037.850	-1875
1037.913	-1855
1037.977	-1222
1038.040	-1406
1038.103	-1934
1038.166	-1840
1038.229	-1355
1038.292	-2551
1038.355	-2691
1038.418	-1937
1038.481	-1653
1038.544	-1893
1038.607	-1306
1038.670	-1462
1038.732	-2363
1038.795	-1654
1038.858	-1937
1038.921	-1880
1038.984	-1225
1039.046	-2083
1039.109	-1891
1039.172	-2164
1039.234	-1826
1039.297	-1730
1039.360	-2330
1039.422	-2047
1039.485	-1158
1039.547	-2038
1039.610	-1866
1039.672	-1367
1039.734	-1092
1039.797	-1984
1039.859	-2109
1039.922	-1396
1039.984	-1978
1040.046	-2083
1040.109	-2035
1040.171	-1770
1040.233	-1416
1040.295	-2103
1040.358	-1730
1040.420	-2210
1040.482	-2148
1040.544	-2833
1040.606	-2380
1040.668	-1489
1040.730	-1939
1040.792	-2953
1040.854	-1803
1040.916	-1858
1040.978	-1408
1041.040	-2015
1041.102	-1675
1041.164	-1532
1041.225	-2171
1041.287	-1296
1041.349	-2295
1041.411	-1394
1041.472	-1912
1041.534	-1652
1041.596	-2238
1041.657	-1462
1041.719	-1741
1041.781	-1692
1041.842	-2036
1041.904	-1779
1041.965	-2157
1042.027	-1849
1042.088	-1243
1042.150	-1431
1042.211	-2041
1042.272	-1133
1042.334	-1772
1042.395	-2018
1042.456	-2316
1042.518	-1804
1042.579	-1851
1042.640	-1037
1042.701	-2568
1042.763	-1617
1042.824	-1449
1042.885	-1819
1042.946	-2115
1043.007	-2352
1043.068	-1612
1043.129	-2366
1043.190	-2747
1043.251	-1406
1043.312	-2124
1043.373	-1103
1043.434	-1609
1043.495	-2020
1043.556	-2005
1043.616	-1502
1043.677	-1770
1043.738	-1913
1043.799	-1960
1043.859	-2350
1043.920	-2454
1043.981	-1891
1044.041	-2089
1044.102	-1754
1044.162	-1739
1044.223	-2597
1044.284	-2273
1044.344	-1213
1044.405	-2632
1044.465	-1587
1044.525	-1868
1044.586	-1242
1044.646	-1821
1044.707	-1496
1044.767	-1166
1044.827	-2518
1044.887	-2191
1044.948	-1629
1045.008	-1583
1045.068	-1680
1045.128	-1209
1045.188	-1344
1045.249	-1644
1045.309	-1515
1045.369	-1588
1045.429	-1296
1045.489	-1979
1045.549	-1658
1045.609	-1596
1045.669	-1386
1045.729	-1994
1045.789	-1136
1045.848	-1590
1045.908	-394
1045.968	-1321
1046.028	-2096
1046.088	-1567
1046.147	-277
1046.207	-1456
1046.267	-1125
1046.326	-1428
1046.386	-465
1046.446	-1089
1046.505	-765
1046.565	-689
1046.624	-620
1046.684	-471
1046.743	-732
1046.803	-949
1046.862	326
1046.922	0
