'Start Wavelength	183.907
'End Wavelength	1046.922
'Gate Delay	5.000
'Gate Width (ms)	1.050
'Laser Output Level	0.000
'X Position	0.000
'Y Position	0.000
'Z Position	0.000
'Grid Point Number	1.000
'Shot Number	100.000
183.907	1040.000
183.977	-122.000
184.047	197
184.116	862
184.186	0
184.256	91
184.325	403
184.395	-302
184.465	848
184.534	455
184.604	-566
184.674	626
184.743	263
184.813	1343
184.883	269
184.952	675
185.022	477
185.092	1168
185.161	176
185.231	813
185.301	151
185.370	1262
185.440	449
185.509	-84
185.579	423
185.649	874
185.718	986
185.788	666
185.857	-641
185.927	628
185.996	13
186.066	-72
186.136	-378
186.205	1064
186.275	474
186.344	793
186.414	217
186.483	-40
186.553	1228
186.622	1437
186.692	215
186.761	510
186.831	827
186.900	650
186.970	726
187.039	1013
187.109	1345
187.178	1819
187.248	938
187.317	391
187.387	401
187.456	694
187.526	53
187.595	1719
187.664	-208
187.734	1295
187.803	720
187.873	1041
187.942	1145
188.012	1028
188.081	213
188.150	754
188.220	729
188.289	922
188.358	824
188.428	749
188.497	-496
188.567	1060
188.636	-247
188.705	1029
188.775	951
188.844	448
188.913	858
188.983	656
189.052	408
189.121	382
189.191	44
189.260	1932
189.329	675
189.399	859
189.468	756
189.537	248
189.606	370
189.676	1247
189.745	1077
189.814	1561
189.883	-24
189.953	672
190.022	1652
190.091	2878
190.161	3038
190.230	1857
190.299	169
190.368	33
190.437	355
190.507	1575
190.576	-28
190.645	530
190.714	400
190.783	680
190.853	1097
190.922	1317
190.991	452
191.060	609
191.129	-375
191.198	963
191.268	1037
191.337	803
191.406	1195
191.475	877
191.544	-9
191.613	1328
191.682	-204
191.752	933
191.821	465
191.890	841
191.959	780
192.028	1428
192.097	363
192.166	1473
192.235	-25
192.304	1202
192.373	377
192.442	933
192.511	104
192.580	718
192.650	182
192.719	763
192.788	324
192.857	1090
192.926	612
192.995	478
193.064	1460
193.133	1359
193.202	1085
193.271	1776
193.340	1507
193.409	1815
193.478	1597
193.547	2073
193.615	2062
193.684	3149
193.753	1807
193.822	1943
193.891	118
193.960	1502
194.029	340
194.098	929
194.167	355
194.236	929
194.305	412
194.374	1428
194.443	81
194.512	1120
194.580	1160
194.649	1341
194.718	1171
194.787	938
194.856	470
194.925	1358
194.994	743
195.062	1134
195.131	625
195.200	1772
195.269	836
195.338	1285
195.407	1211
195.475	1361
195.544	1219
195.613	1215
195.682	311
195.751	1263
195.819	1545
195.888	1603
195.957	1346
196.026	1350
196.094	1476
196.163	2186
196.232	1149
196.301	1720
196.369	1845
196.438	1383
196.507	1245
196.576	932
196.644	783
196.713	685
196.782	744
196.850	1724
196.919	427
196.988	1615
197.056	370
197.125	444
197.194	810
197.262	1202
197.331	1164
197.400	940
197.468	1483
197.537	1247
197.606	1297
197.674	1372
197.743	3967
197.812	1360
197.880	3395
197.949	3080
198.017	2599
198.086	2079
198.155	1532
198.223	2634
198.292	5320
198.360	2789
198.429	1480
198.497	1963
198.566	2496
198.635	4845
198.703	2177
198.772	1714
198.840	3978
198.909	5564
198.977	2339
199.046	1893
199.114	563
199.183	1493
199.251	810
199.320	807
199.388	1365
199.457	823
199.525	915
199.594	1622
199.662	1610
199.731	1757
199.799	473
199.867	1545
199.936	714
200.004	793
200.073	1803
200.141	1173
200.210	1216
200.278	1270
200.346	793
200.415	2385
200.483	1689
200.552	1159
200.620	1239
200.688	1348
200.757	865
200.825	786
200.893	1124
200.962	1659
201.030	1286
201.098	1557
201.167	1657
201.235	1216
201.303	1145
201.372	1221
201.440	1417
201.508	1660
201.577	1348
201.645	1329
201.713	109
201.781	1555
201.850	1342
201.918	1859
201.986	1021
202.055	2142
202.123	1318
202.191	1267
202.259	676
202.327	2159
202.396	1444
202.464	1296
202.532	1132
202.600	3689
202.669	1832
202.737	2034
202.805	246
202.873	634
202.941	1107
203.009	1609
203.078	1107
203.146	1588
203.214	1267
203.282	1485
203.350	1299
203.418	1050
203.487	1364
203.555	1650
203.623	1965
203.691	1486
203.759	1344
203.827	1037
203.895	1727
203.963	1572
204.031	1165
204.099	979
204.168	1394
204.236	2338
204.304	1405
204.372	1778
204.440	1023
204.508	1021
204.576	427
204.644	1371
204.712	556
204.780	2404
204.848	1883
204.916	1665
204.984	911
205.052	1711
205.120	1707
205.188	1880
205.256	964
205.324	1772
205.392	1221
205.460	2534
205.528	1450
205.596	2276
205.664	1440
205.732	1921
205.799	4552
205.867	9024
205.935	1735
206.003	3248
206.071	1585
206.139	1984
206.207	2231
206.275	1983
206.343	1346
206.411	2455
206.478	1219
206.546	2600
206.614	1618
206.682	915
206.750	1611
206.818	1997
206.885	2079
206.953	1144
207.021	1652
207.089	2209
207.157	508
207.225	2735
207.292	1172
207.360	1622
207.428	1934
207.496	1490
207.563	1249
207.631	2495
207.699	1623
207.767	986
207.834	1474
207.902	2034
207.970	934
208.038	2948
208.105	1549
208.173	2430
208.241	3297
208.309	3185
208.376	2124
208.444	4791
208.512	2779
208.579	1414
208.647	2510
208.715	2911
208.782	2177
208.850	2394
208.918	1149
208.985	2094
209.053	1849
209.120	1873
209.188	1345
209.256	2147
209.323	1425
209.391	2945
209.459	3112
209.526	2634
209.594	1829
209.661	2464
209.729	2247
209.796	3060
209.864	2602
209.932	408
209.999	3004
210.067	3360
210.134	1365
210.202	2600
210.269	3373
210.337	2740
210.404	2122
210.472	2377
210.539	2259
210.607	1878
210.674	2489
210.742	3218
210.809	2370
210.877	2622
210.944	2919
211.012	1979
211.079	2786
211.146	3080
211.214	2303
211.281	2689
211.349	2916
211.416	2965
211.484	3384
211.551	2514
211.618	2153
211.686	3032
211.753	1825
211.821	3783
211.888	1800
211.955	2436
212.023	2949
212.090	3192
212.157	3102
212.225	3787
212.292	6178
212.359	9847
212.427	20613
212.494	12045
212.561	4742
212.629	3785
212.696	3530
212.763	4179
212.831	2394
212.898	3792
212.965	2939
213.032	2834
213.100	3236
213.167	3344
213.234	3055
213.301	3108
213.369	2722
213.436	2969
213.503	2314
213.570	3866
213.638	3252
213.705	2902
213.772	2082
213.839	3717
213.906	3882
213.973	3193
214.041	1747
214.108	3580
214.175	2717
214.242	3365
214.309	2803
214.376	3520
214.444	2658
214.511	3890
214.578	3034
214.645	4003
214.712	3787
214.779	3684
214.846	2992
214.913	4792
214.980	4048
215.048	4424
215.115	4253
215.182	3760
215.249	3300
215.316	3167
215.383	2674
215.450	3293
215.517	3268
215.584	3316
215.651	2846
215.718	3456
215.785	3463
215.852	3657
215.919	3157
215.986	3887
216.053	3292
216.120	2405
216.187	3863
216.254	4480
216.321	2845
216.388	3509
216.455	4214
216.522	4138
216.589	4163
216.656	5652
216.722	6238
216.789	4902
216.856	4832
216.923	4099
216.990	4321
217.057	4542
217.124	4269
217.191	4480
217.258	5319
217.324	6179
217.391	5443
217.458	4882
217.525	3943
217.592	3842
217.659	3346
217.725	5066
217.792	4592
217.859	5552
217.926	3544
217.993	3479
218.059	3422
218.126	2982
218.193	2344
218.260	2481
218.327	2834
218.393	3471
218.460	3207
218.527	3624
218.594	2984
218.660	5379
218.727	5979
218.794	3640
218.860	2891
218.927	2741
218.994	3454
219.061	3235
219.127	3064
219.194	4751
219.261	3568
219.327	2966
219.394	3332
219.461	1309
219.527	2732
219.594	4718
219.661	3695
219.727	2449
219.794	3302
219.860	1999
219.927	3480
219.994	4602
220.060	6419
220.127	5786
220.193	4983
220.260	4110
220.326	6244
220.393	7648
220.460	7402
220.526	6092
220.593	4833
220.659	6919
220.726	5789
220.792	12808
220.859	11089
220.925	10711
220.992	13268
221.058	14862
221.125	15786
221.191	12059
221.258	6366
221.324	4966
221.391	5011
221.457	4162
221.524	3970
221.590	5584
221.657	14775
221.723	12623
221.789	9730
221.856	9915
221.922	5416
221.989	4888
222.055	4283
222.121	3723
222.188	5197
222.254	5285
222.321	4046
222.387	3400
222.453	3462
222.520	3837
222.586	2805
222.652	4199
222.719	2560
222.785	4040
222.851	3156
222.918	3526
222.984	2626
223.050	3929
223.116	2107
223.183	4781
223.249	2592
223.315	2406
223.382	3025
223.448	3274
223.514	2064
223.580	2321
223.647	2269
223.713	3256
223.779	2695
223.845	3113
223.911	3407
223.978	2697
224.044	3437
224.110	2707
224.176	3143
224.242	3205
224.309	1767
224.375	3032
224.441	2908
224.507	2727
224.573	1437
224.639	3123
224.705	2179
224.772	2259
224.838	2308
224.904	3782
224.970	2270
225.036	2426
225.102	1513
225.168	3218
225.234	2116
225.300	1992
225.366	3087
225.432	3060
225.499	2460
225.565	2592
225.631	2872
225.697	4698
225.763	4078
225.829	4461
225.895	4643
225.961	7258
226.027	6225
226.093	5465
226.159	7254
226.225	8144
226.291	15057
226.357	22611
226.423	14065
226.489	9078
226.554	6263
226.620	6622
226.686	7668
226.752	11321
226.818	15297
226.884	30490
226.950	26194
227.016	13377
227.082	8404
227.148	6790
227.214	6522
227.279	6401
227.345	5215
227.411	5708
227.477	5244
227.543	7608
227.609	8812
227.674	6971
227.740	4758
227.806	4525
227.872	4053
227.938	3913
228.003	6142
228.069	4263
228.135	3242
228.201	3756
228.267	2635
228.332	3948
228.398	3611
228.464	4174
228.530	2420
228.595	3438
228.661	1905
228.727	4761
228.792	4189
228.858	3390
228.924	2567
228.990	5241
229.055	2892
229.121	4819
229.187	3124
229.252	3871
229.318	2546
229.384	4183
229.449	3923
229.515	2138
229.581	977
229.646	5146
229.712	3622
229.777	5778
229.843	6729
229.909	7013
229.974	6862
230.040	7263
230.105	5325
230.171	5439
230.236	7421
230.302	11105
230.368	7858
230.433	5542
230.499	5822
230.564	6858
230.630	4807
230.695	4541
230.761	4669
230.826	3617
230.892	6488
230.957	4490
231.023	3480
231.088	4631
231.154	3372
231.219	3999
231.284	4959
231.350	6041
231.415	3610
231.481	4382
231.546	3162
231.612	3675
231.677	2284
231.742	1974
231.808	4653
231.873	3591
231.939	2135
232.004	6384
232.069	6045
232.135	3369
232.200	3209
232.265	4522
232.331	2941
232.396	3395
232.461	2837
232.527	3095
232.592	2552
232.657	3795
232.723	3712
232.788	3645
232.853	3705
232.918	3401
232.984	2389
233.049	2873
233.114	2968
233.179	4564
233.245	5392
233.310	5883
233.375	3001
233.440	4075
233.506	2740
233.571	2618
233.636	2807
233.701	3321
233.766	3688
233.832	4884
233.897	3111
233.962	2600
234.027	4915
234.092	3896
234.157	3409
234.222	3731
234.288	4780
234.353	11147
234.418	9138
234.483	7946
234.548	6049
234.613	6185
234.678	5387
234.743	5681
234.808	11057
234.873	7755
234.938	5301
235.004	4777
235.069	3956
235.134	4421
235.199	4974
235.264	4475
235.329	3000
235.394	5052
235.459	4907
235.524	3991
235.589	4855
235.654	4580
235.719	3126
235.784	5114
235.849	4571
235.913	7286
235.978	6020
236.043	6645
236.108	5033
236.173	3826
236.238	5254
236.303	3976
236.368	3620
236.433	6658
236.498	7703
236.563	8880
236.627	13231
236.692	39563
236.757	36257
236.822	15276
236.887	10508
236.952	10019
237.017	7583
237.081	9833
237.146	10211
237.211	20361
237.276	38111
237.341	61966
237.405	32094
237.470	14854
237.535	10241
237.600	8260
237.664	6597
237.729	6421
237.794	7084
237.859	12504
237.923	8701
237.988	6152
238.053	6925
238.118	7512
238.182	14623
238.247	15111
238.312	5905
238.376	6164
238.441	4007
238.506	6487
238.570	3198
238.635	5108
238.700	3888
238.764	3675
238.829	6877
238.893	8815
238.958	6771
239.023	6220
239.087	4557
239.152	4998
239.216	3760
239.281	5621
239.346	4022
239.410	5210
239.475	4907
239.539	14455
239.604	10685
239.668	6196
239.733	4607
239.797	5721
239.862	11458
239.926	12668
239.991	6308
240.055	4589
240.120	3315
240.184	4777
240.249	2843
240.313	3805
240.378	4112
240.442	7851
240.507	12014
240.571	6555
240.635	6018
240.700	7686
240.764	3620
240.829	4494
240.893	2102
240.957	3661
241.022	7471
241.086	11713
241.151	5536
241.215	3984
241.279	5196
241.344	7009
241.408	5929
241.472	5879
241.537	6143
241.601	6643
241.665	4006
241.730	5152
241.794	6421
241.858	6204
241.922	5513
241.987	6015
242.051	4779
242.115	6014
242.179	5555
242.244	4776
242.308	5692
242.372	6777
242.436	6409
242.501	5855
242.565	4667
242.629	3969
242.693	5227
242.757	3999
242.822	4923
242.886	5525
242.950	6312
243.014	5354
243.078	5421
243.142	5695
243.206	4578
243.271	6864
243.335	6833
243.399	11398
243.463	29581
243.527	73111
243.591	27466
243.655	10761
243.719	6826
243.783	7990
243.847	11063
243.911	15461
243.975	12112
244.040	9140
244.104	7476
244.168	5770
244.232	6628
244.296	10568
244.360	13393
244.424	6807
244.488	4642
244.552	4883
244.615	2952
244.679	4379
244.743	5546
244.807	5940
244.871	4393
244.935	4018
244.999	3106
245.063	4690
245.127	5569
245.191	9406
245.255	8478
245.319	6273
245.383	5348
245.446	5661
245.510	3733
245.574	4288
245.638	5390
245.702	3648
245.766	10453
245.829	7369
245.893	4714
245.957	5228
246.021	5351
246.085	6149
246.149	5971
246.212	14280
246.276	21238
246.340	10024
246.404	8124
246.467	7315
246.531	10331
246.595	8396
246.659	6138
246.722	5236
246.786	6956
246.850	7881
246.913	9496
246.977	4876
247.041	5171
247.104	6513
247.168	6851
247.232	12319
247.295	27560
247.359	14303
247.423	7026
247.486	11745
247.550	8245
247.614	5415
247.677	7465
247.741	6013
247.804	5010
247.868	7127
247.932	10511
247.995	25736
248.059	9899
248.122	6857
248.186	8478
248.249	12135
248.313	40886
248.376	43706
248.440	29200
248.503	10925
248.567	10645
248.630	12928
248.694	17211
248.757	22362
248.821	46831
248.884	29201
248.948	24094
249.011	34453
249.075	51196
249.138	46152
249.202	18291
249.265	11424
249.328	13662
249.392	10608
249.455	9402
249.519	10006
249.582	9360
249.645	15080
249.709	11823
249.772	9468
249.835	8133
249.899	9449
249.962	9147
250.025	8446
250.089	17262
250.152	24113
250.215	11615
250.279	9852
250.342	10072
250.405	10818
250.468	10603
250.532	14140
250.595	22250
250.658	66400
250.721	111754
250.785	44579
250.848	22998
250.911	14206
250.974	13086
251.038	16686
251.101	31181
251.164	17778
251.227	18089
251.290	20402
251.354	28481
251.417	92767
251.480	101227
251.543	75404
251.606	156109
251.669	133384
251.732	59857
251.795	49899
251.859	49553
251.922	104686
251.985	71106
252.048	30017
252.111	21370
252.174	19149
252.237	28024
252.300	58646
252.363	65735
252.426	128384
252.489	62031
252.552	29870
252.615	20097
252.678	21827
252.741	45271
252.804	66372
252.867	134047
252.930	82679
252.993	43136
253.056	25617
253.119	17925
253.182	15490
253.245	26119
253.308	21315
253.371	14019
253.434	13442
253.497	12886
253.559	25323
253.622	17061
253.685	17124
253.748	17264
253.811	9856
253.874	11631
253.937	11837
254.000	9227
254.062	15540
254.125	26459
254.188	23921
254.251	19678
254.314	9010
254.376	15008
254.439	17102
254.502	13756
254.565	15962
254.628	29630
254.690	15656
254.753	8707
254.816	8335
254.878	8653
254.941	17418
255.004	18959
255.067	8618
255.129	7273
255.192	6339
255.255	3409
255.317	6443
255.380	4881
255.443	4285
255.505	4070
255.568	4094
255.631	4956
255.693	4821
255.756	3767
255.819	5202
255.881	4014
255.944	4190
256.006	4212
256.069	4262
256.132	4225
256.194	4787
256.257	9435
256.319	8347
256.382	6844
256.444	7467
256.507	5893
256.569	6362
256.632	6835
256.694	9670
256.757	21704
256.819	64810
256.882	30589
256.944	13295
257.007	9333
257.069	9373
257.132	7821
257.194	6896
257.257	6959
257.319	7643
257.381	8820
257.444	16944
257.506	69459
257.569	82151
257.631	37053
257.693	20794
257.756	11117
257.818	8732
257.880	6040
257.943	6584
258.005	5594
258.067	5953
258.130	5894
258.192	6881
258.254	10349
258.317	7095
258.379	5921
258.441	15422
258.503	15580
258.566	13949
258.628	18080
258.690	6416
258.753	7196
258.815	11607
258.877	7614
258.939	7097
259.001	7213
259.064	6721
259.126	6496
259.188	8407
259.250	7326
259.312	8035
259.375	15612
259.437	11597
259.499	6816
259.561	6493
259.623	6958
259.685	8117
259.747	6628
259.809	13525
259.872	23597
259.934	37056
259.996	39972
260.058	14364
260.120	6639
260.182	5977
260.244	5058
260.306	5603
260.368	6266
260.430	6235
260.492	12475
260.554	23304
260.616	12851
260.678	20407
260.740	26233
260.802	8385
260.864	7145
260.926	5523
260.988	6593
261.050	6729
261.112	17585
261.174	35821
261.236	22636
261.298	9022
261.359	10899
261.421	16313
261.483	5625
261.545	6953
261.607	3392
261.669	6150
261.731	7741
261.793	16499
261.854	9056
261.916	7730
261.978	6948
262.040	8052
262.102	5329
262.164	6826
262.225	6358
262.287	5212
262.349	11638
262.411	10864
262.472	5212
262.534	7080
262.596	14187
262.658	6311
262.719	3982
262.781	6537
262.843	12821
262.904	9514
262.966	7227
263.028	9909
263.090	34976
263.151	101765
263.213	36266
263.275	18861
263.336	8505
263.398	6484
263.459	4659
263.521	5456
263.583	10844
263.644	9501
263.706	4106
263.767	3576
263.829	4084
263.891	3732
263.952	2833
264.014	4297
264.075	8492
264.137	23826
264.198	9962
264.260	4606
264.321	4742
264.383	11366
264.444	33608
264.506	12174
264.567	6507
264.629	13513
264.690	30860
264.752	11706
264.813	6766
264.875	5149
264.936	6338
264.998	5004
265.059	4130
265.120	5456
265.182	6831
265.243	29518
265.305	34821
265.366	9621
265.427	5652
265.489	5361
265.550	4037
265.611	4050
265.673	5084
265.734	5340
265.795	4152
265.857	4172
265.918	4763
265.979	10063
266.040	50484
266.102	49145
266.163	13321
266.224	11667
266.286	6468
266.347	4158
266.408	4323
266.469	5238
266.530	3793
266.592	4678
266.653	6237
266.714	11752
266.775	4530
266.836	3808
266.898	2372
266.959	8632
267.020	5723
267.081	5107
267.142	3804
267.203	4208
267.264	2669
267.326	5039
267.387	2974
267.448	3486
267.509	4000
267.570	3821
267.631	3689
267.692	2815
267.753	4466
267.814	4808
267.875	6667
267.936	17123
267.997	13445
268.058	11581
268.119	5620
268.180	5219
268.241	3080
268.302	4204
268.363	3157
268.424	3693
268.485	4220
268.546	3625
268.607	3424
268.668	4003
268.729	3478
268.790	3679
268.851	3693
268.912	11377
268.972	12107
269.033	6571
269.094	3581
269.155	3069
269.216	3304
269.277	4333
269.338	3439
269.398	4126
269.459	4443
269.520	6254
269.581	6867
269.642	8354
269.702	5662
269.763	5317
269.824	3900
269.885	5754
269.945	8499
270.006	4567
270.067	3457
270.128	3781
270.188	3326
270.249	2867
270.310	3296
270.370	4184
270.431	3440
270.492	3414
270.553	4217
270.613	7266
270.674	14674
270.734	7448
270.795	4330
270.856	5713
270.916	4823
270.977	4541
271.038	4724
271.098	4254
271.159	7090
271.219	7820
271.280	4188
271.340	3619
271.401	3933
271.462	8050
271.522	5817
271.583	4478
271.643	3969
271.704	4586
271.764	5759
271.825	10540
271.885	36931
271.946	54452
272.006	17608
272.066	21811
272.127	41020
272.187	14211
272.248	8227
272.308	8343
272.369	27835
272.429	16943
272.489	10983
272.550	12956
272.610	11374
272.671	8795
272.731	8057
272.791	11020
272.852	6984
272.912	6767
272.972	4851
273.033	4491
273.093	6455
273.153	8395
273.214	6115
273.274	6961
273.334	21822
273.394	43372
273.455	14974
273.515	15069
273.575	34684
273.635	14775
273.696	15650
273.756	37138
273.816	15464
273.876	8643
273.936	13019
273.997	25000
274.057	7819
274.117	7258
274.177	8969
274.237	46530
274.297	40179
274.358	20547
274.418	28738
274.478	23520
274.538	8864
274.598	6424
274.658	16869
274.718	22151
274.778	10435
274.838	6655
274.898	11564
274.958	29893
275.018	35281
275.078	24828
275.138	9929
275.198	5563
275.258	4225
275.318	5160
275.378	9478
275.438	11589
275.498	8177
275.558	15065
275.618	32643
275.678	26932
275.738	16086
275.798	14133
275.858	9503
275.918	5182
275.978	5325
276.038	6581
276.098	3797
276.157	7814
276.217	23877
276.277	11578
276.337	8242
276.397	5168
276.457	5650
276.517	5080
276.576	3669
276.636	3231
276.696	5777
276.756	14008
276.815	10951
276.875	4855
276.935	5216
276.995	5037
277.055	4611
277.114	4080
277.174	5967
277.234	20228
277.293	9500
277.353	5632
277.413	4169
277.472	4527
277.532	4266
277.592	5193
277.651	11868
277.711	23689
277.771	8030
277.830	28104
277.890	23667
277.950	16021
278.009	49197
278.069	19973
278.128	16110
278.188	23158
278.248	11064
278.307	24066
278.367	16506
278.426	6862
278.486	5098
278.545	5079
278.605	3974
278.664	4845
278.724	4225
278.783	13753
278.843	38482
278.902	12558
278.962	6835
279.021	6701
279.081	7603
279.140	7592
279.199	7440
279.259	8879
279.318	9099
279.378	11214
279.437	16331
279.496	56861
279.556	133083
279.615	101814
279.675	27282
279.734	17332
279.793	23974
279.853	49003
279.912	19512
279.971	11533
280.031	10082
280.090	20087
280.149	38677
280.208	21399
280.268	88534
280.327	91951
280.386	21033
280.445	17785
280.505	17063
280.564	9674
280.623	8775
280.682	11288
280.742	18548
280.801	6912
280.860	5171
280.919	5587
280.978	4563
281.037	5085
281.097	3864
281.156	5655
281.215	4090
281.274	5461
281.333	23061
281.392	20721
281.451	5882
281.510	5279
281.569	3913
281.628	3156
281.688	3374
281.747	4997
281.806	5086
281.865	4547
281.924	3520
281.983	3517
282.042	2026
282.101	2667
282.160	2897
282.219	3357
282.278	3521
282.337	12318
282.396	8953
282.454	4216
282.513	4571
282.572	18049
282.631	11528
282.690	4841
282.749	3585
282.808	4760
282.867	4986
282.926	4768
282.985	3299
283.043	3262
283.102	2814
283.161	4671
283.220	9427
283.279	23671
283.338	9011
283.396	4489
283.455	4026
283.514	4715
283.573	7264
283.631	5813
283.690	3642
283.749	4129
283.808	7663
283.866	9946
283.925	3528
283.984	4306
284.043	5418
284.101	6408
284.160	4219
284.219	6681
284.277	5067
284.336	8148
284.395	24674
284.453	22370
284.512	7309
284.570	10451
284.629	8620
284.688	6934
284.746	7099
284.805	8534
284.863	9865
284.922	13201
284.981	15193
285.039	22755
285.098	36244
285.156	85650
285.215	204603
285.273	210883
285.332	112394
285.390	53936
285.449	30715
285.507	21303
285.566	15497
285.624	12099
285.683	9439
285.741	8817
285.799	7601
285.858	6851
285.916	6340
285.975	5619
286.033	4552
286.091	5744
286.150	4213
286.208	4300
286.267	5633
286.325	6286
286.383	7081
286.442	7301
286.500	4228
286.558	4221
286.616	3944
286.675	4841
286.733	4574
286.791	4729
286.850	4959
286.908	5884
286.966	10788
287.024	6360
287.083	4806
287.141	3654
287.199	3147
287.257	5962
287.315	4195
287.374	5228
287.432	12486
287.490	10210
287.548	5971
287.606	5165
287.664	5305
287.723	6608
287.781	10166
287.839	8470
287.897	10217
287.955	14275
288.013	20617
288.071	39611
288.129	131382
288.187	314618
288.245	173829
288.303	61839
288.361	33532
288.419	23644
288.477	15899
288.535	12740
288.593	9515
288.651	7531
288.709	6928
288.767	6141
288.825	4743
288.883	5573
288.941	4699
288.999	4541
289.057	3855
289.115	3749
289.173	3881
289.231	4387
289.289	3521
289.346	4276
289.404	4145
289.462	6835
289.520	7104
289.578	4591
289.636	2774
289.694	3897
289.751	3184
289.809	3008
289.867	3581
289.925	4800
289.983	5300
290.040	3844
290.098	2100
290.156	4483
290.214	3910
290.271	3848
290.329	2984
290.387	3270
290.444	2604
290.502	2470
290.560	3324
290.617	3457
290.675	2904
290.733	3300
290.790	3252
290.848	3232
290.906	3095
290.963	3365
291.021	2919
291.078	3536
291.136	2718
291.194	13914
291.251	31476
291.309	9317
291.366	3860
291.424	3235
291.481	2932
291.539	2920
291.596	2475
291.654	2624
291.711	2112
291.769	3442
291.826	5816
291.884	4503
291.941	2484
291.999	3618
292.056	3071
292.114	3176
292.171	2557
292.228	3637
292.286	3383
292.343	6441
292.401	7761
292.458	4459
292.515	3366
292.573	4811
292.630	4120
292.687	5015
292.745	2607
292.802	6256
292.859	17744
292.917	24868
292.974	14518
293.031	5327
293.089	3174
293.146	3627
293.203	2026
293.260	2458
293.318	4598
293.375	10084
293.432	5357
293.489	4896
293.546	3493
293.604	5298
293.661	13334
293.718	43392
293.775	22971
293.832	9926
293.889	6511
293.947	7725
294.004	5202
294.061	6340
294.118	11245
294.175	26339
294.232	41036
294.289	16363
294.346	7974
294.403	7439
294.460	5677
294.517	5044
294.574	5051
294.631	5390
294.688	6083
294.745	12544
294.802	49391
294.859	63373
294.916	22470
294.973	11723
295.030	7843
295.087	7722
295.144	4371
295.201	5200
295.258	4510
295.315	5831
295.372	16064
295.429	34563
295.486	16394
295.542	10502
295.599	26607
295.656	50465
295.713	30378
295.770	34096
295.827	13400
295.883	7861
295.940	6307
295.997	9385
296.054	8407
296.111	5996
296.167	4824
296.224	3936
296.281	3298
296.338	3968
296.394	4726
296.451	5333
296.508	14390
296.564	30016
296.621	19074
296.678	35133
296.734	55679
296.791	21872
296.848	10168
296.904	9929
296.961	20026
297.018	36265
297.074	30607
297.131	12927
297.187	8925
297.244	10835
297.301	34296
297.357	67425
297.414	22397
297.470	9835
297.527	7088
297.583	5526
297.640	5506
297.696	5197
297.753	4166
297.809	3976
297.866	3335
297.922	3375
297.979	3533
298.035	4424
298.092	6585
298.148	22032
298.204	20328
298.261	9637
298.317	17268
298.374	46105
298.430	26818
298.486	11426
298.543	8103
298.599	7752
298.656	9736
298.712	15011
298.768	44279
298.824	35597
298.881	11691
298.937	8543
298.993	6664
299.050	6122
299.106	5978
299.162	5861
299.218	5993
299.275	5973
299.331	5246
299.387	9773
299.443	37606
299.500	41300
299.556	15534
299.612	8375
299.668	7329
299.724	10070
299.780	9828
299.837	6442
299.893	8908
299.949	30814
300.005	37195
300.061	29293
300.117	56954
300.173	27494
300.229	11411
300.285	12257
300.341	14165
300.397	8243
300.453	5337
300.510	6157
300.566	5631
300.622	7136
300.678	16659
300.734	32178
300.790	29827
300.845	39445
300.901	21475
300.957	30208
301.013	23881
301.069	9367
301.125	7022
301.181	7100
301.237	5161
301.293	4111
301.349	4144
301.405	4633
301.461	4140
301.516	7235
301.572	6153
301.628	9058
301.684	8698
301.740	13490
301.796	22688
301.851	15781
301.907	23954
301.963	23451
302.019	35507
302.074	104792
302.130	103347
302.186	45701
302.242	18614
302.297	13492
302.353	11330
302.409	22369
302.464	19866
302.520	14809
302.576	35246
302.631	42626
302.687	22649
302.743	11373
302.798	6748
302.854	6006
302.910	5409
302.965	6427
303.021	11004
303.076	11285
303.132	12370
303.187	13963
303.243	9044
303.299	5564
303.354	3678
303.410	6160
303.465	3764
303.521	4483
303.576	4007
303.632	6421
303.687	10224
303.743	34115
303.798	29159
303.853	12192
303.909	6866
303.964	6031
304.020	8126
304.075	11889
304.130	9668
304.186	18217
304.241	18644
304.297	16054
304.352	8079
304.358	7855
304.407	6036
304.449	5991
304.463	5978
304.518	6913
304.539	6389
304.573	5560
304.629	6222
304.630	6270
304.684	8950
304.720	20011
304.739	25373
304.794	39841
304.811	33761
304.850	19250
304.902	9813
304.905	9225
304.960	6212
304.992	6201
305.015	6215
305.071	5641
305.083	5350
305.126	4215
305.173	3803
305.181	3766
305.236	3258
305.264	4020
305.292	4771
305.347	5632
305.354	5713
305.402	6291
305.445	5938
305.457	5780
305.512	8078
305.535	7886
305.567	7865
305.622	8710
305.626	8929
305.678	15906
305.716	31964
305.733	36933
305.788	40866
305.807	34897
305.843	26276
305.897	35729
305.898	35794
305.953	35993
305.988	23212
306.008	16700
306.063	11286
306.078	10109
306.118	7573
306.168	5775
306.173	5624
306.228	4826
306.259	4639
306.283	4638
306.338	4218
306.349	4508
306.393	5832
306.440	6782
306.448	6922
306.503	7206
306.530	7149
306.558	9657
306.613	21969
306.620	23449
306.668	29971
306.711	37093
306.723	37312
306.778	27607
306.801	20498
306.833	13733
306.888	7767
306.892	7539
306.943	5964
306.982	5757
306.997	5821
307.052	6271
307.072	6319
307.107	7639
307.162	10655
307.163	10695
307.217	16124
307.253	19620
307.272	19705
307.327	19353
307.343	17565
307.381	14579
307.434	12391
307.436	12829
307.491	27465
307.524	39854
307.546	40542
307.600	33783
307.614	29242
307.655	18657
307.704	11424
307.710	11572
307.765	15424
307.795	19956
307.819	23705
307.874	36768
307.885	37266
307.929	29377
307.975	19983
307.984	20503
308.038	28642
308.065	34708
308.093	64468
308.148	135343
308.156	150567
308.202	213647
308.246	252789
308.257	243882
308.312	129288
308.336	85454
308.366	63837
308.421	39046
308.426	36823
308.475	24817
308.517	17995
308.530	16901
308.585	14414
308.607	13760
308.639	14502
308.694	16857
308.697	17065
308.748	34948
308.787	52700
308.803	50754
308.857	33771
308.877	26707
308.912	23449
308.967	22171
308.967	22162
309.021	29579
309.058	35395
309.076	46250
309.130	83457
309.148	97454
309.185	184890
309.238	332298
309.239	332944
309.293	328678
309.328	289458
309.348	248132
309.402	117498
309.418	84485
309.457	59079
309.508	35549
309.511	34932
309.566	28234
309.598	25334
309.620	25933
309.674	29167
309.688	30245
309.729	28767
309.778	25161
309.783	24819
309.837	19969
309.868	18051
309.892	24067
309.946	39377
309.959	44066
310.001	55200
310.049	64243
310.055	61926
310.109	35071
310.139	20040
310.163	16136
310.218	10913
310.229	9972
310.272	9088
310.319	8697
310.326	8625
310.381	8371
310.409	8221
310.435	8216
310.489	7926
310.499	7940
310.543	9264
310.589	10424
310.598	10358
310.652	10203
310.679	9969
310.706	8925
310.760	6585
310.769	6202
310.814	5609
310.859	5305
310.868	5405
310.923	5796
310.948	6044
310.977	6569
311.031	7549
311.038	7692
311.085	7416
311.128	6776
311.139	6732
311.193	6922
311.218	6803
311.247	6522
311.301	6158
311.308	6094
311.356	6667
311.398	7310
311.410	7179
311.464	6274
311.488	5899
311.518	5800
311.572	5590
311.578	5566
311.626	7357
311.668	8899
311.680	9361
311.734	11325
311.758	12160
311.788	11580
311.842	10465
311.847	10326
311.896	15829
311.937	20640
311.950	19897
312.004	16345
312.027	14715
312.058	11975
312.112	7079
312.117	6586
312.165	7002
312.207	7354
312.297	14857
312.386	10025
312.476	8728
312.566	14383
312.656	7248
312.745	6013
312.835	8371
312.925	7888
313.015	7760
313.104	9166
313.194	6405
313.284	6157
313.374	7936
313.463	7168
313.553	6842
313.643	5615
313.732	4661
313.822	5550
313.912	5780
314.001	7253
314.091	10584
314.180	13893
314.270	10476
314.360	11395
314.449	8718
314.539	6552
314.628	6507
314.718	8305
314.808	10498
314.897	5262
314.987	6265
315.076	6889
315.166	10367
315.255	9699
315.345	9876
315.434	10897
315.524	9379
315.613	8843
315.703	10893
315.792	12950
315.881	25853
315.971	12254
316.060	20152
316.150	36475
316.239	36615
316.328	12009
316.418	6771
316.507	6274
316.597	8316
316.686	7911
316.775	18564
316.865	38973
316.954	7712
317.043	5655
317.133	5995
317.222	6106
317.311	5441
317.400	4208
317.490	8080
317.579	7267
317.668	6696
317.757	9395
317.847	18904
317.936	45003
318.025	22794
318.114	13222
318.203	10551
318.293	17175
318.382	29394
318.471	23191
318.560	45145
318.649	103474
318.738	17522
318.828	11139
318.917	12303
319.006	18111
319.095	48886
319.184	130328
319.273	49046
319.362	18593
319.451	9274
319.540	8350
319.629	18338
319.718	25171
319.807	16133
319.896	40945
319.985	152303
320.074	36366
320.163	13226
320.252	25245
320.341	22154
320.430	17364
320.519	16470
320.608	9710
320.697	9951
320.786	9506
320.875	10641
320.964	12277
321.053	17155
321.142	24869
321.230	25001
321.319	25583
321.408	53956
321.497	21208
321.586	21397
321.675	36377
321.764	29731
321.852	20591
321.941	29646
322.030	16451
322.119	26221
322.207	53286
322.296	52600
322.385	25202
322.474	23447
322.562	60844
322.651	30279
322.740	24136
322.829	37637
322.917	51006
323.006	21381
323.095	17334
323.183	17468
323.272	24036
323.361	47905
323.449	147355
323.538	42308
323.626	111393
323.715	52745
323.804	26532
323.892	101053
323.981	39558
324.069	16252
324.158	60416
324.246	42561
324.335	14371
324.424	17123
324.512	7568
324.601	9797
324.689	14185
324.778	24931
324.866	34221
324.954	10043
325.043	9477
325.131	23362
325.220	42841
325.308	46117
325.397	33533
325.485	17014
325.574	6722
325.662	6146
325.750	6414
325.839	5762
325.927	5195
326.015	9158
326.104	19471
326.192	23513
326.280	6755
326.369	6975
326.457	9201
326.545	14224
326.634	6346
326.722	5215
326.810	5428
326.898	6126
326.987	6774
327.075	14815
327.163	18840
327.251	8696
327.340	9137
327.428	10259
327.516	5813
327.604	6301
327.692	6898
327.781	10810
327.869	18725
327.957	9960
328.045	7709
328.133	5368
328.221	9809
328.309	6028
328.397	5796
328.485	7127
328.574	9773
328.662	30482
328.750	20796
328.838	10580
328.926	6127
329.014	6305
329.102	10294
329.190	31272
329.278	14922
329.366	5479
329.454	6077
329.542	6494
329.630	6423
329.718	7519
329.806	9786
329.893	13682
329.981	17103
330.069	32941
330.157	140935
330.245	337971
330.333	158792
330.421	30126
330.509	19023
330.597	40410
330.684	27289
330.772	14919
330.860	24961
330.948	30857
331.036	11462
331.123	5825
331.211	7301
331.299	9855
331.387	28673
331.475	41886
331.562	11456
331.650	6274
331.738	9140
331.825	12615
331.913	6560
332.001	5197
332.089	9985
332.176	22634
332.264	56393
332.352	35389
332.439	11064
332.527	8950
332.614	7581
332.702	11640
332.790	7041
332.877	24214
332.965	44835
333.052	8084
333.140	9764
333.228	18869
333.315	6216
333.403	9089
333.490	33361
333.578	18831
333.665	13922
333.753	9067
333.840	6298
333.928	10191
334.015	34190
334.103	53584
334.190	159916
334.278	31212
334.365	16010
334.452	8967
334.540	6762
334.627	11824
334.715	16433
334.802	33383
334.889	195513
334.977	146289
335.064	17362
335.151	10020
335.239	11582
335.326	17161
335.413	86722
335.501	94161
335.588	12473
335.675	8674
335.762	15605
335.850	25741
335.937	14811
336.024	45544
336.111	189879
336.199	58286
336.286	11734
336.373	7637
336.460	5036
336.547	6158
336.635	8780
336.722	8037
336.809	7067
336.896	13458
336.983	48939
337.070	118599
337.157	157961
337.245	123329
337.332	71836
337.419	11725
337.506	7724
337.593	10254
337.680	45562
337.767	118050
337.854	27981
337.941	34657
338.028	40310
338.115	12279
338.202	19576
338.289	35932
338.376	116058
338.463	31448
338.550	78159
338.637	66815
338.724	25881
338.811	35682
338.898	8036
338.984	6296
339.071	9167
339.158	8104
339.245	19857
339.332	12962
339.419	27465
339.506	21288
339.593	3763
339.679	4714
339.766	4269
339.853	8157
339.940	12876
340.027	5692
340.113	5441
340.200	7988
340.287	6147
340.374	8108
340.460	10947
340.547	4691
340.634	9901
340.720	34913
340.807	16781
340.894	5277
340.980	5919
341.067	4540
341.154	5933
341.240	8297
341.327	15739
341.414	5983
341.500	5159
341.587	5099
341.674	4617
341.760	11178
341.847	12124
341.933	4247
342.020	2162
342.106	3452
342.193	5099
342.279	8869
342.366	6919
342.452	11050
342.539	5943
342.625	16002
342.712	35736
342.798	13986
342.885	6160
342.971	3339
343.058	3292
343.144	3054
343.230	3479
343.317	3920
343.403	2606
343.490	3348
343.576	3544
343.662	3985
343.749	4729
343.835	8276
343.921	15344
344.008	93578
344.094	180560
344.180	32915
344.267	13877
344.353	53795
344.439	52778
344.525	17709
344.612	8048
344.698	8067
344.784	4368
344.870	4485
344.957	3906
345.043	7158
345.129	5664
345.215	10964
345.301	5772
345.387	4827
345.474	2872
345.560	3819
345.646	6223
345.732	5190
345.818	4815
345.904	4447
345.990	5958
346.076	7583
346.162	15655
346.249	5831
346.335	3389
346.421	5740
346.507	23195
346.593	70349
346.679	14681
346.765	6811
346.851	4643
346.937	4624
347.023	4247
347.108	5058
347.194	4326
347.280	4879
347.366	6044
347.452	22341
347.538	87706
347.624	59628
347.710	47206
347.796	9266
347.882	5276
347.967	5238
348.053	10108
348.139	5431
348.225	3524
348.311	4089
348.397	3706
348.482	5776
348.568	6015
348.654	3606
348.740	4766
348.825	5227
348.911	9142
348.997	45843
349.083	77324
349.168	12262
349.254	4208
349.340	4779
349.425	3729
349.511	6312
349.597	7159
349.682	13464
349.768	45288
349.854	19000
349.939	6196
350.025	3435
350.110	3754
350.196	3029
350.282	1405
350.367	4034
350.453	11642
350.538	10118
350.624	6640
350.709	7012
350.795	3412
350.880	3853
350.966	4839
351.051	9830
351.137	7401
351.222	5131
351.308	15265
351.393	34406
351.479	6510
351.564	3895
351.649	4072
351.735	2947
351.820	2652
351.906	4547
351.991	7480
352.076	26983
352.162	32600
352.247	6338
352.332	5231
352.418	8947
352.503	12650
352.588	52246
352.673	35234
352.759	9283
352.844	4339
352.929	5642
353.014	6436
353.100	5164
353.185	10071
353.270	13415
353.355	11731
353.441	5342
353.526	7084
353.611	12117
353.696	11711
353.781	8391
353.866	3245
353.952	5053
354.037	11899
354.122	24402
354.207	21234
354.292	8483
354.377	4294
354.462	3437
354.547	5383
354.632	6797
354.717	11399
354.802	10104
354.887	3767
354.972	3531
355.057	3187
355.142	3187
355.227	5691
355.312	8365
355.397	17529
355.482	37694
355.567	16701
355.652	14861
355.737	15778
355.822	54932
355.907	37262
355.991	7381
356.076	3413
356.161	4516
356.246	4016
356.331	5235
356.416	14930
356.501	99789
356.585	86142
356.670	10755
356.755	9402
356.840	13798
356.924	70949
357.009	213760
357.094	66050
357.179	14988
357.263	9866
357.348	11357
357.433	11132
357.517	9300
357.602	8448
357.687	6643
357.771	14343
357.856	40569
357.941	22581
358.025	57716
358.110	219331
358.195	85018
358.279	12468
358.364	10783
358.448	36463
358.533	90821
358.617	62127
358.702	63858
358.787	21952
358.871	11700
358.956	10524
359.040	4079
359.125	3300
359.209	4547
359.294	20068
359.378	29564
359.462	11325
359.547	6355
359.631	5813
359.716	3497
359.800	5442
359.885	10925
359.969	5600
360.053	5225
360.138	4846
360.222	7148
360.306	11763
360.391	10387
360.475	22600
360.559	41115
360.644	34961
360.728	24785
360.812	57606
360.896	136827
360.981	56808
361.065	28573
361.149	7915
361.233	7786
361.318	5554
361.402	7867
361.486	6269
361.570	4994
361.654	7381
361.739	19226
361.823	96049
361.907	129253
361.991	19703
362.075	12598
362.159	24068
362.243	16593
362.327	15294
362.411	15860
362.495	10428
362.580	6751
362.664	5303
362.748	5206
362.832	6217
362.916	10653
363.000	31732
363.084	104954
363.168	150721
363.252	32580
363.336	14043
363.420	23058
363.503	109862
363.587	114825
363.671	16017
363.755	10432
363.839	13573
363.923	6863
364.007	15665
364.091	18700
364.175	44546
364.258	164946
364.342	84621
364.426	51597
364.510	26495
364.594	21040
364.677	32950
364.761	125280
364.845	77412
364.929	22695
365.013	16398
365.096	16090
365.180	19045
365.264	51421
365.347	168076
365.431	66686
365.515	16615
365.598	4664
365.682	7604
365.766	19264
365.849	22567
365.933	9365
366.017	14491
366.100	11787
366.184	3967
366.267	5167
366.351	3189
366.435	3469
366.518	2411
366.602	3087
366.685	3848
366.769	4415
366.852	15198
366.936	21086
367.019	8576
367.103	12691
367.186	25654
367.270	6105
367.353	2396
367.436	3728
367.520	3200
367.603	5003
367.687	7405
367.770	13745
367.853	9447
367.937	37404
368.020	52598
368.104	11450
368.187	11330
368.270	15040
368.353	13768
368.437	30430
368.520	77201
368.603	38212
368.687	42119
368.770	67312
368.853	16945
368.936	19829
369.020	21650
369.103	6667
369.186	4723
369.269	5042
369.352	10647
369.436	15799
369.519	9251
369.602	3857
369.685	6584
369.768	6081
369.851	6151
369.934	3527
370.018	5866
370.101	11014
370.184	12172
370.267	10248
370.350	14575
370.433	23658
370.516	64005
370.599	68189
370.682	18815
370.765	35254
370.848	48334
370.931	88712
371.014	36326
371.097	7494
371.180	5496
371.263	3620
371.346	3067
371.429	4272
371.511	4541
371.594	9418
371.677	19170
371.760	25657
371.843	15471
371.926	85037
372.009	168285
372.091	48038
372.174	40033
372.257	90810
372.340	32825
372.423	33268
372.505	39447
372.588	15627
372.671	29367
372.754	83313
372.836	39980
372.919	54172
373.002	97716
373.085	21940
373.167	14223
373.250	37946
373.332	84115
373.415	126627
373.498	228696
373.580	79026
373.663	114961
373.746	138115
373.828	28030
373.911	14993
373.993	23608
374.076	101895
374.159	86609
374.241	30239
374.324	71497
374.406	45160
374.489	79245
374.571	190064
374.654	69909
374.736	41959
374.819	124505
374.901	176936
374.983	163183
375.066	27548
375.148	15363
375.231	84440
375.313	145284
375.395	48207
375.478	9544
375.560	6577
375.643	9760
375.725	43158
375.807	157441
375.890	132383
375.972	64500
376.054	34267
376.136	62012
376.219	24969
376.301	51028
376.383	126543
376.465	43163
376.548	24076
376.630	38751
376.712	103371
376.794	42560
376.877	5785
376.959	4397
377.041	7759
377.123	22610
377.205	24850
377.287	4634
377.369	3933
377.452	3421
377.534	3412
377.616	4488
377.698	3343
377.780	2348
377.862	3770
377.944	5373
378.026	2629
378.108	3373
378.190	3051
378.272	3660
378.354	3026
378.436	2916
378.518	12520
378.600	39984
378.682	28264
378.764	48544
378.846	34739
378.928	12897
379.010	13649
379.091	8107
379.173	4877
379.255	3913
379.337	6868
379.419	26349
379.501	68688
379.583	27182
379.664	8118
379.746	17644
379.828	48491
379.910	63755
379.991	52064
380.073	9751
380.155	6743
380.237	4595
380.318	4498
380.400	4152
380.482	11572
380.564	15132
380.645	14997
380.727	13763
380.809	8007
380.890	6438
380.972	3862
381.053	5246
381.135	6845
381.217	18872
381.298	46865
381.380	22318
381.461	25393
381.543	109820
381.624	120521
381.706	21981
381.787	12526
381.869	14110
381.951	56226
382.032	180729
382.113	100989
382.195	19995
382.276	15735
382.358	36248
382.439	93397
382.521	111289
382.602	162773
382.684	71571
382.765	124863
382.846	105513
382.928	87215
383.009	46660
383.090	43723
383.172	144319
383.253	187317
383.334	92529
383.416	138223
383.497	63854
383.578	23402
383.659	43481
383.741	147223
383.822	306631
383.903	149617
383.984	87129
384.066	162570
384.147	91357
384.228	18612
384.309	12824
384.390	9089
384.471	6956
384.553	8844
384.634	13644
384.715	13030
384.796	6611
384.877	11584
384.958	44400
385.039	48553
385.120	16758
385.201	9528
385.282	14259
385.363	16397
385.444	11164
385.525	23495
385.606	77095
385.687	62202
385.768	17846
385.849	24523
385.930	91038
386.011	140567
386.092	35554
386.173	10300
386.254	10306
386.335	10116
386.416	9523
386.496	31992
386.577	47697
386.658	22386
386.739	14368
386.820	16450
386.901	13432
386.981	11190
387.062	7426
387.143	14239
387.224	47342
387.304	42988
387.385	16828
387.466	14048
387.547	17465
387.627	10246
387.708	22726
387.789	89385
387.869	101559
387.950	27924
388.031	8001
388.111	9914
388.192	31185
388.273	43774
388.353	22875
388.434	9433
388.514	22232
388.595	93161
388.676	105708
388.756	44652
388.837	40006
388.917	23331
388.998	5702
389.078	6256
389.159	4389
389.239	4384
389.320	9239
389.400	7334
389.480	25118
389.561	53282
389.641	24763
389.722	9798
389.802	13260
389.883	26703
389.963	66027
390.043	44483
390.124	17793
390.204	20684
390.284	51856
390.365	38092
390.445	85377
390.525	219184
390.605	168107
390.686	35463
390.766	11510
390.846	7570
390.927	4384
391.007	4658
391.087	8239
391.167	8213
391.247	6520
391.328	14681
391.408	23895
391.488	16160
391.568	3996
391.648	6422
391.728	9223
391.808	8973
391.888	10948
391.969	30231
392.049	42561
392.129	24773
392.209	27311
392.289	57670
392.369	36663
392.449	43354
392.529	22878
392.609	13211
392.689	21187
392.769	58850
392.849	47471
392.929	43849
393.009	96080
393.089	60584
393.169	44326
393.248	163790
393.328	583587
393.408	562071
393.488	131157
393.568	35039
393.648	18880
393.728	12988
393.807	10086
393.887	10755
393.967	9866
394.047	12385
394.127	16550
394.206	31089
394.286	127562
394.366	485980
394.446	485367
394.525	114840
394.605	29702
394.685	26414
394.764	62874
394.844	105375
394.924	66331
395.003	15282
395.083	10533
395.163	8575
395.242	8433
395.322	8726
395.402	6379
395.481	13103
395.561	45543
395.640	106583
395.720	74744
395.799	125767
395.879	95885
395.958	52781
396.038	190221
396.117	630042
396.197	647698
396.276	205946
396.356	70854
396.435	50993
396.515	29014
396.594	25763
396.673	43953
396.753	186994
396.832	519502
396.912	355546
396.991	77797
397.070	21245
397.150	11508
397.229	10720
397.308	12523
397.388	17952
397.467	10889
397.546	6836
397.625	4198
397.705	7973
397.784	7544
397.863	4453
397.942	3651
398.022	8341
398.101	41468
398.180	108937
398.259	54566
398.338	13325
398.417	7104
398.497	5370
398.576	6517
398.655	3903
398.734	4115
398.813	6129
398.892	39946
398.971	117487
399.050	54368
399.129	6116
399.208	3389
399.287	4661
399.366	2384
399.445	4216
399.524	4308
399.603	3305
399.682	8244
399.761	34943
399.840	123891
399.919	90966
399.998	12051
400.077	3409
400.156	2695
400.235	7076
400.313	4010
400.392	7471
400.471	25565
400.550	36102
400.629	10847
400.708	6796
400.786	8861
400.865	28736
400.944	27424
401.023	11439
401.102	2042
401.180	2637
401.259	3817
401.338	5765
401.416	6620
401.495	4999
401.574	5970
401.652	4712
401.731	7620
401.810	5778
401.888	2231
401.967	2275
402.046	3903
402.124	7264
402.203	7787
402.281	4808
402.360	10442
402.438	34217
402.517	23025
402.596	7977
402.674	7046
402.753	4494
402.831	3702
402.910	5571
402.988	24452
403.066	65987
403.145	34647
403.223	23598
403.302	50311
403.380	39642
403.459	35281
403.537	14694
403.615	7221
403.694	1469
403.772	1517
403.850	2087
403.929	1936
404.007	2335
404.085	8054
404.164	7708
404.242	4345
404.320	11067
404.398	30527
404.477	47729
404.555	136499
404.633	110113
404.711	26518
404.789	12981
404.868	4414
404.946	2826
405.024	2198
405.102	2003
405.180	185
405.258	1561
405.336	2109
405.415	3360
405.493	10429
405.571	7636
405.649	1867
405.727	1864
405.805	6417
405.883	7304
405.961	7952
406.039	10173
406.117	3275
406.195	6616
406.273	33780
406.351	107614
406.429	63087
406.507	13420
406.585	5733
406.663	3934
406.740	4237
406.818	3997
406.896	3127
406.974	4669
407.052	11168
407.130	64025
407.208	80662
407.285	15461
407.363	2639
407.441	2469
407.519	1715
407.596	4305
407.674	12752
407.752	40044
407.830	42651
407.907	19880
407.985	5671
408.063	3431
408.141	2471
408.218	8556
408.296	7327
408.373	4047
408.451	2913
408.529	2942
408.606	1293
408.684	1312
408.762	659
408.839	1354
408.917	887
408.994	1235
409.072	1124
409.149	1521
409.227	3808
409.304	3754
409.382	2819
409.459	3315
409.537	4880
409.614	4010
409.692	3069
409.769	2540
409.846	5069
409.924	8235
410.001	4734
410.079	4112
410.156	4375
410.233	4151
410.311	4776
410.388	2141
410.465	3857
410.543	2771
410.620	2431
410.697	2332
410.775	2806
410.852	18
410.929	3703
411.006	4582
411.083	2920
411.161	7627
411.238	10654
411.315	6519
411.392	2024
411.469	3842
411.547	4111
411.624	1974
411.701	1990
411.778	3659
411.855	7038
411.932	3593
412.009	2246
412.086	2232
412.163	3754
412.240	5567
412.317	7428
412.394	6111
412.471	2637
412.548	1901
412.625	1527
412.702	4280
412.779	8834
412.856	4738
412.933	1698
413.010	2693
413.087	5269
413.164	21996
413.241	28786
413.318	6202
413.395	5268
413.471	6374
413.548	3000
413.625	3141
413.702	4593
413.779	4392
413.855	673
413.932	805
414.009	854
414.086	1457
414.162	2126
414.239	6131
414.316	24626
414.393	47113
414.469	14227
414.546	1825
414.623	844
414.699	1613
414.776	2305
414.853	1270
414.929	2297
415.006	2335
415.082	4390
415.159	4066
415.236	2618
415.312	2605
415.389	4641
415.465	5518
415.542	3606
415.618	1244
415.695	3248
415.771	2246
415.848	2087
415.924	3639
416.000	2611
416.077	2265
416.153	-320
416.230	67
416.306	1271
416.383	2472
416.459	2838
416.535	1196
416.612	1098
416.688	826
416.764	1168
416.841	1363
416.917	1761
416.993	2335
417.069	2971
417.146	4544
417.222	7363
417.298	3369
417.374	2510
417.451	2968
417.527	3197
417.603	2867
417.679	2361
417.755	1826
417.831	707
417.908	752
417.984	462
418.060	1902
418.136	5863
418.212	6893
418.288	3000
418.364	1772
418.440	1592
418.516	4953
418.592	9945
418.668	12685
418.744	12628
418.820	8889
418.896	2330
418.972	1016
419.048	1768
419.124	6251
419.200	3670
419.276	1109
419.352	617
419.428	1485
419.504	1290
419.579	2777
419.655	1922
419.731	2651
419.807	8541
419.883	15623
419.959	10378
420.034	4297
420.110	8533
420.186	29045
420.262	20383
420.337	4451
420.413	2603
420.489	2194
420.565	2353
420.640	1442
420.716	1957
420.792	485
420.867	1804
420.943	1443
421.019	3086
421.094	3195
421.170	2291
421.245	694
421.321	1963
421.397	2503
421.472	7252
421.548	17789
421.623	11893
421.699	4514
421.774	3336
421.850	3561
421.925	5440
422.001	5680
422.076	3822
422.152	4679
422.227	8228
422.302	10087
422.378	15405
422.453	29512
422.529	80228
422.604	252802
422.679	419119
422.755	237621
422.830	69100
422.905	25782
422.981	13620
423.056	8632
423.131	6450
423.207	4996
423.282	5798
423.357	9612
423.432	6153
423.508	7744
423.583	12844
423.658	10638
423.733	4185
423.808	5891
423.883	5498
423.959	3583
424.034	2270
424.109	2904
424.184	1421
424.259	655
424.334	1837
424.409	745
424.484	1428
424.559	2095
424.634	2059
424.709	2682
424.784	4222
424.859	2176
424.934	5698
425.009	19762
425.084	31369
425.159	11412
425.234	2766
425.309	795
425.384	8555
425.459	13453
425.534	4246
425.609	2348
425.683	1607
425.758	1808
425.833	2374
425.908	4255
425.983	13149
426.058	32206
426.132	14061
426.207	4732
426.282	9554
426.357	8484
426.431	2701
426.506	2313
426.581	2654
426.655	2648
426.730	1467
426.805	1310
426.879	2734
426.954	2180
427.029	7199
427.103	38189
427.178	85275
427.253	35403
427.327	4928
427.402	10942
427.476	22490
427.551	9786
427.625	4559
427.700	4416
427.774	2620
427.849	3907
427.923	1772
427.998	1661
428.072	2689
428.147	8789
428.221	30964
428.296	70239
428.370	31336
428.444	7940
428.519	13450
428.593	26657
428.667	22045
428.742	26375
428.816	23623
428.890	61162
428.965	75953
429.039	31855
429.113	29275
429.188	9144
429.262	2237
429.336	5876
429.410	15656
429.485	13172
429.559	21286
429.633	16365
429.707	4918
429.781	16975
429.855	73405
429.930	89602
430.004	69027
430.078	117530
430.152	94289
430.226	107313
430.300	90503
430.374	13291
430.448	8996
430.522	42567
430.596	108378
430.670	59488
430.744	90909
430.818	115039
430.892	23192
430.966	4427
431.040	2718
431.114	1193
431.188	760
431.262	1551
431.336	2072
431.410	11453
431.484	29126
431.557	15290
431.631	1390
431.705	2617
431.779	16059
431.853	60494
431.927	37355
432.000	5164
432.074	2489
432.148	4842
432.222	3053
432.295	1326
432.369	1782
432.443	6877
432.516	42568
432.590	87270
432.664	30503
432.737	3397
432.811	1305
432.885	491
432.958	507
433.032	1077
433.106	-165
433.179	412
433.253	157
433.326	331
433.400	133
433.473	476
433.547	58
433.620	1081
433.694	3051
433.767	3087
433.841	1667
433.914	957
433.988	728
434.061	580
434.134	862
434.208	-222
434.281	-556
434.355	119
434.428	791
434.501	1172
434.575	954
434.648	1052
434.721	-576
434.795	-1055
434.868	-496
434.941	562
435.014	-691
435.088	-235
435.161	1059
435.234	2216
435.307	2671
435.381	1291
435.454	788
435.527	2008
435.600	1303
435.673	1869
435.746	803
435.819	862
435.892	492
435.966	437
436.039	767
436.112	1236
436.185	273
436.258	-79
436.331	-658
436.404	-225
436.477	26
436.550	-8
436.623	-306
436.696	331
436.769	619
436.842	53
436.915	2256
436.987	3148
437.060	1366
437.133	-39
437.206	770
437.279	1199
437.352	13
437.425	699
437.498	1865
437.570	4318
437.643	2649
437.716	598
437.789	898
437.861	3434
437.934	8994
438.007	3896
438.080	-297
438.152	1824
438.225	7713
438.298	55539
438.370	124667
438.443	44237
438.516	9285
438.588	1695
438.661	295
438.734	835
438.806	2078
438.879	2851
438.951	1998
439.024	4563
439.096	588
439.169	411
439.241	542
439.314	1145
439.386	3470
439.459	6489
439.531	8326
439.604	2752
439.676	1267
439.749	342
439.821	-527
439.893	804
439.966	689
440.038	2474
440.110	2268
440.183	1214
440.255	366
440.327	3000
440.400	23783
440.472	76996
440.544	42197
440.617	5445
440.689	4475
440.761	5265
440.833	6421
440.905	3439
440.978	115
441.050	135
441.122	725
441.194	42
441.266	846
441.338	68
441.411	3233
441.483	21583
441.555	26889
441.627	6091
441.699	6226
441.771	5557
441.843	886
441.915	674
441.987	307
442.059	866
442.131	2835
442.203	4662
442.275	4237
442.347	4672
442.419	5380
442.491	25516
442.563	52412
442.635	26154
442.706	27048
442.778	16245
442.850	2103
442.922	1293
442.994	2129
443.066	4221
443.137	2689
443.209	2270
443.281	4531
443.353	9750
443.425	40045
443.496	108990
443.568	88964
443.640	29366
443.711	6995
443.783	2583
443.855	1521
443.926	1257
443.998	2004
444.070	4089
444.141	3224
444.213	3222
444.285	3822
444.356	4629
444.428	4639
444.499	1805
444.571	404
444.642	188
444.714	1278
444.785	3001
444.857	7640
444.928	21447
445.000	9461
445.071	14003
445.143	14112
445.214	6159
445.285	14303
445.357	41465
445.428	96227
445.500	177484
445.571	104875
445.642	44922
445.714	29225
445.785	30994
445.856	7275
445.928	3873
445.999	3887
446.070	2699
446.141	1955
446.213	3689
446.284	2635
446.355	4167
446.426	2566
446.497	2033
446.569	6780
446.640	7145
446.711	2857
446.782	1190
446.853	4316
446.924	3265
446.995	1746
447.066	3311
447.138	6964
447.209	3501
447.280	-117
447.351	-85
447.422	-77
447.493	2610
447.564	2063
447.635	2444
447.706	1650
447.777	314
447.847	24
447.918	1258
447.989	3145
448.060	6044
448.131	14377
448.202	8799
448.273	4234
448.344	1768
448.414	957
448.485	552
448.556	1032
448.627	-313
448.698	491
448.768	181
448.839	1216
448.910	6575
448.981	5314
449.051	1273
449.122	20
449.193	611
449.263	898
449.334	1049
449.405	2096
449.475	5428
449.546	3725
449.616	8078
449.687	5201
449.758	1624
449.828	1326
449.899	707
449.969	874
450.040	1302
450.110	2180
450.181	3292
450.251	719
450.322	1447
450.392	1539
450.463	856
450.533	85
450.604	1589
450.674	-263
450.744	993
450.815	1019
450.885	929
450.955	129
451.026	586
451.096	1248
451.166	2740
451.237	10101
451.307	21619
451.377	5108
451.447	226
451.518	794
451.588	734
451.658	653
451.728	4800
451.799	24587
451.869	21793
451.939	3333
452.009	311
452.079	1002
452.149	1150
452.219	6909
452.289	28602
452.360	14938
452.430	2298
452.500	1692
452.570	2483
452.640	3703
452.710	16151
452.780	23755
452.850	10231
452.920	7770
452.990	2967
453.060	1469
453.129	3480
453.199	6095
453.269	35274
453.339	57210
453.409	79202
453.479	97691
453.549	134364
453.619	133735
453.688	38581
453.758	5186
453.828	2832
453.898	1342
453.968	923
454.037	712
454.087	537
454.107	452
454.168	1086
454.177	1169
454.247	195
454.249	226
454.316	633
454.330	1064
454.386	2461
454.411	6707
454.456	13763
454.492	15556
454.525	17212
454.574	7941
454.595	3936
454.655	1478
454.665	1111
454.734	3116
454.736	3269
454.804	6872
454.817	10011
454.873	22633
454.898	22717
454.943	22817
454.979	14332
455.013	6815
455.060	3836
455.082	2676
455.141	4230
455.152	4375
455.221	17744
455.222	17936
455.291	28476
455.303	26445
455.360	17536
455.384	22337
455.430	30559
455.465	24346
455.499	18417
455.546	20571
455.569	21346
455.627	10608
455.638	8719
455.707	1170
455.708	1175
455.777	455
455.789	600
455.846	1158
455.869	978
455.916	648
455.950	912
455.985	1130
456.031	1532
456.054	1712
456.112	784
456.124	632
456.193	706
456.193	692
456.262	1291
456.274	1511
456.332	2370
456.355	2647
456.401	2879
456.436	1992
456.470	1162
456.516	628
456.540	398
456.597	27
456.609	-26
456.678	-120
456.678	-129
456.747	54
456.759	70
456.817	215
456.840	388
456.886	486
456.920	471
456.955	740
457.001	1101
457.024	1246
457.082	1576
457.093	1628
457.162	2490
457.163	2510
457.232	4495
457.243	4034
457.301	1882
457.324	1365
457.370	530
457.405	465
457.439	496
457.485	152
457.508	32
457.566	1060
457.577	1204
457.646	1293
457.647	1306
457.715	2838
457.727	3076
457.784	3963
457.808	5139
457.853	6786
457.889	7432
457.922	7462
457.969	5662
457.991	5664
458.050	6841
458.060	7016
458.129	11424
458.130	11543
458.198	10649
458.211	9393
458.267	5300
458.292	3729
458.336	2639
458.372	2787
458.405	3757
458.453	6040
458.474	7225
458.533	12056
458.543	12426
458.611	18648
458.614	18705
458.680	11948
458.694	9400
458.749	3962
458.775	2899
458.818	1831
458.855	1746
458.887	1646
458.936	1372
458.955	1212
459.016	1421
459.024	1513
459.093	1303
459.097	1315
459.162	1281
459.177	1437
459.230	1900
459.257	2111
459.299	2312
459.338	2194
459.368	2133
459.418	2648
459.437	2694
459.499	1834
459.505	1793
459.574	1651
459.579	1629
459.643	875
459.659	766
459.711	966
459.740	1096
459.780	1131
459.820	1621
459.849	1946
459.900	2068
459.917	2157
459.981	2931
459.986	2877
460.054	965
460.061	861
460.123	1873
460.141	2122
460.191	2104
460.222	2333
460.260	2571
460.302	2591
460.328	2499
460.382	2120
460.397	2115
460.462	2483
460.465	2644
460.534	6600
460.543	7049
460.602	16390
460.623	20498
460.671	29977
460.703	40418
460.739	37218
460.783	25138
460.808	21139
460.864	5423
460.876	3718
460.944	2623
460.945	2596
461.013	1981
461.024	1800
461.081	1520
461.104	1609
461.150	1866
461.184	2151
461.218	2185
461.264	1603
461.286	1471
461.345	1861
461.355	1952
461.423	2427
461.425	2426
461.491	2446
461.505	2646
461.559	7954
461.585	10397
461.628	14701
461.665	19717
461.696	21472
461.745	27241
461.764	25229
461.825	6754
461.832	6066
461.901	2940
461.905	3000
461.969	2795
461.985	2484
462.037	2862
462.065	3298
462.105	4261
462.145	5253
462.173	7204
462.225	10802
462.241	11589
462.305	17312
462.310	16945
462.378	9424
462.385	8078
462.446	3309
462.465	2681
462.514	2200
462.545	2086
462.582	2665
462.625	3346
462.650	3197
462.705	2941
462.718	3140
462.785	3747
462.786	3777
462.854	5699
462.865	6196
462.922	8084
462.945	8693
462.990	6832
463.025	4160
463.058	3016
463.104	2385
463.126	2345
463.184	2472
463.194	2477
463.262	2463
463.264	2466
463.330	3189
463.344	3271
463.398	3726
463.424	3990
463.466	3536
463.504	3333
463.533	3478
463.583	3410
463.601	3734
463.663	4717
463.669	4846
463.737	6730
463.743	6909
463.805	13401
463.823	15175
463.873	20473
463.903	24486
463.940	25234
463.982	26493
464.008	21987
464.062	8352
464.076	7380
464.142	3615
464.144	3563
464.211	3023
464.221	2978
464.279	3184
464.301	3241
464.347	3956
464.381	4530
464.414	5200
464.461	6124
464.482	6337
464.540	7213
464.550	6999
464.617	4634
464.620	4556
464.685	4633
464.699	4650
464.753	5457
464.779	5844
464.820	6413
464.859	7081
464.888	7134
464.938	7161
464.956	7390
465.018	8260
465.023	8143
465.091	6192
465.098	5967
465.158	5442
465.177	5364
465.226	5698
465.257	5830
465.293	5691
465.336	5563
465.361	6315
465.416	8051
465.428	9302
465.495	16059
465.496	16136
465.563	24191
465.575	25723
465.631	31423
465.654	33891
465.698	21142
465.734	9033
465.765	7676
465.813	6449
465.833	6386
465.893	6700
465.900	6660
465.968	6164
465.972	6122
466.035	6465
466.052	6566
466.102	7017
466.131	7175
466.170	7158
466.210	7177
466.237	7571
466.290	8374
466.304	8371
466.369	8126
466.372	8181
466.439	9561
466.449	9731
466.506	11422
466.528	12074
466.573	18209
466.607	22744
466.641	29591
466.687	39133
466.708	42079
466.766	50461
466.775	46692
466.842	17152
466.845	15728
466.909	12800
466.925	12214
466.977	12411
467.004	12536
467.044	12524
467.083	12454
467.111	13032
467.163	14082
467.178	13966
467.242	13373
467.245	13354
467.312	12587
467.321	12467
467.379	12796
467.400	12883
467.446	13313
467.480	13585
467.559	12020
467.638	9958
467.717	9823
467.796	11011
467.875	10849
467.955	10659
468.034	23382
468.113	43626
468.192	62159
468.271	12605
468.350	9170
468.429	10055
468.508	9547
468.588	8373
468.667	8633
468.746	8229
468.825	8642
468.904	8276
468.983	10672
469.062	15237
469.141	18357
469.220	6731
469.299	7293
469.378	8007
469.456	9735
469.535	7468
469.614	7954
469.693	8739
469.772	14176
469.851	17458
469.930	10119
470.009	7306
470.088	6949
470.166	8329
470.245	8603
470.324	9176
470.403	7299
470.482	6657
470.560	6096
470.639	6674
470.718	8000
470.797	7188
470.875	10164
470.954	13532
471.033	14001
471.111	6319
471.190	5669
471.269	5624
471.347	5674
471.426	6503
471.505	7645
471.583	8271
471.662	7107
471.740	6413
471.819	7032
471.898	5823
471.976	6170
472.055	6696
472.133	7567
472.212	11919
472.290	11623
472.369	6710
472.447	5748
472.526	5019
472.604	6153
472.683	6149
472.761	6492
472.839	5534
472.918	6266
472.996	6736
473.075	7972
473.153	7835
473.231	6030
473.310	7802
473.388	7495
473.466	6671
473.545	6636
473.623	9273
473.701	8736
473.780	6427
473.858	5541
473.936	7542
474.014	6628
474.093	7730
474.171	14084
474.249	19037
474.327	11522
474.405	5604
474.484	6008
474.562	6038
474.640	6294
474.718	8117
474.796	6915
474.874	7086
474.952	6899
475.030	6905
475.108	7779
475.187	9392
475.265	10231
475.343	12851
475.421	11744
475.499	6622
475.577	7033
475.655	12267
475.733	24588
475.811	45890
475.889	36149
475.966	22444
476.044	7085
476.122	9831
476.200	10934
476.278	7831
476.356	6599
476.434	7004
476.512	9364
476.590	11095
476.667	9117
476.745	6255
476.823	7014
476.901	6590
476.979	6973
477.056	6779
477.134	7245
477.212	7116
477.290	6335
477.367	6332
477.445	5769
477.523	6312
477.601	5777
477.678	6833
477.756	9808
477.834	10629
477.911	5789
477.989	5941
478.066	6631
478.144	8141
478.222	10200
478.299	13355
478.377	10702
478.454	5610
478.532	6038
478.609	5428
478.687	5815
478.764	5362
478.842	5262
478.919	6066
478.997	6275
479.074	5970
479.152	8704
479.229	9852
479.307	7280
479.384	4661
479.461	6135
479.539	6657
479.616	9017
479.694	6982
479.771	7387
479.848	8103
479.926	10516
480.003	12851
480.080	5342
480.157	5015
480.235	5384
480.312	5475
480.389	8950
480.467	13425
480.544	17779
480.621	8570
480.698	7298
480.775	8529
480.853	8583
480.930	7654
481.007	7671
481.084	9164
481.161	11244
481.238	9786
481.315	7101
481.392	5350
481.470	7351
481.547	7139
481.624	5859
481.701	6861
481.778	6038
481.855	8858
481.932	15636
482.009	24498
482.086	15402
482.163	7378
482.240	10737
482.317	16819
482.393	11558
482.470	6509
482.547	7766
482.624	6895
482.701	7173
482.778	5350
482.855	5957
482.932	4972
483.009	5512
483.085	7177
483.162	7996
483.239	7967
483.316	5540
483.393	6145
483.469	5958
483.546	7926
483.623	7918
483.699	6291
483.776	6769
483.853	7149
483.930	15264
484.006	40918
484.083	66663
484.160	24253
484.236	27554
484.313	21298
484.389	16837
484.466	15239
484.543	14079
484.619	14762
484.696	17593
484.772	17589
484.849	19141
484.925	13460
485.002	14478
485.078	15326
485.155	14362
485.231	13463
485.308	12414
485.384	15196
485.461	22066
485.537	37412
485.614	43854
485.690	14850
485.766	12985
485.843	13720
485.919	16987
485.995	16556
486.072	12363
486.148	11776
486.224	12070
486.301	13132
486.377	15401
486.453	14375
486.530	14078
486.606	18426
486.682	22158
486.758	29576
486.835	36639
486.911	28938
486.987	44991
487.063	38445
487.139	34534
487.215	25043
487.292	15665
487.368	14181
487.444	15710
487.520	18873
487.596	15976
487.672	27382
487.748	55988
487.824	70874
487.900	26087
487.976	16182
488.052	15772
488.128	18454
488.204	14683
488.280	14496
488.356	21378
488.432	47205
488.508	69914
488.584	17937
488.660	11128
488.736	11717
488.812	11643
488.888	14579
488.964	19031
489.039	35692
489.115	47426
489.191	28135
489.267	13128
489.343	12831
489.418	10038
489.494	9605
489.570	9424
489.646	11395
489.722	9975
489.797	12766
489.873	25102
489.949	51593
490.024	43843
490.100	10187
490.176	10673
490.251	12748
490.327	13386
490.403	9640
490.478	9555
490.554	8582
490.629	9333
490.705	8456
490.781	10816
490.856	9239
490.932	11781
491.007	10744
491.083	9718
491.158	10474
491.234	19134
491.309	41326
491.385	42077
491.460	11599
491.536	12192
491.611	9315
491.686	10304
491.762	13186
491.837	23845
491.913	42042
491.988	56616
492.063	58850
492.139	24778
492.214	18121
492.289	8204
492.365	8404
492.440	9547
492.515	10483
492.590	10732
492.666	8605
492.741	14898
492.816	22110
492.891	10159
492.967	7781
493.042	6934
493.117	6946
493.192	8445
493.267	16319
493.342	41504
493.418	51557
493.493	9769
493.568	6901
493.643	6541
493.718	11376
493.793	15665
493.868	15946
493.943	7945
494.018	8295
494.093	7767
494.168	8036
494.243	5967
494.318	6493
494.393	6346
494.468	7085
494.543	6961
494.618	7140
494.693	6455
494.768	7008
494.842	6571
494.917	6732
494.992	6133
495.067	6797
495.142	7269
495.217	6844
495.292	7199
495.366	9066
495.441	11295
495.516	15164
495.591	18470
495.665	54761
495.740	102194
495.815	40892
495.890	13043
495.964	10635
496.039	12951
496.114	11823
496.188	13043
496.263	12913
496.338	12775
496.412	14268
496.487	16610
496.561	14914
496.636	15148
496.710	14215
496.785	16556
496.860	19248
496.934	15345
497.009	15942
497.083	15576
497.158	16638
497.232	20627
497.307	25239
497.381	22979
497.455	28921
497.530	35673
497.604	27390
497.679	32806
497.753	46685
497.827	56265
497.902	51745
497.976	59597
498.050	142488
498.125	388376
498.199	373104
498.273	71577
498.348	60618
498.422	52689
498.496	46701
498.570	41201
498.645	35065
498.719	32191
498.793	35526
498.867	44432
498.941	65692
499.016	186400
499.090	395637
499.164	132459
499.238	21522
499.312	17818
499.386	19769
499.460	19248
499.534	18580
499.609	22453
499.683	30416
499.757	31860
499.831	90148
499.905	274670
499.979	250391
500.053	38810
500.127	36609
500.201	19750
500.275	16287
500.349	15377
500.422	16194
500.496	22560
500.570	49754
500.644	160057
500.718	278950
500.792	54898
500.866	18173
500.940	22368
501.013	19129
501.087	15591
501.161	24421
501.235	37647
501.309	110667
501.382	263763
501.456	221986
501.530	50899
501.603	85032
501.677	32385
501.751	11472
501.825	16810
501.898	42278
501.972	104333
502.046	64319
502.119	16974
502.193	50612
502.266	111642
502.340	56369
502.413	55313
502.487	101769
502.561	54001
502.634	16780
502.708	10655
502.781	9640
502.855	9347
502.928	7947
503.002	8853
503.075	9234
503.149	10229
503.222	9768
503.295	10708
503.369	13614
503.442	24367
503.516	88588
503.589	203918
503.662	128240
503.736	42793
503.809	89320
503.882	80744
503.956	106826
504.029	94652
504.102	40954
504.175	42435
504.249	17072
504.322	16027
504.395	13434
504.468	9428
504.542	9611
504.615	6422
504.688	6652
504.761	5725
504.834	9804
504.907	9431
504.980	12810
505.053	8890
505.127	7985
505.200	15167
505.273	16452
505.346	9544
505.419	7239
505.492	7853
505.565	6214
505.638	6349
505.711	6173
505.784	5790
505.857	6015
505.930	8310
506.003	5788
506.076	8623
506.149	10347
506.221	13041
506.294	15077
506.367	50453
506.440	143219
506.513	71916
506.586	15562
506.659	7501
506.731	6983
506.804	8610
506.877	10215
506.950	8886
507.022	7517
507.095	9584
507.168	13239
507.241	6439
507.313	5607
507.386	5723
507.459	8141
507.531	5340
507.604	4473
507.677	5165
507.749	3674
507.822	6756
507.894	11757
507.967	14049
508.040	8149
508.112	7362
508.185	8294
508.257	6395
508.330	10818
508.402	6607
508.475	7973
508.547	9218
508.620	10330
508.692	16704
508.765	9808
508.837	5087
508.909	6648
508.982	6077
509.054	7049
509.127	5030
509.199	5681
509.271	4385
509.344	4599
509.416	5132
509.488	5309
509.560	6580
509.633	6030
509.705	6716
509.777	7284
509.849	8919
509.922	5347
509.994	5328
510.066	6447
510.138	6511
510.210	14434
510.283	11324
510.355	9913
510.427	8444
510.499	8673
510.571	7732
510.643	6969
510.715	11747
510.787	8373
510.859	9159
510.931	10454
511.003	10646
511.076	9833
511.148	6502
511.219	8267
511.291	17408
511.363	20023
511.435	7262
511.507	6658
511.579	7473
511.651	7165
511.723	5837
511.795	5951
511.867	7176
511.939	11933
512.010	25685
512.082	19638
512.154	6122
512.226	7116
512.298	10779
512.369	13624
512.441	11159
512.513	9612
512.585	7478
512.656	9399
512.728	9577
512.800	7378
512.871	7830
512.943	7556
513.015	6102
513.086	7339
513.158	7697
513.230	7376
513.301	9942
513.373	11651
513.444	7196
513.516	6147
513.588	6673
513.659	6363
513.731	8300
513.802	7172
513.874	15946
513.945	21619
514.016	8520
514.088	7088
514.159	7223
514.231	10579
514.302	12382
514.374	10881
514.445	12690
514.516	30106
514.588	19537
514.659	13664
514.730	27294
514.802	20441
514.873	16128
514.944	19327
515.016	13875
515.087	12682
515.158	20823
515.229	29862
515.301	22370
515.372	30890
515.443	19420
515.514	11668
515.585	7993
515.656	8683
515.728	8127
515.799	7154
515.870	8065
515.941	8089
516.012	7124
516.083	10163
516.154	10773
516.225	12707
516.296	11189
516.367	9037
516.438	8635
516.509	11748
516.580	17697
516.651	56669
516.722	148187
516.793	63954
516.864	19319
516.935	20532
517.006	20593
517.077	26819
517.148	59374
517.219	176584
517.289	236480
517.360	158668
517.431	55703
517.502	13239
517.573	13305
517.643	12643
517.714	13813
517.785	14202
517.856	13835
517.926	17223
517.997	16583
518.068	16504
518.138	21899
518.209	34371
518.280	138022
518.350	370040
518.421	118333
518.492	20484
518.562	16592
518.633	18721
518.703	16141
518.774	31146
518.845	59582
518.915	46855
518.986	21976
519.056	19384
519.127	27382
519.197	57629
519.268	158547
519.338	101234
519.408	21451
519.479	18185
519.549	12978
519.620	11780
519.690	9309
519.760	9961
519.831	9391
519.901	9230
519.971	8577
520.042	10631
520.112	12473
520.182	12703
520.253	12440
520.323	10101
520.393	14546
520.463	19787
520.534	14527
520.604	30819
520.674	15530
520.744	16690
520.814	31066
520.885	29525
520.955	64423
521.025	200683
521.095	69445
521.165	12350
521.235	10545
521.305	8758
521.375	8448
521.445	9498
521.515	10061
521.585	12553
521.655	9544
521.725	11031
521.795	10936
521.865	7357
521.935	18934
522.005	13930
522.075	7811
522.145	9694
522.215	10932
522.285	19672
522.355	26066
522.424	53466
522.494	40768
522.564	16008
522.634	26067
522.704	55770
522.774	20345
522.843	10756
522.913	8175
522.983	10008
523.053	7140
523.122	9830
523.192	11609
523.262	31607
523.331	25740
523.401	9764
523.471	6816
523.540	7713
523.610	5189
523.680	6567
523.749	7537
523.819	11688
523.888	11799
523.958	7151
524.027	8709
524.097	8603
524.166	7698
524.236	6871
524.305	10126
524.375	6348
524.444	6024
524.514	9420
524.583	8685
524.653	12774
524.722	13492
524.791	7488
524.861	8849
524.930	6200
524.999	6616
525.069	10618
525.138	10940
525.207	14892
525.277	8767
525.346	7204
525.415	7567
525.484	9183
525.554	10866
525.623	11483
525.692	9438
525.761	9461
525.830	9896
525.900	10767
525.969	16174
526.038	22703
526.107	45604
526.176	108983
526.245	74189
526.314	33896
526.383	65406
526.452	75527
526.522	142305
526.591	120714
526.660	37463
526.729	17843
526.797	23474
526.867	56499
526.935	213900
527.004	316905
527.073	130385
527.142	17087
527.211	10370
527.280	10700
527.349	9832
527.418	6132
527.487	7664
527.555	6022
527.624	5794
527.693	4760
527.762	7187
527.831	4749
527.899	6620
527.968	5675
528.037	4464
528.106	8631
528.174	12009
528.243	13765
528.312	19777
528.380	19761
528.449	7372
528.518	7514
528.586	3879
528.655	5596
528.723	5656
528.792	5400
528.861	5462
528.929	5357
528.998	6579
529.066	5163
529.135	6137
529.203	5377
529.272	4314
529.340	6180
529.409	6759
529.477	6425
529.545	10128
529.614	12082
529.682	11409
529.751	14638
529.819	14457
529.887	9809
529.956	5414
530.024	8010
530.092	5095
530.161	7651
530.229	8643
530.297	6464
530.365	6925
530.434	6052
530.502	4488
530.570	5786
530.638	4191
530.707	5941
530.775	7212
530.843	5838
530.911	6389
530.979	5866
531.047	5307
531.115	7040
531.183	5817
531.252	6667
531.320	6606
531.388	6239
531.456	6531
531.524	4190
531.592	6843
531.660	7722
531.728	5448
531.796	6116
531.864	6013
531.932	6758
532.000	6367
532.067	7092
532.135	7526
532.203	8854
532.271	7361
532.339	13902
532.407	26753
532.475	15557
532.542	9318
532.610	10656
532.678	13730
532.746	60353
532.814	112141
532.881	25357
532.949	8473
533.017	8581
533.084	7473
533.152	7016
533.220	7009
533.287	6582
533.355	7034
533.423	6789
533.490	6140
533.558	7006
533.625	6931
533.693	7942
533.761	7948
533.828	8515
533.896	6486
533.963	13763
534.031	13991
534.098	18514
534.166	10844
534.233	7156
534.300	8338
534.368	8514
534.435	7387
534.503	7949
534.570	8185
534.637	7490
534.705	8285
534.772	9398
534.840	16291
534.907	58579
534.974	54199
535.041	11255
535.109	11129
535.176	7231
535.243	6475
535.310	7203
535.378	5755
535.445	6368
535.512	5845
535.579	6505
535.646	6170
535.714	6314
535.781	8849
535.848	8675
535.915	9130
535.982	6982
536.049	7866
536.116	9078
536.183	6355
536.250	7732
536.317	6392
536.384	9371
536.451	11226
536.518	11519
536.585	7617
536.652	11685
536.719	13491
536.786	8801
536.853	8849
536.920	14466
536.987	19335
537.053	18821
537.120	67259
537.187	43848
537.254	8425
537.321	7334
537.388	7409
537.454	7170
537.521	6286
537.588	6867
537.654	8236
537.721	8013
537.788	8779
537.855	7029
537.921	8427
537.988	7340
538.055	7697
538.121	6358
538.188	7495
538.254	10693
538.321	17795
538.388	11256
538.454	7421
538.521	6507
538.587	6906
538.654	7270
538.720	6385
538.787	6430
538.853	7942
538.920	10428
538.986	10495
539.053	8745
539.119	8487
539.185	7282
539.252	8957
539.318	11374
539.385	10877
539.451	8130
539.517	8603
539.583	11538
539.650	24976
539.716	47745
539.782	12756
539.849	6400
539.915	7711
539.981	7581
540.047	8137
540.114	8274
540.180	9247
540.246	7621
540.312	10689
540.378	18368
540.444	16702
540.510	23162
540.576	49932
540.643	14544
540.709	7675
540.775	7524
540.841	8008
540.907	13760
540.973	18698
541.039	12032
541.105	11707
541.171	7623
541.237	7027
541.303	7865
541.369	10601
541.435	10100
541.500	15904
541.566	8728
541.632	7207
541.698	6577
541.764	8066
541.830	7106
541.896	6920
541.961	9166
542.027	8151
542.093	7749
542.159	8286
542.224	7349
542.290	12301
542.356	17506
542.421	16463
542.487	11073
542.553	8614
542.618	10120
542.684	8206
542.750	8069
542.815	10263
542.881	18868
542.947	51060
543.012	28672
543.078	8228
543.143	7008
543.209	7849
543.274	8068
543.340	9806
543.405	22281
543.471	25602
543.536	7756
543.602	8303
543.667	7371
543.732	7865
543.798	8533
543.863	8793
543.928	6999
543.994	6345
544.059	7830
544.124	7002
544.190	6610
544.255	6992
544.320	8199
544.386	7200
544.451	10376
544.516	11323
544.581	12233
544.646	35478
544.712	41471
544.777	12019
544.842	12505
544.907	14125
544.972	11939
545.037	11285
545.102	12986
545.168	12536
545.233	12059
545.298	13813
545.363	14253
545.428	14091
545.493	23142
545.558	38784
545.623	17906
545.688	12201
545.753	11986
545.818	11471
545.883	12139
545.947	10995
546.012	13824
546.077	13373
546.142	12701
546.207	11907
546.272	14536
546.337	14461
546.401	12847
546.466	13139
546.531	10828
546.596	14708
546.661	13395
546.725	12920
546.790	12012
546.855	14047
546.919	12832
546.984	14772
547.049	15934
547.113	19784
547.178	16409
547.243	18700
547.307	21663
547.372	24186
547.436	25676
547.501	19959
547.565	21129
547.630	20780
547.695	22144
547.759	28341
547.823	23473
547.888	19508
547.952	19506
548.017	21288
548.081	24593
548.146	32279
548.210	27341
548.274	20623
548.339	19713
548.403	19441
548.468	18010
548.532	17999
548.596	18234
548.660	19153
548.725	21480
548.789	24654
548.853	25665
548.917	22725
548.982	31638
549.046	28391
549.110	18076
549.174	17855
549.238	19816
549.303	18871
549.367	20988
549.431	19400
549.495	19844
549.559	18040
549.623	22254
549.687	24183
549.751	28077
549.815	26499
549.879	26696
549.943	24233
550.007	27830
550.071	26230
550.135	27294
550.199	24183
550.263	23703
550.327	25902
550.391	34599
550.455	26377
550.519	25452
550.582	27398
550.646	32454
550.710	32234
550.774	28018
550.838	27643
550.901	30692
550.965	32479
551.029	32023
551.093	37482
551.156	47880
551.220	85078
551.284	79424
551.347	47631
551.411	93514
551.475	86737
551.538	33834
551.602	27984
551.666	27502
551.729	24135
551.793	24923
551.856	24651
551.920	23637
551.983	24740
552.047	23788
552.110	22525
552.174	23805
552.237	24722
552.301	23395
552.364	22346
552.428	22241
552.491	22933
552.554	22126
552.618	23436
552.681	24485
552.745	23094
552.808	29373
552.871	30382
552.934	25404
552.998	25697
553.061	25910
553.124	23102
553.187	22606
553.251	23902
553.314	24269
553.377	25364
553.440	33154
553.503	72183
553.567	89240
553.630	28213
553.693	24123
553.756	24354
553.819	22240
553.882	21837
553.945	21881
554.008	21952
554.071	21257
554.134	22133
554.197	19844
554.260	19340
554.323	21575
554.386	22459
554.449	22071
554.512	22539
554.575	19416
554.638	22323
554.701	20820
554.764	19853
554.827	19069
554.889	18965
554.952	17533
555.015	18070
555.078	19205
555.141	18687
555.203	18404
555.266	18943
555.329	18210
555.391	17147
555.454	18099
555.517	17939
555.580	16693
555.642	16290
555.705	15383
555.768	16380
555.830	17240
555.893	15239
555.955	15732
556.018	15897
556.080	16422
556.143	15564
556.206	15265
556.268	16424
556.330	16187
556.393	15796
556.455	17181
556.518	26753
556.580	23091
556.643	14245
556.705	14488
556.767	13404
556.830	15115
556.892	15786
556.955	18795
557.017	16034
557.079	14679
557.142	14156
557.204	15613
557.266	23071
557.328	18399
557.391	13700
557.453	12790
557.515	12827
557.577	15503
557.639	15587
557.701	13668
557.764	12236
557.826	14648
557.888	15351
557.950	15378
558.012	15201
558.074	20844
558.136	46938
558.198	82505
558.260	28915
558.322	18232
558.384	18568
558.446	19100
558.508	22104
558.570	25592
558.632	33937
558.694	46662
558.756	67080
558.818	229322
558.880	408465
558.942	106502
559.003	90946
559.065	38746
559.127	21570
559.189	21066
559.251	24682
559.312	36299
559.374	105260
559.436	271826
559.498	94217
559.559	23165
559.621	19740
559.683	26375
559.744	50492
559.806	152110
559.868	160253
559.929	32321
559.991	26236
560.052	41689
560.114	89059
560.176	48502
560.237	61362
560.299	71801
560.360	19395
560.422	15222
560.483	15239
560.545	14043
560.606	13265
560.667	13008
560.729	14125
560.790	12907
560.852	12697
560.913	12930
560.974	12455
561.036	12429
561.097	12612
561.158	12721
561.220	12919
561.281	12294
561.342	13115
561.403	14353
561.465	17057
561.526	31417
561.587	30918
561.648	13455
561.709	12756
561.771	12153
561.832	13121
561.893	12475
561.954	11600
562.015	12184
562.076	12225
562.137	11973
562.198	12350
562.259	12682
562.320	12517
562.381	14289
562.442	15219
562.503	13533
562.564	11763
562.625	12759
562.686	12053
562.747	12761
562.808	12734
562.869	13701
562.930	17828
562.991	16993
563.051	14628
563.112	14142
563.173	12695
563.234	13310
563.294	13472
563.355	12444
563.416	12833
563.477	12894
563.537	13451
563.598	14914
563.659	13763
563.720	13384
563.780	14150
563.841	13443
563.901	12745
563.962	13367
564.023	13243
564.083	14119
564.144	13898
564.204	13081
564.265	14510
564.325	19570
564.386	37488
564.446	27907
564.507	13957
564.567	12815
564.628	13155
564.688	12692
564.749	12842
564.809	16967
564.869	19576
564.930	13064
564.990	13162
565.050	12982
565.111	13497
565.171	13387
565.231	13172
565.292	13324
565.352	13027
565.412	14621
565.472	13490
565.532	13689
565.593	12536
565.653	13429
565.713	14014
565.773	14188
565.833	14692
565.893	17868
565.953	14207
566.013	14656
566.074	17484
566.134	23687
566.194	35299
566.254	31957
566.314	21898
566.374	18103
566.434	18514
566.494	18616
566.554	18215
566.614	19544
566.673	20579
566.733	24028
566.793	24577
566.853	24147
566.913	25960
566.973	26932
567.033	25770
567.092	24447
567.152	24906
567.212	26971
567.272	27220
567.331	29917
567.391	31435
567.451	35151
567.511	43068
567.570	39342
567.630	28616
567.690	28335
567.749	28082
567.809	31039
567.868	36019
567.928	40299
567.988	47966
568.047	56474
568.107	70330
568.166	103761
568.226	162987
568.285	213598
568.345	187798
568.404	152066
568.464	127059
568.523	114554
568.582	114064
568.642	129192
568.701	167297
568.761	250638
568.820	366624
568.879	357620
568.939	277408
568.998	203656
569.057	153535
569.116	118050
569.176	95083
569.235	76428
569.294	65344
569.353	55338
569.413	48750
569.472	42820
569.531	37996
569.590	35533
569.649	31996
569.708	28398
569.767	28192
569.827	27299
569.886	23395
569.945	21906
570.004	21306
570.063	20165
570.122	19881
570.181	19380
570.240	22119
570.299	21017
570.358	17974
570.417	15669
570.475	14840
570.534	15810
570.593	14607
570.652	15562
570.711	15647
570.770	16087
570.829	17237
570.887	14582
570.946	14131
571.005	13069
571.064	13520
571.122	13936
571.181	14964
571.240	13243
571.299	12508
571.357	14451
571.416	15100
571.475	17249
571.533	15225
571.592	13769
571.650	13659
571.709	11783
571.768	11240
571.826	11665
571.885	12007
571.943	11121
572.002	12102
572.060	12153
572.119	10552
572.177	9900
572.236	10053
572.294	10387
572.352	10657
572.411	9828
572.469	10836
572.528	10806
572.586	10681
572.644	11596
572.703	11698
572.761	10342
572.819	10157
572.877	9720
572.936	9959
572.994	9861
573.052	9270
573.110	10019
573.169	10217
573.227	9512
573.285	10042
573.343	8775
573.401	9856
573.459	10003
573.517	9035
573.576	9108
573.634	10442
573.692	10058
573.750	9074
573.808	9604
573.866	11332
573.924	14869
573.982	13267
574.040	10540
574.098	9612
574.155	9299
574.213	9108
574.271	8727
574.329	8991
574.387	9079
574.445	7929
574.503	8523
574.560	8028
574.618	8079
574.676	8081
574.734	8588
574.792	8281
574.849	8363
574.907	7630
574.965	7802
575.022	7509
575.080	7549
575.138	8309
575.195	8562
575.253	7872
575.311	8887
575.368	7634
575.426	7567
575.483	8665
575.541	8974
575.598	7783
575.656	8114
575.713	8679
575.771	8287
575.828	8218
575.886	8043
575.943	9421
576.001	9077
576.058	10251
576.115	10385
576.173	11927
576.230	11842
576.287	11643
576.345	11304
576.402	9646
576.459	9344
576.517	10288
576.574	11603
576.631	12479
576.688	10558
576.746	9163
576.803	9755
576.860	9049
576.917	9070
576.974	9732
577.031	9839
577.089	9555
577.146	9375
577.203	9417
577.260	10508
577.317	10017
577.374	12561
577.431	11905
577.488	9670
577.545	8585
577.602	9404
577.659	9405
577.716	9968
577.773	9505
577.830	9294
577.886	8886
577.943	9033
578.000	8753
578.057	10591
578.114	10430
578.171	10488
578.227	10534
578.284	9873
578.341	11060
578.398	10478
578.454	10651
578.511	12544
578.568	14161
578.625	10789
578.681	9666
578.738	9284
578.794	10269
578.851	9206
578.908	9770
578.964	9386
579.021	9046
579.077	8912
579.134	9593
579.190	8973
579.247	9052
579.303	9376
579.360	8360
579.416	8222
579.473	8774
579.529	8480
579.586	8939
579.642	8629
579.698	9883
579.755	9569
579.811	8320
579.867	9253
579.924	9131
579.980	9752
580.036	10193
580.093	11273
580.149	12691
580.205	13188
580.261	11985
580.317	11591
580.374	11796
580.430	12826
580.486	11623
580.542	10350
580.598	10428
580.619	10396
580.654	10348
580.692	10090
580.710	9977
580.765	10756
580.767	10790
580.823	9417
580.838	9543
580.879	9918
580.911	9533
580.935	9253
580.984	9821
580.991	9913
581.047	9733
581.057	9826
581.103	10303
581.130	10866
581.159	11440
581.203	11721
581.215	11808
581.270	11846
581.276	11738
581.326	10787
581.349	10564
581.382	10252
581.422	10742
581.438	10944
581.494	10778
581.494	10774
581.550	11136
581.567	11282
581.606	11520
581.640	11056
581.661	10824
581.713	11259
581.717	11297
581.773	11461
581.786	11447
581.829	11370
581.859	11062
581.885	10841
581.932	11499
581.940	11620
581.996	12272
582.004	12127
582.052	11393
582.077	11070
582.107	10683
582.150	11289
582.163	11471
582.219	11759
582.223	11737
582.274	11524
582.296	11810
582.330	12370
582.368	12196
582.386	12060
582.441	11361
582.441	11361
582.497	11289
582.514	11512
582.552	12230
582.587	12421
582.608	12454
582.659	12813
582.663	12842
582.719	11570
582.732	11653
582.774	12037
582.805	12107
582.830	12158
582.877	12966
582.885	13082
582.941	12294
582.950	12302
582.996	12397
583.023	12866
583.052	13595
583.095	14023
583.107	14069
583.162	15065
583.168	15078
583.218	15273
583.240	14684
583.273	13595
583.313	13551
583.328	13652
583.384	13929
583.385	13921
583.439	13383
583.458	13302
583.494	13099
583.531	13031
583.549	13192
583.603	13523
583.605	13525
583.660	13436
583.676	13628
583.715	14132
583.748	14552
583.770	14813
583.820	14495
583.825	14481
583.881	14872
583.893	14893
583.936	14630
583.965	14647
583.991	14873
584.038	15169
584.046	15193
584.101	15386
584.110	15300
584.156	15003
584.183	15410
584.211	15639
584.255	14985
584.266	14906
584.321	15330
584.328	15357
584.376	15609
584.400	16126
584.431	16724
584.472	15946
584.486	15632
584.541	16201
584.545	16186
584.596	16176
584.617	16585
584.651	17533
584.689	17984
584.706	17932
584.761	17656
584.762	17653
584.816	18379
584.834	18799
584.871	19336
584.906	19153
584.926	19202
584.978	19500
584.980	19510
585.035	20786
585.051	20820
585.090	21038
585.123	21393
585.145	21546
585.195	22607
585.200	22745
585.254	23659
585.267	24117
585.309	26131
585.340	27383
585.364	27839
585.412	27299
585.419	27189
585.473	28373
585.484	28713
585.528	31857
585.556	35194
585.583	40044
585.628	52919
585.637	57116
585.692	100144
585.700	104952
585.747	121563
585.772	103004
585.801	68737
585.845	40459
585.856	37038
585.910	31620
585.917	31111
585.965	30552
585.989	30360
586.019	30632
586.061	30339
586.074	30186
586.128	31533
586.133	31600
586.183	33267
586.205	33681
586.237	33570
586.277	33776
586.292	34218
586.346	35182
586.349	35232
586.401	36067
586.421	36388
586.455	37455
586.493	39747
586.509	41497
586.564	48964
586.565	49246
586.618	64729
586.637	63956
586.672	54856
586.709	47327
586.727	45277
586.781	44646
586.781	44684
586.835	45676
586.853	45908
586.889	46729
586.925	47471
586.944	48083
586.996	50169
586.998	50263
587.052	52674
587.068	53122
587.106	54980
587.140	56612
587.161	57612
587.212	60598
587.215	60859
587.269	64580
587.284	65651
587.323	67801
587.356	69425
587.377	71001
587.427	74833
587.431	75202
587.485	79346
587.499	80528
587.539	84964
587.571	88094
587.593	90362
587.643	95783
587.648	96598
587.702	105210
587.715	107167
587.755	113260
587.786	117918
587.810	122345
587.858	131696
587.864	133141
587.917	146605
587.930	149764
587.971	162518
588.001	171905
588.025	180495
588.073	196862
588.079	199661
588.133	224854
588.145	230512
588.187	253810
588.217	270233
588.241	287602
588.288	322794
588.295	328962
588.348	379498
588.360	390598
588.402	442392
588.431	478615
588.456	517369
588.503	595963
588.510	611469
588.564	738767
588.575	766467
588.617	918099
588.646	1028272
588.671	1165611
588.718	1437203
588.725	1494120
588.778	1934832
588.789	2020464
588.832	2306144
588.861	2456878
588.886	2363444
588.932	2052585
588.939	2015927
588.993	1797605
589.004	1786529
589.047	2275739
589.075	2526570
589.100	2431768
589.147	2155846
589.154	2105571
589.207	1692846
589.218	1610856
589.261	1481264
589.290	1405160
589.314	1444496
589.361	1536736
589.368	1578515
589.421	1926966
589.433	1998608
589.475	2231102
589.504	2337952
589.528	2221858
589.576	1939313
589.582	1957825
589.635	2234628
589.647	2264299
589.689	1998266
589.718	1774429
589.742	1536270
589.790	1068327
589.795	1040743
589.849	783164
589.861	724614
589.902	616784
589.932	536419
589.955	493858
590.004	406440
590.009	401508
590.062	343748
590.075	329315
590.115	299128
590.146	275309
590.168	263376
590.218	236649
590.222	235313
590.275	212658
590.289	206463
590.328	192829
590.360	181644
590.381	176520
590.431	163045
590.435	162626
590.488	150598
590.503	147039
590.541	140252
590.574	133930
590.594	130802
590.645	121946
590.647	121937
590.700	115564
590.716	113411
590.753	108910
590.787	104268
590.806	102790
590.859	98166
590.859	98295
590.912	93551
590.930	91944
590.965	89588
591.001	86819
591.018	85293
591.071	79858
591.072	79642
591.124	77857
591.143	76930
591.177	75674
591.214	74069
591.230	73580
591.283	71601
591.285	71362
591.336	69849
591.356	69068
591.389	67768
591.427	65760
591.442	65146
591.495	62443
591.498	62111
591.547	60697
591.569	59858
591.600	59044
591.640	57612
591.653	57696
591.706	57629
591.711	57487
591.759	56832
591.782	56397
591.811	56507
591.853	56194
591.864	55721
591.917	52648
591.924	52115
591.969	51411
591.995	50769
592.022	50455
592.066	49730
592.075	50025
592.127	51165
592.137	51304
592.180	52579
592.208	52999
592.233	51106
592.279	47299
592.285	47204
592.338	45598
592.350	45114
592.390	44605
592.421	44085
592.443	43647
592.491	42370
592.495	42484
592.548	42810
592.562	42807
592.600	42718
592.633	42466
592.653	42167
592.704	40917
592.705	41122
592.775	39570
592.846	40546
592.916	39726
592.987	39335
593.058	38178
593.128	36631
593.199	35890
593.270	35398
593.341	34684
593.411	35067
593.482	33709
593.553	33758
593.623	33166
593.694	33192
593.764	33498
593.835	32259
593.906	31794
593.976	30929
594.047	31632
594.117	34813
594.188	33841
594.258	29766
594.329	29229
594.399	29939
594.470	28759
594.540	28052
594.611	28565
594.681	29318
594.751	28292
594.822	31057
594.892	31354
594.963	31050
595.033	29682
595.103	28917
595.174	31314
595.244	37514
595.314	42663
595.384	29144
595.455	28099
595.525	28986
595.595	28170
595.665	28844
595.736	27807
595.806	28459
595.876	27893
595.946	26773
596.016	27366
596.087	27830
596.157	27461
596.227	27344
596.297	28061
596.367	28823
596.437	31813
596.507	36217
596.577	40654
596.647	30446
596.717	28547
596.787	28901
596.857	29167
596.927	28271
596.997	29430
597.067	28918
597.137	30507
597.207	29746
597.277	29806
597.347	28662
597.417	27676
597.487	29231
597.557	29064
597.626	29000
597.696	29681
597.766	34637
597.836	38528
597.906	28915
597.975	27474
598.045	26487
598.115	26966
598.185	27438
598.254	30257
598.324	31264
598.394	31664
598.464	30907
598.533	29926
598.603	28472
598.672	28525
598.742	28421
598.812	28667
598.881	28562
598.951	28987
599.020	27686
599.090	28275
599.159	28935
599.229	28255
599.299	26966
599.368	28955
599.437	28579
599.507	26448
599.576	27710
599.646	27718
599.715	26863
599.785	26941
599.854	27309
599.924	29155
599.993	27979
600.062	25959
600.132	26061
600.201	26839
600.270	30568
600.340	29044
600.409	28354
600.478	29247
600.547	29360
600.617	28292
600.686	24905
600.755	24572
600.824	25856
600.894	24329
600.963	23531
601.032	22403
601.101	24490
601.170	22294
601.239	23178
601.308	23928
601.378	23350
601.447	22915
601.516	22467
601.585	23143
601.654	24845
601.723	24353
601.792	25296
601.861	24354
601.930	27030
601.999	26462
602.068	25599
602.137	26887
602.206	26053
602.275	26497
602.343	26903
602.412	26783
602.481	25670
602.550	24428
602.619	25836
602.688	26324
602.756	26180
602.825	25841
602.894	25739
602.963	25210
603.032	26436
603.100	25172
603.169	25697
603.238	25735
603.307	26412
603.375	25916
603.444	26678
603.513	25545
603.581	25978
603.650	27010
603.719	25906
603.787	24877
603.856	25437
603.924	25757
603.993	26462
604.061	26334
604.130	27470
604.198	27665
604.267	27871
604.335	28506
604.404	28478
604.472	28261
604.541	28072
604.609	29806
604.678	29578
604.746	29536
604.815	30223
604.883	29112
604.951	30580
605.020	30876
605.088	29841
605.156	30239
605.225	30558
605.293	29548
605.361	29544
605.429	30682
605.498	31624
605.566	31982
605.634	33080
605.702	32508
605.771	33950
605.839	34275
605.907	32358
605.975	31463
606.043	31669
606.111	31155
606.180	32684
606.248	33049
606.316	34108
606.384	32119
606.452	34697
606.520	33278
606.588	32002
606.656	28788
606.724	29619
606.792	28920
606.860	25948
606.928	24333
606.996	23405
607.064	22805
607.132	24397
607.200	24975
607.267	24923
607.335	25620
607.403	26559
607.471	25482
607.539	24661
607.607	24722
607.674	22536
607.742	24071
607.810	23046
607.878	23570
607.946	23511
608.013	23465
608.081	24984
608.149	24558
608.216	25380
608.284	26331
608.352	25969
608.419	25451
608.487	30984
608.555	26402
608.622	25457
608.690	25447
608.757	27989
608.825	28682
608.893	28873
608.960	28116
609.028	31128
609.095	32564
609.163	26257
609.230	23539
609.298	23131
609.365	22087
609.432	24583
609.500	27008
609.567	28909
609.635	31906
609.702	32732
609.769	32796
609.837	28874
609.904	24510
609.971	23438
610.039	29000
610.106	38397
610.173	72128
610.241	159890
610.308	107540
610.375	45071
610.442	27546
610.509	24571
610.577	24646
610.644	24252
610.711	24964
610.778	24526
610.845	26107
610.912	27665
610.980	30084
611.047	33501
611.114	30256
611.181	26939
611.248	25682
611.315	28481
611.382	27509
611.449	27085
611.516	30065
611.583	30436
611.650	29431
611.717	30163
611.784	30260
611.851	33136
611.918	37185
611.984	43712
612.051	68806
612.118	145229
612.185	360548
612.252	223573
612.319	52918
612.386	39404
612.452	36371
612.519	35783
612.586	39458
612.653	35586
612.719	34422
612.786	31638
612.853	29419
612.919	29216
612.986	29399
613.053	28214
613.120	26077
613.186	25831
613.253	27931
613.319	25970
613.386	26213
613.453	27847
613.519	28191
613.586	29897
613.652	37471
613.719	33350
613.785	32444
613.852	27621
613.918	27405
613.985	30060
614.051	36903
614.118	58812
614.184	53050
614.250	29655
614.317	28152
614.383	27721
614.449	27886
614.516	27390
614.582	28584
614.648	27419
614.715	25810
614.781	27170
614.847	27515
614.914	27691
614.980	27828
615.046	27807
615.112	28739
615.179	31606
615.245	38574
615.311	54481
615.377	100596
615.443	115331
615.509	60797
615.575	41760
615.642	37637
615.708	38145
615.774	41369
615.840	50126
615.906	67014
615.972	116963
616.038	242710
616.104	346948
616.170	529025
616.236	420577
616.302	96383
616.368	60610
616.434	43501
616.500	40347
616.565	41999
616.631	48383
616.697	41444
616.763	42839
616.829	59429
616.895	98500
616.961	95491
617.026	47429
617.092	32645
617.158	30407
617.224	28508
617.289	27472
617.355	25954
617.421	25633
617.487	26737
617.552	24653
617.618	23041
617.684	23230
617.749	26870
617.815	23348
617.880	22567
617.946	21769
618.012	24250
618.077	23153
618.143	22370
618.208	23243
618.274	24079
618.339	26041
618.405	20653
618.470	22293
618.536	21958
618.601	23911
618.667	20758
618.732	19820
618.798	19736
618.863	20184
618.928	19826
618.994	21258
619.059	22619
619.124	27328
619.190	22376
619.255	20234
619.320	19594
619.386	19880
619.451	19179
619.516	19657
619.581	19524
619.647	19072
619.712	19173
619.777	19030
619.842	19437
619.907	20327
619.972	19904
620.038	19531
620.103	18852
620.168	17905
620.233	19464
620.298	19375
620.363	18597
620.428	19797
620.493	20518
620.558	20153
620.623	19705
620.688	20416
620.753	20057
620.818	19379
620.883	19470
620.948	20330
621.013	19355
621.078	19210
621.143	19597
621.207	23291
621.272	21374
621.337	21113
621.402	21911
621.467	25263
621.532	26580
621.596	23150
621.661	21916
621.726	19858
621.791	20945
621.855	22032
621.920	22400
621.985	22907
622.049	26091
622.114	24691
622.179	23137
622.243	23245
622.308	22235
622.373	24202
622.437	23725
622.502	21053
622.566	22452
622.631	21275
622.695	23093
622.760	22689
622.824	22089
622.889	22452
622.953	23590
623.018	30202
623.082	28854
623.147	23123
623.211	22354
623.276	22415
623.340	20461
623.404	21011
623.469	21028
623.533	21248
623.597	19543
623.662	20673
623.726	19775
623.790	18580
623.854	18027
623.919	20119
623.983	19063
624.047	18617
624.111	18275
624.176	19436
624.240	20605
624.304	22942
624.368	20052
624.432	19880
624.496	21075
624.560	22778
624.625	22317
624.689	20718
624.753	20567
624.817	19964
624.881	19254
624.945	18816
625.009	17515
625.073	20118
625.137	19608
625.201	22758
625.265	23031
625.329	20367
625.393	20044
625.456	19887
625.520	21317
625.584	22220
625.648	26615
625.712	36776
625.776	74023
625.839	82306
625.903	34428
625.967	21523
626.031	34296
626.095	47094
626.158	21600
626.222	14692
626.286	15417
626.349	15052
626.413	13794
626.477	16761
626.540	14927
626.604	14670
626.668	14590
626.731	13524
626.795	14663
626.858	14699
626.922	13421
626.986	14343
627.049	12319
627.113	14974
627.176	13330
627.240	13322
627.303	13329
627.366	13095
627.430	13803
627.493	13205
627.557	13398
627.620	14987
627.684	14030
627.747	14613
627.810	12371
627.874	12911
627.937	11804
628.000	14041
628.064	13702
628.127	10776
628.190	11990
628.253	11678
628.317	10388
628.380	11573
628.443	10909
628.506	10730
628.569	11500
628.632	10344
628.696	10634
628.759	10304
628.822	10116
628.885	9841
628.948	10382
629.011	9475
629.074	9846
629.137	8990
629.200	9095
629.263	12252
629.326	8978
629.389	9031
629.452	9990
629.515	10485
629.578	9928
629.641	11799
629.704	10145
629.767	10792
629.830	9672
629.892	10239
629.955	8060
630.018	10760
630.081	9929
630.144	13097
630.207	9583
630.269	11704
630.332	11107
630.395	10674
630.458	9188
630.520	7975
630.583	9371
630.646	9537
630.708	7383
630.771	8411
630.834	9605
630.896	8044
630.959	7716
631.021	7646
631.084	8587
631.146	9483
631.209	11058
631.272	9025
631.334	8697
631.397	8621
631.459	9187
631.522	9962
631.584	7816
631.646	9816
631.709	9639
631.771	11632
631.834	9807
631.896	8367
631.958	7830
632.021	9118
632.083	7815
632.145	8613
632.208	8845
632.270	9364
632.332	7522
632.395	7422
632.457	8558
632.519	7772
632.581	8781
632.643	7125
632.706	7729
632.768	7274
632.830	7947
632.892	7476
632.954	7786
633.016	8834
633.078	7772
633.141	7355
633.203	7000
633.265	8687
633.327	8223
633.389	7450
633.451	9185
633.513	9704
633.575	9718
633.637	9276
633.698	8698
633.760	8814
633.822	7859
633.884	8029
633.946	8456
634.008	8168
634.070	8782
634.132	9628
634.193	9777
634.255	10096
634.317	8381
634.379	10232
634.441	8875
634.502	8074
634.564	9419
634.626	8458
634.687	7921
634.749	7961
634.811	7659
634.873	7380
634.934	7645
634.996	8646
635.057	5927
635.119	7013
635.181	6736
635.242	7548
635.304	6159
635.365	9964
635.427	6358
635.488	7701
635.550	6382
635.611	6931
635.673	5718
635.734	8048
635.796	7118
635.857	9672
635.918	7250
635.980	9014
636.041	8010
636.102	10193
636.164	8164
636.225	9384
636.286	7231
636.348	8560
636.409	7044
636.470	6939
636.531	7361
636.593	8504
636.654	7981
636.715	6039
636.776	6053
636.838	5979
636.899	7345
636.960	5846
637.021	5820
637.082	6383
637.143	6212
637.204	5235
637.265	5445
637.326	6723
637.387	6025
637.448	5604
637.509	6009
637.570	5615
637.631	7045
637.692	4077
637.753	4371
637.814	4877
637.875	5820
637.936	6505
637.997	5651
638.058	5351
638.119	6908
638.179	5893
638.240	5865
638.301	4750
638.362	5212
638.423	5955
638.483	6141
638.544	4094
638.605	5155
638.666	5098
638.726	5897
638.787	5394
638.848	3711
638.908	5447
638.969	4988
639.030	5109
639.090	4509
639.151	5117
639.211	5662
639.272	7389
639.332	10817
639.393	6998
639.453	4620
639.514	5483
639.574	5613
639.635	4353
639.695	5856
639.756	4617
639.816	5552
639.877	7235
639.937	10609
639.997	12286
640.058	5326
640.118	4326
640.178	6084
640.239	4695
640.299	5315
640.359	4985
640.420	5349
640.480	5560
640.540	5344
640.600	5305
640.661	5773
640.721	5701
640.781	7800
640.841	5269
640.901	5844
640.961	5364
641.021	5088
641.082	4883
641.142	7470
641.202	7182
641.262	3449
641.322	5773
641.382	3550
641.442	5072
641.502	4441
641.562	5096
641.622	3586
641.682	5992
641.742	4607
641.802	5290
641.861	5102
641.921	4973
641.981	5646
642.041	6202
642.101	6526
642.161	4117
642.221	3720
642.280	4255
642.340	3816
642.400	3304
642.460	5245
642.519	4333
642.579	3831
642.639	5086
642.698	1841
642.758	6424
642.818	4863
642.877	4233
642.937	4071
642.997	5668
643.056	7070
643.116	4153
643.175	6133
643.235	4339
643.294	4423
643.354	5245
643.414	5732
643.473	7568
643.532	6941
643.592	10234
643.651	18204
643.711	31153
643.770	63123
643.830	152228
643.889	320688
643.948	72002
644.008	12625
644.067	8762
644.126	6002
644.186	5629
644.245	5994
644.304	3710
644.363	7114
644.423	3061
644.482	4854
644.541	5324
644.600	3359
644.659	6003
644.719	5950
644.778	8954
644.837	13809
644.896	27491
644.955	60465
645.014	20683
645.073	6792
645.132	5035
645.191	5998
645.250	3908
645.309	6608
645.368	4161
645.427	6239
645.486	7413
645.545	13441
645.604	5341
645.663	5236
645.722	4252
645.781	4853
645.840	5573
645.898	6097
645.957	10552
646.016	14663
646.075	28486
646.134	53309
646.192	145820
646.251	209410
646.310	29255
646.369	8528
646.427	6595
646.486	4168
646.545	4239
646.603	4960
646.662	3970
646.721	4766
646.779	3660
646.838	3191
646.896	5325
646.955	5340
647.014	9566
647.072	15021
647.131	38406
647.189	17350
647.248	3688
647.306	4329
647.365	4394
647.423	1866
647.481	4690
647.540	2339
647.598	3661
647.657	2937
647.715	3952
647.773	2464
647.832	4194
647.890	2152
647.948	2849
648.007	3984
648.065	3091
648.123	2610
648.181	4908
648.240	4533
648.298	3666
648.356	3443
648.414	3305
648.472	3339
648.531	3710
648.589	2770
648.647	3133
648.705	3403
648.763	3556
648.821	2652
648.879	3012
648.937	4152
648.995	4194
649.053	4210
649.111	7892
649.169	12465
649.227	20394
649.285	41127
649.343	115792
649.401	55440
649.459	16991
649.516	11615
649.574	7769
649.632	17766
649.690	19027
649.748	9736
649.806	9254
649.863	15828
649.921	26997
649.979	16738
650.037	4557
650.094	2088
650.152	3858
650.210	1749
650.268	2865
650.325	3297
650.383	3093
650.440	2312
650.498	3123
650.556	2846
650.613	1634
650.671	3021
650.728	2601
650.786	3364
650.843	3018
650.901	476
650.958	2313
651.016	2640
651.073	2281
651.131	2124
651.188	2044
651.246	1901
651.303	2420
651.360	3214
651.418	2245
651.475	2133
651.532	2374
651.590	3130
651.647	1373
651.704	2096
651.762	2109
651.819	2104
651.876	1841
651.933	1867
651.990	3314
652.048	1343
652.105	1936
652.162	2432
652.219	1562
652.276	2393
652.333	2788
652.390	1070
652.448	2309
652.505	2233
652.562	2257
652.619	2297
652.676	4299
652.733	5268
652.790	2503
652.847	1268
652.904	2103
652.961	879
653.017	1890
653.074	1844
653.131	3058
653.188	1333
653.245	2053
653.302	2177
653.359	2162
653.415	2551
653.472	1972
653.529	2184
653.586	1491
653.642	1577
653.699	2267
653.756	1788
653.813	1144
653.869	1759
653.926	1395
653.983	574
654.039	2243
654.096	1964
654.152	3574
654.209	1999
654.266	2325
654.322	850
654.379	3210
654.435	3110
654.492	2870
654.548	4182
654.605	6154
654.661	3979
654.717	2244
654.774	2795
654.830	2540
654.887	2314
654.943	2212
655.000	2150
655.056	3000
655.112	1935
655.168	816
655.225	2327
655.281	3383
655.337	3932
655.394	6231
655.450	5035
655.506	4430
655.562	6591
655.618	6170
655.675	1714
655.731	2167
655.787	1917
655.843	2789
655.899	708
655.955	3079
656.011	2646
656.067	1551
656.123	3029
656.179	2952
656.235	3812
656.291	2117
656.347	3528
656.403	2143
656.459	1970
656.515	2651
656.571	2935
656.627	3237
656.683	2365
656.739	2911
656.795	2595
656.850	2302
656.906	1973
656.962	2847
657.018	1242
657.074	2158
657.129	2216
657.185	3099
657.241	3938
657.297	2718
657.352	1313
657.408	1649
657.464	3340
657.519	1921
657.575	1257
657.630	2106
657.686	1396
657.742	1254
657.797	1605
657.853	1444
657.908	2209
657.964	731
658.019	1681
658.075	2108
658.130	1941
658.186	753
658.241	2065
658.297	626
658.352	1564
658.407	1808
658.463	699
658.518	1989
658.573	2327
658.629	830
658.684	1203
658.739	2821
658.795	1041
658.850	2023
658.905	1570
658.960	1128
659.016	1518
659.071	2269
659.126	1520
659.181	1935
659.236	3474
659.291	3918
659.346	2091
659.401	2505
659.457	2540
659.512	2800
659.567	2438
659.622	1418
659.677	1448
659.732	2056
659.787	2642
659.842	2388
659.897	3221
659.952	2065
660.007	1636
660.061	2015
660.116	988
660.171	1598
660.226	1224
660.281	3000
660.336	-103
660.391	1936
660.445	1182
660.500	2161
660.555	1733
660.610	1110
660.664	1829
660.719	1204
660.774	2958
660.828	1685
660.883	1577
660.938	2521
660.992	905
661.047	2461
661.101	1252
661.156	1118
661.211	723
661.265	1465
661.320	724
661.374	581
661.429	1414
661.483	1845
661.538	994
661.592	1349
661.647	2059
661.701	2253
661.755	2284
661.810	2013
661.864	1315
661.919	538
661.973	1681
662.027	1189
662.081	1072
662.136	1398
662.190	1895
662.244	2523
662.299	1242
662.353	2142
662.407	1657
662.461	1570
662.515	1853
662.569	1447
662.624	2608
662.678	1440
662.732	1892
662.786	986
662.840	2243
662.894	2420
662.948	1150
663.002	1827
663.056	2017
663.110	1301
663.164	1907
663.218	1107
663.272	1227
663.326	2448
663.380	1387
663.434	2260
663.488	1811
663.542	2248
663.595	1739
663.649	1385
663.703	2172
663.757	1513
663.811	1291
663.864	1640
663.918	846
663.972	1375
664.026	1168
664.079	1831
664.133	1565
664.187	1541
664.240	1838
664.294	1334
664.348	2581
664.401	1201
664.455	1357
664.508	1484
664.562	1107
664.615	1806
664.669	1778
664.722	1742
664.776	1436
664.829	2155
664.883	1155
664.936	1631
664.990	1449
665.043	2143
665.097	1452
665.150	2569
665.203	1795
665.257	1496
665.310	2093
665.363	2700
665.417	2316
665.470	1728
665.523	2039
665.576	1320
665.630	1036
665.683	1118
665.736	2473
665.789	2234
665.842	1217
665.895	1308
665.949	1819
666.002	2618
666.055	1994
666.108	2006
666.161	1515
666.214	2481
666.267	2036
666.320	2897
666.373	2001
666.426	2547
666.479	2117
666.532	2424
666.585	2185
666.638	3050
666.691	2898
666.744	3395
666.796	2605
666.849	2902
666.902	2752
666.955	2769
667.008	1992
667.060	1648
667.113	576
667.166	1754
667.219	1939
667.271	1460
667.324	1566
667.377	1082
667.430	1417
667.482	2219
667.535	2033
667.587	2576
667.640	1697
667.693	2852
667.745	4167
667.798	4402
667.850	2257
667.903	2405
667.955	1578
668.008	1653
668.060	1680
668.113	2869
668.165	2989
668.218	1847
668.270	2116
668.322	1513
668.375	2014
668.427	2595
668.479	1533
668.532	2444
668.584	2112
668.636	2784
668.689	2550
668.741	2190
668.793	2665
668.845	2004
668.898	1838
668.950	2198
669.002	2096
669.054	1149
669.106	2007
669.158	2881
669.211	2284
669.263	2096
669.315	3303
669.367	3152
669.419	1996
669.471	3515
669.523	3280
669.575	4746
669.627	3051
669.679	2933
669.731	2474
669.783	2926
669.835	2741
669.886	3293
669.938	2856
669.990	1855
670.042	1497
670.094	1814
670.146	2379
670.197	2872
670.249	3362
670.301	3864
670.353	5592
670.404	8004
670.456	10937
670.508	17589
670.560	27863
670.611	49797
670.663	85245
670.715	207923
670.766	319155
670.818	83494
670.869	14325
670.921	8542
670.972	5983
671.024	3558
671.075	3425
671.127	3333
671.178	3597
671.230	2371
671.281	2563
671.333	2064
671.384	2793
671.436	3474
671.487	3995
671.538	3605
671.590	4908
671.641	6820
671.692	9682
671.744	16591
671.795	12855
671.846	5519
671.897	2957
671.949	2996
672.000	3045
672.051	2714
672.102	2710
672.153	2146
672.204	2010
672.256	2343
672.307	2552
672.358	2721
672.409	2291
672.460	1414
672.511	1851
672.562	1868
672.613	1466
672.664	1477
672.715	1873
672.766	2196
672.817	1692
672.868	1824
672.919	584
672.970	1966
673.021	1367
673.071	1400
673.122	1597
673.173	1498
673.224	1867
673.275	1038
673.326	2601
673.376	1896
673.427	1621
673.478	1704
673.528	1833
673.579	1309
673.630	1647
673.680	3038
673.731	1273
673.782	1117
673.832	1506
673.883	1449
673.934	1400
673.984	1702
674.035	2441
674.085	1913
674.136	1518
674.186	2941
674.237	2784
674.287	4004
674.338	2410
674.388	1234
674.438	1734
674.489	2370
674.539	1928
674.589	1692
674.640	2244
674.690	2011
674.740	1524
674.791	2086
674.841	1939
674.891	1789
674.942	1767
674.992	1113
675.042	1316
675.092	2097
675.142	1191
675.193	1634
675.243	769
675.293	1991
675.343	1518
675.393	1639
675.443	1646
675.493	1523
675.543	873
675.593	1545
675.643	2017
675.693	1745
675.743	2291
675.793	1256
675.843	1269
675.893	1525
675.943	1187
675.993	1860
676.043	1820
676.093	2047
676.142	1070
676.192	1715
676.242	1689
676.292	1387
676.341	1835
676.391	1615
676.441	1077
676.491	1305
676.540	800
676.590	1642
676.640	983
676.689	1648
676.739	1203
676.789	1473
676.838	775
676.888	1924
676.937	1011
676.987	1547
677.037	1180
677.086	1094
677.136	1224
677.185	593
677.235	847
677.284	712
677.333	189
677.383	438
677.432	1191
677.482	1635
677.531	829
677.580	991
677.630	1046
677.679	794
677.728	1205
677.778	1209
677.827	940
677.876	943
677.925	1178
677.975	1232
678.024	1075
678.073	1103
678.122	1533
678.171	1590
678.220	1386
678.269	1894
678.319	1386
678.368	1571
678.417	1447
678.466	1622
678.515	1236
678.564	1005
678.613	1270
678.662	977
678.711	1368
678.760	1504
678.809	751
678.857	1358
678.906	1569
678.955	1117
679.004	2530
679.053	1271
679.102	1147
679.151	1116
679.199	1152
679.248	1380
679.297	556
679.346	1632
679.394	791
679.443	532
679.492	916
679.540	1751
679.589	888
679.638	1697
679.686	727
679.735	1194
679.784	1258
679.832	1219
679.881	263
679.929	1881
679.978	1020
680.026	1349
680.075	1593
680.123	1397
680.172	513
680.220	1147
680.268	766
680.317	1254
680.365	451
680.414	329
680.462	836
680.510	967
680.559	467
680.607	1775
680.655	875
680.703	394
680.752	1877
680.800	657
680.848	708
680.896	1021
680.945	962
680.993	208
681.041	918
681.089	781
681.137	667
681.185	1072
681.233	487
681.258	717
681.281	922
681.329	847
681.377	366
681.380	392
681.425	665
681.473	1766
681.502	1162
681.521	721
681.569	899
681.617	277
681.624	466
681.665	1589
681.713	669
681.745	352
681.761	189
681.809	11
681.857	1456
681.867	1252
681.904	499
681.952	1490
681.989	1132
682.000	1008
682.048	1755
682.096	833
682.111	667
682.143	269
682.191	802
682.233	1823
682.239	1965
682.286	1120
682.334	1316
682.354	943
682.382	406
682.430	1418
682.476	1089
682.477	1073
682.525	1510
682.572	857
682.598	734
682.620	630
682.667	1167
682.715	379
682.720	502
682.763	1478
682.810	1347
682.841	1649
682.857	1819
682.905	1677
682.952	1563
682.963	1485
683.000	1090
683.047	1138
683.085	2097
683.095	2359
683.142	1478
683.190	1796
683.206	1526
683.237	994
683.284	2046
683.328	1394
683.332	1333
683.379	1425
683.426	969
683.449	1122
683.473	1273
683.521	975
683.568	1758
683.571	1739
683.615	1233
683.662	1243
683.693	1036
683.709	949
683.757	1248
683.804	1607
683.814	1496
683.851	1056
683.898	1787
683.936	2266
683.945	2372
683.992	753
684.039	1637
684.057	1799
684.086	2087
684.133	2070
684.179	1667
684.180	1643
684.227	2670
684.274	2634
684.300	2636
684.321	2617
684.368	1718
684.415	2347
684.422	2277
684.462	1844
684.509	1632
684.543	2142
684.556	2313
684.603	1626
684.649	1249
684.665	1700
684.696	2625
684.743	1769
684.786	1952
684.790	1967
684.837	1761
684.883	2596
684.908	2516
684.930	2392
684.977	2578
685.023	2127
685.029	2112
685.070	1866
685.117	1903
685.150	2222
685.164	2379
685.210	2025
685.257	3122
685.272	2958
685.303	2559
685.350	2204
685.393	2086
685.396	2076
685.443	2681
685.490	3337
685.514	3385
685.536	3370
685.583	2580
685.629	2620
685.636	2581
685.675	2350
685.722	2246
685.757	2918
685.768	3154
685.815	2215
685.861	3069
685.878	3042
685.908	2892
685.954	2613
686.000	3000
686.000	3006
686.047	3187
686.093	3762
686.121	3777
686.139	3662
686.185	2810
686.232	2860
686.242	2946
686.278	3330
686.324	3354
686.363	3121
686.370	3076
686.416	3141
686.463	3701
686.484	3633
686.509	3515
686.555	3279
686.601	2867
686.606	2847
686.647	2746
686.693	3221
686.727	2876
686.739	2724
686.785	3390
686.831	2925
686.848	2818
686.877	2676
686.923	3513
686.969	2783
686.969	2778
687.015	2810
687.061	3291
687.090	3224
687.107	3166
687.153	3376
687.199	3120
687.211	3203
687.245	3514
687.291	3226
687.332	3426
687.336	3444
687.382	3571
687.428	3705
687.453	3590
687.474	3386
687.520	3425
687.565	3477
687.574	3300
687.611	2897
687.657	3275
687.695	3773
687.702	3859
687.748	4155
687.794	4501
687.816	4526
687.839	4272
687.885	3666
687.931	3254
687.937	3185
687.976	3227
688.022	3618
688.058	3396
688.067	3321
688.113	3231
688.158	3379
688.179	3490
688.204	3681
688.249	3568
688.295	3697
688.300	3710
688.340	3765
688.386	3919
688.421	3721
688.431	3652
688.477	3933
688.522	3425
688.542	3556
688.567	3799
688.613	3656
688.658	3799
688.663	3766
688.703	3516
688.749	4130
688.784	4119
688.794	4070
688.839	4255
688.884	4067
688.905	3837
688.930	3753
688.975	3904
689.020	3931
689.026	4001
689.065	4305
689.110	4042
689.146	4162
689.155	4204
689.201	3830
689.246	4036
689.267	3963
689.291	3884
689.336	3964
689.381	4007
689.388	3983
689.426	4038
689.471	4277
689.509	4280
689.516	4245
689.561	4414
689.606	3601
689.630	3729
689.651	3924
689.696	3901
689.741	4121
689.750	4142
689.785	4273
689.830	4096
689.871	4206
689.875	4213
689.920	4302
689.965	4042
689.992	4160
690.010	4301
690.054	4508
690.099	4694
690.112	4528
690.144	4073
690.189	4256
690.233	4183
690.233	4190
690.278	4289
690.323	4259
690.354	4557
690.367	4727
690.412	4271
690.457	4658
690.474	4681
690.501	4679
690.546	4832
690.590	4731
690.595	4708
690.635	4548
690.680	4599
690.716	4651
690.724	4744
690.769	5008
690.813	6019
690.836	5789
690.857	5686
690.902	6770
690.946	7584
690.957	7692
690.991	9222
691.035	11482
691.077	13886
691.080	13912
691.124	13803
691.168	12541
691.198	12080
691.213	11397
691.257	9582
691.301	7697
691.318	6816
691.346	6324
691.390	5717
691.434	6016
691.439	5895
691.478	5278
691.522	5227
691.559	5161
691.567	5174
691.611	5199
691.655	5165
691.680	5032
691.699	4983
691.743	4944
691.787	4901
691.800	4811
691.831	4649
691.875	4945
691.919	5192
691.921	5176
691.964	5038
692.008	5311
692.041	5374
692.052	5410
692.096	5188
692.139	5678
692.162	5499
692.183	5233
692.227	5226
692.271	5334
692.282	5274
692.315	5271
692.359	5160
692.402	5449
692.403	5465
692.447	5474
692.490	5829
692.523	5928
692.534	5891
692.578	5941
692.622	5748
692.643	5696
692.666	5628
692.709	5173
692.753	5084
692.763	5053
692.797	5055
692.840	5000
692.884	4757
692.884	4770
692.928	5186
692.971	5366
693.004	5504
693.015	5519
693.059	5486
693.102	5660
693.124	5556
693.146	5588
693.189	6055
693.233	5952
693.245	6115
693.276	6453
693.320	6272
693.363	6280
693.365	6271
693.407	6670
693.450	6922
693.485	7027
693.493	7128
693.537	7683
693.580	7996
693.605	8504
693.624	9400
693.667	11001
693.710	13137
693.725	13834
693.753	17205
693.797	22393
693.840	27653
693.845	28193
693.883	26510
693.926	23777
693.966	21801
693.970	21418
694.013	16942
694.056	12864
694.086	9689
694.099	9392
694.142	8713
694.185	8027
694.206	7734
694.229	7618
694.272	7122
694.315	6806
694.326	6656
694.358	6664
694.401	6975
694.444	6972
694.446	6960
694.487	7001
694.530	7062
694.566	6867
694.573	6748
694.616	6327
694.659	5813
694.686	5289
694.702	5274
694.745	5257
694.787	5208
694.806	5321
694.830	5500
694.873	5340
694.916	5560
694.926	5596
694.959	5835
695.002	5891
695.044	5997
695.046	5982
695.087	5741
695.130	5671
695.166	5742
695.172	5836
695.215	5985
695.258	6208
695.286	6452
695.301	6526
695.343	6467
695.386	6494
695.406	6597
695.428	6622
695.471	6156
695.514	6115
695.526	6074
695.556	6256
695.599	6279
695.641	6397
695.646	6391
695.684	6148
695.726	5909
695.766	5598
695.769	5629
695.811	5785
695.854	6205
695.886	6398
695.896	6396
695.938	6221
695.981	6047
696.005	6027
696.023	6226
696.065	6613
696.108	6858
696.125	7044
696.150	6971
696.192	6523
696.235	6112
696.245	6043
696.277	6217
696.319	6291
696.361	6445
696.365	6424
696.404	6453
696.446	6806
696.485	6820
696.488	6835
696.530	6869
696.572	6936
696.604	6908
696.614	6874
696.656	6646
696.698	6501
696.724	6363
696.740	6361
696.783	6403
696.825	6429
696.844	6360
696.867	6382
696.909	6479
696.951	6463
696.964	6483
696.992	6423
697.034	6163
697.076	6006
697.083	5955
697.118	6148
697.160	6420
697.202	6656
697.203	6640
697.244	6409
697.286	6371
697.323	6090
697.327	6114
697.369	6322
697.411	6425
697.442	6619
697.453	6734
697.494	6863
697.536	7171
697.562	7323
697.578	7325
697.620	7333
697.661	7191
697.682	7130
697.703	7209
697.744	7393
697.786	7583
697.801	7589
697.828	7519
697.869	7400
697.911	7284
697.921	7248
697.952	7262
697.994	7248
698.035	7168
698.040	7136
698.077	6912
698.118	6721
698.160	6444
698.160	6422
698.201	6707
698.243	6940
698.279	7189
698.284	7219
698.325	7280
698.367	7293
698.399	7297
698.408	7278
698.449	7092
698.491	6913
698.518	6771
698.532	6871
698.573	7095
698.614	7360
698.638	7469
698.656	7489
698.697	7519
698.738	7505
698.757	7489
698.779	7464
698.820	7374
698.862	7276
698.877	7222
698.903	7347
698.944	7504
698.985	7675
698.996	7700
699.026	7634
699.067	7517
699.116	7357
699.235	7649
699.354	6835
699.474	6802
699.593	8361
699.713	8755
699.832	8324
699.951	7630
700.070	7138
700.190	7403
700.309	8505
700.428	8530
700.547	7889
700.667	7167
700.786	7846
700.905	6801
701.024	7683
701.143	6729
701.262	6858
701.381	6689
701.500	7326
701.619	6922
701.738	7016
701.857	6491
701.976	6471
702.095	6327
702.214	7691
702.333	7552
702.452	7329
702.571	6465
702.690	6120
702.809	6329
702.928	5724
703.047	6590
703.165	6417
703.284	6480
703.403	6313
703.522	6954
703.640	6917
703.759	7277
703.878	9972
703.997	6320
704.115	6518
704.234	6536
704.353	5596
704.471	6087
704.590	5986
704.708	5965
704.827	6265
704.946	6067
705.064	6457
705.183	6346
705.301	6941
705.420	9288
705.538	8314
705.656	7350
705.775	7665
705.893	13870
706.012	14952
706.130	7649
706.249	7996
706.367	8076
706.485	8463
706.604	7205
706.722	8200
706.840	9110
706.958	10493
707.077	8711
707.195	7229
707.313	7217
707.431	7367
707.549	7123
707.668	7475
707.786	6391
707.904	7191
708.022	6833
708.140	6973
708.258	7115
708.376	6936
708.494	7124
708.612	7911
708.730	10350
708.848	9877
708.966	8300
709.084	8365
709.202	7845
709.320	8565
709.438	8289
709.556	8105
709.674	8785
709.791	8330
709.909	7372
710.027	8275
710.145	8448
710.263	8925
710.380	8092
710.498	7781
710.616	8028
710.733	7157
710.851	7650
710.969	7930
711.086	7309
711.204	8529
711.322	8332
711.439	7844
711.557	8483
711.674	8236
711.792	7802
711.909	8850
712.027	7936
712.144	7093
712.262	7208
712.379	7670
712.497	10073
712.614	11057
712.732	9720
712.849	9178
712.966	9527
713.084	10888
713.201	9559
713.318	8928
713.436	9997
713.553	8941
713.670	9822
713.787	11410
713.905	10094
714.022	9810
714.139	8376
714.256	10655
714.373	13088
714.490	17810
714.608	39220
714.725	154516
714.842	151894
714.959	15741
715.076	10264
715.193	9590
715.310	8402
715.427	8842
715.544	7928
715.661	8083
715.778	7981
715.895	9078
716.011	9677
716.128	8939
716.245	8514
716.362	9040
716.479	8943
716.596	8869
716.713	8158
716.829	8558
716.946	8652
717.063	6987
717.180	7453
717.296	7931
717.413	6592
717.530	7674
717.646	6952
717.763	8133
717.880	7957
717.996	6761
718.113	6858
718.229	6922
718.346	6699
718.462	7669
718.579	8212
718.695	12213
718.812	10038
718.928	9438
719.045	7244
719.161	7112
719.277	6490
719.394	7902
719.510	7489
719.626	7644
719.743	8375
719.859	9770
719.975	13567
720.092	41400
720.208	86317
720.324	14776
720.440	7647
720.557	8268
720.673	10919
720.789	15728
720.905	26912
721.021	9084
721.137	7140
721.253	7339
721.369	7285
721.486	8001
721.602	9519
721.718	6787
721.834	6534
721.950	6693
722.066	5935
722.181	4889
722.297	6843
722.413	6296
722.529	6571
722.645	5732
722.761	5501
722.877	5438
722.993	5699
723.108	6078
723.224	5775
723.340	5938
723.456	6258
723.571	7030
723.687	5716
723.803	5530
723.918	4957
724.034	5744
724.150	5274
724.265	6637
724.381	12483
724.497	12157
724.612	5346
724.728	5316
724.843	5354
724.959	7074
725.074	12130
725.190	12038
725.305	6099
725.421	5866
725.536	5229
725.651	5490
725.767	5271
725.882	4602
725.997	4900
726.113	4864
726.228	4614
726.343	4431
726.459	4767
726.574	5745
726.689	4900
726.804	4819
726.920	3753
727.035	5040
727.150	5431
727.265	4778
727.380	5147
727.495	4543
727.610	4692
727.725	4867
727.841	4527
727.956	9191
728.071	7301
728.186	3648
728.301	3951
728.416	4858
728.531	4336
728.645	3492
728.760	5344
728.875	5888
728.990	5385
729.105	5316
729.220	4819
729.335	5193
729.449	4056
729.564	4097
729.679	4318
729.794	3476
729.908	4209
730.023	4363
730.138	2210
730.253	4427
730.367	4492
730.482	4582
730.596	3824
730.711	4154
730.826	4740
730.940	4912
731.055	3646
731.169	4474
731.284	3790
731.398	3571
731.513	4661
731.627	4917
731.742	4241
731.856	5285
731.970	4630
732.085	5005
732.199	5289
732.313	8061
732.428	17092
732.542	42514
732.656	24498
732.771	6667
732.885	4133
732.999	4905
733.113	4359
733.227	4719
733.342	3746
733.456	4269
733.570	3192
733.684	4189
733.798	4148
733.912	3832
734.026	3959
734.140	3830
734.254	4762
734.368	6777
734.482	6397
734.596	4185
734.710	3360
734.824	3628
734.938	3195
735.052	3276
735.166	3513
735.280	3978
735.393	2735
735.507	3944
735.621	4914
735.735	7725
735.849	3339
735.962	4257
736.076	3707
736.190	3710
736.303	5501
736.417	5029
736.531	3666
736.644	3415
736.758	3424
736.872	2973
736.985	3317
737.099	3344
737.212	3023
737.326	4044
737.439	3616
737.553	3397
737.666	3349
737.780	2674
737.893	3057
738.007	3266
738.120	3502
738.233	3215
738.347	3279
738.460	3522
738.573	3426
738.687	3824
738.800	3508
738.913	3701
739.026	3480
739.140	3585
739.253	3651
739.366	3358
739.479	2638
739.592	2887
739.705	3634
739.818	2898
739.932	2250
740.045	2713
740.158	3413
740.271	3567
740.384	2686
740.497	3402
740.610	3602
740.723	3243
740.836	3097
740.949	4605
741.062	4195
741.174	3994
741.287	3300
741.400	3336
741.513	3908
741.626	4516
741.739	3464
741.851	3611
741.964	2731
742.077	2787
742.189	3894
742.302	5239
742.415	4189
742.527	4436
742.640	3223
742.753	3684
742.865	1887
742.978	2506
743.090	3393
743.203	3352
743.316	2667
743.428	3036
743.541	2800
743.653	2320
743.766	2685
743.878	3036
743.990	3672
744.103	3765
744.215	2406
744.327	2698
744.440	3349
744.552	4752
744.664	2527
744.777	2763
744.889	1946
745.001	2995
745.113	2370
745.226	2290
745.338	3059
745.450	2242
745.562	2179
745.674	1744
745.786	2179
745.898	3366
746.010	2470
746.122	2044
746.234	2493
746.347	2775
746.459	3408
746.570	2515
746.682	3026
746.794	4975
746.906	2744
747.018	2489
747.130	2529
747.242	2457
747.354	2230
747.466	2309
747.577	2141
747.689	3253
747.801	2492
747.913	2017
748.024	2237
748.136	2564
748.248	2427
748.359	1706
748.471	2348
748.583	2500
748.694	2397
748.806	3598
748.918	3350
749.029	2313
749.141	1733
749.252	3176
749.364	2817
749.475	4718
749.587	3188
749.698	2694
749.809	2445
749.921	2099
750.032	2492
750.144	2184
750.255	1859
750.366	1551
750.478	2234
750.589	2161
750.700	1972
750.811	1764
750.923	2812
751.034	5728
751.145	4283
751.256	2319
751.367	3040
751.479	2671
751.590	1997
751.701	2481
751.812	2100
751.923	1544
752.034	1794
752.145	1998
752.256	2631
752.367	2228
752.478	2286
752.589	2974
752.700	2168
752.811	2062
752.922	2432
753.032	1719
753.143	2289
753.254	1957
753.365	1657
753.476	2251
753.586	1255
753.697	2068
753.808	1990
753.919	2519
754.029	2514
754.140	2000
754.251	1619
754.361	2222
754.472	1999
754.582	1675
754.693	1841
754.804	1741
754.914	1842
755.025	1628
755.135	2526
755.246	2175
755.356	1840
755.466	2492
755.577	2763
755.687	2408
755.798	2722
755.908	2865
756.018	1930
756.129	2444
756.239	2077
756.349	2547
756.460	936
756.570	2145
756.680	1380
756.790	2455
756.900	1955
757.011	2363
757.121	1813
757.231	1613
757.341	1733
757.451	1764
757.561	1271
757.671	1846
757.781	924
757.891	3053
758.001	1960
758.111	2061
758.221	2632
758.331	2335
758.441	1474
758.551	2763
758.661	3176
758.771	2072
758.880	2248
758.990	2327
759.100	2275
759.210	1392
759.320	2690
759.429	2952
759.539	3260
759.649	2227
759.758	2412
759.868	3140
759.978	2076
760.087	2826
760.197	2460
760.307	2669
760.416	2458
760.526	1626
760.635	2119
760.745	3092
760.854	2251
760.964	3644
761.073	1869
761.182	2073
761.292	4011
761.401	2954
761.511	2427
761.620	3063
761.729	3179
761.839	2212
761.948	3240
762.057	3096
762.166	2152
762.276	1905
762.385	3113
762.494	2453
762.603	2688
762.712	3336
762.822	3010
762.931	3515
763.040	2452
763.149	3557
763.258	2671
763.367	3222
763.476	4051
763.585	3485
763.694	3517
763.803	4466
763.912	3808
764.021	4541
764.130	4129
764.238	4696
764.347	4845
764.456	4264
764.565	4862
764.674	5362
764.783	5407
764.891	5810
765.000	7909
765.109	7528
765.217	8975
765.326	11056
765.435	14350
765.543	16140
765.652	19158
765.761	26313
765.869	38108
765.978	58803
766.086	103663
766.195	204222
766.303	468951
766.412	841849
766.520	688521
766.629	282065
766.737	118530
766.846	68546
766.954	45406
767.062	33550
767.171	25163
767.279	20027
767.387	14777
767.496	13414
767.604	11825
767.712	11314
767.820	9334
767.928	9398
768.037	8616
768.145	8734
768.253	8354
768.361	7504
768.469	7546
768.577	7767
768.685	7978
768.793	8033
768.901	8669
769.009	10741
769.117	12475
769.225	16558
769.333	24567
769.441	40851
769.549	79027
769.657	179032
769.765	481337
769.873	682490
769.981	299230
770.088	89814
770.196	45346
770.304	29162
770.412	21116
770.519	15097
770.627	12304
770.735	10149
770.842	8946
770.950	7842
771.058	6720
771.165	6788
771.273	5816
771.380	6560
771.488	5066
771.595	4572
771.703	4496
771.810	5725
771.918	3825
772.025	3772
772.133	3648
772.240	3922
772.348	4712
772.455	4130
772.562	3152
772.670	4027
772.777	3932
772.884	4062
772.991	3188
773.099	2836
773.206	2979
773.313	3275
773.420	2677
773.528	2721
773.635	2084
773.742	3269
773.849	3604
773.956	2167
774.063	2600
774.170	2602
774.277	3461
774.384	2169
774.491	3017
774.598	3380
774.705	2726
774.812	2701
774.919	2988
775.026	3118
775.133	3096
775.239	2663
775.346	1891
775.453	3227
775.560	2035
775.667	2256
775.773	1459
775.880	2523
775.987	3071
776.093	2999
776.200	2555
776.307	2426
776.413	2599
776.520	1785
776.627	2524
776.733	2170
776.840	1801
776.946	4006
777.053	4423
777.159	6961
777.266	3476
777.372	7071
777.478	4563
777.585	3664
777.691	2299
777.798	2580
777.904	2154
778.010	3346
778.117	2926
778.223	2525
778.329	2327
778.435	1831
778.542	1984
778.648	2260
778.754	1312
778.860	2027
778.966	2542
779.072	1720
779.178	1802
779.284	1945
779.391	1717
779.497	1575
779.603	4090
779.708	3165
779.815	9210
779.920	29445
780.026	38120
780.132	5252
780.238	1910
780.344	2900
780.450	2310
780.556	2468
780.661	1217
780.767	1648
780.873	1467
780.979	1836
781.085	1275
781.190	2094
781.296	716
781.402	1179
781.507	1237
781.613	1478
781.719	1297
781.824	1558
781.930	1599
782.035	907
782.141	1073
782.246	1956
782.352	729
782.457	2081
782.563	1511
782.668	1385
782.773	1314
782.879	1535
782.984	1527
783.090	2377
783.195	2669
783.300	1852
783.405	1309
783.511	1064
783.616	2134
783.721	2425
783.826	1521
783.932	2175
784.037	1760
784.142	1016
784.247	1765
784.352	1263
784.457	1495
784.562	1988
784.667	1446
784.772	1999
784.877	989
784.982	1403
785.087	675
785.192	2015
785.297	1782
785.402	1258
785.507	1418
785.611	596
785.716	648
785.821	1468
785.926	746
786.031	1367
786.135	1321
786.240	1548
786.345	569
786.450	1832
786.554	1202
786.659	324
786.763	17
786.868	2076
786.973	1893
787.077	1095
787.182	903
787.286	1622
787.391	1250
787.495	329
787.600	1097
787.704	610
787.809	533
787.913	851
788.017	814
788.122	1839
788.226	1334
788.330	570
788.435	315
788.539	217
788.643	284
788.747	884
788.852	592
788.956	-826
789.060	1005
789.164	1539
789.268	53
789.372	1929
789.476	503
789.580	-380
789.684	-11
789.788	1665
789.892	525
789.996	1299
790.100	538
790.204	1145
790.308	1060
790.412	551
790.516	653
790.620	1087
790.724	908
790.828	510
790.931	868
791.035	1988
791.139	567
791.242	451
791.346	1605
791.450	36
791.554	169
791.657	1151
791.761	1280
791.864	1964
791.968	1276
792.072	1183
792.175	1211
792.279	1507
792.382	1199
792.486	807
792.589	261
792.693	1714
792.796	-390
792.899	1834
793.003	1909
793.106	200
793.209	247
793.313	2155
793.416	93
793.519	2054
793.623	1825
793.726	1620
793.829	410
793.932	1301
794.035	416
794.138	1932
794.242	925
794.345	1622
794.448	1623
794.551	3310
794.654	14694
794.757	19207
794.860	3518
794.963	1650
795.066	337
795.169	1592
795.272	-45
795.375	627
795.477	273
795.580	1215
795.683	-303
795.786	668
795.889	152
795.991	1028
796.094	1402
796.197	-297
796.300	1630
796.402	843
796.505	-248
796.608	241
796.710	1289
796.813	558
796.915	-214
797.018	881
797.120	954
797.223	-483
797.326	1562
797.428	291
797.530	271
797.633	141
797.735	1341
797.838	1613
797.940	1844
798.042	188
798.145	325
798.247	1404
798.349	-48
798.452	792
798.554	-224
798.656	-638
798.758	1263
798.860	-508
798.962	358
799.065	365
799.167	-643
799.269	1143
799.371	228
799.473	322
799.575	273
799.677	1220
799.779	1724
799.881	42
799.983	960
800.085	323
800.187	-101
800.289	144
800.390	90
800.492	265
800.594	980
800.696	-124
800.798	1258
800.899	417
801.001	81
801.103	65
801.205	186
801.306	381
801.408	-577
801.509	658
801.611	271
801.713	792
801.814	154
801.916	111
802.017	84
802.119	76
802.220	-76
802.322	-36
802.423	2305
802.525	-133
802.626	185
802.727	887
802.829	550
802.930	-1447
803.031	965
803.133	610
803.234	-151
803.335	122
803.436	-243
803.538	943
803.639	-452
803.740	1463
803.841	-840
803.942	1122
804.043	664
804.144	-173
804.245	256
804.346	-559
804.447	-143
804.548	513
804.649	2143
804.750	600
804.851	-93
804.952	323
805.053	247
805.154	-313
805.255	1022
805.355	83
805.456	-278
805.557	-220
805.658	-565
805.758	763
805.859	-184
805.960	-33
806.061	-453
806.161	-83
806.262	697
806.362	86
806.463	526
806.564	1166
806.664	-162
806.765	92
806.865	952
806.966	-258
807.066	-404
807.166	1429
807.267	677
807.367	-569
807.468	1057
807.568	-1607
807.668	763
807.769	2053
807.869	-388
807.969	114
808.069	-78
808.170	581
808.270	-814
808.370	1094
808.470	214
808.570	-254
808.670	-651
808.770	392
808.870	-878
808.970	463
809.070	-298
809.170	-761
809.271	944
809.370	-124
809.470	313
809.570	-392
809.670	244
809.770	243
809.870	-104
809.970	821
810.070	-105
810.169	790
810.269	-1263
810.369	618
810.469	-76
810.568	429
810.668	-515
810.768	333
810.867	475
810.967	-547
811.066	-78
811.166	-343
811.265	1248
811.365	-280
811.464	-597
811.564	781
811.663	-408
811.763	-507
811.862	46
811.962	311
812.061	536
812.160	-60
812.260	824
812.359	631
812.458	-430
812.557	778
812.657	6
812.756	785
812.855	-261
812.954	-8
813.053	1164
813.153	1261
813.252	-13
813.351	619
813.450	461
813.549	775
813.648	570
813.747	-320
813.846	176
813.945	-241
814.044	275
814.143	92
814.242	581
814.341	-167
814.439	189
814.538	926
814.637	412
814.736	495
814.835	1289
814.933	1036
815.032	709
815.131	1253
815.229	495
815.328	1513
815.427	307
815.525	1494
815.624	1288
815.722	1495
815.821	1643
815.919	1254
816.018	1379
816.116	2844
816.215	717
816.313	1463
816.412	2084
816.510	2381
816.609	3515
816.707	2978
816.805	1373
816.904	2571
817.002	3957
817.100	3861
817.198	4836
817.296	4511
817.395	6197
817.493	7851
817.591	8916
817.689	13422
817.787	17727
817.885	30345
817.983	55047
818.081	117929
818.179	270250
818.277	567586
818.375	440649
818.473	154107
818.571	66062
818.669	43083
818.767	35930
818.865	36117
818.963	43278
819.061	61587
819.158	106911
819.256	213879
819.354	459005
819.452	750607
819.549	496816
819.647	199134
819.745	91295
819.842	55886
819.940	36190
820.038	26454
820.135	19401
820.233	17413
820.330	11551
820.428	10482
820.525	9176
820.623	7298
820.720	6400
820.818	6115
820.915	5227
821.012	4450
821.110	2961
821.207	4784
821.304	2404
821.402	3088
821.499	3516
821.596	4285
821.693	3293
821.791	3616
821.888	2664
821.985	4131
822.082	2184
822.179	2674
822.276	1745
822.373	1708
822.470	1363
822.567	870
822.664	379
822.761	1682
822.858	54
822.955	1728
823.052	1383
823.149	955
823.246	578
823.343	1378
823.440	1262
823.536	552
823.633	-200
823.730	352
823.827	675
823.923	335
824.020	1371
824.117	277
824.213	-226
824.310	1265
824.407	232
824.503	1281
824.600	877
824.696	-146
824.793	489
824.889	134
824.986	50
825.082	-482
825.179	543
825.275	846
825.371	-448
825.468	1204
825.564	-801
825.660	351
825.757	188
825.853	1191
825.949	-1009
826.045	136
826.142	545
826.238	-207
826.334	859
826.430	-751
826.526	219
826.622	-586
826.718	342
826.814	-93
826.910	484
827.006	0
827.102	-388
827.198	852
827.294	-231
827.390	-91
827.486	-24
827.582	-928
827.678	-623
827.774	-180
827.869	-676
827.965	559
828.061	-1544
828.157	-423
828.252	-632
828.348	-1011
828.444	863
828.539	-949
828.635	-788
828.731	178
828.826	-1471
828.922	135
829.017	-464
829.113	463
829.208	-455
829.304	-561
829.399	131
829.495	-368
829.590	314
829.685	-610
829.781	148
829.876	-1
829.971	-572
830.066	-59
830.162	-422
830.257	-176
830.352	-347
830.447	740
830.543	-572
830.638	-856
830.733	669
830.828	-450
830.923	28
831.018	-66
831.113	-322
831.208	-51
831.303	-710
831.398	18
831.493	-896
831.588	-98
831.683	-1441
831.778	354
831.873	-382
831.967	638
832.062	-708
832.157	-1038
832.252	261
832.346	-281
832.441	-106
832.536	627
832.631	1686
832.725	634
832.820	443
832.914	-695
833.009	-778
833.104	616
833.198	48
833.293	-856
833.387	-170
833.482	-309
833.576	-851
833.670	139
833.765	-259
833.859	-577
833.954	654
834.048	-24
834.142	-38
834.237	-1571
834.331	-341
834.425	-436
834.519	-1098
834.613	231
834.708	-1089
834.802	-473
834.896	-984
834.990	-308
835.084	672
835.178	-722
835.272	-225
835.366	-1595
835.460	594
835.554	180
835.648	-677
835.742	-816
835.836	-112
835.930	-1139
836.024	-573
836.117	868
836.211	-1189
836.305	742
836.399	849
836.493	-1769
836.586	17
836.680	-1021
836.774	-553
836.867	502
836.961	-1377
837.055	-746
837.148	-751
837.242	-391
837.335	-851
837.429	-92
837.522	-748
837.616	-296
837.709	996
837.803	-1165
837.896	-540
837.989	-577
838.083	577
838.176	1465
838.269	-152
838.363	-244
838.456	-489
838.549	-203
838.642	-1409
838.735	1295
838.829	512
838.922	-112
839.015	-1334
839.108	-612
839.201	-661
839.294	41
839.387	309
839.480	-550
839.573	-123
839.666	-420
839.759	24
839.852	-1104
839.945	-576
840.038	-222
840.131	-794
840.223	-726
840.316	-283
840.409	-594
840.502	-1158
840.594	334
840.687	-1459
840.780	-69
840.873	-1261
840.965	-1252
841.058	963
841.150	663
841.243	-205
841.336	16
841.428	-1235
841.521	-616
841.613	-1460
841.706	-324
841.798	-864
841.890	-870
841.983	-1700
842.075	429
842.167	-1152
842.260	367
842.352	299
842.444	-361
842.537	770
842.629	1782
842.721	-757
842.813	-384
842.905	-1527
842.997	-984
843.090	-418
843.182	79
843.274	449
843.366	4336
843.458	7254
843.550	4120
843.642	-620
843.734	-638
843.826	-818
843.918	443
844.009	-1010
844.101	-542
844.193	-274
844.285	-106
844.377	-536
844.469	912
844.560	-577
844.652	224
844.744	-324
844.835	-547
844.927	-593
845.019	-988
845.110	-150
845.202	-577
845.293	-817
845.385	-605
845.476	-585
845.568	730
845.659	-604
845.751	189
845.842	-508
845.934	-1212
846.025	-1506
846.116	-683
846.208	-647
846.299	-1217
846.390	-160
846.482	-1443
846.573	-791
846.664	183
846.755	384
846.846	575
846.937	-2245
847.029	-211
847.120	-961
847.211	-1061
847.302	-603
847.393	-1904
847.484	-228
847.575	-784
847.666	-661
847.757	-1089
847.847	-680
847.938	71
848.029	-823
848.120	-1098
848.211	-589
848.302	-826
848.392	-1263
848.483	-689
848.574	-1250
848.664	-1052
848.755	-927
848.846	235
848.936	-1638
849.027	-608
849.118	-1046
849.208	-977
849.299	-708
849.389	-30
849.480	947
849.570	2250
849.661	4931
849.751	10114
849.841	2112
849.932	231
850.022	-942
850.112	169
850.203	-968
850.293	-616
850.383	-1035
850.474	-989
850.564	-900
850.654	-690
850.744	-1016
850.834	-1052
850.924	-1414
851.014	-798
851.104	-563
851.194	-600
851.284	-448
851.374	-1355
851.464	214
851.554	-913
851.644	-483
851.734	206
851.824	-522
851.914	-1239
852.004	-94
852.094	-120
852.183	-1021
852.273	-281
852.363	-760
852.452	-1210
852.542	-504
852.632	-968
852.721	-279
852.811	-989
852.901	-618
852.990	-571
853.080	-315
853.169	-965
853.259	116
853.348	-601
853.438	-608
853.527	554
853.617	-396
853.706	2305
853.795	3507
853.885	10987
853.974	21878
854.063	44065
854.152	66930
854.242	23606
854.331	3600
854.420	-846
854.509	-103
854.598	287
854.687	-107
854.777	-244
854.866	-918
854.955	-319
855.044	-740
855.133	-976
855.222	-827
855.311	-37
855.400	-165
855.488	-1003
855.577	-731
855.666	-462
855.755	-513
855.844	-808
855.933	-965
856.021	-561
856.110	-627
856.199	-1211
856.288	-587
856.376	-473
856.465	-1655
856.554	-216
856.642	-1021
856.731	-1582
856.819	139
856.908	-763
856.996	-606
857.085	-861
857.173	-856
857.262	-762
857.350	-683
857.438	-155
857.527	-940
857.615	-448
857.703	-434
857.792	-918
857.880	-491
857.968	-815
858.056	-1061
858.145	-873
858.233	-778
858.321	-513
858.409	-590
858.497	-966
858.585	-1116
858.673	-622
858.761	-1009
858.849	-545
858.937	-1086
859.025	-661
859.113	-609
859.201	-1487
859.289	-462
859.377	-1122
859.465	-1100
859.552	-774
859.640	-1003
859.728	-341
859.816	-939
859.903	-422
859.991	-1425
860.079	-503
860.166	-1529
860.254	-477
860.342	-569
860.429	-231
860.517	-635
860.604	-767
860.692	-1239
860.779	-174
860.867	-1444
860.954	-229
861.042	-758
861.129	-676
861.216	-1267
861.304	-768
861.391	-545
861.478	-973
861.565	-759
861.653	-324
861.740	-807
861.827	-1278
861.914	-752
862.001	-497
862.089	-1873
862.176	-183
862.263	-1010
862.350	-1073
862.437	-1158
862.524	-1449
862.611	-1108
862.698	-72
862.785	-495
862.871	-627
862.958	-1594
863.045	-803
863.132	-580
863.219	-373
863.306	-1069
863.392	-949
863.479	-763
863.566	-1374
863.652	-282
863.739	-1210
863.826	-1016
863.912	-1615
863.999	-651
864.086	-1284
864.172	-1397
864.259	-1173
864.345	-955
864.432	-208
864.518	-877
864.604	-537
864.691	-1072
864.777	-770
864.863	-816
864.950	291
865.036	-1397
865.122	-504
865.209	766
865.295	196
865.381	-464
865.467	234
865.553	-141
865.639	-12
865.726	1576
865.812	4886
865.898	9969
865.984	15765
866.070	29978
866.156	31697
866.242	6883
866.328	1044
866.414	-174
866.499	-245
866.585	-566
866.671	186
866.757	-359
866.843	-676
866.928	-1015
867.014	-973
867.100	-423
867.186	52
867.271	-830
867.357	619
867.442	-565
867.528	-403
867.614	-694
867.699	22
867.785	-249
867.870	-806
867.956	-326
868.041	357
868.127	-328
868.212	-525
868.297	-327
868.383	-281
868.468	-250
868.553	515
868.639	416
868.724	1741
868.809	1481
868.894	-659
868.979	-337
869.065	-574
869.150	-1825
869.235	-915
869.320	-717
869.405	-1822
869.490	-725
869.575	-750
869.660	-942
869.745	-1165
869.830	-1252
869.915	-1267
870.000	-1256
870.085	-662
870.169	-908
870.254	-592
870.339	-1037
870.424	-1187
870.509	-515
870.593	-644
870.678	-968
870.763	-642
870.847	-292
870.932	-1002
871.016	-484
871.101	-119
871.186	-727
871.270	-550
871.355	-1538
871.439	-670
871.523	-876
871.608	-1031
871.692	-876
871.777	-494
871.861	-731
871.945	-1275
872.030	-391
872.114	-899
872.198	-1993
872.282	-1236
872.367	-659
872.451	-1414
872.535	-775
872.619	-712
872.703	-1194
872.787	-725
872.871	-1142
872.955	-940
873.039	-1443
873.123	-1187
873.207	229
873.291	-1316
873.375	-924
873.459	-958
873.543	-1148
873.627	-185
873.711	-1260
873.794	-644
873.878	-1813
873.962	-1897
874.045	-750
874.129	-162
874.137	-195
874.213	-530
874.245	-911
874.296	-1531
874.352	-1315
874.380	-1210
874.460	-301
874.464	-265
874.547	-1544
874.568	-1244
874.631	-341
874.676	-343
874.714	-351
874.784	-640
874.798	-697
874.881	-11
874.892	-100
874.965	-694
874.999	-442
875.048	-102
875.107	-81
875.131	-92
875.215	-561
875.215	-561
875.298	-1268
875.323	-1243
875.381	-1181
875.430	-1109
875.465	-1076
875.538	-941
875.548	-922
875.631	-88
875.646	-229
875.714	-908
875.753	-1017
875.798	-1124
875.861	-1310
875.881	-1365
875.964	149
875.968	101
876.047	-754
876.076	-538
876.130	-116
876.183	-510
876.213	-781
876.291	-420
876.296	-383
876.379	-1850
876.398	-1600
876.462	-1014
876.506	-1035
876.545	-893
876.613	-36
876.628	129
876.711	-779
876.721	-778
876.794	-830
876.828	-776
876.877	-696
876.935	-568
876.960	-438
877.043	-576
877.043	-574
877.125	25
877.150	90
877.208	148
877.258	164
877.291	237
877.365	-391
877.374	-465
877.456	-243
877.472	-162
877.539	181
877.579	129
877.622	63
877.687	-215
877.704	-313
877.787	-526
877.794	-511
877.869	-183
877.901	-207
877.952	-327
878.008	-294
878.034	-242
878.115	-320
878.117	-322
878.199	-1038
878.222	-927
878.282	-392
878.329	83
878.364	183
878.437	296
878.447	359
878.529	-639
878.544	-520
878.611	-168
878.651	-516
878.694	-716
878.758	-220
878.776	-126
878.858	-155
878.865	-124
878.941	255
878.972	226
879.023	188
879.078	-233
879.105	-355
879.185	181
879.187	185
879.269	-183
879.292	-374
879.351	-411
879.399	-197
879.433	-259
879.506	-2
879.516	85
879.598	-115
879.613	-1
879.680	36
879.720	-286
879.762	-347
879.827	-311
879.844	-356
879.926	328
879.933	306
880.007	204
880.040	71
880.089	-44
880.147	124
880.171	118
880.253	213
880.254	213
880.335	888
880.360	1066
880.417	1523
880.467	1788
880.499	1996
880.574	2778
880.580	2752
880.662	730
880.680	383
880.744	-214
880.787	-137
880.825	-148
880.893	-413
880.907	-447
880.989	-448
881.000	-354
881.070	836
881.106	774
881.152	245
881.213	157
881.233	195
881.315	-157
881.319	-147
881.396	234
881.426	158
881.478	-79
881.532	212
881.559	330
881.639	-454
881.641	-462
881.722	215
881.745	171
881.803	279
881.852	518
881.885	386
881.958	599
881.966	623
882.047	69
882.064	-101
882.129	117
882.171	760
882.210	948
882.277	824
882.291	831
882.372	683
882.383	619
882.454	215
882.489	377
882.535	466
882.596	146
882.616	71
882.697	-236
882.702	-273
882.778	-458
882.808	-163
882.859	323
882.914	406
882.940	482
883.020	276
883.021	276
883.102	168
883.127	94
883.183	325
883.233	553
883.264	480
883.339	248
883.345	261
883.426	197
883.445	242
883.507	367
883.551	307
883.587	337
883.657	391
883.668	414
883.749	965
883.763	981
883.830	888
883.869	838
883.910	472
883.975	57
883.991	168
884.072	123
884.081	185
884.152	367
884.187	305
884.233	352
884.292	664
884.314	589
884.394	-157
884.398	-186
884.475	562
884.504	805
884.555	312
884.610	-2
884.636	185
884.716	246
884.716	251
884.797	308
884.821	422
884.877	737
884.927	731
884.958	514
885.033	-68
885.038	-48
885.118	757
885.139	763
885.199	306
885.244	325
885.279	547
885.350	632
885.359	565
885.439	245
885.456	71
885.520	596
885.561	1114
885.600	897
885.667	562
885.680	625
885.760	938
885.773	948
885.840	636
885.878	511
885.920	776
885.984	1152
886.000	1032
886.080	304
886.089	253
886.160	1080
886.195	1340
886.240	991
886.300	596
886.320	741
886.400	1334
886.406	1364
886.480	955
886.511	761
886.560	702
886.616	603
886.640	700
886.720	1142
886.722	1140
886.800	588
886.827	473
886.879	586
886.932	670
886.959	876
887.038	1390
887.039	1389
887.119	634
887.143	394
887.198	679
887.248	971
887.278	983
887.354	839
887.358	837
887.437	925
887.459	864
887.517	1205
887.564	1482
887.596	1574
887.669	1847
887.676	1803
887.755	1168
887.774	972
887.835	1321
887.880	1689
887.914	1409
887.985	648
887.994	723
888.073	1401
888.090	1549
888.153	1266
888.195	997
888.232	1129
888.300	1399
888.311	1362
888.391	1064
888.405	995
888.470	1412
888.510	1686
888.549	1534
888.615	1207
888.628	1121
888.708	616
888.720	521
888.787	769
888.825	911
888.866	1016
888.930	1173
888.945	1197
889.024	1298
889.035	1302
889.103	1427
889.140	1469
889.182	1408
889.245	1357
889.261	1438
889.340	1744
889.349	1775
889.419	1682
889.454	1606
889.498	1726
889.559	1907
889.577	1842
889.656	1512
889.664	1475
889.735	1688
889.768	1779
889.814	1475
889.873	1063
889.978	974
890.083	1208
890.187	2190
890.292	1336
890.397	1340
890.501	569
890.606	1300
890.710	1314
890.815	1490
890.919	1269
891.024	1267
891.128	2067
891.233	1000
891.337	1610
891.442	1977
891.546	1206
891.650	1906
891.755	829
891.859	2547
891.963	963
892.068	1347
892.172	1658
892.276	1201
892.380	1869
892.484	1022
892.589	1832
892.693	2031
892.797	413
892.901	1899
893.005	852
893.109	326
893.213	1387
893.317	1268
893.421	2105
893.525	1228
893.629	915
893.733	1367
893.837	1104
893.941	1403
894.045	1430
894.148	1482
894.252	985
894.356	1821
894.460	1447
894.564	1291
894.667	1054
894.771	1015
894.875	871
894.978	1113
895.082	683
895.186	1200
895.289	1161
895.393	1388
895.496	1648
895.600	1241
895.703	1191
895.807	848
895.910	219
896.014	1317
896.117	1094
896.221	2025
896.324	1123
896.427	1737
896.531	854
896.634	1118
896.737	1209
896.840	905
896.944	665
897.047	849
897.150	764
897.253	1828
897.356	518
897.460	1042
897.563	494
897.666	796
897.769	1286
897.872	1051
897.975	1101
898.078	1223
898.181	1162
898.284	677
898.387	846
898.490	1609
898.593	1450
898.695	916
898.798	-5
898.901	1122
899.004	1416
899.107	700
899.209	1211
899.312	1505
899.415	587
899.518	536
899.620	667
899.723	899
899.826	1424
899.928	1933
900.031	480
900.133	1008
900.236	841
900.338	560
900.441	825
900.543	1117
900.646	1255
900.748	1214
900.851	689
900.953	995
901.055	454
901.158	1979
901.260	990
901.362	1594
901.465	809
901.567	1172
901.669	807
901.771	922
901.873	660
901.976	1369
902.078	1314
902.180	1457
902.282	735
902.384	973
902.486	1718
902.588	1441
902.690	879
902.792	2063
902.894	1063
902.996	1310
903.098	1294
903.200	1647
903.302	1444
903.404	749
903.505	731
903.607	1657
903.709	1970
903.811	421
903.913	845
904.014	978
904.116	970
904.218	837
904.319	1238
904.421	1810
904.523	1830
904.624	1044
904.726	1425
904.827	923
904.929	812
905.030	1250
905.132	1072
905.233	662
905.335	109
905.436	1199
905.537	918
905.639	1252
905.740	1740
905.841	1382
905.943	987
906.044	1451
906.145	1730
906.247	909
906.348	791
906.449	1073
906.550	388
906.651	1149
906.752	913
906.854	1003
906.955	985
907.056	592
907.157	1156
907.258	908
907.359	1529
907.460	1667
907.561	1109
907.662	708
907.762	1006
907.863	1200
907.964	381
908.065	1195
908.166	1081
908.267	1516
908.367	528
908.468	287
908.569	924
908.670	702
908.770	1171
908.871	1571
908.971	1286
909.072	1238
909.173	336
909.273	634
909.374	1213
909.474	1578
909.575	1959
909.675	1086
909.776	1095
909.876	1314
909.977	1393
910.077	1280
910.177	-57
910.278	1614
910.378	735
910.478	984
910.579	595
910.679	717
910.779	826
910.879	859
910.980	296
911.080	1654
911.180	1064
911.280	2148
911.380	-61
911.480	1809
911.580	1675
911.680	1913
911.780	1173
911.880	1122
911.980	983
912.080	1534
912.180	1687
912.280	806
912.380	901
912.480	358
912.580	1445
912.679	1676
912.779	1403
912.879	1243
912.979	486
913.078	-301
913.178	633
913.278	1141
913.377	811
913.477	779
913.577	1169
913.676	1422
913.776	681
913.875	783
913.975	1880
914.074	1048
914.174	430
914.273	740
914.373	1057
914.472	924
914.572	281
914.671	1054
914.770	147
914.870	1330
914.969	249
915.068	1275
915.167	1294
915.267	407
915.366	440
915.465	778
915.564	386
915.663	925
915.763	838
915.862	1296
915.961	346
916.060	683
916.159	550
916.258	952
916.357	-341
916.456	1609
916.555	1219
916.654	1245
916.752	1279
916.851	808
916.950	561
917.049	946
917.148	1523
917.247	1071
917.345	1566
917.444	379
917.543	907
917.642	1323
917.740	855
917.839	678
917.937	1630
918.036	1079
918.135	45
918.233	866
918.332	692
918.430	727
918.529	864
918.627	934
918.726	543
918.824	767
918.923	1352
919.021	794
919.119	1146
919.218	1132
919.316	925
919.414	19
919.512	848
919.611	107
919.709	1602
919.807	1092
919.905	658
920.003	1110
920.102	495
920.200	797
920.298	413
920.396	1145
920.494	1769
920.592	477
920.690	1126
920.788	225
920.886	720
920.984	1768
921.082	520
921.180	2340
921.277	1789
921.375	1145
921.473	1089
921.571	1598
921.669	780
921.766	1201
921.864	1015
921.962	1883
922.060	571
922.157	1651
922.255	1591
922.352	1450
922.450	1771
922.548	1417
922.645	1234
922.743	1275
922.840	1367
922.938	2463
923.035	1965
923.133	2167
923.230	1525
923.327	2757
923.425	1925
923.522	2438
923.619	1593
923.717	2280
923.814	1771
923.911	1617
924.008	1595
924.106	1832
924.203	1710
924.300	1839
924.397	1474
924.494	2028
924.591	1758
924.688	1599
924.786	1596
924.883	1717
924.979	2034
925.077	2002
925.173	1714
925.270	1569
925.367	1682
925.464	1603
925.561	1662
925.658	2126
925.755	2318
925.852	2920
925.948	1511
926.045	2131
926.142	2147
926.239	3156
926.335	2559
926.432	3569
926.529	2896
926.625	2447
926.722	1495
926.818	1868
926.915	1596
927.011	2908
927.108	1579
927.204	1657
927.301	1069
927.397	1680
927.494	1578
927.590	1604
927.687	1193
927.783	1495
927.879	1895
927.976	1479
928.072	1775
928.168	1896
928.264	1877
928.361	1570
928.457	1702
928.553	2021
928.649	1840
928.745	1473
928.841	1676
928.937	1663
929.033	1883
929.129	1790
929.225	1523
929.321	1112
929.417	1369
929.513	1424
929.609	1823
929.705	1352
929.801	1983
929.897	1394
929.993	1333
930.089	1969
930.184	1052
930.280	1610
930.376	1684
930.471	1542
930.567	1504
930.663	1371
930.758	1148
930.854	1376
930.950	1145
931.045	1836
931.141	1242
931.236	1789
931.332	1672
931.427	1258
931.523	1431
931.618	1434
931.714	743
931.809	1598
931.905	1781
932.000	906
932.095	1025
932.191	1449
932.286	1616
932.381	1098
932.476	1213
932.572	759
932.667	2048
932.762	1522
932.857	1924
932.952	1171
933.047	1504
933.142	1215
933.237	1402
933.332	1273
933.427	1360
933.522	2037
933.617	986
933.712	1801
933.807	1851
933.902	1070
933.997	1681
934.092	1266
934.187	1207
934.282	1217
934.376	1312
934.471	1084
934.566	1124
934.661	1584
934.755	790
934.850	936
934.945	1149
935.039	930
935.134	1048
935.228	1810
935.323	1153
935.417	448
935.512	709
935.606	1372
935.701	1257
935.795	1556
935.890	1158
935.984	1449
936.079	894
936.173	1154
936.267	-741
936.362	597
936.456	1958
936.550	1852
936.644	739
936.738	1111
936.833	190
936.927	1173
937.021	1045
937.115	673
937.209	340
937.303	2020
937.397	1239
937.491	1129
937.585	969
937.679	1582
937.773	1479
937.867	1146
937.961	690
938.055	293
938.149	1302
938.243	861
938.337	298
938.430	1078
938.524	1334
938.618	3164
938.712	1820
938.805	1086
938.899	656
938.993	1795
939.086	1398
939.180	2162
939.274	3555
939.367	730
939.461	1314
939.554	2196
939.648	1219
939.741	1248
939.835	820
939.928	882
940.022	1530
940.115	1067
940.208	1354
940.302	1252
940.395	719
940.488	881
940.582	425
940.675	1029
940.768	804
940.861	1255
940.954	1540
941.048	1160
941.141	824
941.234	863
941.327	1910
941.420	1587
941.513	1210
941.606	470
941.699	1943
941.792	1065
941.885	402
941.978	1238
942.071	942
942.164	790
942.257	1436
942.349	1515
942.442	684
942.535	162
942.628	1161
942.721	1215
942.813	75
942.906	1785
942.999	645
943.091	1091
943.184	685
943.277	528
943.369	510
943.462	678
943.554	413
943.647	365
943.739	1284
943.832	896
943.924	92
944.017	1010
944.109	175
944.201	897
944.294	474
944.386	1378
944.478	596
944.571	679
944.663	462
944.755	1164
944.847	387
944.940	769
945.032	92
945.124	493
945.216	2066
945.308	814
945.400	463
945.492	1210
945.584	969
945.676	1496
945.768	1038
945.860	1572
945.952	783
946.044	647
946.136	219
946.228	1132
946.320	392
946.412	900
946.503	1013
946.595	1574
946.687	986
946.779	1113
946.870	528
946.962	800
947.054	128
947.145	2117
947.237	485
947.329	231
947.420	-272
947.512	1571
947.603	787
947.695	376
947.786	386
947.878	394
947.969	863
948.061	1124
948.152	-359
948.243	912
948.335	833
948.426	844
948.517	137
948.609	249
948.700	1182
948.791	801
948.882	996
948.973	801
949.065	565
949.156	866
949.247	31
949.338	214
949.429	649
949.520	789
949.611	-258
949.702	833
949.793	503
949.884	-414
949.975	949
950.066	457
950.157	57
950.247	384
950.338	25
950.429	346
950.520	349
950.611	577
950.701	462
950.792	1109
950.883	1457
950.973	1488
951.064	182
951.155	1175
951.245	978
951.336	-320
951.427	183
951.517	1811
951.608	1050
951.698	809
951.788	-182
951.879	1015
951.969	668
952.060	627
952.150	91
952.240	190
952.331	-434
952.421	1272
952.511	677
952.602	415
952.692	804
952.782	735
952.872	60
952.962	-127
953.052	-435
953.143	165
953.233	744
953.323	1081
953.413	-758
953.503	824
953.593	224
953.683	463
953.773	-1007
953.863	444
953.953	-631
954.042	190
954.132	-346
954.222	1259
954.312	977
954.402	926
954.492	645
954.581	1026
954.671	18
954.761	-67
954.850	289
954.940	26
955.030	204
955.119	18
955.209	263
955.298	137
955.388	-203
955.477	1439
955.567	273
955.656	514
955.746	723
955.835	845
955.925	-578
956.014	400
956.103	388
956.193	283
956.282	217
956.371	201
956.461	-582
956.550	86
956.639	648
956.728	45
956.817	35
956.906	551
956.995	-65
957.085	350
957.174	-539
957.263	-660
957.352	655
957.441	-115
957.530	-86
957.619	204
957.708	-350
957.796	201
957.885	-796
957.974	-262
958.063	459
958.152	-1324
958.241	513
958.329	812
958.418	-273
958.507	-542
958.596	1003
958.684	-190
958.773	557
958.861	792
958.950	730
959.039	512
959.127	456
959.216	910
959.304	-283
959.393	285
959.481	-524
959.570	1294
959.658	275
959.746	488
959.835	366
959.923	1403
960.011	-640
960.100	509
960.188	557
960.276	468
960.365	-73
960.453	-616
960.541	-347
960.629	282
960.717	-163
960.805	8
960.893	-64
960.981	-598
961.069	56
961.158	315
961.245	709
961.333	362
961.421	-64
961.509	246
961.597	754
961.685	221
961.773	142
961.861	-73
961.949	588
962.036	-348
962.124	1122
962.212	-41
962.299	776
962.387	-942
962.475	237
962.562	-298
962.650	553
962.738	928
962.825	-24
962.913	948
963.000	524
963.088	872
963.175	-411
963.263	531
963.350	-711
963.438	714
963.525	-506
963.612	1326
963.700	3658
963.787	6614
963.874	2003
963.962	1217
964.049	65
964.136	-202
964.223	-448
964.310	385
964.398	-460
964.485	-131
964.572	-129
964.659	798
964.746	204
964.833	516
964.920	344
965.007	325
965.094	-105
965.181	-272
965.268	275
965.355	-118
965.441	-189
965.528	-194
965.615	272
965.702	-37
965.789	-477
965.875	466
965.962	369
966.049	-222
966.136	317
966.222	-177
966.309	-1172
966.395	-1156
966.482	154
966.569	-3
966.655	-263
966.742	-1128
966.828	102
966.915	112
967.001	251
967.087	-229
967.174	-146
967.260	734
967.347	699
967.433	2218
967.519	3152
967.605	565
967.692	-235
967.778	-717
967.864	136
967.950	314
968.036	107
968.123	241
968.209	-116
968.295	-170
968.381	1133
968.467	132
968.553	-1525
968.639	787
968.725	-81
968.811	1228
968.897	187
968.983	-176
969.069	-124
969.154	672
969.240	770
969.326	-555
969.412	-810
969.497	115
969.583	-889
969.669	1616
969.755	-491
969.840	-364
969.926	64
970.012	630
970.097	698
970.183	-512
970.268	312
970.354	287
970.439	345
970.525	2389
970.610	31
970.696	334
970.781	378
970.866	-974
970.952	426
971.037	-248
971.122	-106
971.208	-212
971.293	-726
971.378	-950
971.463	78
971.549	-379
971.634	-364
971.719	686
971.804	-218
971.889	1126
971.974	-1148
972.059	-423
972.144	-446
972.229	-318
972.314	-277
972.399	314
972.484	-98
972.569	40
972.654	-775
972.739	2032
972.824	756
972.908	-11
972.993	-588
973.078	-49
973.163	-584
973.247	109
973.332	-1608
973.417	528
973.501	-1304
973.586	-123
973.671	-365
973.755	-277
973.840	580
973.924	658
974.009	-344
974.093	-449
974.178	1332
974.262	801
974.346	-14
974.431	-420
974.515	-857
974.600	11
974.684	296
974.768	-659
974.852	396
974.937	-1330
975.021	-175
975.105	-122
975.189	-179
975.273	809
975.358	-419
975.442	-596
975.526	205
975.610	-666
975.694	-1107
975.778	456
975.862	5
975.946	-1822
976.030	416
976.114	-34
976.198	-389
976.281	-783
976.365	262
976.449	-1226
976.533	-340
976.617	-297
976.700	-559
976.784	453
976.868	-72
976.951	1013
977.035	-365
977.119	225
977.202	-129
977.286	426
977.369	-210
977.453	110
977.536	-813
977.620	604
977.703	-385
977.787	-672
977.870	348
977.953	620
978.037	-867
978.120	1038
978.203	-36
978.287	1760
978.370	-295
978.453	-1158
978.536	-1245
978.620	2116
978.703	277
978.786	41
978.869	-1588
978.952	-1410
979.035	666
979.118	-502
979.201	-539
979.284	68
979.367	-903
979.450	-575
979.533	-231
979.616	-306
979.699	-778
979.782	-232
979.865	-81
979.948	-473
980.030	-1572
980.113	-190
980.196	-989
980.279	409
980.361	-225
980.444	-478
980.526	201
980.609	267
980.692	-498
980.774	566
980.857	-1833
980.939	107
981.022	-417
981.104	-103
981.187	-869
981.269	-25
981.352	-27
981.434	-406
981.516	-339
981.599	1298
981.681	-299
981.763	-334
981.846	-432
981.928	-130
982.010	52
982.092	-764
982.174	301
982.256	84
982.339	-586
982.421	-245
982.503	28
982.585	-956
982.667	-148
982.749	-192
982.831	-227
982.913	-1249
982.995	300
983.077	-715
983.158	-56
983.240	-982
983.322	174
983.404	866
983.486	-855
983.568	700
983.649	-52
983.731	-438
983.813	-380
983.894	-103
983.976	-1263
984.058	-1655
984.139	-60
984.221	-1161
984.302	-78
984.384	129
984.465	-1785
984.547	433
984.628	-1161
984.710	1236
984.791	-178
984.872	163
984.954	-91
985.035	-123
985.116	-953
985.198	-865
985.279	915
985.360	-855
985.441	-724
985.522	300
985.604	-952
985.685	-1808
985.766	-77
985.847	500
985.928	-707
986.009	-573
986.090	-249
986.171	988
986.252	-838
986.333	644
986.414	-550
986.495	-26
986.576	-935
986.656	47
986.737	-3
986.818	-106
986.899	-1342
986.980	139
987.060	-88
987.141	-515
987.222	37
987.302	-110
987.383	-73
987.464	-145
987.544	645
987.625	49
987.705	-199
987.786	215
987.866	15
987.947	-508
988.027	-125
988.108	-348
988.188	-104
988.268	-225
988.349	-617
988.429	-456
988.509	-133
988.589	-510
988.670	-2105
988.750	1123
988.830	-156
988.910	-508
988.990	-360
989.070	-471
989.151	-488
989.231	-1129
989.311	59
989.391	-127
989.471	434
989.551	117
989.631	-382
989.711	-100
989.791	-1594
989.870	-380
989.950	1348
990.030	-721
990.110	-361
990.190	-631
990.269	-732
990.349	-516
990.429	-193
990.509	481
990.588	-598
990.668	-542
990.747	19
990.827	432
990.907	-222
990.986	-708
991.066	96
991.145	-1096
991.225	-271
991.304	-681
991.383	-25
991.463	-477
991.542	-35
991.622	-233
991.701	-222
991.780	-464
991.859	-477
991.939	-330
992.018	-287
992.097	-134
992.176	-676
992.256	-828
992.335	-1256
992.414	488
992.493	-916
992.572	-697
992.651	-68
992.730	-294
992.809	-344
992.888	-939
992.967	-1091
993.046	166
993.125	-1727
993.203	3
993.282	-682
993.361	373
993.440	-1245
993.519	-616
993.597	-536
993.676	-519
993.755	-337
993.834	-146
993.912	-1090
993.991	1204
994.069	-894
994.148	-823
994.226	-694
994.305	-412
994.384	-478
994.462	185
994.540	-1207
994.619	-1442
994.697	-1549
994.776	-347
994.854	410
994.932	-1171
995.011	-626
995.089	-777
995.167	-130
995.245	-83
995.324	-1341
995.402	-409
995.480	-843
995.558	-387
995.636	-1491
995.714	-1396
995.792	152
995.870	-682
995.948	-1276
996.026	-383
996.104	-1981
996.182	124
996.260	-1099
996.338	791
996.416	-1650
996.494	-315
996.572	-96
996.649	-1061
996.727	-771
996.805	40
996.883	-507
996.960	-698
997.038	-794
997.116	200
997.193	-858
997.271	57
997.348	-928
997.426	-272
997.504	-1045
997.581	-1202
997.658	238
997.736	-1664
997.813	-917
997.891	459
997.968	-1174
998.046	15
998.123	-1768
998.200	749
998.277	-1149
998.355	-10
998.432	-1912
998.509	-411
998.586	-284
998.663	-596
998.741	-1166
998.818	-1576
998.895	-628
998.972	-484
999.049	-562
999.126	-923
999.203	-446
999.280	-65
999.357	-1158
999.434	-1132
999.511	-257
999.587	-2
999.664	-1248
999.741	-401
999.818	-335
999.895	-1176
999.971	-1104
1000.048	-601
1000.125	389
1000.202	-1419
1000.278	-1348
1000.355	-567
1000.431	-311
1000.508	-933
1000.584	-1252
1000.661	51
1000.738	-1386
1000.814	-1256
1000.890	-1220
1000.967	-894
1001.043	-981
1001.120	-1313
1001.196	-1154
1001.272	-1469
1001.349	-202
1001.425	-87
1001.501	-833
1001.577	-1295
1001.654	-309
1001.730	-599
1001.806	-1091
1001.882	-1230
1001.958	-885
1002.034	-367
1002.110	-588
1002.186	-748
1002.262	-1177
1002.338	-1049
1002.414	-625
1002.490	19
1002.566	-1739
1002.642	-1051
1002.718	-999
1002.794	-920
1002.870	-1328
1002.945	-779
1003.021	-941
1003.097	-978
1003.173	-930
1003.248	-534
1003.324	-784
1003.400	-803
1003.475	-1478
1003.551	-810
1003.626	-486
1003.702	-437
1003.777	-1328
1003.853	-1446
1003.928	-1002
1004.004	-1100
1004.079	-343
1004.155	-1311
1004.230	-2474
1004.305	301
1004.381	-1764
1004.456	-1518
1004.531	-1447
1004.607	-271
1004.682	-1877
1004.757	-777
1004.832	-1797
1004.907	-598
1004.982	-858
1005.057	-864
1005.133	-1490
1005.208	-639
1005.283	-1027
1005.358	-980
1005.433	-1054
1005.508	-549
1005.583	-1231
1005.657	-1565
1005.732	-467
1005.807	-1770
1005.882	-982
1005.957	-1245
1006.032	-785
1006.106	-557
1006.181	-1982
1006.256	-500
1006.331	-1519
1006.405	-1485
1006.480	-1212
1006.554	-1060
1006.629	-1029
1006.704	-768
1006.778	-1156
1006.853	-396
1006.927	-1753
1007.002	-1083
1007.076	-1259
1007.150	-1193
1007.225	-991
1007.299	-896
1007.373	-1810
1007.448	-604
1007.522	-635
1007.596	-1193
1007.671	-2135
1007.745	-1540
1007.819	-1583
1007.893	-1156
1007.967	-1182
1008.041	-1826
1008.115	-468
1008.190	-558
1008.264	-284
1008.338	-2701
1008.412	-1232
1008.486	-1384
1008.560	-733
1008.633	-1918
1008.707	-1171
1008.781	-541
1008.855	-1530
1008.929	-1716
1009.003	-885
1009.076	-1252
1009.150	-1675
1009.224	-1120
1009.298	-865
1009.371	-674
1009.445	-966
1009.519	-1160
1009.592	-1356
1009.666	-536
1009.739	-922
1009.813	-1877
1009.886	-666
1009.960	-2344
1010.033	-592
1010.107	-1269
1010.180	-2868
1010.253	-741
1010.327	-1061
1010.400	-1355
1010.473	-1092
1010.547	-62
1010.620	-2628
1010.693	-1101
1010.766	-1363
1010.840	-602
1010.913	-963
1010.986	-1578
1011.059	-1594
1011.132	-970
1011.205	-690
1011.278	-329
1011.351	-1232
1011.424	-1482
1011.497	-1896
1011.570	-505
1011.643	-1265
1011.716	-1560
1011.789	-1512
1011.862	-928
1011.934	-180
1012.007	-2216
1012.080	-493
1012.153	-1490
1012.225	-641
1012.298	-1618
1012.371	-1511
1012.443	-897
1012.516	-1354
1012.588	-636
1012.661	-1616
1012.733	-2464
1012.806	-562
1012.879	-1734
1012.951	-1092
1013.023	-1235
1013.096	-1507
1013.168	-976
1013.241	-419
1013.313	-923
1013.385	-2517
1013.458	-1518
1013.530	-1490
1013.602	-975
1013.674	-1197
1013.746	-1173
1013.819	-1731
1013.891	-1546
1013.963	-1461
1014.035	-1533
1014.107	-1352
1014.179	-222
1014.251	-1843
1014.323	-329
1014.395	-2484
1014.467	-387
1014.539	-1454
1014.611	-1290
1014.683	-1581
1014.754	-973
1014.826	-1904
1014.898	-1073
1014.970	-2195
1015.042	-326
1015.113	-1083
1015.185	-1697
1015.257	-1429
1015.328	-1612
1015.400	-1292
1015.471	-1282
1015.543	-2374
1015.615	-1131
1015.686	-1378
1015.757	-908
1015.829	-1156
1015.901	-1194
1015.972	-1594
1016.043	-1933
1016.115	-1141
1016.186	-1639
1016.257	-1812
1016.328	-1150
1016.400	-1472
1016.471	-949
1016.542	-1448
1016.613	-841
1016.685	-1662
1016.756	-681
1016.827	-1457
1016.898	-1244
1016.969	-1629
1017.040	-1578
1017.111	-1364
1017.182	-928
1017.253	-2142
1017.324	-1311
1017.395	-1631
1017.466	-507
1017.537	-1516
1017.608	-1084
1017.678	-853
1017.749	-938
1017.820	-1569
1017.891	-1436
1017.961	-2207
1018.032	-1446
1018.103	-526
1018.173	-858
1018.244	-2061
1018.315	-1660
1018.385	-450
1018.456	-1493
1018.526	-1426
1018.597	-714
1018.667	-1034
1018.738	-1362
1018.808	-1560
1018.878	-1340
1018.949	-2009
1019.019	-1012
1019.089	-2167
1019.160	-1356
1019.230	-1670
1019.300	-1529
1019.371	-1369
1019.441	-1104
1019.511	-1779
1019.581	-1350
1019.651	-1236
1019.721	-1682
1019.791	-1639
1019.861	-1465
1019.931	-2028
1020.001	-1085
1020.071	-726
1020.141	-1295
1020.211	-1461
1020.281	-1447
1020.351	-1492
1020.421	-789
1020.491	-815
1020.560	-1851
1020.630	-1225
1020.700	-1310
1020.770	-1698
1020.839	-1813
1020.909	-827
1020.979	-1263
1021.048	-1676
1021.118	-1468
1021.187	-1940
1021.257	-1228
1021.326	-941
1021.396	-1466
1021.465	-1476
1021.535	-1541
1021.604	-1967
1021.674	-298
1021.743	-1312
1021.812	-2098
1021.882	-1351
1021.951	-1337
1022.020	-836
1022.089	-1338
1022.159	-2024
1022.228	-954
1022.297	-763
1022.366	-1317
1022.435	-1731
1022.504	-780
1022.573	-1217
1022.642	-406
1022.711	-1701
1022.781	-1283
1022.849	-1223
1022.918	-1189
1022.987	-690
1023.056	-745
1023.125	-1215
1023.194	-539
1023.263	-1733
1023.331	-1394
1023.400	-1405
1023.469	-1560
1023.538	-816
1023.606	-1072
1023.675	-1675
1023.744	-1623
1023.812	-1731
1023.881	-1260
1023.949	-949
1024.018	-1466
1024.086	-2134
1024.155	-1558
1024.223	-2237
1024.292	-1263
1024.360	-509
1024.429	-1861
1024.497	-785
1024.565	-1961
1024.634	-1248
1024.702	-728
1024.770	-1970
1024.838	-816
1024.907	-1172
1024.975	-1406
1025.043	-1818
1025.111	-1090
1025.179	-1679
1025.247	-850
1025.315	-1323
1025.383	-1094
1025.451	-1828
1025.519	-1072
1025.587	-1324
1025.655	-1300
1025.723	-867
1025.791	-1192
1025.859	-1147
1025.927	-1339
1025.995	-1126
1026.062	-835
1026.130	-1457
1026.198	-1606
1026.266	-1409
1026.333	-1375
1026.401	-1338
1026.469	-1465
1026.536	-1422
1026.604	-1187
1026.671	-2105
1026.739	-1803
1026.806	-2365
1026.874	-1934
1026.941	-1394
1027.009	-1206
1027.076	-2326
1027.144	-1095
1027.211	-2023
1027.278	-1345
1027.345	-2111
1027.413	-1385
1027.480	-1666
1027.547	-1719
1027.614	-1320
1027.682	-1239
1027.749	-1934
1027.816	-1083
1027.883	-1604
1027.950	-1509
1028.017	-2087
1028.084	-1650
1028.151	-2508
1028.218	-1678
1028.285	-1814
1028.352	-1792
1028.419	-2183
1028.486	-1428
1028.553	-900
1028.619	-2332
1028.686	-1539
1028.753	-1512
1028.820	-1368
1028.886	-2109
1028.953	-1541
1029.020	-1713
1029.086	-1699
1029.153	-1380
1029.220	-1605
1029.286	-784
1029.353	-1471
1029.419	-1598
1029.486	-1550
1029.552	-1377
1029.619	-1927
1029.685	-1942
1029.751	-1756
1029.818	-929
1029.884	-1881
1029.951	-849
1030.017	-1728
1030.083	-1022
1030.149	-1897
1030.216	-2097
1030.282	-1836
1030.348	-2487
1030.414	-1493
1030.480	-2234
1030.546	-1930
1030.612	-1276
1030.678	-1656
1030.744	-818
1030.810	-1479
1030.876	-1708
1030.942	-1554
1031.008	-1827
1031.074	-1781
1031.140	-1687
1031.206	-1743
1031.272	-3335
1031.337	-2063
1031.403	-1342
1031.469	-1751
1031.534	-2072
1031.600	-2014
1031.666	-2130
1031.731	-1964
1031.797	-907
1031.863	-1568
1031.928	-1859
1031.994	-1323
1032.059	-1070
1032.125	-1736
1032.190	-1365
1032.256	-2295
1032.321	-1589
1032.386	-2266
1032.452	-2485
1032.517	-1411
1032.582	-1624
1032.647	-1660
1032.713	-2151
1032.778	-1296
1032.843	-2020
1032.908	-1964
1032.974	-1322
1033.039	-1704
1033.104	-1568
1033.169	-1718
1033.234	-1666
1033.299	-1638
1033.364	-1604
1033.429	-2330
1033.494	-1197
1033.559	-2075
1033.624	-1477
1033.688	-2485
1033.753	-2084
1033.818	-1133
1033.883	-1697
1033.948	-1970
1034.013	-1693
1034.077	-1991
1034.142	-2417
1034.207	-1588
1034.271	-1203
1034.336	-1877
1034.400	-2053
1034.465	-1616
1034.530	-1193
1034.594	-1888
1034.658	-1697
1034.723	-2082
1034.787	-1837
1034.852	-1856
1034.916	-2374
1034.981	-1709
1035.045	-1834
1035.109	-1984
1035.173	-1486
1035.238	-1798
1035.302	-1499
1035.366	-1754
1035.430	-1981
1035.495	-2436
1035.559	-1184
1035.623	-1769
1035.687	-3009
1035.751	-2224
1035.815	-1762
1035.879	-2263
1035.943	-1879
1036.007	-1993
1036.071	-1500
1036.135	-1745
1036.198	-2302
1036.262	-1939
1036.326	-1387
1036.390	-1838
1036.454	-1557
1036.517	-2196
1036.581	-2108
1036.645	-1856
1036.709	-1714
1036.772	-1680
1036.836	-1432
1036.900	-1731
1036.963	-2077
1037.026	-1962
1037.090	-1818
1037.154	-2122
1037.217	-1526
1037.280	-1984
1037.344	-1610
1037.407	-1869
1037.471	-1880
1037.534	-2172
1037.597	-976
1037.661	-2477
1037.724	-1183
1037.787	-3470
1037.850	-2183
1037.913	-2111
1037.977	-1877
1038.040	-2069
1038.103	-2021
1038.166	-2456
1038.229	-1583
1038.292	-2457
1038.355	-2010
1038.418	-2152
1038.481	-1600
1038.544	-1597
1038.607	-2687
1038.670	-2024
1038.732	-1483
1038.795	-2309
1038.858	-1909
1038.921	-2094
1038.984	-2288
1039.046	-1991
1039.109	-2666
1039.172	-1594
1039.234	-1353
1039.297	-2508
1039.360	-1972
1039.422	-1714
1039.485	-1431
1039.547	-2883
1039.610	-1739
1039.672	-1894
1039.734	-2171
1039.797	-2621
1039.859	-1780
1039.922	-2227
1039.984	-1220
1040.046	-1548
1040.109	-1329
1040.171	-2096
1040.233	-2012
1040.295	-2561
1040.358	-1882
1040.420	-1934
1040.482	-2195
1040.544	-2390
1040.606	-1327
1040.668	-2358
1040.730	-2039
1040.792	-2611
1040.854	-1474
1040.916	-1591
1040.978	-1172
1041.040	-1457
1041.102	-1731
1041.164	-2514
1041.225	-1381
1041.287	-2786
1041.349	-1418
1041.411	-2414
1041.472	-1625
1041.534	-1726
1041.596	-1991
1041.657	-1836
1041.719	-1841
1041.781	-1612
1041.842	-3237
1041.904	-1568
1041.965	-1964
1042.027	-1753
1042.088	-1194
1042.150	-3062
1042.211	-971
1042.272	-1294
1042.334	-1414
1042.395	-2575
1042.456	-1729
1042.518	-1998
1042.579	-1213
1042.640	-2905
1042.701	-1685
1042.763	-1887
1042.824	-1526
1042.885	-1528
1042.946	-2018
1043.007	-1785
1043.068	-2106
1043.129	-2217
1043.190	-2002
1043.251	-1483
1043.312	-1955
1043.373	-1700
1043.434	-1531
1043.495	-2076
1043.556	-1707
1043.616	-1736
1043.677	-1185
1043.738	-1570
1043.799	-1494
1043.859	-1588
1043.920	-1739
1043.981	-1640
1044.041	-1424
1044.102	-1878
1044.162	-1208
1044.223	-1729
1044.284	-1782
1044.344	-1723
1044.405	-1151
1044.465	-1787
1044.525	-1748
1044.586	-1213
1044.646	-1409
1044.707	-1712
1044.767	-1951
1044.827	-2261
1044.887	-1230
1044.948	-1363
1045.008	-1390
1045.068	-1281
1045.128	-877
1045.188	-2021
1045.249	-816
1045.309	-1544
1045.369	-1201
1045.429	-1623
1045.489	-1665
1045.549	-1595
1045.609	-1703
1045.669	-1741
1045.729	-1679
1045.789	-1297
1045.848	-1888
1045.908	-1362
1045.968	-1189
1046.028	-1450
1046.088	-1609
1046.147	-798
1046.207	-1039
1046.267	-1418
1046.326	-420
1046.386	-1697
1046.446	-501
1046.505	-819
1046.565	184
1046.624	-377
1046.684	-663
1046.743	-1451
1046.803	-50
1046.862	-440
1046.922	0
