'Start Wavelength	183.907
'End Wavelength	1046.922
'Gate Delay	5.000
'Gate Width (ms)	1.050
'Laser Output Level	0.000
'X Position	0.000
'Y Position	0.000
'Z Position	0.000
'Grid Point Number	1.000
'Shot Number	100.000
183.907	-95.000
183.977	-347.000
184.047	-144
184.116	608
184.186	-75
184.256	1304
184.325	106
184.395	153
184.465	351
184.534	303
184.604	554
184.674	262
184.743	-48
184.813	674
184.883	320
184.952	5
185.022	110
185.092	725
185.161	271
185.231	660
185.301	507
185.370	752
185.440	-316
185.509	604
185.579	-321
185.649	771
185.718	-69
185.788	6
185.857	-115
185.927	982
185.996	-198
186.066	697
186.136	444
186.205	815
186.275	-12
186.344	380
186.414	253
186.483	273
186.553	215
186.622	1065
186.692	17
186.761	-86
186.831	-419
186.900	497
186.970	337
187.039	13
187.109	672
187.178	439
187.248	1038
187.317	679
187.387	-543
187.456	485
187.526	195
187.595	998
187.664	-253
187.734	453
187.803	602
187.873	218
187.942	-585
188.012	619
188.081	-38
188.150	-218
188.220	177
188.289	617
188.358	-389
188.428	324
188.497	-646
188.567	-346
188.636	-308
188.705	-42
188.775	366
188.844	461
188.913	421
188.983	519
189.052	169
189.121	123
189.191	-605
189.260	116
189.329	91
189.399	-99
189.468	421
189.537	701
189.606	517
189.676	163
189.745	199
189.814	51
189.883	-12
189.953	941
190.022	116
190.091	297
190.161	-203
190.230	324
190.299	-411
190.368	287
190.437	-434
190.507	93
190.576	-249
190.645	310
190.714	-525
190.783	19
190.853	37
190.922	894
190.991	186
191.060	-344
191.129	-505
191.198	366
191.268	-293
191.337	166
191.406	604
191.475	180
191.544	-552
191.613	823
191.682	245
191.752	152
191.821	381
191.890	466
191.959	25
192.028	588
192.097	-51
192.166	104
192.235	-969
192.304	838
192.373	-976
192.442	295
192.511	-436
192.580	-115
192.650	180
192.719	704
192.788	150
192.857	929
192.926	553
192.995	-175
193.064	127
193.133	523
193.202	224
193.271	1020
193.340	317
193.409	395
193.478	656
193.547	1023
193.615	-88
193.684	1031
193.753	604
193.822	891
193.891	-1035
193.960	514
194.029	-229
194.098	159
194.167	-86
194.236	914
194.305	92
194.374	593
194.443	636
194.512	749
194.580	299
194.649	496
194.718	-502
194.787	791
194.856	457
194.925	1007
194.994	537
195.062	906
195.131	-386
195.200	-105
195.269	392
195.338	801
195.407	111
195.475	294
195.544	-617
195.613	232
195.682	301
195.751	369
195.819	-228
195.888	173
195.957	167
196.026	-359
196.094	1369
196.163	678
196.232	202
196.301	312
196.369	562
196.438	387
196.507	189
196.576	783
196.644	-18
196.713	86
196.782	13
196.850	-203
196.919	377
196.988	402
197.056	-281
197.125	809
197.194	692
197.262	746
197.331	573
197.400	394
197.468	475
197.537	-551
197.606	145
197.674	1197
197.743	18
197.812	587
197.880	403
197.949	-91
198.017	242
198.086	539
198.155	584
198.223	939
198.292	585
198.360	723
198.429	36
198.497	995
198.566	215
198.635	282
198.703	35
198.772	571
198.840	307
198.909	530
198.977	-108
199.046	998
199.114	506
199.183	968
199.251	128
199.320	196
199.388	355
199.457	221
199.525	-626
199.594	284
199.662	-120
199.731	25
199.799	-51
199.867	-377
199.936	-94
200.004	714
200.073	49
200.141	-314
200.210	-215
200.278	6
200.346	32
200.415	751
200.483	212
200.552	465
200.620	253
200.688	546
200.757	539
200.825	310
200.893	-118
200.962	277
201.030	171
201.098	617
201.167	-108
201.235	877
201.303	568
201.372	169
201.440	-102
201.508	-231
201.577	-613
201.645	-148
201.713	-308
201.781	129
201.850	575
201.918	236
201.986	349
202.055	935
202.123	-507
202.191	290
202.259	-61
202.327	525
202.396	155
202.464	-88
202.532	-230
202.600	1551
202.669	-128
202.737	38
202.805	-98
202.873	781
202.941	-454
203.009	441
203.078	-657
203.146	518
203.214	6
203.282	-40
203.350	370
203.418	468
203.487	47
203.555	468
203.623	-178
203.691	389
203.759	451
203.827	512
203.895	-172
203.963	31
204.031	602
204.099	928
204.168	-491
204.236	752
204.304	94
204.372	597
204.440	295
204.508	1401
204.576	-185
204.644	8
204.712	-324
204.780	951
204.848	-645
204.916	-226
204.984	-58
205.052	1244
205.120	-111
205.188	-42
205.256	88
205.324	48
205.392	-198
205.460	220
205.528	393
205.596	1332
205.664	279
205.732	110
205.799	625
205.867	804
205.935	50
206.003	967
206.071	-377
206.139	613
206.207	-574
206.275	530
206.343	462
206.411	518
206.478	374
206.546	635
206.614	120
206.682	1094
206.750	-101
206.818	555
206.885	-307
206.953	-600
207.021	88
207.089	1368
207.157	-102
207.225	397
207.292	310
207.360	305
207.428	105
207.496	308
207.563	410
207.631	-135
207.699	112
207.767	411
207.834	-294
207.902	934
207.970	553
208.038	555
208.105	895
208.173	494
208.241	-225
208.309	979
208.376	88
208.444	1031
208.512	-166
208.579	313
208.647	-135
208.715	909
208.782	265
208.850	601
208.918	-49
208.985	164
209.053	772
209.120	-60
209.188	441
209.256	499
209.323	316
209.391	544
209.459	1185
209.526	837
209.594	98
209.661	755
209.729	141
209.796	384
209.864	649
209.932	-484
209.999	600
210.067	315
210.134	381
210.202	1377
210.269	461
210.337	1082
210.404	-495
210.472	387
210.539	316
210.607	-659
210.674	-16
210.742	-337
210.809	-283
210.877	637
210.944	801
211.012	249
211.079	561
211.146	764
211.214	-109
211.281	874
211.349	41
211.416	959
211.484	267
211.551	-158
211.618	354
211.686	909
211.753	-349
211.821	-25
211.888	167
211.955	176
212.023	767
212.090	504
212.157	240
212.225	1187
212.292	1663
212.359	1923
212.427	2689
212.494	1550
212.561	623
212.629	579
212.696	-245
212.763	63
212.831	-48
212.898	496
212.965	-454
213.032	63
213.100	160
213.167	516
213.234	532
213.301	1393
213.369	-23
213.436	289
213.503	-19
213.570	697
213.638	-35
213.705	418
213.772	-596
213.839	613
213.906	277
213.973	339
214.041	-29
214.108	574
214.175	544
214.242	12
214.309	560
214.376	831
214.444	124
214.511	625
214.578	-197
214.645	270
214.712	302
214.779	673
214.846	454
214.913	807
214.980	703
215.048	498
215.115	347
215.182	971
215.249	1118
215.316	368
215.383	268
215.450	315
215.517	221
215.584	471
215.651	4
215.718	363
215.785	803
215.852	317
215.919	213
215.986	445
216.053	133
216.120	-98
216.187	164
216.254	196
216.321	555
216.388	745
216.455	113
216.522	916
216.589	81
216.656	1454
216.722	825
216.789	991
216.856	1114
216.923	811
216.990	1264
217.057	467
217.124	538
217.191	308
217.258	809
217.324	1709
217.391	1343
217.458	1670
217.525	35
217.592	1387
217.659	140
217.725	1135
217.792	868
217.859	-81
217.926	286
217.993	485
218.059	309
218.126	701
218.193	-252
218.260	406
218.327	131
218.393	156
218.460	-78
218.527	149
218.594	132
218.660	1006
218.727	709
218.794	719
218.860	820
218.927	39
218.994	-405
219.061	896
219.127	243
219.194	1206
219.261	-236
219.327	239
219.394	606
219.461	-77
219.527	-87
219.594	1079
219.661	-8
219.727	-343
219.794	527
219.860	1120
219.927	-259
219.994	1034
220.060	1001
220.127	1228
220.193	531
220.260	741
220.326	923
220.393	1948
220.460	2381
220.526	1476
220.593	53
220.659	1759
220.726	359
220.792	2442
220.859	2491
220.925	3333
220.992	3347
221.058	3481
221.125	2044
221.191	2484
221.258	981
221.324	762
221.391	287
221.457	533
221.524	632
221.590	895
221.657	2086
221.723	1942
221.789	1156
221.856	1515
221.922	939
221.989	143
222.055	982
222.121	296
222.188	1298
222.254	1237
222.321	345
222.387	-214
222.453	534
222.520	284
222.586	56
222.652	467
222.719	243
222.785	384
222.851	-78
222.918	1324
222.984	-241
223.050	400
223.116	-502
223.183	1080
223.249	282
223.315	199
223.382	-146
223.448	519
223.514	-326
223.580	917
223.647	-370
223.713	-347
223.779	-18
223.845	-584
223.911	68
223.978	551
224.044	307
224.110	-283
224.176	-188
224.242	580
224.309	-94
224.375	1007
224.441	24
224.507	436
224.573	-115
224.639	1085
224.705	-783
224.772	1011
224.838	-583
224.904	1369
224.970	600
225.036	1097
225.102	860
225.168	1121
225.234	46
225.300	468
225.366	28
225.432	863
225.499	-138
225.565	205
225.631	-524
225.697	313
225.763	306
225.829	537
225.895	-143
225.961	1160
226.027	1015
226.093	1359
226.159	1360
226.225	2416
226.291	4229
226.357	6684
226.423	3202
226.489	2260
226.554	808
226.620	2045
226.686	1396
226.752	2616
226.818	3268
226.884	6941
226.950	5745
227.016	3147
227.082	1676
227.148	1171
227.214	930
227.279	1177
227.345	395
227.411	1508
227.477	317
227.543	1796
227.609	2217
227.674	1145
227.740	-9
227.806	724
227.872	309
227.938	1135
228.003	831
228.069	343
228.135	-125
228.201	1010
228.267	280
228.332	1227
228.398	-116
228.464	689
228.530	36
228.595	1310
228.661	-226
228.727	75
228.792	507
228.858	116
228.924	-589
228.990	485
229.055	-296
229.121	492
229.187	-8
229.252	303
229.318	385
229.384	114
229.449	690
229.515	-556
229.581	-773
229.646	2229
229.712	252
229.777	818
229.843	165
229.909	1129
229.974	1526
230.040	766
230.105	644
230.171	991
230.236	1286
230.302	2314
230.368	829
230.433	380
230.499	201
230.564	1397
230.630	448
230.695	1147
230.761	898
230.826	-48
230.892	1518
230.957	181
231.023	246
231.088	229
231.154	419
231.219	497
231.284	119
231.350	1009
231.415	-181
231.481	505
231.546	446
231.612	773
231.677	-271
231.742	-130
231.808	1267
231.873	16
231.939	-1326
232.004	2236
232.069	955
232.135	276
232.200	628
232.265	1218
232.331	54
232.396	929
232.461	-791
232.527	-27
232.592	129
232.657	821
232.723	413
232.788	890
232.853	545
232.918	1146
232.984	274
233.049	650
233.114	337
233.179	1706
233.245	1331
233.310	1195
233.375	57
233.440	537
233.506	98
233.571	-172
233.636	207
233.701	211
233.766	1215
233.832	203
233.897	902
233.962	-139
234.027	1015
234.092	532
234.157	327
234.222	879
234.288	1157
234.353	2707
234.418	1581
234.483	2305
234.548	766
234.613	762
234.678	1396
234.743	1100
234.808	3576
234.873	2066
234.938	1560
235.004	1541
235.069	495
235.134	-307
235.199	610
235.264	1614
235.329	-262
235.394	1088
235.459	1553
235.524	416
235.589	1381
235.654	1060
235.719	-464
235.784	754
235.849	693
235.913	1558
235.978	2046
236.043	1937
236.108	1442
236.173	354
236.238	801
236.303	890
236.368	-53
236.433	2179
236.498	1942
236.563	2299
236.627	4006
236.692	10187
236.757	8514
236.822	3638
236.887	3092
236.952	2706
237.017	904
237.081	3713
237.146	3031
237.211	6747
237.276	10434
237.341	13426
237.405	6805
237.470	4558
237.535	3101
237.600	1956
237.664	2339
237.729	762
237.794	1232
237.859	4506
237.923	1563
237.988	970
238.053	2510
238.118	2233
238.182	4470
238.247	3360
238.312	1034
238.376	2324
238.441	87
238.506	1939
238.570	-200
238.635	1917
238.700	1152
238.764	343
238.829	2527
238.893	1524
238.958	792
239.023	1829
239.087	1120
239.152	1561
239.216	265
239.281	1099
239.346	762
239.410	676
239.475	555
239.539	5266
239.604	1031
239.668	1842
239.733	734
239.797	2288
239.862	4722
239.926	3577
239.991	1741
240.055	1734
240.120	1296
240.184	1665
240.249	535
240.313	1336
240.378	542
240.442	2476
240.507	3371
240.571	2223
240.635	1105
240.700	2781
240.764	728
240.829	955
240.893	-383
240.957	954
241.022	2320
241.086	3609
241.151	1409
241.215	35
241.279	1209
241.344	1955
241.408	1378
241.472	824
241.537	1908
241.601	1762
241.665	1196
241.730	1196
241.794	1298
241.858	865
241.922	294
241.987	997
242.051	1282
242.115	718
242.179	1118
242.244	598
242.308	1223
242.372	1618
242.436	1634
242.501	1114
242.565	1124
242.629	583
242.693	913
242.757	358
242.822	782
242.886	1497
242.950	532
243.014	774
243.078	1681
243.142	1114
243.206	799
243.271	2589
243.335	1041
243.399	2283
243.463	5486
243.527	11236
243.591	2930
243.655	2730
243.719	922
243.783	2002
243.847	1647
243.911	2603
243.975	2791
244.040	1625
244.104	1506
244.168	1426
244.232	1456
244.296	2468
244.360	1907
244.424	664
244.488	1675
244.552	1548
244.615	-292
244.679	1018
244.743	678
244.807	810
244.871	694
244.935	1281
244.999	342
245.063	1804
245.127	1605
245.191	1480
245.255	1592
245.319	1505
245.383	216
245.446	2750
245.510	-300
245.574	1229
245.638	522
245.702	-2
245.766	2598
245.829	1950
245.893	1108
245.957	749
246.021	2071
246.085	953
246.149	1107
246.212	4214
246.276	3265
246.340	1897
246.404	1361
246.467	2600
246.531	1151
246.595	1720
246.659	1763
246.722	1278
246.786	1759
246.850	2020
246.913	1472
246.977	1353
247.041	737
247.104	1930
247.168	1328
247.232	3014
247.295	5357
247.359	2955
247.423	1396
247.486	2345
247.550	1807
247.614	1989
247.677	1915
247.741	1522
247.804	520
247.868	1757
247.932	2395
247.995	5487
248.059	1858
248.122	1101
248.186	1942
248.249	4139
248.313	8355
248.376	8332
248.440	5706
248.503	1520
248.567	3082
248.630	2807
248.694	3944
248.757	5867
248.821	8657
248.884	6658
248.948	5173
249.011	8495
249.075	10627
249.138	9005
249.202	3758
249.265	2800
249.328	4092
249.392	2251
249.455	2302
249.519	1674
249.582	2098
249.645	5177
249.709	2607
249.772	3558
249.835	2228
249.899	1693
249.962	2157
250.025	1851
250.089	5077
250.152	5411
250.215	2591
250.279	2824
250.342	2533
250.405	3090
250.468	1706
250.532	3050
250.595	4962
250.658	13671
250.721	17138
250.785	6781
250.848	5399
250.911	2460
250.974	2480
251.038	4509
251.101	5160
251.164	2946
251.227	3384
251.290	3612
251.354	6950
251.417	18173
251.480	14499
251.543	14090
251.606	32149
251.669	20655
251.732	8455
251.795	9627
251.859	9777
251.922	19491
251.985	9631
252.048	5511
252.111	4039
252.174	4201
252.237	6215
252.300	11116
252.363	14362
252.426	24374
252.489	8499
252.552	5160
252.615	2922
252.678	5384
252.741	8849
252.804	12781
252.867	24612
252.930	13180
252.993	7175
253.056	6122
253.119	2966
253.182	2012
253.245	4699
253.308	3842
253.371	1931
253.434	2634
253.497	3595
253.559	6710
253.622	3681
253.685	5307
253.748	3842
253.811	2543
253.874	3338
253.937	2974
254.000	1107
254.062	3941
254.125	5450
254.188	6969
254.251	3825
254.314	2395
254.376	4129
254.439	3520
254.502	3387
254.565	4129
254.628	6758
254.690	3818
254.753	1652
254.816	2427
254.878	2142
254.941	4953
255.004	2680
255.067	1880
255.129	1917
255.192	1206
255.255	456
255.317	1206
255.380	851
255.443	1113
255.505	-103
255.568	-306
255.631	519
255.693	1519
255.756	-329
255.819	1525
255.881	63
255.944	1630
256.006	871
256.069	561
256.132	-274
256.194	1223
256.257	2739
256.319	2389
256.382	1640
256.444	2880
256.507	1565
256.569	1394
256.632	1967
256.694	2393
256.757	8664
256.819	18509
256.882	6620
256.944	3745
257.007	3327
257.069	2586
257.132	1496
257.194	2592
257.257	1409
257.319	1241
257.381	1487
257.444	7324
257.506	22677
257.569	20920
257.631	8585
257.693	5331
257.756	3190
257.818	2635
257.880	1609
257.943	1972
258.005	206
258.067	1416
258.130	1099
258.192	2734
258.254	2576
258.317	1043
258.379	1619
258.441	3498
258.503	4028
258.566	3611
258.628	3810
258.690	1407
258.753	2440
258.815	3645
258.877	1039
258.939	2711
259.001	1266
259.064	1592
259.126	1127
259.188	3146
259.250	1471
259.312	3020
259.375	3334
259.437	2081
259.499	1098
259.561	1346
259.623	1483
259.685	1246
259.747	1342
259.809	4836
259.872	5622
259.934	11264
259.996	8379
260.058	3347
260.120	1398
260.182	2333
260.244	1083
260.306	1059
260.368	1646
260.430	1157
260.492	2349
260.554	5178
260.616	1984
260.678	6071
260.740	4165
260.802	1904
260.864	1737
260.926	660
260.988	2221
261.050	2374
261.112	3333
261.174	9043
261.236	3921
261.298	1820
261.359	3384
261.421	4253
261.483	903
261.545	2638
261.607	297
261.669	1989
261.731	2678
261.793	4586
261.854	295
261.916	2472
261.978	1482
262.040	1694
262.102	1420
262.164	1996
262.225	1699
262.287	2289
262.349	2988
262.411	2389
262.472	1404
262.534	2208
262.596	3232
262.658	1533
262.719	0
262.781	2990
262.843	2682
262.904	1718
262.966	1863
263.028	1992
263.090	9255
263.151	16709
263.213	5017
263.275	3232
263.336	1361
263.398	2505
263.459	753
263.521	1146
263.583	2952
263.644	2383
263.706	801
263.767	276
263.829	662
263.891	556
263.952	462
264.014	411
264.075	1499
264.137	3552
264.198	1018
264.260	204
264.321	1554
264.383	2720
264.444	5728
264.506	1286
264.567	798
264.629	2763
264.690	3009
264.752	2052
264.813	1426
264.875	237
264.936	694
264.998	374
265.059	250
265.120	1414
265.182	2232
265.243	12577
265.305	8655
265.366	2297
265.427	1078
265.489	2368
265.550	-44
265.611	1089
265.673	-233
265.734	1070
265.795	161
265.857	1102
265.918	1195
265.979	4157
266.040	17894
266.102	11584
266.163	3566
266.224	2088
266.286	957
266.347	308
266.408	1598
266.469	1348
266.530	1203
266.592	223
266.653	1596
266.714	2579
266.775	758
266.836	613
266.898	-248
266.959	1287
267.020	564
267.081	2054
267.142	451
267.203	697
267.264	492
267.326	1150
267.387	165
267.448	517
267.509	852
267.570	1046
267.631	-760
267.692	386
267.753	567
267.814	-113
267.875	1736
267.936	4217
267.997	2681
268.058	2752
268.119	578
268.180	585
268.241	150
268.302	201
268.363	180
268.424	326
268.485	-31
268.546	565
268.607	825
268.668	857
268.729	733
268.790	1033
268.851	745
268.912	2457
268.972	2198
269.033	1080
269.094	498
269.155	1331
269.216	-367
269.277	1240
269.338	373
269.398	1704
269.459	-784
269.520	1552
269.581	1101
269.642	1585
269.702	634
269.763	1362
269.824	-63
269.885	839
269.945	2110
270.006	882
270.067	-313
270.128	198
270.188	47
270.249	-442
270.310	112
270.370	1603
270.431	634
270.492	473
270.553	974
270.613	2400
270.674	3775
270.734	493
270.795	373
270.856	1277
270.916	452
270.977	1101
271.038	1211
271.098	745
271.159	1253
271.219	1971
271.280	513
271.340	501
271.401	577
271.462	2036
271.522	1838
271.583	519
271.643	561
271.704	434
271.764	1005
271.825	4363
271.885	9974
271.946	10662
272.006	4159
272.066	6675
272.127	7222
272.187	3976
272.248	744
272.308	2320
272.369	5693
272.429	3265
272.489	2015
272.550	2470
272.610	3275
272.671	1538
272.731	1855
272.791	1887
272.852	576
272.912	2342
272.972	462
273.033	1246
273.093	1195
273.153	2228
273.214	791
273.274	1417
273.334	4363
273.394	7635
273.455	2399
273.515	4109
273.575	6238
273.635	3338
273.696	4684
273.756	7739
273.816	3284
273.876	2099
273.936	3763
273.997	5243
274.057	1028
274.117	814
274.177	3059
274.237	11517
274.297	6934
274.358	5562
274.418	5572
274.478	4388
274.538	1202
274.598	606
274.658	5468
274.718	5414
274.778	1637
274.838	1508
274.898	2204
274.958	6421
275.018	8118
275.078	4639
275.138	2139
275.198	753
275.258	1181
275.318	913
275.378	2494
275.438	3053
275.498	2299
275.558	5297
275.618	7929
275.678	4767
275.738	3914
275.798	2436
275.858	1543
275.918	890
275.978	1647
276.038	2098
276.098	1006
276.157	2558
276.217	6015
276.277	2628
276.337	1837
276.397	1777
276.457	979
276.517	673
276.576	1085
276.636	226
276.696	1794
276.756	4048
276.815	3005
276.875	1401
276.935	2013
276.995	1570
277.055	720
277.114	1201
277.174	1437
277.234	5020
277.293	1602
277.353	1009
277.413	287
277.472	909
277.532	742
277.592	2554
277.651	6082
277.711	6234
277.771	3546
277.830	10786
277.890	7165
277.950	6601
278.009	14102
278.069	5615
278.128	6768
278.188	7895
278.248	4264
278.307	9665
278.367	4056
278.426	1834
278.486	1142
278.545	1412
278.605	1326
278.664	302
278.724	1434
278.783	5155
278.843	7342
278.902	2339
278.962	1876
279.021	2842
279.081	3705
279.140	3354
279.199	2404
279.259	3461
279.318	2535
279.378	4848
279.437	7690
279.496	18225
279.556	41922
279.615	23509
279.675	8166
279.734	6738
279.793	9214
279.853	11538
279.912	5727
279.971	4306
280.031	4021
280.090	6459
280.149	8539
280.208	7915
280.268	30722
280.327	22080
280.386	5695
280.445	5566
280.505	4105
280.564	2758
280.623	2900
280.682	3940
280.742	5288
280.801	1990
280.860	907
280.919	1209
280.978	326
281.037	1652
281.097	-316
281.156	1762
281.215	1946
281.274	1650
281.333	5432
281.392	3624
281.451	24
281.510	1154
281.569	940
281.628	1331
281.688	147
281.747	2036
281.806	414
281.865	1059
281.924	-35
281.983	987
282.042	-241
282.101	454
282.160	386
282.219	1159
282.278	1349
282.337	2607
282.396	536
282.454	834
282.513	1135
282.572	5486
282.631	2233
282.690	1132
282.749	-535
282.808	1504
282.867	1153
282.926	1303
282.985	-50
283.043	170
283.102	62
283.161	504
283.220	3514
283.279	5231
283.338	1823
283.396	173
283.455	920
283.514	1662
283.573	1216
283.631	1525
283.690	878
283.749	811
283.808	2487
283.866	2896
283.925	140
283.984	1595
284.043	1296
284.101	1419
284.160	184
284.219	1658
284.277	545
284.336	2209
284.395	6954
284.453	3892
284.512	2225
284.570	3297
284.629	2682
284.688	2597
284.746	2570
284.805	3187
284.863	4742
284.922	6085
284.981	7469
285.039	11479
285.098	19093
285.156	34546
285.215	36874
285.273	36618
285.332	29093
285.390	20179
285.449	13196
285.507	10820
285.566	7045
285.624	5807
285.683	4559
285.741	3151
285.799	2435
285.858	2465
285.916	2137
285.975	1614
286.033	1090
286.091	1233
286.150	694
286.208	1107
286.267	1647
286.325	999
286.383	1903
286.442	2297
286.500	810
286.558	1251
286.616	696
286.675	845
286.733	481
286.791	1147
286.850	1541
286.908	1717
286.966	2094
287.024	808
287.083	721
287.141	646
287.199	1109
287.257	555
287.315	1176
287.374	1852
287.432	3761
287.490	1901
287.548	307
287.606	985
287.664	605
287.723	2102
287.781	1130
287.839	1288
287.897	1168
287.955	1601
288.013	3057
288.071	8483
288.129	26927
288.187	49190
288.245	20684
288.303	7911
288.361	4087
288.419	3754
288.477	2134
288.535	2338
288.593	1155
288.651	1119
288.709	625
288.767	1725
288.825	160
288.883	1882
288.941	1293
288.999	667
289.057	646
289.115	179
289.173	545
289.231	307
289.289	-358
289.346	843
289.404	1187
289.462	1847
289.520	1388
289.578	318
289.636	-78
289.694	384
289.751	710
289.809	569
289.867	88
289.925	1037
289.983	740
290.040	1304
290.098	410
290.156	437
290.214	855
290.271	445
290.329	677
290.387	-72
290.444	283
290.502	-335
290.560	106
290.617	1004
290.675	127
290.733	315
290.790	1130
290.848	827
290.906	672
290.963	564
291.021	-201
291.078	809
291.136	765
291.194	2877
291.251	4206
291.309	1134
291.366	192
291.424	353
291.481	136
291.539	573
291.596	343
291.654	-139
291.711	257
291.769	1102
291.826	1269
291.884	1391
291.941	-105
291.999	469
292.056	-55
292.114	398
292.171	-42
292.228	296
292.286	807
292.343	1859
292.401	1300
292.458	1242
292.515	-146
292.573	1651
292.630	504
292.687	251
292.745	95
292.802	907
292.859	3125
292.917	6095
292.974	2417
293.031	709
293.089	1481
293.146	640
293.203	1114
293.260	462
293.318	635
293.375	1669
293.432	586
293.489	645
293.546	252
293.604	1095
293.661	4685
293.718	8269
293.775	4820
293.832	1935
293.889	1451
293.947	2263
294.004	387
294.061	1743
294.118	2837
294.175	6334
294.232	6597
294.289	2486
294.346	1801
294.403	3341
294.460	1200
294.517	417
294.574	790
294.631	247
294.688	1311
294.745	2936
294.802	10132
294.859	10727
294.916	4045
294.973	2347
295.030	1580
295.087	1702
295.144	1235
295.201	1805
295.258	379
295.315	772
295.372	4449
295.429	7243
295.486	2319
295.542	2675
295.599	5566
295.656	8268
295.713	5729
295.770	6528
295.827	2174
295.883	1655
295.940	1381
295.997	2454
296.054	1862
296.111	1604
296.167	764
296.224	1125
296.281	980
296.338	867
296.394	717
296.451	1179
296.508	3488
296.564	5677
296.621	4969
296.678	9096
296.734	9902
296.791	4240
296.848	2490
296.904	2983
296.961	6171
297.018	8532
297.074	4625
297.131	3432
297.187	1926
297.244	3194
297.301	8064
297.357	11791
297.414	3915
297.470	2145
297.527	1431
297.583	1517
297.640	1335
297.696	825
297.753	1090
297.809	824
297.866	121
297.922	1072
297.979	252
298.035	957
298.092	1753
298.148	4471
298.204	4366
298.261	2810
298.317	4605
298.374	9167
298.430	4893
298.486	2325
298.543	1491
298.599	2545
298.656	2218
298.712	4327
298.768	7447
298.824	4310
298.881	1641
298.937	1504
298.993	1100
299.050	1347
299.106	1635
299.162	1040
299.218	1289
299.275	888
299.331	1420
299.387	3341
299.443	8686
299.500	9223
299.556	4243
299.612	2525
299.668	1610
299.724	2996
299.780	2407
299.837	1396
299.893	2570
299.949	7832
300.005	8259
300.061	7892
300.117	10923
300.173	5149
300.229	2509
300.285	4474
300.341	3586
300.397	2304
300.453	505
300.510	1343
300.566	1015
300.622	2236
300.678	5845
300.734	9847
300.790	7443
300.845	8943
300.901	5976
300.957	8337
301.013	5245
301.069	1660
301.125	1829
301.181	1731
301.237	1438
301.293	1044
301.349	1032
301.405	752
301.461	654
301.516	881
301.572	880
301.628	2385
301.684	1240
301.740	3681
301.796	4572
301.851	4791
301.907	6199
301.963	6134
302.019	9608
302.074	21790
302.130	19766
302.186	10250
302.242	4755
302.297	3142
302.353	3407
302.409	5982
302.464	4775
302.520	4443
302.576	8720
302.631	9812
302.687	5685
302.743	3125
302.798	1153
302.854	1597
302.910	2154
302.965	2717
303.021	3946
303.076	3539
303.132	3653
303.187	4534
303.243	2206
303.299	2109
303.354	1395
303.410	1874
303.465	1122
303.521	698
303.576	630
303.632	1889
303.687	2660
303.743	7702
303.798	5831
303.853	3211
303.909	1213
303.964	1967
304.020	2918
304.075	3474
304.130	3258
304.186	5478
304.241	6040
304.297	4231
304.352	1865
304.358	1894
304.407	2128
304.449	1575
304.463	1390
304.518	1453
304.539	1560
304.573	1720
304.629	1856
304.630	1865
304.684	2464
304.720	5510
304.739	6995
304.794	7919
304.811	6977
304.850	4472
304.902	2081
304.905	1945
304.960	2204
304.992	2052
305.015	1924
305.071	2401
305.083	2065
305.126	816
305.173	1131
305.181	1190
305.236	1100
305.264	1408
305.292	1805
305.347	1691
305.354	1769
305.402	2176
305.445	2658
305.457	2809
305.512	2380
305.535	2467
305.567	2487
305.622	2758
305.626	2808
305.678	5520
305.716	10165
305.733	11384
305.788	11606
305.807	10520
305.843	8932
305.897	10359
305.898	10366
305.953	9539
305.988	6685
306.008	5172
306.063	4164
306.078	3574
306.118	2371
306.168	1699
306.173	1662
306.228	1268
306.259	1557
306.283	1809
306.338	1473
306.349	1504
306.393	1824
306.440	2445
306.448	2509
306.503	2577
306.530	2523
306.558	3531
306.613	7486
306.620	7866
306.668	10449
306.711	13896
306.723	13801
306.778	8917
306.801	7073
306.833	5265
306.888	3051
306.892	2890
306.943	2312
306.982	1794
306.997	1684
307.052	1832
307.072	1900
307.107	2351
307.162	2724
307.163	2728
307.217	4189
307.253	5279
307.272	5480
307.327	4978
307.343	5073
307.381	5237
307.434	4086
307.436	4256
307.491	9812
307.524	13396
307.546	13612
307.600	13254
307.614	12424
307.655	8186
307.704	4441
307.710	4548
307.765	5634
307.795	7059
307.819	8851
307.874	12004
307.885	12469
307.929	10673
307.975	9153
307.984	9938
308.038	16178
308.065	19797
308.093	33678
308.148	65617
308.156	70976
308.202	99688
308.246	120064
308.257	113863
308.312	67263
308.336	47638
308.366	37883
308.421	22440
308.426	20962
308.475	14298
308.517	9501
308.530	9148
308.585	8539
308.607	8242
308.639	8125
308.694	7761
308.697	7784
308.748	13855
308.787	18401
308.803	17762
308.857	13573
308.877	12459
308.912	12787
308.967	12966
308.967	12944
309.021	19264
309.058	23785
309.076	30676
309.130	53302
309.148	61139
309.185	96782
309.238	151899
309.239	152608
309.293	160701
309.328	159068
309.348	139157
309.402	78113
309.418	61275
309.457	45706
309.508	26565
309.511	26357
309.566	23453
309.598	21862
309.620	25123
309.674	33654
309.688	35773
309.729	33751
309.778	30171
309.783	29576
309.837	21382
309.868	16897
309.892	19567
309.946	26300
309.959	28021
310.001	35944
310.049	43891
310.055	42205
310.109	25072
310.139	15423
310.163	12700
310.218	7537
310.229	6487
310.272	5443
310.319	4695
310.326	4676
310.381	4012
310.409	3819
310.435	3776
310.489	3617
310.499	3632
310.543	4063
310.589	4219
310.598	4216
310.652	4324
310.679	4257
310.706	4078
310.760	3744
310.769	3690
310.814	3085
310.859	2476
310.868	2643
310.923	3384
310.948	3767
310.977	3921
311.031	4244
311.038	4282
311.085	4359
311.128	4253
311.139	4102
311.193	3309
311.218	2919
311.247	3173
311.301	3745
311.308	3787
311.356	3439
311.398	3226
311.410	3302
311.464	3388
311.488	3505
311.518	3406
311.572	3062
311.578	3027
311.626	4571
311.668	5906
311.680	5884
311.734	5578
311.758	5435
311.788	5164
311.842	4666
311.847	4599
311.896	7041
311.937	9102
311.950	8877
312.004	7738
312.027	7217
312.058	6200
312.112	4323
312.117	4124
312.165	3971
312.207	3823
312.297	5378
312.386	4549
312.476	4607
312.566	9915
312.656	5558
312.745	3531
312.835	4376
312.925	4687
313.015	3968
313.104	4497
313.194	3258
313.284	3957
313.374	4835
313.463	4478
313.553	4724
313.643	3597
313.732	3086
313.822	2840
313.912	4404
314.001	4600
314.091	5326
314.180	6115
314.270	5688
314.360	5439
314.449	6065
314.539	3615
314.628	3610
314.718	3634
314.808	5094
314.897	3581
314.987	4086
315.076	4653
315.166	5908
315.255	5471
315.345	5501
315.434	5542
315.524	4164
315.613	6270
315.703	7517
315.792	9656
315.881	19130
315.971	9590
316.060	10695
316.150	13477
316.239	13405
316.328	6631
316.418	4457
316.507	3751
316.597	6070
316.686	4693
316.775	5682
316.865	14273
316.954	4159
317.043	2759
317.133	3860
317.222	2801
317.311	3493
317.400	2760
317.490	5042
317.579	6363
317.668	4018
317.757	7316
317.847	12541
317.936	35385
318.025	20370
318.114	11277
318.203	8446
318.293	10694
318.382	20233
318.471	17066
318.560	20544
318.649	40040
318.738	10414
318.828	6993
318.917	7149
319.006	7571
319.095	17274
319.184	50536
319.273	30267
319.362	16124
319.451	5980
319.540	5594
319.629	11273
319.718	20782
319.807	10333
319.896	16609
319.985	61141
320.074	25794
320.163	6898
320.252	9006
320.341	7649
320.430	7548
320.519	10505
320.608	6231
320.697	5421
320.786	4849
320.875	6604
320.964	8757
321.053	13810
321.142	19149
321.230	22001
321.319	15222
321.408	34635
321.497	15821
321.586	14530
321.675	14658
321.764	15878
321.852	10636
321.941	20252
322.030	15291
322.119	14142
322.207	34863
322.296	22496
322.385	11538
322.474	14718
322.562	42802
322.651	24240
322.740	15516
322.829	19818
322.917	18560
323.006	12628
323.095	10363
323.183	7431
323.272	13730
323.361	19615
323.449	56150
323.538	20811
323.626	36951
323.715	25280
323.804	9990
323.892	33821
323.981	22531
324.069	7421
324.158	16997
324.246	17994
324.335	7780
324.424	13374
324.512	4946
324.601	6601
324.689	8910
324.778	12681
324.866	13064
324.954	4535
325.043	4465
325.131	8328
325.220	14342
325.308	16145
325.397	11541
325.485	9010
325.574	3174
325.662	3613
325.750	3721
325.839	4057
325.927	3131
326.015	4600
326.104	5670
326.192	8696
326.280	3211
326.369	3778
326.457	5848
326.545	10810
326.634	4964
326.722	2342
326.810	3493
326.898	3168
326.987	4204
327.075	9457
327.163	9461
327.251	4997
327.340	5361
327.428	7029
327.516	3013
327.604	3149
327.692	4113
327.781	3690
327.869	6318
327.957	5576
328.045	4365
328.133	2762
328.221	3069
328.309	3989
328.397	3920
328.485	4822
328.574	6630
328.662	22177
328.750	13187
328.838	4293
328.926	3810
329.014	3089
329.102	5481
329.190	12694
329.278	9004
329.366	2877
329.454	2894
329.542	3623
329.630	2936
329.718	3326
329.806	5083
329.893	5398
329.981	5939
330.069	11115
330.157	37033
330.245	89605
330.333	52576
330.421	11420
330.509	8943
330.597	27050
330.684	19181
330.772	6656
330.860	8145
330.948	11185
331.036	6044
331.123	3055
331.211	3461
331.299	4427
331.387	8944
331.475	16502
331.562	5319
331.650	2985
331.738	2906
331.825	4617
331.913	2251
332.001	2305
332.089	3573
332.176	8295
332.264	16055
332.352	14238
332.439	5648
332.527	3981
332.614	3081
332.702	3776
332.790	3951
332.877	7845
332.965	16750
333.052	5983
333.140	6598
333.228	16072
333.315	5791
333.403	3736
333.490	10402
333.578	11248
333.665	18904
333.753	10323
333.840	4270
333.928	4632
334.015	10948
334.103	18189
334.190	59946
334.278	17518
334.365	7409
334.452	5179
334.540	4007
334.627	4793
334.715	6764
334.802	13261
334.889	59526
334.977	68773
335.064	10637
335.151	5439
335.239	5304
335.326	8271
335.413	28112
335.501	44662
335.588	7012
335.675	4254
335.762	5792
335.850	10753
335.937	8099
336.024	18364
336.111	69418
336.199	33571
336.286	8292
336.373	4708
336.460	3449
336.547	4001
336.635	3699
336.722	4193
336.809	3059
336.896	6630
336.983	19460
337.070	47058
337.157	66377
337.245	42391
337.332	31421
337.419	4925
337.506	3745
337.593	4253
337.680	14642
337.767	44174
337.854	13969
337.941	14251
338.028	14061
338.115	6681
338.202	7078
338.289	11383
338.376	40510
338.463	16238
338.550	24761
338.637	29407
338.724	8442
338.811	12780
338.898	3861
338.984	3134
339.071	2979
339.158	5206
339.245	13377
339.332	8335
339.419	9072
339.506	9065
339.593	1921
339.679	2540
339.766	2392
339.853	3858
339.940	10301
340.027	4555
340.113	3895
340.200	5313
340.287	4667
340.374	5277
340.460	8828
340.547	3378
340.634	6966
340.720	25556
340.807	17662
340.894	3297
340.980	3307
341.067	3028
341.154	3541
341.240	5567
341.327	13394
341.414	4935
341.500	4442
341.587	2987
341.674	3627
341.760	8218
341.847	10577
341.933	3834
342.020	1387
342.106	2563
342.193	3986
342.279	7255
342.366	5547
342.452	8830
342.539	5623
342.625	11217
342.712	29086
342.798	12466
342.885	5253
342.971	2143
343.058	1640
343.144	1805
343.230	2018
343.317	2567
343.403	1773
343.490	2110
343.576	1836
343.662	2469
343.749	3596
343.835	4690
343.921	7603
344.008	35863
344.094	86762
344.180	22323
344.267	8438
344.353	25843
344.439	29448
344.525	15309
344.612	8702
344.698	7868
344.784	4952
344.870	2286
344.957	3084
345.043	4977
345.129	4403
345.215	8856
345.301	4636
345.387	2697
345.474	1837
345.560	1257
345.646	3214
345.732	2831
345.818	3818
345.904	3620
345.990	4072
346.076	3663
346.162	6287
346.249	3024
346.335	2445
346.421	3432
346.507	9779
346.593	35775
346.679	9593
346.765	4091
346.851	2904
346.937	3086
347.023	3509
347.108	3555
347.194	3421
347.280	3295
347.366	4009
347.452	11008
347.538	42835
347.624	34597
347.710	28625
347.796	5551
347.882	3511
347.967	3380
348.053	4283
348.139	3303
348.225	2366
348.311	2508
348.397	2019
348.482	3785
348.568	4929
348.654	2413
348.740	4005
348.825	4324
348.911	6058
348.997	19144
349.083	38997
349.168	7733
349.254	3710
349.340	3500
349.425	1756
349.511	4437
349.597	4747
349.682	9261
349.768	29110
349.854	14878
349.939	3218
350.025	3191
350.110	3414
350.196	1706
350.282	1122
350.367	1620
350.453	3565
350.538	4427
350.624	4244
350.709	3266
350.795	2217
350.880	2608
350.966	2987
351.051	4872
351.137	3510
351.222	3368
351.308	9019
351.393	27152
351.479	8369
351.564	3040
351.649	3131
351.735	2006
351.820	2035
351.906	2958
351.991	4118
352.076	16713
352.162	27919
352.247	6329
352.332	3539
352.418	7518
352.503	9756
352.588	37654
352.673	33358
352.759	8361
352.844	3807
352.929	3336
353.014	4982
353.100	3112
353.185	5651
353.270	9763
353.355	10881
353.441	3758
353.526	3039
353.611	9094
353.696	11275
353.781	6184
353.866	3494
353.952	4143
354.037	8749
354.122	21002
354.207	18950
354.292	7852
354.377	3123
354.462	2832
354.547	4142
354.632	4626
354.717	4959
354.802	6281
354.887	3513
354.972	2200
355.057	1857
355.142	1600
355.227	3509
355.312	6718
355.397	14170
355.482	33050
355.567	17543
355.652	10584
355.737	12376
355.822	32713
355.907	29895
355.991	5209
356.076	2669
356.161	2846
356.246	2763
356.331	3263
356.416	7954
356.501	48124
356.585	54209
356.670	8726
356.755	7089
356.840	8586
356.924	33952
357.009	119814
357.094	53421
357.179	12002
357.263	8466
357.348	7966
357.433	8463
357.517	7401
357.602	5924
357.687	5449
357.771	7981
357.856	24820
357.941	16326
358.025	27382
358.110	111558
358.195	59993
358.279	11288
358.364	7942
358.448	25150
358.533	69349
358.617	51197
358.702	48802
358.787	20202
358.871	10868
358.956	9153
359.040	3473
359.125	3172
359.209	3504
359.294	10891
359.378	21022
359.462	9138
359.547	4795
359.631	3090
359.716	3179
359.800	3425
359.885	5174
359.969	3984
360.053	3900
360.138	3432
360.222	4539
360.306	10725
360.391	8030
360.475	14187
360.559	32143
360.644	26765
360.728	20006
360.812	27001
360.896	76116
360.981	36438
361.065	20656
361.149	5942
361.233	6169
361.318	4256
361.402	5459
361.486	4632
361.570	3076
361.654	5072
361.739	11751
361.823	48781
361.907	77442
361.991	16486
362.075	9552
362.159	20067
362.243	14867
362.327	14492
362.411	16103
362.495	8713
362.580	5378
362.664	3850
362.748	4212
362.832	5236
362.916	8702
363.000	26672
363.084	66928
363.168	93096
363.252	26426
363.336	10089
363.420	12753
363.503	42031
363.587	53682
363.671	10915
363.755	7079
363.839	11461
363.923	5956
364.007	11073
364.091	13220
364.175	17052
364.258	71583
364.342	55850
364.426	54229
364.510	29961
364.594	15528
364.677	16850
364.761	63455
364.845	50986
364.929	18115
365.013	16258
365.096	12255
365.180	15093
365.264	17440
365.347	68381
365.431	32212
365.515	7826
365.598	4093
365.682	5135
365.766	7276
365.849	9298
365.933	4564
366.017	7370
366.100	4781
366.184	2948
366.267	3282
366.351	2526
366.435	2355
366.518	1687
366.602	2641
366.685	2034
366.769	2946
366.852	6969
366.936	12704
367.019	6956
367.103	4783
367.186	10654
367.270	3792
367.353	1676
367.436	3139
367.520	2101
367.603	4173
367.687	5899
367.770	12194
367.853	7254
367.937	18536
368.020	33034
368.104	9207
368.187	8867
368.270	13450
368.353	12017
368.437	13052
368.520	26271
368.603	19578
368.687	24766
368.770	49443
368.853	13830
368.936	12577
369.020	12002
369.103	4911
369.186	2535
369.269	3746
369.352	8043
369.436	11110
369.519	8064
369.602	2736
369.685	4483
369.768	4234
369.851	4418
369.934	2288
370.018	3811
370.101	10045
370.184	8376
370.267	5458
370.350	10195
370.433	14618
370.516	31644
370.599	41239
370.682	13750
370.765	26832
370.848	31633
370.931	57928
371.014	23952
371.097	5679
371.180	3504
371.263	2612
371.346	2416
371.429	2298
371.511	2645
371.594	6333
371.677	10488
371.760	11864
371.843	10401
371.926	38786
372.009	92356
372.091	33144
372.174	20804
372.257	46569
372.340	20178
372.423	15819
372.505	18344
372.588	8619
372.671	17982
372.754	55851
372.836	30202
372.919	20673
373.002	43366
373.085	14367
373.167	10527
373.250	23867
373.332	48327
373.415	61830
373.498	130128
373.580	52456
373.663	55872
373.746	80199
373.828	21578
373.911	10480
373.993	10756
374.076	38352
374.159	39466
374.241	15988
374.324	49969
374.406	34672
374.489	34857
374.571	98192
374.654	45451
374.736	21330
374.819	58695
374.901	86632
374.983	96842
375.066	19692
375.148	7896
375.231	30308
375.313	63427
375.395	23840
375.478	6488
375.560	4008
375.643	6278
375.725	18955
375.807	78581
375.890	66233
375.972	27306
376.054	15267
376.136	21759
376.219	10921
376.301	22377
376.383	72146
376.465	29641
376.548	19346
376.630	21981
376.712	61952
376.794	31872
376.877	4484
376.959	2310
377.041	4299
377.123	7973
377.205	9395
377.287	2432
377.369	2480
377.452	2712
377.534	2960
377.616	2201
377.698	2494
377.780	1765
377.862	3211
377.944	2986
378.026	1110
378.108	2134
378.190	2538
378.272	2100
378.354	1422
378.436	1719
378.518	4208
378.600	16770
378.682	16114
378.764	34094
378.846	28998
378.928	8301
379.010	11168
379.091	6467
379.173	3424
379.255	1895
379.337	4913
379.419	14679
379.501	49071
379.583	21377
379.664	5591
379.746	12730
379.828	33748
379.910	46595
379.991	40829
380.073	8028
380.155	5077
380.237	3903
380.318	2843
380.400	2512
380.482	7584
380.564	13030
380.645	10449
380.727	11549
380.809	7515
380.890	4777
380.972	3998
381.053	3927
381.135	4889
381.217	11177
381.298	36495
381.380	19258
381.461	14675
381.543	60817
381.624	82008
381.706	16848
381.787	9570
381.869	9402
381.951	24225
382.032	93680
382.113	67350
382.195	16775
382.276	11352
382.358	18929
382.439	52758
382.521	58577
382.602	93284
382.684	47506
382.765	86136
382.846	106640
382.928	157817
383.009	94293
383.090	65337
383.172	214391
383.253	332581
383.334	119480
383.416	94557
383.497	54557
383.578	31440
383.659	57302
383.741	188758
383.822	458950
383.903	254439
383.984	83690
384.066	116865
384.147	78725
384.228	18436
384.309	12845
384.390	10200
384.471	7398
384.553	7482
384.634	10116
384.715	11718
384.796	6405
384.877	8436
384.958	30970
385.039	41177
385.120	16211
385.201	7219
385.282	8134
385.363	9715
385.444	7863
385.525	12720
385.606	39460
385.687	36374
385.768	10372
385.849	11986
385.930	42812
386.011	75941
386.092	23190
386.173	6780
386.254	4860
386.335	5488
386.416	4918
386.496	20929
386.577	37043
386.658	13511
386.739	8208
386.820	7363
386.901	4891
386.981	5004
387.062	3447
387.143	7557
387.224	33108
387.304	33329
387.385	11567
387.466	6986
387.547	8966
387.627	6009
387.708	12316
387.789	55478
387.869	67954
387.950	19279
388.031	4551
388.111	2937
388.192	10208
388.273	15584
388.353	9305
388.434	5430
388.514	10559
388.595	43269
388.676	64712
388.756	34867
388.837	33742
388.917	23031
388.998	3492
389.078	4311
389.159	3922
389.239	2949
389.320	6233
389.400	5175
389.480	11748
389.561	33229
389.641	17507
389.722	6686
389.802	10351
389.883	14054
389.963	36995
390.043	24946
390.124	7798
390.204	12355
390.284	40379
390.365	27525
390.445	29272
390.525	79585
390.605	74715
390.686	22996
390.766	8257
390.846	4360
390.927	3179
391.007	2866
391.087	4154
391.167	4760
391.247	2681
391.328	5995
391.408	10028
391.488	7095
391.568	2200
391.648	5498
391.728	7495
391.808	6724
391.888	8366
391.969	17579
392.049	29935
392.129	13954
392.209	13819
392.289	37327
392.369	21934
392.449	17335
392.529	12074
392.609	10142
392.689	11869
392.769	34802
392.849	32322
392.929	22120
393.009	51625
393.089	41024
393.169	34544
393.248	102699
393.328	388587
393.408	450315
393.488	130786
393.568	36189
393.648	18542
393.728	12145
393.807	9333
393.887	9847
393.967	8488
394.047	10649
394.127	14220
394.206	25165
394.286	77539
394.366	281847
394.446	327406
394.525	104175
394.605	28712
394.685	18388
394.764	28077
394.844	46647
394.924	35112
395.003	12427
395.083	8173
395.163	8006
395.242	6985
395.322	7413
395.402	6031
395.481	9056
395.561	18268
395.640	52530
395.720	44063
395.799	57855
395.879	52237
395.958	39708
396.038	119092
396.117	362544
396.197	420419
396.276	170143
396.356	58233
396.435	34541
396.515	23260
396.594	22576
396.673	35840
396.753	112493
396.832	370266
396.912	304563
396.991	78144
397.070	22157
397.150	10211
397.229	8710
397.308	10651
397.388	19020
397.467	10699
397.546	4746
397.625	2797
397.705	6744
397.784	6237
397.863	3370
397.942	3193
398.022	3556
398.101	13975
398.180	45061
398.259	24343
398.338	6866
398.417	3721
398.497	2978
398.576	3956
398.655	1254
398.734	2579
398.813	3150
398.892	12752
398.971	47663
399.050	26042
399.129	2810
399.208	1517
399.287	2738
399.366	571
399.445	2392
399.524	2019
399.603	1170
399.682	4987
399.761	14182
399.840	49273
399.919	41813
399.998	6315
400.077	1522
400.156	758
400.235	3550
400.313	1336
400.392	2692
400.471	17429
400.550	31139
400.629	8282
400.708	3583
400.786	2414
400.865	9281
400.944	11262
401.023	5851
401.102	139
401.180	658
401.259	1355
401.338	978
401.416	2725
401.495	2862
401.574	2381
401.652	1645
401.731	3075
401.810	2194
401.888	1265
401.967	476
402.046	1314
402.124	2385
402.203	3023
402.281	1790
402.360	3498
402.438	12433
402.517	8811
402.596	2646
402.674	1837
402.753	1226
402.831	1198
402.910	1909
402.988	8182
403.066	30818
403.145	19373
403.223	9760
403.302	26283
403.380	19099
403.459	17469
403.537	7288
403.615	2790
403.694	474
403.772	1698
403.850	721
403.929	499
404.007	219
404.085	3821
404.164	3491
404.242	2275
404.320	11837
404.398	33486
404.477	34622
404.555	80352
404.633	77305
404.711	30216
404.789	15131
404.868	3226
404.946	805
405.024	821
405.102	15
405.180	1003
405.258	-68
405.336	1593
405.415	770
405.493	4766
405.571	3732
405.649	595
405.727	878
405.805	2898
405.883	2227
405.961	1558
406.039	2971
406.117	555
406.195	3346
406.273	16203
406.351	69126
406.429	45164
406.507	5888
406.585	2353
406.663	2474
406.740	3040
406.818	2796
406.896	1732
406.974	2042
407.052	4306
407.130	38754
407.208	60986
407.285	13716
407.363	1859
407.441	2155
407.519	1762
407.596	3181
407.674	10210
407.752	38880
407.830	38040
407.907	9851
407.985	2534
408.063	1804
408.141	600
408.218	3016
408.296	1949
408.373	1865
408.451	2486
408.529	2328
408.606	502
408.684	815
408.762	62
408.839	-73
408.917	-298
408.994	109
409.072	121
409.149	478
409.227	2258
409.304	3371
409.382	1333
409.459	2223
409.537	3867
409.614	3898
409.692	2310
409.769	2595
409.846	3947
409.924	6227
410.001	4495
410.079	2354
410.156	2972
410.233	2400
410.311	1425
410.388	1044
410.465	1690
410.543	1812
410.620	1491
410.697	1550
410.775	2342
410.852	-87
410.929	1293
411.006	3981
411.083	1197
411.161	4398
411.238	5880
411.315	2824
411.392	1001
411.469	2207
411.547	2343
411.624	640
411.701	458
411.778	2090
411.855	5705
411.932	2126
412.009	291
412.086	1161
412.163	1198
412.240	1776
412.317	2625
412.394	1735
412.471	1330
412.548	-225
412.625	263
412.702	2014
412.779	4412
412.856	2970
412.933	409
413.010	348
413.087	3169
413.164	15070
413.241	25401
413.318	6056
413.395	3133
413.471	4866
413.548	1715
413.625	1315
413.702	1785
413.779	1945
413.855	216
413.932	-412
414.009	-694
414.086	576
414.162	894
414.239	2705
414.316	14892
414.393	38703
414.469	14083
414.546	1280
414.623	145
414.699	555
414.776	1695
414.853	640
414.929	1531
415.006	776
415.082	1109
415.159	1030
415.236	987
415.312	1493
415.389	2967
415.465	4223
415.542	2145
415.618	690
415.695	3461
415.771	1711
415.848	1924
415.924	1368
416.000	908
416.077	984
416.153	-1282
416.230	-609
416.306	152
416.383	-351
416.459	-101
416.535	-980
416.612	-652
416.688	-170
416.764	-171
416.841	6
416.917	545
416.993	-43
417.069	1323
417.146	1675
417.222	4312
417.298	2140
417.374	434
417.451	1235
417.527	1492
417.603	1898
417.679	1691
417.755	677
417.831	632
417.908	-234
417.984	-388
418.060	-92
418.136	3552
418.212	5999
418.288	1437
418.364	328
418.440	-23
418.516	2607
418.592	3359
418.668	7283
418.744	10559
418.820	8617
418.896	1361
418.972	-154
419.048	233
419.124	4592
419.200	3454
419.276	645
419.352	-1266
419.428	610
419.504	-356
419.579	1524
419.655	425
419.731	801
419.807	6250
419.883	13522
419.959	9749
420.034	2513
420.110	4556
420.186	22223
420.262	19675
420.337	3359
420.413	2448
420.489	777
420.565	994
420.640	76
420.716	1512
420.792	38
420.867	1812
420.943	139
421.019	3090
421.094	2521
421.170	949
421.245	-173
421.321	2039
421.397	980
421.472	6460
421.548	21298
421.623	15720
421.699	4416
421.774	3160
421.850	1947
421.925	5766
422.001	4584
422.076	3815
422.152	5111
422.227	7783
422.302	9811
422.378	15369
422.453	27941
422.529	66528
422.604	176692
422.679	275018
422.755	205994
422.830	79442
422.905	32078
422.981	16332
423.056	11268
423.131	6803
423.207	5908
423.282	4864
423.357	9107
423.432	6638
423.508	5170
423.583	10796
423.658	10037
423.733	2952
423.808	3592
423.883	4185
423.959	4099
424.034	2030
424.109	2139
424.184	1153
424.259	814
424.334	665
424.409	645
424.484	1132
424.559	2061
424.634	1062
424.709	1825
424.784	2261
424.859	843
424.934	2078
425.009	14247
425.084	27540
425.159	10243
425.234	1949
425.309	680
425.384	5722
425.459	9249
425.534	3712
425.609	788
425.683	726
425.758	37
425.833	368
425.908	2273
425.983	7742
426.058	28777
426.132	13422
426.207	1951
426.282	3455
426.357	2790
426.431	1412
426.506	1214
426.581	745
426.655	1099
426.730	765
426.805	428
426.879	1166
426.954	459
427.029	3613
427.103	22399
427.178	62226
427.253	28697
427.327	2951
427.402	3698
427.476	11402
427.551	5142
427.625	1317
427.700	1384
427.774	251
427.849	1474
427.923	20
427.998	909
428.072	855
428.147	4746
428.221	19931
428.296	60470
428.370	34887
428.444	4182
428.519	4317
428.593	8393
428.667	7799
428.742	9050
428.816	9599
428.890	37007
428.965	63424
429.039	20359
429.113	11677
429.188	3996
429.262	1437
429.336	2559
429.410	11833
429.485	8040
429.559	7380
429.633	6817
429.707	2329
429.781	6397
429.855	38314
429.930	65398
430.004	31585
430.078	44440
430.152	42919
430.226	76191
430.300	84261
430.374	14186
430.448	4554
430.522	13721
430.596	43436
430.670	29619
430.744	61320
430.818	97493
430.892	22088
430.966	2553
431.040	2075
431.114	492
431.188	89
431.262	97
431.336	419
431.410	3682
431.484	11059
431.557	8236
431.631	1514
431.705	1131
431.779	9489
431.853	50213
431.927	38923
432.000	4298
432.074	1441
432.148	1701
432.222	1182
432.295	220
432.369	393
432.443	1656
432.516	19613
432.590	59350
432.664	24848
432.737	1827
432.811	-400
432.885	-617
432.958	177
433.032	238
433.106	-510
433.179	-396
433.253	-656
433.326	-157
433.400	-447
433.473	170
433.547	-878
433.620	-100
433.694	1642
433.767	2975
433.841	-132
433.914	-354
433.988	-462
434.061	-379
434.134	-1141
434.208	-412
434.281	-1002
434.355	-155
434.428	146
434.501	-536
434.575	-394
434.648	-21
434.721	-1141
434.795	-220
434.868	-554
434.941	-744
435.014	-613
435.088	-625
435.161	861
435.234	2022
435.307	3280
435.381	262
435.454	432
435.527	631
435.600	1011
435.673	1372
435.746	899
435.819	121
435.892	35
435.966	-19
436.039	-24
436.112	-275
436.185	-333
436.258	-728
436.331	-1341
436.404	-371
436.477	-805
436.550	-390
436.623	-43
436.696	-714
436.769	305
436.842	-80
436.915	255
436.987	694
437.060	84
437.133	-324
437.206	-1209
437.279	283
437.352	-1098
437.425	-883
437.498	-741
437.570	2583
437.643	2717
437.716	-587
437.789	180
437.861	1497
437.934	6448
438.007	3209
438.080	115
438.152	98
438.225	2860
438.298	24566
438.370	77259
438.443	34812
438.516	7183
438.588	1272
438.661	-568
438.734	78
438.806	-221
438.879	632
438.951	942
439.024	1949
439.096	666
439.169	442
439.241	252
439.314	197
439.386	1249
439.459	2929
439.531	3327
439.604	900
439.676	-196
439.749	-429
439.821	-833
439.893	388
439.966	-559
440.038	-149
440.110	1459
440.183	-22
440.255	-586
440.327	420
440.400	9589
440.472	48229
440.544	35426
440.617	3883
440.689	2540
440.761	3447
440.833	4973
440.905	3674
440.978	157
441.050	-908
441.122	642
441.194	-726
441.266	-903
441.338	103
441.411	1377
441.483	14749
441.555	23554
441.627	4909
441.699	2589
441.771	1354
441.843	-131
441.915	-292
441.987	-245
442.059	-88
442.131	-410
442.203	729
442.275	1811
442.347	2230
442.419	2768
442.491	19713
442.563	55380
442.635	25562
442.706	12338
442.778	8380
442.850	1635
442.922	-32
442.994	759
443.066	2167
443.137	1879
443.209	1253
443.281	2304
443.353	5911
443.425	27022
443.496	101336
443.568	100545
443.640	34498
443.711	6680
443.783	2429
443.855	1163
443.926	-255
443.998	535
444.070	2149
444.141	232
444.213	1251
444.285	2651
444.356	2013
444.428	1823
444.499	267
444.571	-589
444.642	-337
444.714	403
444.785	1119
444.857	2013
444.928	7187
445.000	3761
445.071	4499
445.143	5830
445.214	3835
445.285	6870
445.357	19933
445.428	65831
445.500	159722
445.571	100226
445.642	48119
445.714	17339
445.785	13933
445.856	3578
445.928	3150
445.999	2198
446.070	1139
446.141	1220
446.213	2355
446.284	232
446.355	705
446.426	-338
446.497	559
446.569	1546
446.640	3329
446.711	2919
446.782	159
446.853	127
446.924	1762
446.995	676
447.066	283
447.138	1753
447.209	21
447.280	-1045
447.351	-412
447.422	-461
447.493	-390
447.564	1281
447.635	1790
447.706	124
447.777	-386
447.847	-429
447.918	-524
447.989	629
448.060	844
448.131	3779
448.202	3308
448.273	1280
448.344	-24
448.414	-196
448.485	-816
448.556	-445
448.627	-1077
448.698	289
448.768	-1500
448.839	-1470
448.910	1030
448.981	2080
449.051	-246
449.122	-453
449.193	-394
449.263	-272
449.334	-998
449.405	479
449.475	3253
449.546	1357
449.616	2136
449.687	1837
449.758	-122
449.828	-558
449.899	130
449.969	-174
450.040	-531
450.110	517
450.181	38
450.251	151
450.322	-282
450.392	207
450.463	410
450.533	-26
450.604	-623
450.674	-497
450.744	63
450.815	-266
450.885	-816
450.955	-371
451.026	-204
451.096	-611
451.166	-152
451.237	1914
451.307	7594
451.377	1422
451.447	-686
451.518	-298
451.588	-862
451.658	-349
451.728	367
451.799	6958
451.869	8716
451.939	1665
452.009	-462
452.079	-1098
452.149	-19
452.219	1559
452.289	9168
452.360	6269
452.430	1064
452.500	136
452.570	1357
452.640	1355
452.710	6186
452.780	10430
452.850	6598
452.920	6810
452.990	1963
453.060	-280
453.129	1265
453.199	3059
453.269	8630
453.339	22115
453.409	35648
453.479	33068
453.549	49467
453.619	52890
453.688	19609
453.758	2119
453.828	425
453.898	-234
453.968	-150
454.037	-218
454.087	-353
454.107	-421
454.168	-935
454.177	-1031
454.247	-647
454.249	-623
454.316	-408
454.330	-305
454.386	47
454.411	1191
454.456	2969
454.492	4612
454.525	6048
454.574	2635
454.595	1134
454.655	638
454.665	575
454.734	79
454.736	137
454.804	1457
454.817	2548
454.873	6645
454.898	7719
454.943	9515
454.979	5545
455.013	1989
455.060	1268
455.082	1037
455.141	1749
455.152	1868
455.221	5523
455.222	5647
455.291	13003
455.303	13168
455.360	12941
455.384	19392
455.430	30174
455.465	23174
455.499	16508
455.546	11018
455.569	8487
455.627	5107
455.638	4498
455.707	478
455.708	487
455.777	84
455.789	243
455.846	829
455.869	752
455.916	517
455.950	330
455.985	175
456.031	43
456.054	-49
456.112	428
456.124	516
456.193	24
456.193	8
456.262	1174
456.274	1111
456.332	558
456.355	752
456.401	1021
456.436	758
456.470	576
456.516	312
456.540	161
456.597	120
456.609	90
456.678	288
456.678	278
456.747	212
456.759	139
456.817	-505
456.840	-428
456.886	-79
456.920	-25
456.955	14
457.001	699
457.024	1017
457.082	961
457.093	933
457.162	1192
457.163	1206
457.232	1658
457.243	1442
457.301	170
457.324	193
457.370	388
457.405	451
457.439	541
457.485	606
457.508	628
457.566	876
457.577	895
457.646	1182
457.647	1192
457.715	2059
457.727	2395
457.784	4455
457.808	5705
457.853	7544
457.889	9513
457.922	9826
457.969	6861
457.991	6546
458.050	7259
458.060	7487
458.129	12521
458.130	12689
458.198	15020
458.211	14206
458.267	8061
458.292	5484
458.336	3445
458.372	3000
458.405	3847
458.453	5503
458.474	7075
458.533	12368
458.543	12927
458.611	22440
458.614	22660
458.680	16608
458.694	13953
458.749	6517
458.775	4501
458.818	2785
458.855	2067
458.887	1808
458.936	1617
458.955	1513
459.016	997
459.024	988
459.093	1644
459.097	1673
459.162	1785
459.177	1845
459.230	2219
459.257	2401
459.299	2425
459.338	2311
459.368	2281
459.418	2598
459.437	2475
459.499	1578
459.505	1565
459.574	1814
459.579	1825
459.643	1294
459.659	1204
459.711	1439
459.740	1594
459.780	1752
459.820	1979
459.849	2074
459.900	2139
459.917	2176
459.981	2632
459.986	2667
460.054	3545
460.061	3523
460.123	2738
460.141	2745
460.191	3796
460.222	4230
460.260	4376
460.302	5008
460.328	4933
460.382	4324
460.397	4259
460.462	3597
460.465	3641
460.534	5844
460.543	6045
460.602	17959
460.623	22745
460.671	35292
460.703	47666
460.739	49359
460.783	47288
460.808	39540
460.864	8925
460.876	6562
460.944	3022
460.945	2986
461.013	2612
461.024	2629
461.081	2829
461.104	2788
461.150	2512
461.184	2305
461.218	2358
461.264	2405
461.286	2175
461.345	1752
461.355	1796
461.423	2261
461.425	2272
461.491	2427
461.505	2404
461.559	3180
461.585	3696
461.628	6417
461.665	9078
461.696	10573
461.745	14286
461.764	13077
461.825	5410
461.832	5117
461.901	2332
461.905	2287
461.969	2562
461.985	2579
462.037	2629
462.065	2644
462.105	2566
462.145	2434
462.173	3440
462.225	5382
462.241	5781
462.305	7873
462.310	7770
462.378	6596
462.385	6188
462.446	3422
462.465	2944
462.514	2917
462.545	2898
462.582	3049
462.625	3176
462.650	3024
462.705	2713
462.718	2769
462.785	3231
462.786	3245
462.854	3905
462.865	4024
462.922	4875
462.945	5328
462.990	4572
463.025	3480
463.058	3049
463.104	2719
463.126	2616
463.184	2357
463.194	2447
463.262	2772
463.264	2796
463.330	3000
463.344	3049
463.398	3538
463.424	3663
463.466	3131
463.504	2837
463.533	3376
463.583	3955
463.601	3863
463.663	3561
463.669	3610
463.737	4475
463.743	4544
463.805	6235
463.823	6668
463.873	9127
463.903	10785
463.940	12349
463.982	14541
464.008	12465
464.062	6700
464.076	6123
464.142	3117
464.144	3104
464.211	3266
464.221	3300
464.279	3683
464.301	3737
464.347	3653
464.381	3687
464.414	3938
464.461	4302
464.482	4762
464.540	6050
464.550	5847
464.617	4146
464.620	4087
464.685	5654
464.699	5934
464.753	6435
464.779	6775
464.820	7779
464.859	8669
464.888	8248
464.938	7355
464.956	7351
465.018	7539
465.023	7544
465.091	7106
465.098	7056
465.158	6644
465.177	6549
465.226	6377
465.257	6220
465.293	6391
465.336	6570
465.361	6715
465.416	7042
465.428	7500
465.495	9955
465.496	9999
465.563	14195
465.575	14954
465.631	18082
465.654	19489
465.698	14303
465.734	9478
465.765	8320
465.813	6649
465.833	6616
465.893	6754
465.900	6717
465.968	6233
465.972	6187
466.035	6395
466.052	6442
466.102	6491
466.131	6521
466.170	7016
466.210	7500
466.237	7714
466.290	8121
466.304	8142
466.369	8042
466.372	8070
466.439	8533
466.449	8574
466.506	8911
466.528	9045
466.573	10728
466.607	11892
466.641	15642
466.687	20903
466.708	23288
466.766	29849
466.775	28321
466.842	16376
466.845	15775
466.909	11150
466.925	10053
466.977	10244
467.004	10364
467.044	10168
467.083	9941
467.111	10666
467.163	11953
467.178	12588
467.242	15146
467.245	15090
467.312	13338
467.321	13081
467.379	12715
467.400	12547
467.446	12096
467.480	11728
467.559	12177
467.638	10481
467.717	10170
467.796	10993
467.875	12345
467.955	11085
468.034	13219
468.113	24511
468.192	32989
468.271	16723
468.350	10363
468.429	11378
468.508	12003
468.588	9679
468.667	9596
468.746	9591
468.825	9602
468.904	8758
468.983	8182
469.062	11490
469.141	13560
469.220	9359
469.299	8611
469.378	8035
469.456	10752
469.535	10559
469.614	9324
469.693	8930
469.772	10698
469.851	12187
469.930	11938
470.009	8465
470.088	8870
470.166	9612
470.245	12038
470.324	13459
470.403	12430
470.482	9863
470.560	8563
470.639	8689
470.718	9649
470.797	8713
470.875	9008
470.954	11050
471.033	12321
471.111	7544
471.190	6683
471.269	7387
471.347	7857
471.426	7023
471.505	8283
471.583	9230
471.662	9454
471.740	7876
471.819	7621
471.898	7595
471.976	8381
472.055	7506
472.133	8652
472.212	9832
472.290	10174
472.369	7486
472.447	6916
472.526	6919
472.604	7975
472.683	8032
472.761	8182
472.839	8049
472.918	7333
472.996	6757
473.075	8651
473.153	8029
473.231	6804
473.310	8148
473.388	9729
473.466	6180
473.545	8683
473.623	10850
473.701	11333
473.780	8428
473.858	7101
473.936	8602
474.014	6938
474.093	7047
474.171	10294
474.249	13114
474.327	10279
474.405	6773
474.484	6867
474.562	6825
474.640	6971
474.718	6762
474.796	7976
474.874	7523
474.952	7365
475.030	6942
475.108	8430
475.187	8053
475.265	9187
475.343	10198
475.421	11663
475.499	8128
475.577	8679
475.655	8470
475.733	12940
475.811	20101
475.889	20370
475.966	16105
476.044	7210
476.122	6990
476.200	8625
476.278	8559
476.356	7254
476.434	6928
476.512	6389
476.590	9753
476.667	10047
476.745	5569
476.823	7045
476.901	6825
476.979	7615
477.056	6831
477.134	6626
477.212	7002
477.290	5923
477.367	5686
477.445	6014
477.523	6305
477.601	7074
477.678	5564
477.756	7095
477.834	7303
477.911	7190
477.989	5852
478.066	6804
478.144	6092
478.222	7098
478.299	9106
478.377	11117
478.454	7351
478.532	6262
478.609	6073
478.687	7222
478.764	5441
478.842	6491
478.919	5774
478.997	7296
479.074	5841
479.152	6132
479.229	7643
479.307	6792
479.384	5033
479.461	5110
479.539	5124
479.616	6934
479.694	6454
479.771	6653
479.848	6913
479.926	8006
480.003	8231
480.080	6409
480.157	5258
480.235	5396
480.312	5467
480.389	5473
480.467	7526
480.544	10470
480.621	6707
480.698	6123
480.775	6263
480.853	7240
480.930	5928
481.007	6391
481.084	7934
481.161	10533
481.238	9867
481.315	5601
481.392	5357
481.470	5999
481.547	6110
481.624	6138
481.701	5421
481.778	6180
481.855	5641
481.932	8809
482.009	12161
482.086	12031
482.163	6133
482.240	8233
482.317	10155
482.393	11069
482.470	6406
482.547	6095
482.624	5786
482.701	5252
482.778	5595
482.855	5039
482.932	4659
483.009	4813
483.085	6675
483.162	8632
483.239	8562
483.316	6179
483.393	5405
483.469	6092
483.546	6536
483.623	6262
483.699	4632
483.776	5976
483.853	6727
483.930	8046
484.006	17399
484.083	31150
484.160	25844
484.236	34168
484.313	30418
484.389	21024
484.466	19049
484.543	17569
484.619	17920
484.696	19004
484.772	19111
484.849	19099
484.925	17254
485.002	16600
485.078	17674
485.155	17788
485.231	15764
485.308	14925
485.384	15467
485.461	17070
485.537	23254
485.614	28862
485.690	17414
485.766	14869
485.843	15117
485.919	19177
485.995	20815
486.072	14846
486.148	13526
486.224	14235
486.301	14389
486.377	15489
486.453	15965
486.530	16761
486.606	19871
486.682	23811
486.758	24902
486.835	27940
486.911	22145
486.987	29147
487.063	34844
487.139	42150
487.215	37598
487.292	24169
487.368	16961
487.444	18051
487.520	21146
487.596	24757
487.672	29233
487.748	58205
487.824	100612
487.900	65570
487.976	25318
488.052	19657
488.128	21437
488.204	17602
488.280	15875
488.356	16568
488.432	24126
488.508	37353
488.584	22119
488.660	14003
488.736	13995
488.812	12949
488.888	17494
488.964	20517
489.039	33470
489.115	57607
489.191	48354
489.267	16674
489.343	13693
489.418	12837
489.494	11972
489.570	11283
489.646	11908
489.722	13289
489.797	12238
489.873	14654
489.949	26967
490.024	29709
490.100	12897
490.176	11490
490.251	13166
490.327	16545
490.403	12629
490.478	11022
490.554	10230
490.629	10386
490.705	9888
490.781	11699
490.856	10584
490.932	12276
491.007	11539
491.083	12019
491.158	11189
491.234	12754
491.309	20614
491.385	26501
491.460	12842
491.536	11132
491.611	10391
491.686	10805
491.762	13680
491.837	22283
491.913	38790
491.988	50012
492.063	74374
492.139	31012
492.214	16448
492.289	11061
492.365	8543
492.440	11011
492.515	9519
492.590	10854
492.666	8557
492.741	10591
492.816	15156
492.891	11237
492.967	9758
493.042	8992
493.117	9189
493.192	10610
493.267	14939
493.342	44757
493.418	80289
493.493	25408
493.568	8562
493.643	8126
493.718	9682
493.793	12124
493.868	15635
493.943	11983
494.018	8832
494.093	8105
494.168	8819
494.243	8143
494.318	7601
494.393	7054
494.468	7567
494.543	7432
494.618	8530
494.693	8158
494.768	6881
494.842	8676
494.917	7168
494.992	7916
495.067	7736
495.142	7831
495.217	8456
495.292	8633
495.366	8109
495.441	10928
495.516	12068
495.591	14813
495.665	38589
495.740	105516
495.815	82267
495.890	15443
495.964	8667
496.039	11981
496.114	10675
496.188	13553
496.263	14087
496.338	10809
496.412	10782
496.487	13238
496.561	13339
496.636	14221
496.710	12805
496.785	12931
496.860	14067
496.934	12163
497.009	12431
497.083	14122
497.158	14060
497.232	16336
497.307	17834
497.381	17956
497.455	17515
497.530	21454
497.604	21068
497.679	19390
497.753	25387
497.827	33532
497.902	32287
497.976	35620
498.050	50594
498.125	154447
498.199	239329
498.273	63721
498.348	40490
498.422	34586
498.496	32847
498.570	32590
498.645	26711
498.719	23071
498.793	23970
498.867	27817
498.941	32521
499.016	62346
499.090	179256
499.164	127372
499.238	18601
499.312	14263
499.386	15602
499.460	16066
499.534	13632
499.609	15183
499.683	19337
499.757	19090
499.831	25922
499.905	102305
499.979	155184
500.053	30321
500.127	22779
500.201	17706
500.275	12494
500.349	12014
500.422	11951
500.496	15910
500.570	27201
500.644	63982
500.718	130872
500.792	60389
500.866	11708
500.940	12533
501.013	13019
501.087	10231
501.161	16310
501.235	22571
501.309	32862
501.382	97404
501.456	131444
501.530	29712
501.603	34931
501.677	24933
501.751	7379
501.825	10158
501.898	14420
501.972	38729
502.046	43670
502.119	10330
502.193	17508
502.266	44967
502.340	37357
502.413	18842
502.487	41635
502.561	30787
502.634	13325
502.708	7975
502.781	7316
502.855	7598
502.928	5522
503.002	6704
503.075	6136
503.149	6028
503.222	6960
503.295	7949
503.369	8432
503.442	10825
503.516	26240
503.589	75852
503.662	72399
503.736	22814
503.809	34370
503.882	41381
503.956	41390
504.029	59202
504.102	38991
504.175	56974
504.249	35192
504.322	16254
504.395	11454
504.468	9531
504.542	7060
504.615	6648
504.688	5753
504.761	6492
504.834	7105
504.907	8483
504.980	12543
505.053	8249
505.127	6502
505.200	12516
505.273	8029
505.346	7154
505.419	5763
505.492	5982
505.565	4063
505.638	5532
505.711	4213
505.784	4260
505.857	4145
505.930	6055
506.003	4157
506.076	6261
506.149	5803
506.221	7868
506.294	7247
506.367	14344
506.440	52100
506.513	53260
506.586	10024
506.659	6498
506.731	5374
506.804	6441
506.877	7985
506.950	8296
507.022	5314
507.095	5779
507.168	9086
507.241	6097
507.313	4798
507.386	4035
507.459	7328
507.531	5734
507.604	4660
507.677	5350
507.749	4027
507.822	6735
507.894	11641
507.967	18665
508.040	11889
508.112	9461
508.185	8631
508.257	7936
508.330	10321
508.402	8967
508.475	7544
508.547	8774
508.620	7356
508.692	10756
508.765	10863
508.837	7055
508.909	6920
508.982	6527
509.054	8108
509.127	8032
509.199	6810
509.271	6064
509.344	6324
509.416	7181
509.488	5914
509.560	6398
509.633	7403
509.705	7744
509.777	7589
509.849	10309
509.922	9335
509.994	8652
510.066	7553
510.138	7473
510.210	14482
510.283	15454
510.355	12504
510.427	10685
510.499	9169
510.571	9924
510.643	9180
510.715	13112
510.787	13096
510.859	9676
510.931	9757
511.003	12231
511.076	13883
511.148	9194
511.219	8281
511.291	11190
511.363	15534
511.435	9720
511.507	7658
511.579	8869
511.651	8745
511.723	8256
511.795	8055
511.867	8331
511.939	8822
512.010	13555
512.082	14474
512.154	7328
512.226	8702
512.298	10553
512.369	18049
512.441	15278
512.513	13066
512.585	11043
512.656	10490
512.728	11215
512.800	10591
512.871	9153
512.943	9167
513.015	8019
513.086	9437
513.158	9309
513.230	9606
513.301	11716
513.373	14403
513.444	10948
513.516	8001
513.588	7996
513.659	9452
513.731	10660
513.802	10514
513.874	14997
513.945	28342
514.016	17202
514.088	9036
514.159	8120
514.231	11383
514.302	15943
514.374	13975
514.445	10101
514.516	17043
514.588	17720
514.659	11111
514.730	15344
514.802	17728
514.873	13611
514.944	18205
515.016	15028
515.087	13876
515.158	14641
515.229	21363
515.301	15905
515.372	22557
515.443	20541
515.514	14541
515.585	11446
515.656	10488
515.728	10442
515.799	9158
515.870	9761
515.941	8754
516.012	9424
516.083	12027
516.154	13663
516.225	15609
516.296	16127
516.367	14273
516.438	14934
516.509	17654
516.580	23192
516.651	53806
516.722	205976
516.793	193742
516.864	32813
516.935	25093
517.006	25774
517.077	32171
517.148	59193
517.219	190746
517.289	477275
517.360	178323
517.431	57827
517.502	16219
517.573	14662
517.643	13349
517.714	14421
517.785	15634
517.856	15310
517.926	17887
517.997	21651
518.068	25404
518.138	33299
518.209	42275
518.280	123434
518.350	526651
518.421	445201
518.492	58970
518.562	26040
518.633	21349
518.703	20950
518.774	31453
518.845	60992
518.915	81569
518.986	38885
519.056	22237
519.127	24563
519.197	35403
519.268	69334
519.338	71737
519.408	17517
519.479	18005
519.549	17181
519.620	11115
519.690	8712
519.760	8559
519.831	8830
519.901	9561
519.971	8544
520.042	7789
520.112	9245
520.182	10683
520.253	13814
520.323	8814
520.393	11635
520.463	20670
520.534	12730
520.604	24978
520.674	17852
520.744	11781
520.814	23499
520.885	32653
520.955	20388
521.025	73562
521.095	60254
521.165	10665
521.235	8885
521.305	7675
521.375	8587
521.445	8472
521.515	9475
521.585	11866
521.655	13116
521.725	9588
521.795	10559
521.865	5574
521.935	11322
522.005	9459
522.075	7276
522.145	7784
522.215	8312
522.285	10648
522.355	13123
522.424	20948
522.494	24115
522.564	15008
522.634	17867
522.704	56836
522.774	44953
522.843	9388
522.913	9068
522.983	10430
523.053	8840
523.122	8472
523.192	9584
523.262	25492
523.331	45143
523.401	13551
523.471	7454
523.540	7725
523.610	5922
523.680	6703
523.749	6445
523.819	7875
523.888	9215
523.958	6301
524.027	5849
524.097	7408
524.166	6357
524.236	6624
524.305	9233
524.375	5670
524.444	6308
524.514	7938
524.583	6986
524.653	7395
524.722	9008
524.791	6959
524.861	7809
524.930	5540
524.999	6900
525.069	9437
525.138	8723
525.207	8984
525.277	8254
525.346	6438
525.415	7406
525.484	7849
525.554	7790
525.623	9774
525.692	10164
525.761	9412
525.830	10409
525.900	11066
525.969	16536
526.038	25480
526.107	41530
526.176	132254
526.245	172144
526.314	60850
526.383	65446
526.452	123217
526.522	140385
526.591	243295
526.660	74645
526.729	35515
526.797	28737
526.867	40274
526.935	157486
527.004	359026
527.073	348208
527.142	50879
527.211	16869
527.280	12277
527.349	12021
527.418	6771
527.487	7354
527.555	5570
527.624	6204
527.693	4433
527.762	6376
527.831	5035
527.899	5580
527.968	6702
528.037	5355
528.106	7630
528.174	11716
528.243	11043
528.312	11390
528.380	18918
528.449	8597
528.518	7062
528.586	3580
528.655	6284
528.723	5505
528.792	4436
528.861	4822
528.929	3973
528.998	6023
529.066	5426
529.135	6359
529.203	6384
529.272	6330
529.340	9290
529.409	10585
529.477	8229
529.545	9196
529.614	11355
529.682	10794
529.751	14085
529.819	14658
529.887	13329
529.956	12134
530.024	10993
530.092	9968
530.161	11160
530.229	13495
530.297	12965
530.365	11542
530.434	11601
530.502	11617
530.570	10415
530.638	8484
530.707	9810
530.775	11374
530.843	8788
530.911	10577
530.979	9746
531.047	10148
531.115	10673
531.183	9361
531.252	10636
531.320	9275
531.388	8252
531.456	10229
531.524	9202
531.592	11957
531.660	13057
531.728	10972
531.796	10312
531.864	11008
531.932	10905
532.000	10574
532.067	11282
532.135	12829
532.203	14082
532.271	13693
532.339	18083
532.407	32507
532.475	33343
532.542	16938
532.610	16737
532.678	17381
532.746	40119
532.814	133828
532.881	68244
532.949	17529
533.017	13618
533.084	12601
533.152	11415
533.220	11870
533.287	12100
533.355	12615
533.423	11496
533.490	12210
533.558	11441
533.625	12030
533.693	12213
533.761	12623
533.828	11957
533.896	12427
533.963	17149
534.031	22733
534.098	25851
534.166	21206
534.233	12766
534.300	13715
534.368	13754
534.435	12534
534.503	12961
534.570	13209
534.637	14231
534.705	14586
534.772	16502
534.840	18914
534.907	54699
534.974	128136
535.041	32603
535.109	13602
535.176	11028
535.243	11172
535.310	10112
535.378	10218
535.445	9307
535.512	9240
535.579	9231
535.646	9291
535.714	9106
535.781	10800
535.848	11741
535.915	12044
535.982	12913
536.049	12167
536.116	12762
536.183	10771
536.250	9690
536.317	10167
536.384	11900
536.451	13098
536.518	14756
536.585	11415
536.652	13863
536.719	15171
536.786	13565
536.853	11806
536.920	13606
536.987	19330
537.053	18802
537.120	50922
537.187	84925
537.254	15067
537.321	9649
537.388	10706
537.454	7130
537.521	8302
537.588	7713
537.654	9250
537.721	10632
537.788	10251
537.855	8182
537.921	9150
537.988	9726
538.055	9383
538.121	7422
538.188	9119
538.254	11317
538.321	19413
538.388	16460
538.454	9801
538.521	8603
538.587	7952
538.654	7118
538.720	8295
538.787	7698
538.853	7995
538.920	9032
538.986	9405
539.053	9242
539.119	8654
539.185	8251
539.252	9866
539.318	11759
539.385	13812
539.451	9886
539.517	11811
539.583	10995
539.650	16593
539.716	50219
539.782	29799
539.849	9172
539.915	8604
539.981	7541
540.047	10004
540.114	9542
540.180	10550
540.246	8919
540.312	10917
540.378	17752
540.444	22893
540.510	18244
540.576	54896
540.643	36321
540.709	9574
540.775	7798
540.841	7725
540.907	10173
540.973	15928
541.039	14584
541.105	14725
541.171	10691
541.237	8622
541.303	9532
541.369	10029
541.435	11461
541.500	17258
541.566	14335
541.632	9033
541.698	7024
541.764	8249
541.830	8237
541.896	7404
541.961	9142
542.027	7920
542.093	7883
542.159	8550
542.224	9271
542.290	11942
542.356	15602
542.421	22302
542.487	13776
542.553	9684
542.618	9702
542.684	9672
542.750	7962
542.815	10304
542.881	13044
542.947	41026
543.012	56505
543.078	10702
543.143	8381
543.209	9220
543.274	8617
543.340	9716
543.405	15938
543.471	38425
543.536	14458
543.602	8966
543.667	7712
543.732	9543
543.798	7873
543.863	8409
543.928	6913
543.994	7056
544.059	7397
544.124	8178
544.190	7151
544.255	9064
544.320	9517
544.386	8046
544.451	11316
544.516	12912
544.581	12172
544.646	24417
544.712	62152
544.777	21405
544.842	11029
544.907	11300
544.972	9965
545.037	10176
545.102	10552
545.168	10065
545.233	11024
545.298	10497
545.363	12195
545.428	13225
545.493	18623
545.558	40925
545.623	30202
545.688	11167
545.753	10122
545.818	10297
545.883	11241
545.947	10041
546.012	11251
546.077	11029
546.142	12475
546.207	10969
546.272	13063
546.337	14724
546.401	13221
546.466	12331
546.531	11215
546.596	12478
546.661	12381
546.725	13985
546.790	11331
546.855	12801
546.919	11725
546.984	14280
547.049	14176
547.113	16640
547.178	16540
547.243	18301
547.307	20221
547.372	22653
547.436	24397
547.501	22954
547.565	23267
547.630	24674
547.695	23921
547.759	23639
547.823	23295
547.888	22478
547.952	21376
548.017	23413
548.081	27799
548.146	29664
548.210	26952
548.274	25168
548.339	25345
548.403	23177
548.468	20934
548.532	21403
548.596	22727
548.660	22371
548.725	24002
548.789	26825
548.853	28209
548.917	24221
548.982	26405
549.046	27941
549.110	20880
549.174	20176
549.238	21396
549.303	24205
549.367	25786
549.431	24920
549.495	22160
549.559	22322
549.623	24954
549.687	28447
549.751	31514
549.815	32973
549.879	33449
549.943	29422
550.007	32053
550.071	32737
550.135	32828
550.199	31050
550.263	29209
550.327	28443
550.391	31119
550.455	34322
550.519	30886
550.582	33913
550.646	38014
550.710	44091
550.774	38773
550.838	36332
550.901	37758
550.965	40922
551.029	41521
551.093	47489
551.156	52333
551.220	65353
551.284	82805
551.347	59370
551.411	56249
551.475	69466
551.538	45717
551.602	38435
551.666	35727
551.729	33699
551.793	32696
551.856	32515
551.920	32934
551.983	33210
552.047	32345
552.110	31791
552.174	33441
552.237	33524
552.301	32606
552.364	29775
552.428	28784
552.491	28887
552.554	30704
552.618	31896
552.681	31699
552.745	31539
552.808	36027
552.871	47917
552.934	42792
552.998	34418
553.061	32716
553.124	32168
553.187	30284
553.251	32144
553.314	34092
553.377	34084
553.440	40065
553.503	70765
553.567	158280
553.630	66523
553.693	34150
553.756	33018
553.819	32247
553.882	29999
553.945	30886
554.008	31010
554.071	30485
554.134	30871
554.197	29610
554.260	28638
554.323	29578
554.386	31017
554.449	30008
554.512	30926
554.575	29723
554.638	30578
554.701	30217
554.764	30430
554.827	28262
554.889	26871
554.952	25187
555.015	24862
555.078	24700
555.141	25880
555.203	25833
555.266	26023
555.329	25279
555.391	24573
555.454	24451
555.517	25587
555.580	23301
555.642	22033
555.705	20876
555.768	22165
555.830	22685
555.893	21950
555.955	20497
556.018	20592
556.080	20536
556.143	20969
556.206	20691
556.268	21294
556.330	21132
556.393	20526
556.455	20324
556.518	21665
556.580	24912
556.643	19563
556.705	18106
556.767	17846
556.830	18261
556.892	19034
556.955	22705
557.017	22446
557.079	18494
557.142	18460
557.204	18343
557.266	25512
557.328	28393
557.391	16135
557.453	15683
557.515	15050
557.577	16656
557.639	19024
557.701	16584
557.764	15727
557.826	16429
557.888	18381
557.950	17575
558.012	19423
558.074	22972
558.136	38848
558.198	125557
558.260	87384
558.322	23086
558.384	22401
558.446	26439
558.508	27007
558.570	32124
558.632	42126
558.694	63652
558.756	69002
558.818	153740
558.880	541557
558.942	328992
559.003	144663
559.065	116949
559.127	36637
559.189	31868
559.251	33201
559.312	40147
559.374	79602
559.436	309062
559.498	310191
559.559	51163
559.621	33502
559.683	31975
559.744	43790
559.806	119526
559.868	311533
559.929	106410
559.991	34059
560.052	39592
560.114	107708
560.176	122645
560.237	58847
560.299	134733
560.360	56821
560.422	17379
560.483	14737
560.545	13302
560.606	12078
560.667	10799
560.729	10690
560.790	10624
560.852	10352
560.913	10722
560.974	10850
561.036	10803
561.097	10695
561.158	10759
561.220	11460
561.281	10587
561.342	11285
561.403	12240
561.465	12828
561.526	21755
561.587	42857
561.648	18244
561.709	12298
561.771	11475
561.832	10682
561.893	10070
561.954	10721
562.015	10399
562.076	9614
562.137	10523
562.198	10477
562.259	9805
562.320	10138
562.381	10444
562.442	13539
562.503	14436
562.564	10429
562.625	9925
562.686	10036
562.747	10687
562.808	11497
562.869	9271
562.930	11299
562.991	11003
563.051	11091
563.112	10207
563.173	10968
563.234	9545
563.294	9910
563.355	9998
563.416	10652
563.477	10085
563.537	10494
563.598	11198
563.659	9691
563.720	9288
563.780	10988
563.841	9787
563.901	10651
563.962	9839
564.023	10152
564.083	10129
564.144	10642
564.204	10764
564.265	10060
564.325	10605
564.386	16192
564.446	18549
564.507	10529
564.567	10845
564.628	10711
564.688	9931
564.749	10649
564.809	11494
564.869	12826
564.930	11037
564.990	10880
565.050	10485
565.111	10286
565.171	11177
565.231	10441
565.292	11140
565.352	10213
565.412	10929
565.472	11323
565.532	11647
565.593	11919
565.653	12166
565.713	12298
565.773	12254
565.833	12990
565.893	16174
565.953	14838
566.013	12073
566.074	12790
566.134	14362
566.194	18145
566.254	22121
566.314	18152
566.374	15382
566.434	15351
566.494	15596
566.554	15476
566.614	16283
566.673	17524
566.733	17587
566.793	19235
566.853	19461
566.913	20192
566.973	19832
567.033	21311
567.092	21518
567.152	20476
567.212	21247
567.272	22034
567.331	21856
567.391	23284
567.451	24029
567.511	26288
567.570	28638
567.630	22516
567.690	21414
567.749	22420
567.809	23477
567.868	25736
567.928	28539
567.988	33006
568.047	38488
568.107	46054
568.166	57936
568.226	78727
568.285	110958
568.345	118080
568.404	106137
568.464	95540
568.523	89555
568.582	87102
568.642	90043
568.701	101583
568.761	127000
568.820	178886
568.879	207305
568.939	185701
568.998	153619
569.057	125408
569.116	102338
569.176	83968
569.235	70556
569.294	60607
569.353	51443
569.413	45681
569.472	39905
569.531	35695
569.590	30793
569.649	30552
569.708	26695
569.767	26826
569.827	25748
569.886	24335
569.945	21356
570.004	19916
570.063	17429
570.122	17857
570.181	17383
570.240	16423
570.299	18316
570.358	17755
570.417	16362
570.475	14075
570.534	15345
570.593	14637
570.652	13806
570.711	14297
570.770	12845
570.829	13400
570.887	12809
570.946	14311
571.005	12539
571.064	11461
571.122	12219
571.181	12680
571.240	11571
571.299	11088
571.357	10881
571.416	11889
571.475	11510
571.533	12496
571.592	10796
571.650	11334
571.709	10518
571.768	10361
571.826	10455
571.885	10951
571.943	8780
572.002	10058
572.060	10139
572.119	9548
572.177	8817
572.236	8662
572.294	9118
572.352	9638
572.411	9027
572.469	9123
572.528	9111
572.586	9751
572.644	9054
572.703	11956
572.761	10043
572.819	8701
572.877	8224
572.936	8626
572.994	8115
573.052	8803
573.110	9098
573.169	8999
573.227	7318
573.285	9061
573.343	8049
573.401	8176
573.459	8688
573.517	7395
573.576	7869
573.634	8093
573.692	9206
573.750	8545
573.808	7892
573.866	7536
573.924	9184
573.982	10247
574.040	8329
574.098	7991
574.155	8123
574.213	8297
574.271	7383
574.329	8237
574.387	8115
574.445	7974
574.503	7540
574.560	7415
574.618	6983
574.676	6844
574.734	6880
574.792	7832
574.849	7226
574.907	7277
574.965	7308
575.022	7148
575.080	6850
575.138	7708
575.195	7508
575.253	7061
575.311	8614
575.368	8163
575.426	6883
575.483	7122
575.541	7377
575.598	6684
575.656	7245
575.713	7489
575.771	7056
575.828	8204
575.886	7772
575.943	7728
576.001	6832
576.058	6925
576.115	7409
576.173	8415
576.230	9327
576.287	9412
576.345	9364
576.402	8340
576.459	7619
576.517	7577
576.574	7305
576.631	8253
576.688	6409
576.746	8226
576.803	7387
576.860	7769
576.917	7856
576.974	7608
577.031	7935
577.089	7861
577.146	8042
577.203	7260
577.260	7525
577.317	8005
577.374	8030
577.431	9483
577.488	7711
577.545	7285
577.602	8636
577.659	8265
577.716	8884
577.773	9129
577.830	8786
577.886	9128
577.943	7941
578.000	8095
578.057	9019
578.114	9606
578.171	9613
578.227	11731
578.284	13173
578.341	12127
578.398	9305
578.454	10425
578.511	9929
578.568	10387
578.625	9007
578.681	9086
578.738	8681
578.794	8203
578.851	8428
578.908	8496
578.964	8800
579.021	9877
579.077	9772
579.134	9018
579.190	9127
579.247	8077
579.303	8858
579.360	7797
579.416	8331
579.473	8770
579.529	7232
579.586	8168
579.642	8891
579.698	8664
579.755	9159
579.811	9642
579.867	9811
579.924	9273
579.980	9487
580.036	11316
580.093	12153
580.149	15695
580.205	19604
580.261	17905
580.317	15317
580.374	13316
580.430	12741
580.486	11731
580.542	9935
580.598	10402
580.619	10552
580.654	10824
580.692	10383
580.710	10185
580.765	10544
580.767	10569
580.823	10940
580.838	10404
580.879	9028
580.911	9894
580.935	10538
580.984	10214
580.991	10188
581.047	10792
581.057	10754
581.103	10645
581.130	10629
581.159	10632
581.203	11674
581.215	11964
581.270	12133
581.276	11977
581.326	10608
581.349	10556
581.382	10495
581.422	10743
581.438	10864
581.494	11223
581.494	11204
581.550	10236
581.567	10227
581.606	10224
581.640	10269
581.661	10299
581.713	10788
581.717	10833
581.773	11393
581.786	11294
581.829	11082
581.859	11167
581.885	11227
581.932	11101
581.940	11090
581.996	11225
582.004	11138
582.052	10689
582.077	10846
582.107	11059
582.150	10869
582.163	10808
582.219	10753
582.223	10786
582.274	11304
582.296	11225
582.330	11116
582.368	11525
582.386	11717
582.441	11512
582.441	11515
582.497	11041
582.514	11103
582.552	11298
582.587	12106
582.608	12599
582.659	12488
582.663	12477
582.719	12293
582.732	12118
582.774	11676
582.805	11824
582.830	11971
582.877	12429
582.885	12490
582.941	12623
582.950	12706
582.996	13156
583.023	13734
583.052	14533
583.095	15281
583.107	15439
583.162	16574
583.168	16652
583.218	17431
583.240	17125
583.273	16498
583.313	15397
583.328	14986
583.384	14371
583.385	14329
583.439	13049
583.458	13225
583.494	13641
583.531	13100
583.549	12901
583.603	13234
583.605	13234
583.660	12418
583.676	12595
583.715	13173
583.748	13035
583.770	13016
583.820	14154
583.825	14217
583.881	13181
583.893	13052
583.936	13018
583.965	13354
583.991	13426
584.038	13648
584.046	13720
584.101	13025
584.110	13059
584.156	13048
584.183	13298
584.211	13654
584.255	14136
584.266	14232
584.321	13660
584.328	13722
584.376	14407
584.400	14276
584.431	13948
584.472	14349
584.486	14471
584.541	14770
584.545	14774
584.596	14706
584.617	14661
584.651	14830
584.689	15892
584.706	16198
584.761	15661
584.762	15671
584.816	16088
584.834	16243
584.871	16601
584.906	16784
584.926	16823
584.978	16868
584.980	16869
585.035	17523
585.051	17975
585.090	18964
585.123	18983
585.145	18944
585.195	18711
585.200	18702
585.254	20009
585.267	20343
585.309	21944
585.340	23940
585.364	25125
585.412	25209
585.419	25180
585.473	25696
585.484	26057
585.528	27967
585.556	30614
585.583	34561
585.628	45596
585.637	49367
585.692	86237
585.700	96659
585.747	151112
585.772	142760
585.801	113926
585.845	54868
585.856	43700
585.910	29396
585.917	28395
585.965	25786
585.989	24934
586.019	23755
586.061	23347
586.074	23399
586.128	23779
586.133	23844
586.183	23839
586.205	24178
586.237	24702
586.277	24702
586.292	24703
586.346	25253
586.349	25297
586.401	25347
586.421	25582
586.455	26092
586.493	26854
586.509	27367
586.564	29471
586.565	29591
586.618	34892
586.637	36185
586.672	35582
586.709	32252
586.727	30831
586.781	30697
586.781	30661
586.835	30757
586.853	31011
586.889	31112
586.925	30722
586.944	30748
586.996	32257
586.998	32249
587.052	33265
587.068	33867
587.106	34897
587.140	35202
587.161	35558
587.212	37212
587.215	37229
587.269	39162
587.284	39561
587.323	40012
587.356	40884
587.377	41930
587.427	44950
587.431	45019
587.485	46355
587.499	47065
587.539	49178
587.571	50889
587.593	52151
587.643	54934
587.648	55084
587.702	58447
587.715	59512
587.755	62507
587.786	64951
587.810	66668
587.858	70745
587.864	71170
587.917	77441
587.930	79128
587.971	84233
588.001	88361
588.025	91773
588.073	99532
588.079	100421
588.133	111313
588.145	114104
588.187	123435
588.217	130564
588.241	136999
588.288	151065
588.295	152877
588.348	172699
588.360	177705
588.402	197858
588.431	212476
588.456	224980
588.503	252441
588.510	257092
588.564	300983
588.575	311120
588.617	356383
588.646	389509
588.671	428304
588.718	503903
588.725	520184
588.778	646423
588.789	669925
588.832	790062
588.861	861514
588.886	879753
588.932	887595
588.939	871398
588.993	734928
589.004	719572
589.047	845295
589.075	930384
589.100	896814
589.147	802597
589.154	787019
589.207	641405
589.218	610765
589.261	559337
589.290	526824
589.314	528610
589.361	539817
589.368	549950
589.421	641817
589.433	660602
589.475	777186
589.504	845179
589.528	842048
589.576	814492
589.582	811511
589.635	821341
589.647	824717
589.689	745347
589.718	668447
589.742	592779
589.790	429000
589.795	418797
589.849	324970
589.861	304659
589.902	261901
589.932	231886
589.955	213512
590.004	179171
590.009	176195
590.062	152145
590.075	146946
590.115	132641
590.146	123073
590.168	117084
590.218	105584
590.222	104294
590.275	92662
590.289	90241
590.328	84549
590.360	80540
590.381	77820
590.431	72349
590.435	71760
590.488	66330
590.503	65229
590.541	62012
590.574	59248
590.594	57495
590.645	54547
590.647	54252
590.700	51375
590.716	50619
590.753	48303
590.787	46589
590.806	45465
590.859	43313
590.859	43136
590.912	40999
590.930	40568
590.965	39468
591.001	38553
591.018	37781
591.071	35802
591.072	35905
591.124	34547
591.143	34093
591.177	33014
591.214	32247
591.230	31945
591.283	31435
591.285	31517
591.336	30788
591.356	30663
591.389	30088
591.427	29515
591.442	28991
591.495	27564
591.498	27533
591.547	26993
591.569	27042
591.600	26534
591.640	25860
591.653	25644
591.706	25087
591.711	25111
591.759	24458
591.782	24261
591.811	24945
591.853	26125
591.864	25736
591.917	23952
591.924	23785
591.969	22855
591.995	22413
592.022	22416
592.066	22575
592.075	22563
592.127	22941
592.137	23076
592.180	23801
592.208	24419
592.233	23195
592.279	20896
592.285	20658
592.338	19318
592.350	19081
592.390	19664
592.421	20236
592.443	19813
592.491	19081
592.495	19023
592.548	19124
592.562	19220
592.600	19016
592.633	18958
592.653	18400
592.704	17023
592.705	17132
592.775	17845
592.846	17849
592.916	18514
592.987	17925
593.058	17651
593.128	17101
593.199	17489
593.270	17442
593.341	16505
593.411	16729
593.482	16826
593.553	16874
593.623	17201
593.694	17044
593.764	17162
593.835	17538
593.906	16289
593.976	16363
594.047	17000
594.117	17390
594.188	18636
594.258	15726
594.329	15817
594.399	15694
594.470	16709
594.540	15474
594.611	15857
594.681	15593
594.751	16021
594.822	15791
594.892	15639
594.963	17438
595.033	17063
595.103	16525
595.174	17743
595.244	19624
595.314	23939
595.384	18173
595.455	16692
595.525	17367
595.595	17993
595.665	18005
595.736	17554
595.806	17170
595.876	17294
595.946	17094
596.016	17938
596.087	18179
596.157	17346
596.227	17518
596.297	18536
596.367	19244
596.437	20053
596.507	23577
596.577	26865
596.647	21616
596.717	20460
596.787	20145
596.857	20291
596.927	21428
596.997	21171
597.067	20614
597.137	22271
597.207	22191
597.277	22432
597.347	20835
597.417	21370
597.487	20910
597.557	20701
597.626	20499
597.696	21673
597.766	23922
597.836	25178
597.906	21336
597.975	18646
598.045	19939
598.115	19658
598.185	20563
598.254	22354
598.324	24308
598.394	24766
598.464	24704
598.533	23675
598.603	22433
598.672	21420
598.742	22446
598.812	22591
598.881	22532
598.951	23016
599.020	23558
599.090	23565
599.159	24091
599.229	22852
599.299	22647
599.368	23030
599.437	23435
599.507	21573
599.576	21383
599.646	23085
599.715	23291
599.785	22230
599.854	21768
599.924	22106
599.993	22000
600.062	21094
600.132	21945
600.201	22253
600.270	24637
600.340	26295
600.409	25398
600.478	24067
600.547	25593
600.617	24532
600.686	23245
600.755	20989
600.824	21658
600.894	20688
600.963	21333
601.032	20735
601.101	20419
601.170	20257
601.239	19662
601.308	20434
601.378	20453
601.447	21264
601.516	21064
601.585	21407
601.654	22321
601.723	22040
601.792	23421
601.861	23027
601.930	26215
601.999	24957
602.068	24402
602.137	24349
602.206	24648
602.275	24097
602.343	25514
602.412	26142
602.481	25486
602.550	24956
602.619	25485
602.688	24831
602.756	25379
602.825	25644
602.894	25738
602.963	26589
603.032	26274
603.100	25833
603.169	26159
603.238	26235
603.307	25874
603.375	26699
603.444	26845
603.513	26473
603.581	25419
603.650	27557
603.719	25555
603.787	24220
603.856	24289
603.924	25139
603.993	25529
604.061	26307
604.130	28635
604.198	27952
604.267	27577
604.335	28072
604.404	28509
604.472	28919
604.541	29178
604.609	29064
604.678	30492
604.746	30090
604.815	31355
604.883	31265
604.951	32136
605.020	31098
605.088	30820
605.156	29495
605.225	29040
605.293	29596
605.361	29994
605.429	29735
605.498	31619
605.566	32231
605.634	31934
605.702	32504
605.771	31982
605.839	33716
605.907	31099
605.975	32137
606.043	31212
606.111	30580
606.180	31843
606.248	32091
606.316	33139
606.384	31594
606.452	31194
606.520	29796
606.588	28717
606.656	27250
606.724	25896
606.792	25121
606.860	23603
606.928	20672
606.996	20691
607.064	20510
607.132	20801
607.200	21008
607.267	22995
607.335	22963
607.403	22975
607.471	22804
607.539	22364
607.607	22274
607.674	20026
607.742	20974
607.810	20879
607.878	20280
607.946	19577
608.013	20936
608.081	21461
608.149	21301
608.216	21722
608.284	23379
608.352	22181
608.419	22019
608.487	23774
608.555	22346
608.622	22221
608.690	23256
608.757	24279
608.825	25213
608.893	25141
608.960	24180
609.028	24791
609.095	26468
609.163	23460
609.230	21323
609.298	20995
609.365	19757
609.432	21677
609.500	22246
609.567	25599
609.635	29311
609.702	30270
609.769	30101
609.837	26904
609.904	23138
609.971	22967
610.039	27998
610.106	37488
610.173	66449
610.241	159063
610.308	183317
610.375	110681
610.442	38836
610.509	25904
610.577	23578
610.644	23354
610.711	22731
610.778	23591
610.845	24320
610.912	25142
610.980	27446
611.047	31236
611.114	28467
611.181	24826
611.248	23565
611.315	26163
611.382	25483
611.449	25372
611.516	28155
611.583	27188
611.650	27367
611.717	28217
611.784	28596
611.851	31462
611.918	35004
611.984	40247
612.051	57338
612.118	112582
612.185	285830
612.252	266227
612.319	56561
612.386	37085
612.452	33264
612.519	32206
612.586	32632
612.653	32136
612.719	31390
612.786	30236
612.853	28400
612.919	27029
612.986	27769
613.053	25851
613.120	24640
613.186	23402
613.253	25539
613.319	23887
613.386	24680
613.453	24783
613.519	25661
613.586	26170
613.652	32114
613.719	27781
613.785	29404
613.852	26357
613.918	24962
613.985	27121
614.051	31766
614.118	46414
614.184	55661
614.250	28006
614.317	26447
614.383	25011
614.449	24940
614.516	24807
614.582	24298
614.648	25333
614.715	24715
614.781	23437
614.847	24395
614.914	25568
614.980	24947
615.046	24658
615.112	24150
615.179	25776
615.245	26859
615.311	28633
615.377	38690
615.443	46507
615.509	33438
615.575	29174
615.642	27051
615.708	28854
615.774	30648
615.840	35312
615.906	42379
615.972	57878
616.038	99274
616.104	177319
616.170	365401
616.236	440413
616.302	95141
616.368	51399
616.434	39081
616.500	34365
616.565	35569
616.631	43239
616.697	38532
616.763	37061
616.829	47179
616.895	84964
616.961	97092
617.026	47344
617.092	28979
617.158	27264
617.224	26877
617.289	25247
617.355	23270
617.421	22966
617.487	24233
617.552	22380
617.618	20816
617.684	21193
617.749	22545
617.815	21432
617.880	20595
617.946	21536
618.012	20645
618.077	21362
618.143	20584
618.208	21128
618.274	21619
618.339	22600
618.405	19840
618.470	19509
618.536	19468
618.601	19880
618.667	19284
618.732	19004
618.798	18339
618.863	17407
618.928	17475
618.994	18592
619.059	19207
619.124	21600
619.190	20314
619.255	17730
619.320	17713
619.386	17555
619.451	17172
619.516	17153
619.581	16941
619.647	18259
619.712	17802
619.777	17016
619.842	17729
619.907	17524
619.972	17437
620.038	17308
620.103	16582
620.168	16180
620.233	17190
620.298	17241
620.363	17468
620.428	17487
620.493	17647
620.558	17341
620.623	18151
620.688	17987
620.753	18202
620.818	18717
620.883	18673
620.948	18480
621.013	18299
621.078	18025
621.143	17630
621.207	20401
621.272	18771
621.337	18838
621.402	17954
621.467	21023
621.532	21679
621.596	20017
621.661	19229
621.726	18143
621.791	18225
621.855	18803
621.920	18719
621.985	19037
622.049	20081
622.114	20262
622.179	20240
622.243	19580
622.308	19985
622.373	20822
622.437	20417
622.502	18804
622.566	19105
622.631	18384
622.695	18933
622.760	19262
622.824	18996
622.889	19856
622.953	20332
623.018	23959
623.082	25303
623.147	20666
623.211	20089
623.276	20328
623.340	18933
623.404	17954
623.469	18521
623.533	18713
623.597	18424
623.662	17655
623.726	16714
623.790	16416
623.854	16366
623.919	16839
623.983	16354
624.047	16575
624.111	16214
624.176	16883
624.240	16649
624.304	18745
624.368	17619
624.432	16047
624.496	16844
624.560	18286
624.625	20635
624.689	19115
624.753	18762
624.817	18171
624.881	16012
624.945	16318
625.009	15751
625.073	16438
625.137	15868
625.201	18388
625.265	19726
625.329	16297
625.393	16831
625.456	16651
625.520	16426
625.584	17907
625.648	19139
625.712	23023
625.776	37415
625.839	45384
625.903	26092
625.967	15183
626.031	19211
626.095	29787
626.158	19255
626.222	13520
626.286	12184
626.349	11766
626.413	11345
626.477	11654
626.540	11293
626.604	11353
626.668	11697
626.731	11053
626.795	10956
626.858	11395
626.922	11190
626.986	11592
627.049	9595
627.113	11409
627.176	11587
627.240	10195
627.303	10148
627.366	10056
627.430	10778
627.493	10919
627.557	9803
627.620	11069
627.684	10158
627.747	10479
627.810	9528
627.874	10126
627.937	8672
628.000	10098
628.064	9846
628.127	7770
628.190	8482
628.253	8438
628.317	8120
628.380	8624
628.443	7997
628.506	7465
628.569	7886
628.632	7120
628.696	7922
628.759	7345
628.822	6260
628.885	7329
628.948	7570
629.011	7043
629.074	6916
629.137	7176
629.200	6260
629.263	7522
629.326	5892
629.389	6542
629.452	5955
629.515	7018
629.578	6501
629.641	7606
629.704	5483
629.767	7858
629.830	6916
629.892	5889
629.955	5557
630.018	8183
630.081	6224
630.144	9117
630.207	6935
630.269	7533
630.332	6830
630.395	6179
630.458	6226
630.520	5862
630.583	5738
630.646	6130
630.708	6363
630.771	5646
630.834	6166
630.896	5134
630.959	5990
631.021	5385
631.084	5712
631.146	5763
631.209	7107
631.272	5402
631.334	6010
631.397	5743
631.459	5436
631.522	6212
631.584	6131
631.646	6665
631.709	6532
631.771	6414
631.834	7440
631.896	6110
631.958	4758
632.021	6242
632.083	5038
632.145	5910
632.208	6007
632.270	6005
632.332	5159
632.395	4995
632.457	5205
632.519	4627
632.581	5839
632.643	4754
632.706	4722
632.768	4450
632.830	5457
632.892	5442
632.954	5087
633.016	4777
633.078	5211
633.141	4923
633.203	4922
633.265	4578
633.327	5041
633.389	5066
633.451	5489
633.513	6072
633.575	6768
633.637	5917
633.698	5618
633.760	6028
633.822	5159
633.884	5220
633.946	4945
634.008	4959
634.070	6432
634.132	7639
634.193	7160
634.255	6606
634.317	5820
634.379	6260
634.441	5672
634.502	5410
634.564	5386
634.626	5445
634.687	4971
634.749	5166
634.811	4892
634.873	4403
634.934	5623
634.996	5314
635.057	5019
635.119	4590
635.181	4735
635.242	4734
635.304	3146
635.365	6634
635.427	4073
635.488	4410
635.550	5316
635.611	4498
635.673	3900
635.734	6582
635.796	4887
635.857	7096
635.918	4991
635.980	6637
636.041	5098
636.102	6572
636.164	6484
636.225	6962
636.286	4508
636.348	5588
636.409	4513
636.470	4589
636.531	4256
636.593	5535
636.654	5433
636.715	4491
636.776	3786
636.838	3868
636.899	4951
636.960	4487
637.021	3191
637.082	3858
637.143	4156
637.204	4424
637.265	3302
637.326	4518
637.387	3793
637.448	3435
637.509	4202
637.570	2936
637.631	3469
637.692	3178
637.753	3974
637.814	3789
637.875	3981
637.936	4994
637.997	3599
638.058	3451
638.119	4462
638.179	3939
638.240	2915
638.301	3729
638.362	2612
638.423	3637
638.483	4550
638.544	2665
638.605	3449
638.666	3008
638.726	4102
638.787	4089
638.848	2687
638.908	3173
638.969	3487
639.030	3644
639.090	2857
639.151	3256
639.211	4656
639.272	4092
639.332	6583
639.393	5022
639.453	2571
639.514	3160
639.574	3965
639.635	3345
639.695	3308
639.756	3332
639.816	3700
639.877	4023
639.937	6477
639.997	8418
640.058	4542
640.118	3642
640.178	3846
640.239	2159
640.299	3763
640.359	2575
640.420	2901
640.480	3983
640.540	2999
640.600	4125
640.661	3602
640.721	3222
640.781	5304
640.841	4629
640.901	4916
640.961	4048
641.021	3683
641.082	3609
641.142	4998
641.202	4475
641.262	1092
641.322	3896
641.382	2464
641.442	3491
641.502	2239
641.562	3201
641.622	2670
641.682	3369
641.742	3649
641.802	3672
641.861	3085
641.921	3242
641.981	4118
642.041	4007
642.101	4342
642.161	3245
642.221	2605
642.280	2620
642.340	2625
642.400	2305
642.460	3617
642.519	3218
642.579	2710
642.639	2790
642.698	1572
642.758	4599
642.818	3202
642.877	3537
642.937	3060
642.997	4062
643.056	4699
643.116	2958
643.175	4127
643.235	2375
643.294	3183
643.354	3208
643.414	4147
643.473	5225
643.532	6501
643.592	8728
643.651	15259
643.711	24514
643.770	42898
643.830	93689
643.889	263110
643.948	115211
644.008	12325
644.067	6193
644.126	4755
644.186	4935
644.245	4474
644.304	2784
644.363	4347
644.423	2582
644.482	3000
644.541	4178
644.600	2654
644.659	6025
644.719	3581
644.778	7326
644.837	9786
644.896	19251
644.955	50073
645.014	31081
645.073	6803
645.132	3936
645.191	3731
645.250	3423
645.309	4145
645.368	3177
645.427	4715
645.486	4264
645.545	10874
645.604	5159
645.663	3965
645.722	2866
645.781	2971
645.840	5145
645.898	6057
645.957	8729
646.016	10988
646.075	21604
646.134	38590
646.192	90190
646.251	203002
646.310	53205
646.369	9175
646.427	5915
646.486	3741
646.545	3052
646.603	3498
646.662	3360
646.721	3197
646.779	2569
646.838	2524
646.896	3710
646.955	5036
647.014	7274
647.072	9615
647.131	27756
647.189	25446
647.248	3518
647.306	3398
647.365	2329
647.423	1208
647.481	3076
647.540	765
647.598	1777
647.657	1764
647.715	3243
647.773	1119
647.832	2639
647.890	1594
647.948	1707
648.007	2266
648.065	1491
648.123	1505
648.181	2793
648.240	2670
648.298	3306
648.356	1004
648.414	1820
648.472	2553
648.531	2457
648.589	2173
648.647	2037
648.705	1219
648.763	1604
648.821	1783
648.879	1151
648.937	2887
648.995	3104
649.053	3511
649.111	6337
649.169	9326
649.227	15748
649.285	27914
649.343	82561
649.401	77911
649.459	14181
649.516	9776
649.574	5975
649.632	11602
649.690	19750
649.748	9136
649.806	6819
649.863	14700
649.921	20830
649.979	22401
650.037	5109
650.094	1125
650.152	2082
650.210	2166
650.268	2827
650.325	2573
650.383	1608
650.440	641
650.498	2305
650.556	1746
650.613	1065
650.671	1072
650.728	739
650.786	1476
650.843	1746
650.901	540
650.958	1406
651.016	1200
651.073	2071
651.131	861
651.188	222
651.246	1609
651.303	921
651.360	1986
651.418	1049
651.475	1182
651.532	-156
651.590	1766
651.647	764
651.704	1165
651.762	1120
651.819	1385
651.876	1460
651.933	932
651.990	1975
652.048	-12
652.105	642
652.162	1402
652.219	330
652.276	985
652.333	1177
652.390	306
652.448	1406
652.505	809
652.562	1296
652.619	1305
652.676	3126
652.733	4342
652.790	1716
652.847	-520
652.904	1864
652.961	-454
653.017	704
653.074	1430
653.131	1067
653.188	613
653.245	796
653.302	911
653.359	1312
653.415	1368
653.472	-110
653.529	2072
653.586	519
653.642	253
653.699	1069
653.756	173
653.813	980
653.869	1270
653.926	1021
653.983	467
654.039	915
654.096	881
654.152	1894
654.209	367
654.266	1708
654.322	-289
654.379	1575
654.435	1410
654.492	514
654.548	1777
654.605	3315
654.661	3049
654.717	1757
654.774	1355
654.830	1299
654.887	1246
654.943	1527
655.000	1159
655.056	1003
655.112	1182
655.168	570
655.225	414
655.281	2061
655.337	797
655.394	3083
655.450	3087
655.506	1643
655.562	950
655.618	3750
655.675	665
655.731	867
655.787	741
655.843	2119
655.899	-618
655.955	1440
656.011	469
656.067	-674
656.123	914
656.179	1754
656.235	2469
656.291	-89
656.347	1002
656.403	279
656.459	1306
656.515	1211
656.571	1490
656.627	1949
656.683	609
656.739	1840
656.795	1486
656.850	1235
656.906	1185
656.962	1849
657.018	-124
657.074	470
657.129	1250
657.185	2103
657.241	1995
657.297	2844
657.352	1513
657.408	381
657.464	1890
657.519	743
657.575	343
657.630	190
657.686	586
657.742	-61
657.797	1020
657.853	1047
657.908	2383
657.964	-90
658.019	644
658.075	330
658.130	1422
658.186	-35
658.241	764
658.297	393
658.352	-444
658.407	929
658.463	26
658.518	1026
658.573	867
658.629	12
658.684	167
658.739	1376
658.795	167
658.850	306
658.905	276
658.960	456
659.016	255
659.071	1277
659.126	1133
659.181	580
659.236	2632
659.291	3309
659.346	1111
659.401	819
659.457	1651
659.512	2679
659.567	2304
659.622	899
659.677	556
659.732	322
659.787	979
659.842	770
659.897	538
659.952	1305
660.007	1290
660.061	733
660.116	919
660.171	1357
660.226	208
660.281	1683
660.336	-14
660.391	865
660.445	100
660.500	1252
660.555	762
660.610	-153
660.664	1035
660.719	274
660.774	566
660.828	788
660.883	888
660.938	1470
660.992	257
661.047	812
661.101	199
661.156	712
661.211	-81
661.265	773
661.320	73
661.374	1031
661.429	532
661.483	942
661.538	-22
661.592	197
661.647	884
661.701	1750
661.755	536
661.810	519
661.864	224
661.919	822
661.973	648
662.027	733
662.081	-131
662.136	-170
662.190	36
662.244	932
662.299	698
662.353	1009
662.407	2
662.461	66
662.515	324
662.569	70
662.624	1206
662.678	151
662.732	400
662.786	619
662.840	849
662.894	842
662.948	-124
663.002	915
663.056	187
663.110	-158
663.164	1026
663.218	385
663.272	330
663.326	1096
663.380	154
663.434	1351
663.488	-253
663.542	429
663.595	1017
663.649	210
663.703	1178
663.757	360
663.811	-515
663.864	291
663.918	741
663.972	201
664.026	773
664.079	248
664.133	874
664.187	1406
664.240	472
664.294	552
664.348	614
664.401	492
664.455	727
664.508	744
664.562	474
664.615	457
664.669	16
664.722	1133
664.776	367
664.829	387
664.883	548
664.936	309
664.990	904
665.043	913
665.097	90
665.150	490
665.203	87
665.257	993
665.310	494
665.363	699
665.417	765
665.470	540
665.523	997
665.576	58
665.630	1282
665.683	348
665.736	981
665.789	404
665.842	299
665.895	895
665.949	1029
666.002	539
666.055	-50
666.108	1094
666.161	828
666.214	1299
666.267	942
666.320	552
666.373	805
666.426	-27
666.479	939
666.532	474
666.585	-153
666.638	1386
666.691	393
666.744	1011
666.796	807
666.849	761
666.902	844
666.955	1244
667.008	548
667.060	94
667.113	216
667.166	1080
667.219	1166
667.271	527
667.324	642
667.377	1079
667.430	1117
667.482	1204
667.535	1521
667.587	1279
667.640	1118
667.693	785
667.745	805
667.798	2595
667.850	1712
667.903	682
667.955	616
668.008	866
668.060	486
668.113	75
668.165	1222
668.218	872
668.270	879
668.322	-132
668.375	243
668.427	1037
668.479	197
668.532	483
668.584	571
668.636	580
668.689	1025
668.741	494
668.793	1195
668.845	528
668.898	469
668.950	219
669.002	1328
669.054	35
669.106	482
669.158	1010
669.211	199
669.263	1669
669.315	1515
669.367	1724
669.419	1071
669.471	1748
669.523	1376
669.575	2184
669.627	1714
669.679	698
669.731	1635
669.783	1463
669.835	1403
669.886	1921
669.938	1072
669.990	1323
670.042	1124
670.094	2140
670.146	2991
670.197	2552
670.249	3690
670.301	4554
670.353	6869
670.404	9847
670.456	14528
670.508	22545
670.560	34485
670.611	56735
670.663	94267
670.715	189475
670.766	336487
670.818	216424
670.869	53290
670.921	20099
670.972	11904
671.024	7526
671.075	5698
671.127	4036
671.178	2800
671.230	3680
671.281	2857
671.333	2146
671.384	1923
671.436	2587
671.487	3156
671.538	3059
671.590	2979
671.641	5414
671.692	6361
671.744	13487
671.795	15545
671.846	5876
671.897	2731
671.949	1287
672.000	1732
672.051	1424
672.102	1553
672.153	860
672.204	996
672.256	1314
672.307	441
672.358	474
672.409	516
672.460	610
672.511	948
672.562	650
672.613	987
672.664	692
672.715	181
672.766	808
672.817	581
672.868	828
672.919	472
672.970	361
673.021	99
673.071	-20
673.122	1309
673.173	1233
673.224	233
673.275	866
673.326	-41
673.376	601
673.427	-68
673.478	374
673.528	375
673.579	485
673.630	335
673.680	580
673.731	-192
673.782	214
673.832	782
673.883	711
673.934	-776
673.984	215
674.035	481
674.085	874
674.136	400
674.186	784
674.237	689
674.287	1438
674.338	1176
674.388	-3
674.438	-9
674.489	668
674.539	703
674.589	79
674.640	733
674.690	-511
674.740	-502
674.791	-413
674.841	840
674.891	183
674.942	-95
674.992	-171
675.042	43
675.092	-381
675.142	-241
675.193	186
675.243	-164
675.293	27
675.343	-64
675.393	408
675.443	-183
675.493	590
675.543	-522
675.593	314
675.643	515
675.693	210
675.743	310
675.793	674
675.843	-138
675.893	302
675.943	266
675.993	-659
676.043	459
676.093	675
676.142	-1183
676.192	604
676.242	-285
676.292	-303
676.341	-1196
676.391	-388
676.441	157
676.491	424
676.540	475
676.590	212
676.640	445
676.689	-159
676.739	192
676.789	372
676.838	-179
676.888	-139
676.937	-157
676.987	192
677.037	591
677.086	-685
677.136	24
677.185	-531
677.235	-179
677.284	-99
677.333	-1069
677.383	-30
677.432	-387
677.482	-77
677.531	37
677.580	-882
677.630	46
677.679	-675
677.728	190
677.778	-488
677.827	-131
677.876	-179
677.925	-791
677.975	-329
678.024	-270
678.073	-177
678.122	-611
678.171	-152
678.220	-577
678.269	-146
678.319	-431
678.368	151
678.417	263
678.466	-83
678.515	-175
678.564	-296
678.613	-294
678.662	457
678.711	-548
678.760	128
678.809	-19
678.857	-724
678.906	-735
678.955	-15
679.004	92
679.053	-156
679.102	-206
679.151	346
679.199	-393
679.248	506
679.297	-479
679.346	487
679.394	-94
679.443	-250
679.492	-350
679.540	-530
679.589	127
679.638	-377
679.686	78
679.735	-220
679.784	-659
679.832	56
679.881	-661
679.929	336
679.978	-854
680.026	272
680.075	-497
680.123	-463
680.172	-502
680.220	-66
680.268	-824
680.317	252
680.365	398
680.414	-1126
680.462	-221
680.510	197
680.559	130
680.607	-740
680.655	-258
680.703	-629
680.752	-543
680.800	-293
680.848	-801
680.896	-916
680.945	-12
680.993	-691
681.041	281
681.089	-483
681.137	-304
681.185	-867
681.233	-163
681.258	-577
681.281	-977
681.329	-838
681.377	-347
681.380	-350
681.425	-545
681.473	256
681.502	-173
681.521	-487
681.569	-28
681.617	-502
681.624	-396
681.665	223
681.713	134
681.745	-48
681.761	-147
681.809	71
681.857	-161
681.867	-185
681.904	-299
681.952	-276
681.989	-464
682.000	-530
682.048	-177
682.096	-434
682.111	-299
682.143	-60
682.191	-787
682.233	-3
682.239	113
682.286	347
682.334	53
682.354	-88
682.382	-318
682.430	309
682.476	-61
682.477	-76
682.525	112
682.572	-563
682.598	-260
682.620	-9
682.667	-456
682.715	-313
682.720	-243
682.763	307
682.810	-215
682.841	-187
682.857	-162
682.905	18
682.952	305
682.963	352
683.000	439
683.047	-9
683.085	625
683.095	792
683.142	480
683.190	-163
683.206	-183
683.237	-218
683.284	-235
683.328	73
683.332	89
683.379	-87
683.426	480
683.449	-58
683.473	-620
683.521	379
683.568	530
683.571	533
683.615	568
683.662	254
683.693	211
683.709	158
683.757	-86
683.804	822
683.814	650
683.851	43
683.898	605
683.936	739
683.945	774
683.992	199
684.039	242
684.057	487
684.086	806
684.133	584
684.179	176
684.180	159
684.227	662
684.274	1243
684.300	845
684.321	528
684.368	304
684.415	499
684.422	431
684.462	-36
684.509	394
684.543	787
684.556	922
684.603	958
684.649	-78
684.665	182
684.696	742
684.743	258
684.786	315
684.790	313
684.837	667
684.883	666
684.908	766
684.930	862
684.977	1003
685.023	356
685.029	435
685.070	972
685.117	885
685.150	552
685.164	417
685.210	378
685.257	1256
685.272	941
685.303	277
685.350	1130
685.393	1188
685.396	1183
685.443	855
685.490	722
685.514	542
685.536	451
685.583	929
685.629	784
685.636	833
685.675	941
685.722	1475
685.757	1117
685.768	1020
685.815	961
685.861	1251
685.878	1104
685.908	900
685.954	1185
686.000	1728
686.000	1734
686.047	1372
686.093	1672
686.121	1234
686.139	958
686.185	687
686.232	1487
686.242	1399
686.278	1087
686.324	1550
686.363	1013
686.370	897
686.416	838
686.463	1440
686.484	1308
686.509	1269
686.555	611
686.601	1030
686.606	1090
686.647	1505
686.693	1771
686.727	1238
686.739	1022
686.785	1228
686.831	1150
686.848	1090
686.877	1072
686.923	1162
686.969	1209
686.969	1208
687.015	1200
687.061	1267
687.090	1201
687.107	1142
687.153	1681
687.199	1081
687.211	1111
687.245	1227
687.291	1384
687.332	1121
687.336	1111
687.382	1860
687.428	1783
687.453	2015
687.474	2097
687.520	1201
687.565	1549
687.574	1480
687.611	1241
687.657	1050
687.695	1272
687.702	1359
687.748	2079
687.794	2216
687.816	2563
687.839	2697
687.885	2015
687.931	1572
687.937	1530
687.976	1409
688.022	1558
688.058	1528
688.067	1504
688.113	1594
688.158	1026
688.179	1201
688.204	1532
688.249	2032
688.295	1490
688.300	1527
688.340	1746
688.386	1885
688.421	1847
688.431	1806
688.477	1492
688.522	1305
688.542	1422
688.567	1710
688.613	1464
688.658	1958
688.663	1984
688.703	2005
688.749	2274
688.784	1870
688.794	1790
688.839	2307
688.884	1832
688.905	1895
688.930	1971
688.975	1731
689.020	1993
689.026	1975
689.065	1829
689.110	1563
689.146	1984
689.155	2096
689.201	2181
689.246	1832
689.267	1826
689.291	1792
689.336	2055
689.381	1685
689.388	1716
689.426	2050
689.471	2012
689.509	2131
689.516	2092
689.561	1819
689.606	1090
689.630	1263
689.651	1643
689.696	1411
689.741	1706
689.750	1711
689.785	1673
689.830	2202
689.871	2263
689.875	2267
689.920	1849
689.965	2035
689.992	2097
690.010	2128
690.054	1719
690.099	1865
690.112	1860
690.144	1864
690.189	2214
690.233	1727
690.233	1730
690.278	2040
690.323	2118
690.354	2075
690.367	2034
690.412	2427
690.457	2492
690.474	2447
690.501	2413
690.546	2990
690.590	2584
690.595	2610
690.635	2983
690.680	3049
690.716	3068
690.724	3078
690.769	3463
690.813	3565
690.836	3583
690.857	3868
690.902	4640
690.946	5654
690.957	5898
690.991	8316
691.035	11473
691.077	15463
691.080	15540
691.124	14559
691.168	13492
691.198	12923
691.213	11838
691.257	8959
691.301	5782
691.318	4627
691.346	4151
691.390	3545
691.434	2946
691.439	2823
691.478	2390
691.522	2498
691.559	2372
691.567	2395
691.611	2993
691.655	2806
691.680	2733
691.699	2615
691.743	2386
691.787	2706
691.800	2573
691.831	2373
691.875	2613
691.919	2848
691.921	2846
691.964	2860
692.008	2692
692.041	2526
692.052	2520
692.096	2470
692.139	2886
692.162	2825
692.183	2663
692.227	2708
692.271	2078
692.282	2082
692.315	2451
692.359	2807
692.402	3145
692.403	3153
692.447	2943
692.490	3152
692.523	3078
692.534	3050
692.578	2989
692.622	2750
692.643	2754
692.666	2698
692.709	2448
692.753	2312
692.763	2263
692.797	2483
692.840	2649
692.884	2696
692.884	2704
692.928	2912
692.971	3046
693.004	3010
693.015	2974
693.059	3065
693.102	2727
693.124	2738
693.146	2786
693.189	2696
693.233	2734
693.245	2751
693.276	3234
693.320	3577
693.363	4102
693.365	4107
693.407	4147
693.450	4428
693.485	4453
693.493	4573
693.537	5314
693.580	5969
693.605	6233
693.624	7027
693.667	9255
693.710	11647
693.725	12372
693.753	16862
693.797	24158
693.840	32259
693.845	33052
693.883	32437
693.926	30706
693.966	29039
693.970	28289
694.013	20634
694.056	13026
694.086	7704
694.099	7261
694.142	5959
694.185	4898
694.206	4322
694.229	4330
694.272	4101
694.315	4057
694.326	4017
694.358	3920
694.401	4041
694.444	3784
694.446	3767
694.487	3864
694.530	3697
694.566	3991
694.573	3998
694.616	3465
694.659	3301
694.686	2990
694.702	2961
694.745	3172
694.787	3232
694.806	3271
694.830	3189
694.873	2920
694.916	2750
694.926	2685
694.959	2846
695.002	3021
695.044	3044
695.046	3047
695.087	3332
695.130	3546
695.166	3651
695.172	3660
695.215	3637
695.258	3476
695.286	3402
695.301	3428
695.343	3682
695.386	3688
695.406	3725
695.428	3667
695.471	3535
695.514	3391
695.526	3325
695.556	3318
695.599	3520
695.641	3269
695.646	3266
695.684	3382
695.726	3539
695.766	3619
695.769	3633
695.811	3575
695.854	3600
695.886	3618
695.896	3602
695.938	3343
695.981	3194
696.005	3057
696.023	3194
696.065	3535
696.108	3959
696.125	4048
696.150	3985
696.192	4079
696.235	4127
696.245	4055
696.277	3723
696.319	3587
696.361	3435
696.365	3395
696.404	3642
696.446	4146
696.485	4403
696.488	4404
696.530	4179
696.572	4180
696.604	4080
696.614	4041
696.656	3726
696.698	3695
696.724	3536
696.740	3535
696.783	3465
696.825	3508
696.844	3500
696.867	3561
696.909	3660
696.951	3602
696.964	3660
696.992	3749
697.034	3614
697.076	3579
697.083	3571
697.118	3581
697.160	3451
697.202	3467
697.203	3452
697.244	3461
697.286	3586
697.323	3600
697.327	3619
697.369	3757
697.411	3778
697.442	3869
697.453	3866
697.494	3758
697.536	3638
697.562	3563
697.578	3611
697.620	3697
697.661	3764
697.682	3793
697.703	3820
697.744	3874
697.786	3976
697.801	3946
697.828	3994
697.869	4137
697.911	4264
697.921	4285
697.952	4261
697.994	4154
698.035	4130
698.040	4109
698.077	4057
698.118	3980
698.160	3869
698.160	3855
698.201	4100
698.243	4277
698.279	4441
698.284	4455
698.325	4415
698.367	4455
698.399	4423
698.408	4426
698.449	4406
698.491	4354
698.518	4310
698.532	4330
698.573	4367
698.614	4385
698.638	4382
698.656	4410
698.697	4434
698.738	4467
698.757	4476
698.779	4396
698.820	4192
698.862	4008
698.877	3923
698.903	4088
698.944	4327
698.985	4580
698.996	4635
699.026	4688
699.067	4739
699.116	4788
699.235	3467
699.354	4303
699.474	4728
699.593	4818
699.713	4787
699.832	4196
699.951	4412
700.070	4886
700.190	3332
700.309	4289
700.428	4095
700.547	3969
700.667	4495
700.786	3924
700.905	3386
701.024	3510
701.143	4226
701.262	3957
701.381	3841
701.500	3018
701.619	4102
701.738	3943
701.857	4438
701.976	3519
702.095	3530
702.214	3220
702.333	3928
702.452	3727
702.571	4370
702.690	3856
702.809	2940
702.928	3552
703.047	4605
703.165	3474
703.284	3354
703.403	3118
703.522	3677
703.640	4126
703.759	4294
703.878	5564
703.997	3303
704.115	3041
704.234	3349
704.353	2867
704.471	3164
704.590	3146
704.708	3423
704.827	3099
704.946	3221
705.064	3712
705.183	4048
705.301	3563
705.420	4687
705.538	5589
705.656	4683
705.775	3285
705.893	8408
706.012	12674
706.130	4485
706.249	4739
706.367	3948
706.485	4292
706.604	3647
706.722	4220
706.840	5315
706.958	6225
707.077	5771
707.195	3860
707.313	4116
707.431	4552
707.549	3749
707.668	3586
707.786	4235
707.904	4033
708.022	3681
708.140	4386
708.258	4168
708.376	4117
708.494	3397
708.612	4014
708.730	5040
708.848	5678
708.966	4452
709.084	5062
709.202	4808
709.320	4683
709.438	4697
709.556	4857
709.674	4435
709.791	4576
709.909	3811
710.027	4386
710.145	4733
710.263	4117
710.380	3563
710.498	3951
710.616	4547
710.733	4026
710.851	4425
710.969	3873
711.086	4167
711.204	4713
711.322	3623
711.439	3600
711.557	3874
711.674	3849
711.792	4180
711.909	5390
712.027	4167
712.144	4280
712.262	4172
712.379	3818
712.497	5184
712.614	5374
712.732	5637
712.849	5179
712.966	4559
713.084	5193
713.201	3904
713.318	4426
713.436	5058
713.553	4995
713.670	5393
713.787	5301
713.905	5630
714.022	5046
714.139	4365
714.256	5559
714.373	6050
714.490	10019
714.608	19400
714.725	84393
714.842	116660
714.959	10668
715.076	5110
715.193	4883
715.310	4505
715.427	4506
715.544	3879
715.661	3391
715.778	4021
715.895	4996
716.011	4411
716.128	4140
716.245	3751
716.362	4192
716.479	4655
716.596	4024
716.713	4558
716.829	4062
716.946	3836
717.063	3071
717.180	3793
717.296	3026
717.413	3423
717.530	3523
717.646	2991
717.763	4024
717.880	3181
717.996	4123
718.113	3474
718.229	2961
718.346	3691
718.462	3722
718.579	3854
718.695	4780
718.812	4127
718.928	3572
719.045	3233
719.161	3008
719.277	3734
719.394	2692
719.510	3866
719.626	3496
719.743	4433
719.859	4727
719.975	7436
720.092	22907
720.208	59343
720.324	11044
720.440	4050
720.557	4017
720.673	5092
720.789	5927
720.905	10596
721.021	6223
721.137	2891
721.253	3498
721.369	3303
721.486	3349
721.602	4945
721.718	3800
721.834	2714
721.950	2904
722.066	2500
722.181	3195
722.297	3317
722.413	2508
722.529	2798
722.645	2925
722.761	1854
722.877	2819
722.993	2529
723.108	2705
723.224	2382
723.340	2400
723.456	2565
723.571	2668
723.687	2204
723.803	2529
723.918	2162
724.034	1727
724.150	2609
724.265	2876
724.381	3757
724.497	5814
724.612	2344
724.728	2768
724.843	2123
724.959	1897
725.074	3861
725.190	5291
725.305	1782
725.421	2264
725.536	2372
725.651	2572
725.767	2197
725.882	2484
725.997	2390
726.113	1861
726.228	1876
726.343	1727
726.459	2150
726.574	1710
726.689	2088
726.804	1739
726.920	2442
727.035	2346
727.150	2432
727.265	1922
727.380	2307
727.495	2032
727.610	1753
727.725	2435
727.841	2543
727.956	5126
728.071	6243
728.186	3037
728.301	1589
728.416	3247
728.531	2122
728.645	2843
728.760	1808
728.875	2658
728.990	2351
729.105	2087
729.220	2681
729.335	1868
729.449	2318
729.564	2303
729.679	1873
729.794	1847
729.908	1683
730.023	2805
730.138	1427
730.253	1513
730.367	1377
730.482	1960
730.596	1408
730.711	2033
730.826	2351
730.940	2763
731.055	2293
731.169	1661
731.284	1941
731.398	1701
731.513	1950
731.627	1920
731.742	1865
731.856	2438
731.970	2885
732.085	2231
732.199	2963
732.313	4344
732.428	9256
732.542	27849
732.656	21512
732.771	3703
732.885	3234
732.999	2676
733.113	1995
733.227	2483
733.342	3203
733.456	1806
733.570	2688
733.684	2275
733.798	1964
733.912	1605
734.026	1417
734.140	1832
734.254	1890
734.368	2431
734.482	4515
734.596	2391
734.710	2021
734.824	1656
734.938	1133
735.052	2241
735.166	1780
735.280	2002
735.393	1777
735.507	1577
735.621	1994
735.735	3838
735.849	2609
735.962	1728
736.076	2485
736.190	2289
736.303	2526
736.417	2992
736.531	1864
736.644	1905
736.758	1283
736.872	2241
736.985	1653
737.099	1770
737.212	1690
737.326	1332
737.439	1484
737.553	2071
737.666	2084
737.780	2248
737.893	1304
738.007	1628
738.120	2034
738.233	2162
738.347	1126
738.460	939
738.573	1925
738.687	1293
738.800	1846
738.913	2176
739.026	2011
739.140	1716
739.253	1473
739.366	1208
739.479	1656
739.592	1848
739.705	1385
739.818	1644
739.932	1042
740.045	1716
740.158	1582
740.271	1279
740.384	1591
740.497	1907
740.610	2368
740.723	1647
740.836	1778
740.949	1752
741.062	2021
741.174	1556
741.287	1729
741.400	1538
741.513	1620
741.626	1567
741.739	1737
741.851	1854
741.964	2180
742.077	1590
742.189	1835
742.302	2027
742.415	1554
742.527	156
742.640	1286
742.753	1310
742.865	955
742.978	852
743.090	953
743.203	1151
743.316	1861
743.428	1151
743.541	1566
743.653	713
743.766	1711
743.878	1530
743.990	1604
744.103	1423
744.215	1835
744.327	1403
744.440	1381
744.552	2328
744.664	1839
744.777	1806
744.889	1190
745.001	1470
745.113	1275
745.226	809
745.338	1439
745.450	1221
745.562	1147
745.674	1223
745.786	973
745.898	1303
746.010	1067
746.122	1151
746.234	1812
746.347	1673
746.459	1283
746.570	1329
746.682	1155
746.794	1512
746.906	1174
747.018	1572
747.130	998
747.242	1502
747.354	1238
747.466	2288
747.577	1011
747.689	832
747.801	1159
747.913	1657
748.024	742
748.136	1853
748.248	1234
748.359	1545
748.471	588
748.583	1591
748.694	1669
748.806	1617
748.918	1218
749.029	1470
749.141	1016
749.252	1576
749.364	221
749.475	1898
749.587	1964
749.698	1373
749.809	930
749.921	1723
750.032	851
750.144	-151
750.255	1041
750.366	1069
750.478	892
750.589	1099
750.700	679
750.811	1160
750.923	1579
751.034	2304
751.145	3262
751.256	376
751.367	1175
751.479	916
751.590	849
751.701	1025
751.812	1003
751.923	1369
752.034	212
752.145	553
752.256	590
752.367	764
752.478	1130
752.589	928
752.700	764
752.811	669
752.922	1359
753.032	367
753.143	698
753.254	919
753.365	1342
753.476	1528
753.586	634
753.697	1242
753.808	1631
753.919	487
754.029	731
754.140	1191
754.251	237
754.361	-21
754.472	705
754.582	1029
754.693	879
754.804	1605
754.914	1055
755.025	1307
755.135	958
755.246	660
755.356	213
755.466	1270
755.577	855
755.687	525
755.798	613
755.908	1499
756.018	1227
756.129	1329
756.239	1291
756.349	1588
756.460	829
756.570	637
756.680	432
756.790	1255
756.900	1040
757.011	1453
757.121	996
757.231	1219
757.341	2082
757.451	1099
757.561	1069
757.671	898
757.781	1134
757.891	1187
758.001	1425
758.111	2029
758.221	1761
758.331	1265
758.441	1022
758.551	1947
758.661	1474
758.771	1700
758.880	1664
758.990	1999
759.100	1946
759.210	1421
759.320	1859
759.429	884
759.539	1473
759.649	1316
759.758	1691
759.868	1906
759.978	1658
760.087	1705
760.197	2259
760.307	2049
760.416	1733
760.526	2336
760.635	2584
760.745	1955
760.854	2611
760.964	2351
761.073	2717
761.182	1947
761.292	2261
761.401	1870
761.511	1824
761.620	2876
761.729	2576
761.839	2137
761.948	2728
762.057	2434
762.166	2387
762.276	2014
762.385	2950
762.494	2911
762.603	2817
762.712	3958
762.822	2804
762.931	3012
763.040	3437
763.149	3345
763.258	3879
763.367	4716
763.476	3802
763.585	4085
763.694	4740
763.803	4196
763.912	4935
764.021	4962
764.130	5426
764.238	5956
764.347	5970
764.456	6279
764.565	7056
764.674	6881
764.783	7534
764.891	8275
765.000	10237
765.109	11573
765.217	13311
765.326	15824
765.435	19603
765.543	24212
765.652	29943
765.761	38540
765.869	53859
765.978	79591
766.086	124106
766.195	207967
766.303	352930
766.412	427775
766.520	378324
766.629	360672
766.737	206334
766.846	120416
766.954	78860
767.062	57130
767.171	41881
767.279	32858
767.387	26208
767.496	21320
767.604	17892
767.712	15990
767.820	13852
767.928	12926
768.037	11703
768.145	11374
768.253	10855
768.361	11021
768.469	9960
768.577	9971
768.685	10875
768.793	11496
768.901	12801
769.009	14247
769.117	17589
769.225	23259
769.333	32686
769.441	49233
769.549	85575
769.657	163465
769.765	317330
769.873	368648
769.981	318692
770.088	166511
770.196	85042
770.304	51133
770.412	35551
770.519	26441
770.627	20987
770.735	16019
770.842	13498
770.950	12301
771.058	10588
771.165	9343
771.273	7850
771.380	7941
771.488	7395
771.595	5815
771.703	5347
771.810	6263
771.918	4588
772.025	5060
772.133	3823
772.240	4476
772.348	4533
772.455	3918
772.562	3712
772.670	3488
772.777	3710
772.884	3102
772.991	3244
773.099	2517
773.206	2347
773.313	2743
773.420	3109
773.528	2576
773.635	2281
773.742	2276
773.849	2348
773.956	1896
774.063	2026
774.170	2615
774.277	2475
774.384	2036
774.491	1808
774.598	2155
774.705	2483
774.812	2170
774.919	2358
775.026	1668
775.133	2120
775.239	1293
775.346	1506
775.453	2022
775.560	1211
775.667	1318
775.773	1472
775.880	2196
775.987	1394
776.093	1430
776.200	1230
776.307	1278
776.413	1306
776.520	1046
776.627	1395
776.733	1237
776.840	1003
776.946	1671
777.053	2199
777.159	1843
777.266	1043
777.372	2176
777.478	1882
777.585	1152
777.691	1032
777.798	1081
777.904	1352
778.010	2671
778.117	970
778.223	934
778.329	1068
778.435	1
778.542	1584
778.648	379
778.754	560
778.860	869
778.966	821
779.072	1134
779.178	539
779.284	1553
779.391	440
779.497	451
779.603	3144
779.708	3658
779.815	9371
779.920	32412
780.026	75832
780.132	14392
780.238	1702
780.344	1412
780.450	1773
780.556	1153
780.661	1067
780.767	1024
780.873	514
780.979	494
781.085	685
781.190	624
781.296	354
781.402	-267
781.507	536
781.613	483
781.719	274
781.824	663
781.930	995
782.035	1559
782.141	1142
782.246	791
782.352	1220
782.457	356
782.563	-188
782.668	433
782.773	797
782.879	1042
782.984	373
783.090	712
783.195	477
783.300	1078
783.405	1065
783.511	571
783.616	1606
783.721	823
783.826	108
783.932	-130
784.037	255
784.142	948
784.247	980
784.352	850
784.457	-101
784.562	551
784.667	299
784.772	999
784.877	-105
784.982	464
785.087	127
785.192	141
785.297	-476
785.402	254
785.507	459
785.611	1048
785.716	113
785.821	321
785.926	-602
786.031	-65
786.135	-75
786.240	-75
786.345	-94
786.450	571
786.554	142
786.659	-264
786.763	-821
786.868	362
786.973	143
787.077	-727
787.182	-434
787.286	86
787.391	40
787.495	7
787.600	-398
787.704	58
787.809	58
787.913	239
788.017	595
788.122	119
788.226	482
788.330	-621
788.435	34
788.539	740
788.643	-575
788.747	-747
788.852	213
788.956	317
789.060	64
789.164	315
789.268	135
789.372	921
789.476	-26
789.580	-218
789.684	-297
789.788	-288
789.892	-640
789.996	-569
790.100	235
790.204	-212
790.308	-127
790.412	-196
790.516	71
790.620	-367
790.724	-75
790.828	-365
790.931	-502
791.035	1204
791.139	781
791.242	-439
791.346	295
791.450	-263
791.554	-754
791.657	-436
791.761	865
791.864	-78
791.968	220
792.072	-455
792.175	174
792.279	-397
792.382	123
792.486	-493
792.589	-880
792.693	-406
792.796	-185
792.899	-339
793.003	-263
793.106	-669
793.209	-9
793.313	184
793.416	-444
793.519	-524
793.623	863
793.726	1111
793.829	-51
793.932	-616
794.035	-322
794.138	895
794.242	-152
794.345	715
794.448	842
794.551	4374
794.654	16786
794.757	39850
794.860	9039
794.963	906
795.066	-380
795.169	-72
795.272	-413
795.375	739
795.477	160
795.580	148
795.683	-727
795.786	-816
795.889	-1175
795.991	512
796.094	357
796.197	-600
796.300	193
796.402	-467
796.505	-830
796.608	-388
796.710	-109
796.813	-399
796.915	-197
797.018	-241
797.120	-721
797.223	-1135
797.326	752
797.428	-546
797.530	317
797.633	-82
797.735	-156
797.838	-466
797.940	88
798.042	-315
798.145	-763
798.247	-474
798.349	-1093
798.452	-810
798.554	73
798.656	-603
798.758	188
798.860	370
798.962	-1080
799.065	-734
799.167	-1431
799.269	257
799.371	-576
799.473	293
799.575	-823
799.677	-868
799.779	894
799.881	-675
799.983	468
800.085	-60
800.187	-134
800.289	-1150
800.390	-265
800.492	-209
800.594	252
800.696	-770
800.798	351
800.899	-497
801.001	-308
801.103	-834
801.205	-675
801.306	-709
801.408	-1469
801.509	-928
801.611	-64
801.713	-777
801.814	-626
801.916	-573
802.017	-503
802.119	-617
802.220	-888
802.322	-1425
802.423	613
802.525	-651
802.626	-287
802.727	-44
802.829	222
802.930	-2112
803.031	118
803.133	-936
803.234	-396
803.335	-168
803.436	-664
803.538	-664
803.639	-1423
803.740	-82
803.841	-773
803.942	101
804.043	-192
804.144	-792
804.245	-920
804.346	-356
804.447	-887
804.548	-503
804.649	252
804.750	-1186
804.851	-580
804.952	-990
805.053	-319
805.154	-682
805.255	194
805.355	-1187
805.456	-1002
805.557	-109
805.658	-1558
805.758	-311
805.859	-877
805.960	-1259
806.061	-527
806.161	-945
806.262	-398
806.362	-906
806.463	-661
806.564	-733
806.664	-527
806.765	-350
806.865	-824
806.966	136
807.066	-715
807.166	-265
807.267	-33
807.367	-621
807.468	-312
807.568	-987
807.668	-876
807.769	-656
807.869	-989
807.969	-1420
808.069	44
808.170	-610
808.270	-1006
808.370	-777
808.470	-207
808.570	-774
808.670	-376
808.770	-748
808.870	-1103
808.970	-976
809.070	-1145
809.170	-1528
809.271	-521
809.370	-2
809.470	-787
809.570	-667
809.670	-1225
809.770	-759
809.870	-323
809.970	-299
810.070	-374
810.169	-241
810.269	-1870
810.369	-138
810.469	-1032
810.568	-1308
810.668	-367
810.768	-753
810.867	-265
810.967	-1010
811.066	-595
811.166	-489
811.265	-451
811.365	-1392
811.464	-865
811.564	-288
811.663	-423
811.763	-1517
811.862	-317
811.962	147
812.061	-1440
812.160	-523
812.260	-279
812.359	473
812.458	-97
812.557	2087
812.657	3949
812.756	767
812.855	-453
812.954	-528
813.053	-787
813.153	-470
813.252	-1144
813.351	-591
813.450	-591
813.549	-846
813.648	216
813.747	-1114
813.846	-533
813.945	-539
814.044	-385
814.143	-855
814.242	-427
814.341	-971
814.439	-528
814.538	342
814.637	-842
814.736	-941
814.835	-1194
814.933	-913
815.032	-540
815.131	-1044
815.229	-794
815.328	-154
815.427	224
815.525	-23
815.624	-733
815.722	-71
815.821	-303
815.919	64
816.018	145
816.116	-176
816.215	-753
816.313	-77
816.412	-484
816.510	-271
816.609	277
816.707	450
816.805	-149
816.904	-1114
817.002	-240
817.100	1534
817.198	513
817.296	657
817.395	89
817.493	1125
817.591	1360
817.689	2826
817.787	3561
817.885	5930
817.983	14100
818.081	29934
818.179	72580
818.277	176850
818.375	181701
818.473	50877
818.571	15510
818.669	8767
818.767	7788
818.865	7897
818.963	8854
819.061	15046
819.158	27040
819.256	57650
819.354	128551
819.452	277354
819.549	213509
819.647	63305
819.745	22141
819.842	12782
819.940	7880
820.038	5479
820.135	4274
820.233	3998
820.330	2632
820.428	1939
820.525	1775
820.623	1398
820.720	1256
820.818	949
820.915	345
821.012	368
821.110	-293
821.207	695
821.304	41
821.402	181
821.499	577
821.596	779
821.693	131
821.791	795
821.888	-219
821.985	506
822.082	-193
822.179	-165
822.276	-162
822.373	323
822.470	-731
822.567	294
822.664	-351
822.761	-77
822.858	-35
822.955	-571
823.052	-615
823.149	-3
823.246	-402
823.343	-85
823.440	-273
823.536	-1015
823.633	-394
823.730	-653
823.827	-12
823.923	-553
824.020	626
824.117	-372
824.213	-774
824.310	145
824.407	-1062
824.503	-383
824.600	-54
824.696	-999
824.793	-390
824.889	-1453
824.986	-829
825.082	-1079
825.179	48
825.275	-703
825.371	-745
825.468	-487
825.564	-904
825.660	-670
825.757	-515
825.853	-299
825.949	-1257
826.045	264
826.142	-1617
826.238	-525
826.334	-129
826.430	-1096
826.526	-482
826.622	-1072
826.718	-919
826.814	-1388
826.910	1041
827.006	-376
827.102	-1720
827.198	-462
827.294	-849
827.390	-775
827.486	-200
827.582	-1862
827.678	-1155
827.774	118
827.869	-1342
827.965	162
828.061	-1117
828.157	-1334
828.252	-1170
828.348	-1647
828.444	-477
828.539	-810
828.635	-1029
828.731	-986
828.826	-823
828.922	-47
829.017	-981
829.113	-924
829.208	-986
829.304	-906
829.399	-549
829.495	-610
829.590	-186
829.685	-1064
829.781	-774
829.876	-1085
829.971	-1046
830.066	-676
830.162	-1165
830.257	-625
830.352	-270
830.447	-495
830.543	-1577
830.638	-497
830.733	74
830.828	-876
830.923	-531
831.018	-1171
831.113	-369
831.208	-1446
831.303	-1031
831.398	-1626
831.493	-1187
831.588	-861
831.683	-1308
831.778	-886
831.873	-1014
831.967	-558
832.062	-962
832.157	-1191
832.252	-252
832.346	-898
832.441	-612
832.536	-949
832.631	-36
832.725	42
832.820	-1661
832.914	-1010
833.009	-1638
833.104	-840
833.198	-209
833.293	-1488
833.387	-1028
833.482	-608
833.576	-1435
833.670	-747
833.765	-748
833.859	-1004
833.954	-945
834.048	-867
834.142	-796
834.237	-1174
834.331	-1020
834.425	-1035
834.519	-1867
834.613	-306
834.708	-1880
834.802	-461
834.896	-994
834.990	-645
835.084	-778
835.178	-1164
835.272	-1265
835.366	-1307
835.460	-682
835.554	-298
835.648	-655
835.742	-1224
835.836	-952
835.930	-1258
836.024	-860
836.117	-178
836.211	-1618
836.305	-576
836.399	-661
836.493	-1482
836.586	-235
836.680	-1623
836.774	-933
836.867	-365
836.961	-1544
837.055	-1148
837.148	-1335
837.242	-459
837.335	-1016
837.429	-1164
837.522	-638
837.616	-1450
837.709	-160
837.803	-1055
837.896	-816
837.989	-452
838.083	-1008
838.176	-451
838.269	-1150
838.363	-679
838.456	-1551
838.549	-633
838.642	-1099
838.735	677
838.829	-119
838.922	-437
839.015	-959
839.108	-1626
839.201	-1432
839.294	-414
839.387	-554
839.480	-1470
839.573	-715
839.666	-847
839.759	-674
839.852	-1150
839.945	-276
840.038	-629
840.131	-1227
840.223	-1178
840.316	-464
840.409	-1278
840.502	-1612
840.594	-132
840.687	-1442
840.780	-309
840.873	-1094
840.965	-1263
841.058	-1222
841.150	-546
841.243	-345
841.336	-476
841.428	-1044
841.521	-741
841.613	-1487
841.706	-1304
841.798	-602
841.890	-504
841.983	-1799
842.075	-1264
842.167	-1501
842.260	-699
842.352	-625
842.444	-618
842.537	-486
842.629	187
842.721	-66
842.813	-1134
842.905	-1556
842.997	-314
843.090	-599
843.182	-1097
843.274	-978
843.366	793
843.458	2514
843.550	2553
843.642	-431
843.734	-1161
843.826	-777
843.918	40
844.009	71
844.101	-683
844.193	-1325
844.285	-1357
844.377	-1007
844.469	-762
844.560	-723
844.652	-1345
844.744	-598
844.835	-1319
844.927	-1325
845.019	-1281
845.110	-717
845.202	-1370
845.293	-760
845.385	-697
845.476	-697
845.568	136
845.659	-788
845.751	-660
845.842	-1260
845.934	-1734
846.025	-1692
846.116	-181
846.208	-513
846.299	-1161
846.390	-1876
846.482	-422
846.573	-618
846.664	-877
846.755	-1266
846.846	-103
846.937	-1416
847.029	-1442
847.120	-1326
847.211	-1776
847.302	-333
847.393	-1867
847.484	-893
847.575	-1085
847.666	-1111
847.757	-1196
847.847	-1634
847.938	-205
848.029	-1278
848.120	-1254
848.211	-1285
848.302	-1136
848.392	-973
848.483	176
848.574	-1157
848.664	-632
848.755	-114
848.846	-1132
848.936	-1213
849.027	-543
849.118	-1327
849.208	-1585
849.299	-995
849.389	-290
849.480	-419
849.570	259
849.661	2122
849.751	4338
849.841	1901
849.932	-1449
850.022	-778
850.112	-525
850.203	-150
850.293	-1477
850.383	-1099
850.474	-1632
850.564	-1345
850.654	-1050
850.744	-1352
850.834	-1322
850.924	-1587
851.014	-870
851.104	-2077
851.194	-1119
851.284	-1454
851.374	-710
851.464	-942
851.554	-1109
851.644	-1324
851.734	-792
851.824	-160
851.914	-224
852.004	1884
852.094	1625
852.183	-759
852.273	-428
852.363	-1012
852.452	-1011
852.542	-1240
852.632	-886
852.721	-960
852.811	-1648
852.901	-555
852.990	-1429
853.080	-1193
853.169	-771
853.259	-838
853.348	-1150
853.438	-1875
853.527	-644
853.617	-558
853.706	993
853.795	1085
853.885	4703
853.974	11602
854.063	19608
854.152	40081
854.242	17679
854.331	945
854.420	-207
854.509	-812
854.598	-601
854.687	-1179
854.777	-1275
854.866	-1595
854.955	-756
855.044	-1203
855.133	-1367
855.222	-1777
855.311	-976
855.400	-254
855.488	-825
855.577	-1554
855.666	-1131
855.755	-955
855.844	-526
855.933	-755
856.021	-1056
856.110	-644
856.199	-1272
856.288	-1139
856.376	-1541
856.465	-1549
856.554	-683
856.642	-1584
856.731	-826
856.819	-906
856.908	-1036
856.996	-1268
857.085	-673
857.173	-1717
857.262	-1766
857.350	-971
857.438	-173
857.527	-858
857.615	-1226
857.703	-770
857.792	-1195
857.880	-822
857.968	-1450
858.056	-1350
858.145	-1190
858.233	-1201
858.321	-1296
858.409	-585
858.497	-1267
858.585	-835
858.673	-914
858.761	-1155
858.849	-1091
858.937	-1156
859.025	-1012
859.113	-1061
859.201	-1345
859.289	-972
859.377	-1327
859.465	-1238
859.552	-814
859.640	-1407
859.728	-610
859.816	-1266
859.903	-1151
859.991	-1877
860.079	-923
860.166	-1145
860.254	-785
860.342	-1253
860.429	-1141
860.517	-1857
860.604	-918
860.692	-40
860.779	-1181
860.867	-1422
860.954	-1152
861.042	-352
861.129	-1608
861.216	-1802
861.304	-1589
861.391	-1565
861.478	-951
861.565	-1234
861.653	-407
861.740	-1762
861.827	-2217
861.914	-963
862.001	-1160
862.089	-1196
862.176	-963
862.263	-360
862.350	-1083
862.437	-748
862.524	-1098
862.611	-871
862.698	-1597
862.785	-280
862.871	-1011
862.958	-1379
863.045	-853
863.132	-1192
863.219	-1636
863.306	-1479
863.392	-548
863.479	-795
863.566	-1107
863.652	-1629
863.739	-954
863.826	-1006
863.912	-1563
863.999	-2223
864.086	-923
864.172	-1546
864.259	-1168
864.345	-827
864.432	-1259
864.518	-1330
864.604	-1378
864.691	-1420
864.777	-397
864.863	-794
864.950	-402
865.036	-2091
865.122	-772
865.209	-376
865.295	-1105
865.381	-963
865.467	-621
865.553	-421
865.639	-1382
865.726	161
865.812	1607
865.898	4661
865.984	8010
866.070	14315
866.156	20718
866.242	4618
866.328	-228
866.414	-320
866.499	-380
866.585	-1197
866.671	-558
866.757	-1176
866.843	-419
866.928	-926
867.014	-777
867.100	-162
867.186	-1221
867.271	-833
867.357	-436
867.442	-542
867.528	-548
867.614	-1592
867.699	-685
867.785	-715
867.870	-1732
867.956	-782
868.041	-666
868.127	-1170
868.212	-812
868.297	-396
868.383	-517
868.468	-483
868.553	-351
868.639	166
868.724	-409
868.809	202
868.894	-696
868.979	-837
869.065	-424
869.150	-954
869.235	-1207
869.320	-1349
869.405	-306
869.490	-1350
869.575	-906
869.660	-765
869.745	-955
869.830	-1547
869.915	-456
870.000	-1676
870.085	-713
870.169	-834
870.254	-212
870.339	-1347
870.424	-1442
870.509	-973
870.593	-769
870.678	-1553
870.763	-1305
870.847	-1674
870.932	-1027
871.016	-574
871.101	-909
871.186	-1615
871.270	-807
871.355	-883
871.439	-1020
871.523	-891
871.608	-572
871.692	-1087
871.777	-928
871.861	-1517
871.945	-1465
872.030	-1140
872.114	-729
872.198	-1158
872.282	-1601
872.367	-1153
872.451	-1403
872.535	-639
872.619	-967
872.703	-1049
872.787	-1389
872.871	-1621
872.955	-736
873.039	-1312
873.123	-892
873.207	-704
873.291	-700
873.375	-1402
873.459	-852
873.543	-1537
873.627	-1268
873.711	-667
873.794	-955
873.878	-1496
873.962	-2091
874.045	-1123
874.129	-566
874.137	-646
874.213	-1452
874.245	-1215
874.296	-831
874.352	-808
874.380	-792
874.460	-1106
874.464	-1121
874.547	-1460
874.568	-1330
874.631	-929
874.676	-724
874.714	-545
874.784	-939
874.798	-1030
874.881	-484
874.892	-598
874.965	-1330
874.999	-1217
875.048	-1062
875.107	-1282
875.131	-1387
875.215	-1297
875.215	-1297
875.298	-1464
875.323	-1402
875.381	-1266
875.430	-1139
875.465	-1022
875.538	-731
875.548	-706
875.631	-731
875.646	-766
875.714	-863
875.753	-1124
875.798	-1420
875.861	-761
875.881	-567
875.964	-20
875.968	-60
876.047	-758
876.076	-559
876.130	-133
876.183	-247
876.213	-331
876.291	-382
876.296	-391
876.379	-1477
876.398	-1242
876.462	-364
876.506	-498
876.545	-643
876.613	-427
876.628	-380
876.711	-1179
876.721	-1055
876.794	-1
876.828	-298
876.877	-809
876.935	-709
876.960	-640
877.043	-568
877.043	-564
877.125	716
877.150	520
877.208	4
877.258	119
877.291	211
877.365	-252
877.374	-300
877.456	208
877.472	167
877.539	-113
877.579	-220
877.622	-177
877.687	250
877.704	309
877.787	-42
877.794	-28
877.869	260
877.901	17
877.952	-434
878.008	152
878.034	510
878.115	5
878.117	-10
878.199	-367
878.222	-370
878.282	-11
878.329	437
878.364	608
878.437	256
878.447	201
878.529	-315
878.544	-304
878.611	-87
878.651	-239
878.694	-237
878.758	433
878.776	506
878.858	22
878.865	-23
878.941	-235
878.972	4
879.023	411
879.078	185
879.105	125
879.185	391
879.187	396
879.269	368
879.292	296
879.351	136
879.399	38
879.433	-7
879.506	536
879.516	632
879.598	725
879.613	716
879.680	438
879.720	391
879.762	451
879.827	380
879.844	314
879.926	151
879.933	149
880.007	585
880.040	723
880.089	778
880.147	751
880.171	810
880.253	1463
880.254	1457
880.335	1218
880.360	1484
880.417	2657
880.467	3203
880.499	3651
880.574	5309
880.580	5252
880.662	2646
880.680	2155
880.744	1095
880.787	721
880.825	778
880.893	702
880.907	669
880.989	730
881.000	702
881.070	759
881.106	790
881.152	778
881.213	823
881.233	793
881.315	218
881.319	231
881.396	747
881.426	491
881.478	442
881.532	1355
881.559	1568
881.639	1207
881.641	1205
881.722	1084
881.745	958
881.803	1034
881.852	1155
881.885	1072
881.958	1138
881.966	1143
882.047	1108
882.064	1027
882.129	1299
882.171	1620
882.210	1911
882.277	1910
882.291	1761
882.372	1506
882.383	1484
882.454	1492
882.489	1063
882.535	945
882.596	1166
882.616	1162
882.697	1055
882.702	1058
882.778	1388
882.808	1386
882.859	1165
882.914	905
882.940	958
883.020	1224
883.021	1236
883.102	1059
883.127	1357
883.183	1895
883.233	1651
883.264	1287
883.339	815
883.345	883
883.426	1235
883.445	1418
883.507	1296
883.551	1159
883.587	1423
883.657	1857
883.668	1837
883.749	1437
883.763	1438
883.830	1550
883.869	1290
883.910	1125
883.975	1300
883.991	1380
884.072	1363
884.081	1356
884.152	1456
884.187	1666
884.233	1711
884.292	1373
884.314	1229
884.394	1117
884.398	1067
884.475	773
884.504	845
884.555	1173
884.610	1460
884.636	1494
884.716	1737
884.716	1750
884.797	1764
884.821	1817
884.877	1787
884.927	1703
884.958	1791
885.033	2073
885.038	2055
885.118	1469
885.139	1287
885.199	1482
885.244	1679
885.279	1812
885.350	2134
885.359	2164
885.439	2295
885.456	2253
885.520	1869
885.561	1698
885.600	1647
885.667	1485
885.680	1558
885.760	2131
885.773	2177
885.840	1741
885.878	1439
885.920	1564
885.984	1904
886.000	2002
886.080	2306
886.089	2333
886.160	2113
886.195	2002
886.240	2194
886.300	2251
886.320	2238
886.400	2358
886.406	2337
886.480	1999
886.511	1992
886.560	2388
886.616	2623
886.640	2661
886.720	2642
886.722	2631
886.800	2181
886.827	1965
886.879	2252
886.932	2594
886.959	2668
887.038	2797
887.039	2810
887.119	2518
887.143	2519
887.198	2826
887.248	2843
887.278	2747
887.354	2497
887.358	2514
887.437	2786
887.459	2794
887.517	2517
887.564	2297
887.596	2547
887.669	3026
887.676	2978
887.755	2281
887.774	2089
887.835	2583
887.880	2916
887.914	3022
887.985	3154
887.994	3234
888.073	3934
888.090	4037
888.153	3509
888.195	3137
888.232	2854
888.300	2329
888.311	2369
888.391	2484
888.405	2519
888.470	2777
888.510	2794
888.549	2784
888.615	2895
888.628	3067
888.708	3929
888.720	4054
888.787	3506
888.825	3159
888.866	3290
888.930	3449
888.945	3372
889.024	2843
889.035	2767
889.103	3235
889.140	3438
889.182	3503
889.245	3569
889.261	3553
889.340	3404
889.349	3374
889.419	3727
889.454	3860
889.498	3543
889.559	3081
889.577	3203
889.656	3689
889.664	3722
889.735	3907
889.768	3975
889.814	4096
889.873	4222
889.978	3844
890.083	3497
890.187	3700
890.292	3551
890.397	3292
890.501	3339
890.606	3720
890.710	3248
890.815	3801
890.919	2559
891.024	3077
891.128	2990
891.233	3063
891.337	3969
891.442	3590
891.546	3417
891.650	3248
891.755	3013
891.859	4885
891.963	3734
892.068	3254
892.172	3431
892.276	3242
892.380	2855
892.484	3041
892.589	2860
892.693	3692
892.797	2732
892.901	2652
893.005	2399
893.109	2917
893.213	3004
893.317	2776
893.421	3494
893.525	3073
893.629	2611
893.733	4251
893.837	2659
893.941	4060
894.045	4326
894.148	6537
894.252	18083
894.356	10820
894.460	4571
894.564	3325
894.667	3556
894.771	3325
894.875	2421
894.978	3048
895.082	3252
895.186	3365
895.289	2324
895.393	2650
895.496	3281
895.600	3014
895.703	2428
895.807	2682
895.910	2862
896.014	3412
896.117	2239
896.221	2622
896.324	3026
896.427	3331
896.531	2444
896.634	2511
896.737	3061
896.840	2515
896.944	2321
897.047	2439
897.150	2717
897.253	3143
897.356	3086
897.460	2841
897.563	3049
897.666	2363
897.769	3077
897.872	2749
897.975	2571
898.078	3158
898.181	3117
898.284	2525
898.387	3288
898.490	3199
898.593	2679
898.695	2447
898.798	2027
898.901	3238
899.004	1907
899.107	2848
899.209	2957
899.312	2797
899.415	2869
899.518	2909
899.620	2428
899.723	2587
899.826	4199
899.928	3702
900.031	2743
900.133	2837
900.236	2413
900.338	2072
900.441	3419
900.543	1579
900.646	2615
900.748	2517
900.851	2187
900.953	2292
901.055	3099
901.158	2020
901.260	2821
901.362	2840
901.465	2028
901.567	2883
901.669	2710
901.771	1811
901.873	2516
901.976	1945
902.078	2509
902.180	2083
902.282	2439
902.384	2155
902.486	2676
902.588	2216
902.690	3511
902.792	3117
902.894	2762
902.996	2685
903.098	2497
903.200	3046
903.302	3021
903.404	2826
903.505	2140
903.607	2722
903.709	2033
903.811	2471
903.913	2415
904.014	2232
904.116	2610
904.218	2476
904.319	3061
904.421	3276
904.523	3117
904.624	2263
904.726	2796
904.827	2290
904.929	1481
905.030	2598
905.132	2319
905.233	2711
905.335	2157
905.436	1837
905.537	2017
905.639	3090
905.740	2763
905.841	3268
905.943	2338
906.044	2564
906.145	1984
906.247	1960
906.348	2540
906.449	2686
906.550	3084
906.651	2717
906.752	3144
906.854	2939
906.955	3149
907.056	1332
907.157	2149
907.258	2521
907.359	1164
907.460	2315
907.561	984
907.662	2665
907.762	2221
907.863	2500
907.964	3361
908.065	2452
908.166	1877
908.267	2728
908.367	2201
908.468	1733
908.569	2429
908.670	2393
908.770	2713
908.871	2916
908.971	2959
909.072	2630
909.173	2127
909.273	1871
909.374	2639
909.474	2775
909.575	3071
909.675	2135
909.776	2098
909.876	2356
909.977	2315
910.077	2803
910.177	2019
910.278	2918
910.378	2148
910.478	2476
910.579	2994
910.679	1817
910.779	2252
910.879	2213
910.980	2431
911.080	2486
911.180	2269
911.280	2752
911.380	1720
911.480	2279
911.580	1824
911.680	2187
911.780	2895
911.880	2487
911.980	2092
912.080	2192
912.180	2491
912.280	2268
912.380	1670
912.480	2362
912.580	2562
912.679	2596
912.779	2315
912.879	1922
912.979	2715
913.078	2578
913.178	2003
913.278	1697
913.377	1821
913.477	1284
913.577	2385
913.676	2683
913.776	2413
913.875	2078
913.975	2593
914.074	2726
914.174	1904
914.273	1542
914.373	2573
914.472	2491
914.572	1815
914.671	1506
914.770	2185
914.870	2269
914.969	1038
915.068	1999
915.167	2644
915.267	2494
915.366	2150
915.465	1479
915.564	2032
915.663	2268
915.763	993
915.862	2097
915.961	2726
916.060	1892
916.159	2357
916.258	1426
916.357	2613
916.456	2290
916.555	1660
916.654	2654
916.752	1450
916.851	1626
916.950	1969
917.049	1471
917.148	2309
917.247	2371
917.345	2052
917.444	2235
917.543	2412
917.642	1746
917.740	2177
917.839	1779
917.937	2397
918.036	2134
918.135	2465
918.233	1548
918.332	1647
918.430	1789
918.529	1792
918.627	1892
918.726	1811
918.824	2520
918.923	1995
919.021	1741
919.119	2060
919.218	1972
919.316	1846
919.414	2095
919.512	2136
919.611	2347
919.709	1840
919.807	2305
919.905	1919
920.003	1784
920.102	2802
920.200	2344
920.298	2011
920.396	1678
920.494	2524
920.592	1309
920.690	2285
920.788	1906
920.886	2573
920.984	2295
921.082	2084
921.180	2273
921.277	2385
921.375	2588
921.473	3426
921.571	2584
921.669	2423
921.766	2292
921.864	2678
921.962	2812
922.060	3473
922.157	2581
922.255	2510
922.352	2782
922.450	3480
922.548	2589
922.645	3035
922.743	2953
922.840	4394
922.938	5179
923.035	4991
923.133	4713
923.230	4849
923.327	5041
923.425	5277
923.522	4875
923.619	4290
923.717	3600
923.814	4712
923.911	3819
924.008	4023
924.106	4354
924.203	4106
924.300	4252
924.397	3603
924.494	4772
924.591	4680
924.688	3692
924.786	4346
924.883	4382
924.979	4370
925.077	4389
925.173	4705
925.270	4766
925.367	3853
925.464	4471
925.561	4509
925.658	4261
925.755	4332
925.852	4626
925.948	4042
926.045	4248
926.142	3746
926.239	4377
926.335	3470
926.432	4620
926.529	3700
926.625	4521
926.722	3827
926.818	3226
926.915	4275
927.011	3909
927.108	3815
927.204	4110
927.301	4316
927.397	3751
927.494	4713
927.590	3471
927.687	3754
927.783	4323
927.879	3924
927.976	3022
928.072	3286
928.168	3969
928.264	3417
928.361	3368
928.457	4197
928.553	3583
928.649	3512
928.745	4470
928.841	3440
928.937	3273
929.033	3815
929.129	4321
929.225	3842
929.321	3732
929.417	3022
929.513	4747
929.609	3448
929.705	3042
929.801	3438
929.897	3505
929.993	2752
930.089	2913
930.184	2102
930.280	4822
930.376	2848
930.471	3773
930.567	2603
930.663	3021
930.758	3089
930.854	2972
930.950	2776
931.045	2768
931.141	3370
931.236	4272
931.332	3230
931.427	3264
931.523	4126
931.618	3290
931.714	2711
931.809	3055
931.905	3150
932.000	2498
932.095	2947
932.191	2544
932.286	3378
932.381	2409
932.476	2792
932.572	2824
932.667	3022
932.762	2598
932.857	2487
932.952	2358
933.047	3040
933.142	2876
933.237	2333
933.332	3161
933.427	3095
933.522	3285
933.617	2971
933.712	3327
933.807	2726
933.902	3196
933.997	3575
934.092	2558
934.187	2563
934.282	3207
934.376	3521
934.471	2771
934.566	2335
934.661	2667
934.755	3254
934.850	2987
934.945	3286
935.039	2145
935.134	2951
935.228	3178
935.323	4078
935.417	2608
935.512	2940
935.606	2379
935.701	2785
935.795	3877
935.890	2452
935.984	3142
936.079	1793
936.173	2699
936.267	1602
936.362	2547
936.456	2950
936.550	2867
936.644	3033
936.738	2459
936.833	3088
936.927	3293
937.021	2996
937.115	2270
937.209	2079
937.303	3727
937.397	1972
937.491	2650
937.585	2705
937.679	2534
937.773	1842
937.867	1594
937.961	1532
938.055	2976
938.149	2751
938.243	2554
938.337	1429
938.430	1775
938.524	2828
938.618	2018
938.712	2011
938.805	2016
938.899	2538
938.993	2149
939.086	2510
939.180	1301
939.274	1863
939.367	2452
939.461	2027
939.554	2344
939.648	1819
939.741	2029
939.835	2101
939.928	2868
940.022	2239
940.115	1887
940.208	2106
940.302	3681
940.395	1856
940.488	1829
940.582	2619
940.675	1900
940.768	1231
940.861	2351
940.954	2503
941.048	1963
941.141	1609
941.234	1874
941.327	2183
941.420	2973
941.513	2561
941.606	1686
941.699	1844
941.792	2111
941.885	2164
941.978	2444
942.071	1225
942.164	2261
942.257	1255
942.349	1889
942.442	2122
942.535	1710
942.628	1127
942.721	2321
942.813	1143
942.906	1801
942.999	2782
943.091	1357
943.184	2263
943.277	2106
943.369	1195
943.462	1233
943.554	2424
943.647	1424
943.739	2768
943.832	1749
943.924	1423
944.017	1319
944.109	1613
944.201	1862
944.294	2286
944.386	1953
944.478	1550
944.571	2240
944.663	1665
944.755	2326
944.847	2604
944.940	1735
945.032	1456
945.124	1143
945.216	1995
945.308	1695
945.400	1999
945.492	1545
945.584	1265
945.676	2028
945.768	1654
945.860	1518
945.952	1912
946.044	1890
946.136	1713
946.228	1658
946.320	690
946.412	2717
946.503	2013
946.595	3149
946.687	1065
946.779	2319
946.870	1149
946.962	1507
947.054	1747
947.145	2220
947.237	1375
947.329	1190
947.420	1795
947.512	1489
947.603	1147
947.695	2086
947.786	1524
947.878	1968
947.969	1211
948.061	1689
948.152	1534
948.243	1043
948.335	981
948.426	1333
948.517	1362
948.609	1136
948.700	819
948.791	1143
948.882	1953
948.973	1615
949.065	1173
949.156	1726
949.247	1117
949.338	1866
949.429	1004
949.520	1103
949.611	962
949.702	1256
949.793	1372
949.884	1106
949.975	1262
950.066	1068
950.157	1085
950.247	1039
950.338	1695
950.429	546
950.520	2044
950.611	1372
950.701	1445
950.792	1390
950.883	2258
950.973	1919
951.064	1285
951.155	1620
951.245	983
951.336	1778
951.427	1653
951.517	2669
951.608	2095
951.698	1449
951.788	1170
951.879	471
951.969	833
952.060	1157
952.150	542
952.240	1386
952.331	756
952.421	1182
952.511	1062
952.602	1412
952.692	776
952.782	1751
952.872	1437
952.962	1561
953.052	978
953.143	1193
953.233	1747
953.323	1374
953.413	1508
953.503	1301
953.593	1530
953.683	1641
953.773	1248
953.863	1473
953.953	777
954.042	856
954.132	1438
954.222	1864
954.312	1224
954.402	1479
954.492	1469
954.581	2151
954.671	1291
954.761	940
954.850	732
954.940	420
955.030	1386
955.119	1339
955.209	1609
955.298	1029
955.388	1932
955.477	1697
955.567	967
955.656	1844
955.746	1368
955.835	1690
955.925	957
956.014	1767
956.103	1388
956.193	2648
956.282	2025
956.371	1818
956.461	794
956.550	1516
956.639	1529
956.728	1396
956.817	1956
956.906	842
956.995	2161
957.085	1492
957.174	1998
957.263	1576
957.352	1486
957.441	1341
957.530	1341
957.619	1957
957.708	924
957.796	1682
957.885	1422
957.974	1044
958.063	2363
958.152	1044
958.241	1457
958.329	1775
958.418	1359
958.507	940
958.596	2376
958.684	1695
958.773	2485
958.861	2108
958.950	1366
959.039	2087
959.127	1667
959.216	2890
959.304	2199
959.393	2378
959.481	2478
959.570	3214
959.658	2364
959.746	2208
959.835	2418
959.923	2845
960.011	2114
960.100	2613
960.188	2520
960.276	2147
960.365	1796
960.453	2022
960.541	1446
960.629	1559
960.717	1674
960.805	1323
960.893	1244
960.981	1195
961.069	2578
961.158	2157
961.245	2403
961.333	1606
961.421	1023
961.509	962
961.597	1501
961.685	1365
961.773	999
961.861	1080
961.949	1471
962.036	846
962.124	1402
962.212	734
962.299	640
962.387	349
962.475	1380
962.562	298
962.650	1879
962.738	1082
962.825	1150
962.913	1410
963.000	1554
963.088	1796
963.175	1125
963.263	1331
963.350	1237
963.438	524
963.525	1536
963.612	2025
963.700	3958
963.787	6478
963.874	2749
963.962	1258
964.049	1115
964.136	1510
964.223	-163
964.310	1280
964.398	333
964.485	685
964.572	1729
964.659	1455
964.746	1559
964.833	874
964.920	573
965.007	1311
965.094	1064
965.181	718
965.268	1352
965.355	1166
965.441	626
965.528	321
965.615	519
965.702	463
965.789	905
965.875	707
965.962	1128
966.049	1054
966.136	958
966.222	438
966.309	1606
966.395	181
966.482	700
966.569	677
966.655	1069
966.742	146
966.828	1213
966.915	887
967.001	9
967.087	504
967.174	710
967.260	793
967.347	1109
967.433	2522
967.519	3046
967.605	1598
967.692	725
967.778	851
967.864	504
967.950	458
968.036	438
968.123	1867
968.209	965
968.295	702
968.381	1559
968.467	192
968.553	-11
968.639	1663
968.725	579
968.811	591
968.897	1596
968.983	434
969.069	514
969.154	1033
969.240	696
969.326	543
969.412	590
969.497	630
969.583	956
969.669	288
969.755	35
969.840	276
969.926	1104
970.012	290
970.097	1378
970.183	879
970.268	911
970.354	280
970.439	1362
970.525	3031
970.610	1108
970.696	1405
970.781	712
970.866	402
970.952	1016
971.037	-90
971.122	93
971.208	1096
971.293	-156
971.378	469
971.463	-128
971.549	449
971.634	128
971.719	727
971.804	1041
971.889	1216
971.974	229
972.059	172
972.144	1142
972.229	59
972.314	174
972.399	577
972.484	-91
972.569	910
972.654	236
972.739	1611
972.824	88
972.908	413
972.993	-142
973.078	-97
973.163	647
973.247	1065
973.332	-613
973.417	1204
973.501	-466
973.586	882
973.671	709
973.755	603
973.840	351
973.924	590
974.009	933
974.093	761
974.178	1975
974.262	1566
974.346	-3
974.431	271
974.515	1042
974.600	777
974.684	443
974.768	578
974.852	516
974.937	668
975.021	1577
975.105	796
975.189	11
975.273	282
975.358	626
975.442	-54
975.526	772
975.610	-426
975.694	-508
975.778	1218
975.862	141
975.946	-813
976.030	1212
976.114	526
976.198	773
976.281	409
976.365	837
976.449	491
976.533	187
976.617	129
976.700	644
976.784	-80
976.868	378
976.951	107
977.035	202
977.119	444
977.202	657
977.286	198
977.369	533
977.453	781
977.536	-685
977.620	-239
977.703	1200
977.787	-554
977.870	389
977.953	1554
978.037	261
978.120	414
978.203	348
978.287	239
978.370	549
978.453	921
978.536	460
978.620	1000
978.703	536
978.786	494
978.869	-655
978.952	137
979.035	1491
979.118	463
979.201	-36
979.284	269
979.367	506
979.450	911
979.533	30
979.616	22
979.699	-149
979.782	-83
979.865	454
979.948	-324
980.030	365
980.113	913
980.196	98
980.279	372
980.361	-36
980.444	570
980.526	14
980.609	673
980.692	-28
980.774	604
980.857	-20
980.939	155
981.022	144
981.104	507
981.187	172
981.269	786
981.352	258
981.434	271
981.516	27
981.599	380
981.681	495
981.763	622
981.846	475
981.928	-80
982.010	237
982.092	62
982.174	688
982.256	101
982.339	147
982.421	202
982.503	435
982.585	-645
982.667	590
982.749	-280
982.831	33
982.913	-712
982.995	808
983.077	-133
983.158	950
983.240	-504
983.322	1034
983.404	151
983.486	-209
983.568	1154
983.649	74
983.731	636
983.813	-200
983.894	162
983.976	-361
984.058	215
984.139	-4
984.221	399
984.302	153
984.384	313
984.465	-345
984.547	278
984.628	399
984.710	1019
984.791	227
984.872	121
984.954	969
985.035	597
985.116	-886
985.198	-194
985.279	810
985.360	109
985.441	-860
985.522	436
985.604	341
985.685	-1139
985.766	106
985.847	844
985.928	137
986.009	191
986.090	-451
986.171	312
986.252	-395
986.333	372
986.414	-11
986.495	73
986.576	352
986.656	563
986.737	679
986.818	605
986.899	370
986.980	524
987.060	1236
987.141	322
987.222	-55
987.302	473
987.383	121
987.464	856
987.544	567
987.625	-900
987.705	1231
987.786	794
987.866	460
987.947	52
988.027	789
988.108	-398
988.188	570
988.268	135
988.349	123
988.429	195
988.509	81
988.589	-310
988.670	-1036
988.750	1238
988.830	-132
988.910	-191
988.990	388
989.070	24
989.151	42
989.231	-218
989.311	-279
989.391	6
989.471	-456
989.551	214
989.631	461
989.711	274
989.791	-504
989.870	-85
989.950	209
990.030	-179
990.110	-222
990.190	236
990.269	79
990.349	-12
990.429	220
990.509	396
990.588	-599
990.668	210
990.747	-137
990.827	-183
990.907	-440
990.986	-723
991.066	36
991.145	277
991.225	369
991.304	246
991.383	-40
991.463	-109
991.542	417
991.622	485
991.701	-1094
991.780	-926
991.859	302
991.939	34
992.018	199
992.097	-99
992.176	-641
992.256	494
992.335	-272
992.414	773
992.493	-404
992.572	-581
992.651	647
992.730	-139
992.809	-242
992.888	-76
992.967	-29
993.046	-351
993.125	-884
993.203	-1055
993.282	-18
993.361	-222
993.440	-224
993.519	-240
993.597	402
993.676	-1225
993.755	628
993.834	-258
993.912	-950
993.991	-270
994.069	-458
994.148	237
994.226	-411
994.305	344
994.384	-989
994.462	216
994.540	-624
994.619	-182
994.697	445
994.776	-682
994.854	227
994.932	-855
995.011	358
995.089	-353
995.167	-526
995.245	21
995.324	-967
995.402	88
995.480	9
995.558	419
995.636	-1132
995.714	-549
995.792	751
995.870	-156
995.948	-20
996.026	-75
996.104	-805
996.182	700
996.260	-903
996.338	-800
996.416	-908
996.494	-615
996.572	540
996.649	-841
996.727	-855
996.805	-363
996.883	-508
996.960	-216
997.038	-205
997.116	-119
997.193	-623
997.271	-563
997.348	-649
997.426	-51
997.504	-359
997.581	-165
997.658	-28
997.736	-547
997.813	-518
997.891	-269
997.968	-595
998.046	-1010
998.123	-1147
998.200	-295
998.277	-647
998.355	-546
998.432	-1205
998.509	-246
998.586	-670
998.663	584
998.741	-229
998.818	-456
998.895	-280
998.972	-173
999.049	-621
999.126	-881
999.203	-347
999.280	-19
999.357	-598
999.434	-935
999.511	216
999.587	-342
999.664	-671
999.741	-335
999.818	-589
999.895	-497
999.971	-902
1000.048	-1038
1000.125	-21
1000.202	-760
1000.278	-155
1000.355	-420
1000.431	-1498
1000.508	-1223
1000.584	227
1000.661	-719
1000.738	-1202
1000.814	-476
1000.890	-611
1000.967	-833
1001.043	-358
1001.120	-1531
1001.196	88
1001.272	-1329
1001.349	-423
1001.425	-110
1001.501	-600
1001.577	-655
1001.654	-706
1001.730	-826
1001.806	-793
1001.882	-1085
1001.958	284
1002.034	-428
1002.110	-419
1002.186	-297
1002.262	-884
1002.338	-658
1002.414	-62
1002.490	-108
1002.566	-905
1002.642	-1280
1002.718	-83
1002.794	-721
1002.870	-428
1002.945	-462
1003.021	-429
1003.097	-1067
1003.173	-86
1003.248	-895
1003.324	-151
1003.400	-681
1003.475	-1123
1003.551	-772
1003.626	-777
1003.702	368
1003.777	-453
1003.853	-526
1003.928	-603
1004.004	-462
1004.079	-856
1004.155	155
1004.230	-1738
1004.305	-67
1004.381	-454
1004.456	-569
1004.531	-595
1004.607	-428
1004.682	-919
1004.757	-340
1004.832	-499
1004.907	-663
1004.982	-445
1005.057	-1058
1005.133	-361
1005.208	-270
1005.283	-355
1005.358	-624
1005.433	-458
1005.508	-318
1005.583	-1876
1005.657	-850
1005.732	-305
1005.807	-1547
1005.882	-419
1005.957	-806
1006.032	-598
1006.106	-496
1006.181	-643
1006.256	-959
1006.331	-1113
1006.405	-1078
1006.480	-1108
1006.554	-709
1006.629	-168
1006.704	-532
1006.778	-615
1006.853	-984
1006.927	-1252
1007.002	-636
1007.076	-713
1007.150	-480
1007.225	-287
1007.299	-157
1007.373	-1818
1007.448	-812
1007.522	-298
1007.596	176
1007.671	-866
1007.745	-188
1007.819	-1204
1007.893	-554
1007.967	-468
1008.041	-668
1008.115	-770
1008.190	-693
1008.264	173
1008.338	-865
1008.412	-497
1008.486	-853
1008.560	-701
1008.633	-1280
1008.707	-808
1008.781	-573
1008.855	-326
1008.929	-781
1009.003	-1461
1009.076	-568
1009.150	-1326
1009.224	-613
1009.298	15
1009.371	-1821
1009.445	-795
1009.519	-329
1009.592	-1359
1009.666	-301
1009.739	-1337
1009.813	-1526
1009.886	-944
1009.960	-1190
1010.033	381
1010.107	-699
1010.180	-1043
1010.253	-1642
1010.327	-1082
1010.400	-1329
1010.473	-929
1010.547	96
1010.620	-587
1010.693	-397
1010.766	-1306
1010.840	-467
1010.913	-830
1010.986	-1330
1011.059	-741
1011.132	-1131
1011.205	-271
1011.278	-1041
1011.351	-433
1011.424	-446
1011.497	-1008
1011.570	-1316
1011.643	-894
1011.716	-888
1011.789	-1388
1011.862	-554
1011.934	-528
1012.007	-1551
1012.080	-220
1012.153	-1015
1012.225	-95
1012.298	-1223
1012.371	-1121
1012.443	-673
1012.516	-772
1012.588	-897
1012.661	-1047
1012.733	-1242
1012.806	-698
1012.879	-1151
1012.951	-1333
1013.023	-1196
1013.096	-414
1013.168	-1134
1013.241	-613
1013.313	-1237
1013.385	-441
1013.458	-1113
1013.530	-545
1013.602	-1198
1013.674	-575
1013.746	-1334
1013.819	-1219
1013.891	332
1013.963	-1929
1014.035	-639
1014.107	-1304
1014.179	-561
1014.251	-1439
1014.323	-479
1014.395	-916
1014.467	-121
1014.539	-516
1014.611	-855
1014.683	-950
1014.754	-222
1014.826	-932
1014.898	-430
1014.970	-2028
1015.042	-73
1015.113	-699
1015.185	-1234
1015.257	-2245
1015.328	-796
1015.400	-792
1015.471	-444
1015.543	-1562
1015.615	-759
1015.686	-1265
1015.757	-989
1015.829	-809
1015.901	-962
1015.972	-1134
1016.043	-733
1016.115	-966
1016.186	-1126
1016.257	-830
1016.328	-603
1016.400	-962
1016.471	-623
1016.542	-1117
1016.613	-1188
1016.685	-452
1016.756	225
1016.827	-715
1016.898	-1840
1016.969	-191
1017.040	-740
1017.111	-669
1017.182	-1710
1017.253	-1234
1017.324	-414
1017.395	-819
1017.466	-726
1017.537	-1196
1017.608	-1115
1017.678	-1081
1017.749	-1201
1017.820	-414
1017.891	-1538
1017.961	-859
1018.032	-762
1018.103	-1031
1018.173	-671
1018.244	-964
1018.315	-1335
1018.385	-224
1018.456	-1115
1018.526	-1393
1018.597	-938
1018.667	-1444
1018.738	-992
1018.808	-1387
1018.878	-960
1018.949	-1316
1019.019	-1203
1019.089	-859
1019.160	-817
1019.230	-1470
1019.300	-682
1019.371	-1364
1019.441	-448
1019.511	-1039
1019.581	-697
1019.651	-342
1019.721	-987
1019.791	-905
1019.861	-1233
1019.931	-1090
1020.001	-342
1020.071	-785
1020.141	-927
1020.211	-1050
1020.281	-986
1020.351	-968
1020.421	-283
1020.491	-809
1020.560	-1051
1020.630	-832
1020.700	-946
1020.770	-1026
1020.839	-966
1020.909	-480
1020.979	-1745
1021.048	-1108
1021.118	-1330
1021.187	-1229
1021.257	-1067
1021.326	-141
1021.396	-1156
1021.465	-652
1021.535	-1256
1021.604	-1097
1021.674	-956
1021.743	-1039
1021.812	-1766
1021.882	-1174
1021.951	-868
1022.020	-1882
1022.089	-34
1022.159	-898
1022.228	-1080
1022.297	-1350
1022.366	-801
1022.435	-97
1022.504	-380
1022.573	-2253
1022.642	-465
1022.711	-1101
1022.781	-1560
1022.849	-750
1022.918	-702
1022.987	-1596
1023.056	-918
1023.125	-1614
1023.194	-713
1023.263	-570
1023.331	-324
1023.400	-1397
1023.469	-1270
1023.538	131
1023.606	-1211
1023.675	-1203
1023.744	-1645
1023.812	-1005
1023.881	-1402
1023.949	-1100
1024.018	-1453
1024.086	-843
1024.155	-589
1024.223	-1722
1024.292	-906
1024.360	-930
1024.429	-1660
1024.497	-1111
1024.565	-1041
1024.634	-1487
1024.702	-1046
1024.770	-213
1024.838	-1517
1024.907	-249
1024.975	-1589
1025.043	-754
1025.111	-1263
1025.179	-1340
1025.247	-667
1025.315	-1461
1025.383	-1280
1025.451	-1122
1025.519	-999
1025.587	-1090
1025.655	-964
1025.723	-1362
1025.791	-462
1025.859	-516
1025.927	-891
1025.995	-902
1026.062	-496
1026.130	-844
1026.198	-928
1026.266	-277
1026.333	-1061
1026.401	76
1026.469	-399
1026.536	-824
1026.604	-1159
1026.671	-1218
1026.739	-1220
1026.806	-1067
1026.874	-1039
1026.941	-1112
1027.009	-1431
1027.076	-1031
1027.144	-325
1027.211	-1308
1027.278	-1673
1027.345	-1521
1027.413	-1254
1027.480	-1175
1027.547	-871
1027.614	-2334
1027.682	-1399
1027.749	-1392
1027.816	-1586
1027.883	-553
1027.950	-923
1028.017	-2298
1028.084	-20
1028.151	-1634
1028.218	-1193
1028.285	309
1028.352	-888
1028.419	-1179
1028.486	-1105
1028.553	-1221
1028.619	-1216
1028.686	-1248
1028.753	-1715
1028.820	-443
1028.886	-903
1028.953	-1223
1029.020	-969
1029.086	-1377
1029.153	-699
1029.220	-446
1029.286	-1003
1029.353	-647
1029.419	-1284
1029.486	-1225
1029.552	-1486
1029.619	-1208
1029.685	-878
1029.751	-1390
1029.818	-261
1029.884	-1141
1029.951	-421
1030.017	-836
1030.083	-876
1030.149	-1798
1030.216	-1211
1030.282	-1144
1030.348	-834
1030.414	-745
1030.480	-315
1030.546	-1259
1030.612	-323
1030.678	-1330
1030.744	-653
1030.810	-1113
1030.876	-909
1030.942	-1809
1031.008	-36
1031.074	-1899
1031.140	-1280
1031.206	-161
1031.272	-1456
1031.337	-1768
1031.403	-848
1031.469	-1486
1031.534	-1416
1031.600	-668
1031.666	-1118
1031.731	-927
1031.797	-641
1031.863	-833
1031.928	-1184
1031.994	-706
1032.059	-831
1032.125	-1290
1032.190	-1575
1032.256	-857
1032.321	-1144
1032.386	-1065
1032.452	-1246
1032.517	-1063
1032.582	-1256
1032.647	-472
1032.713	-892
1032.778	-1011
1032.843	-1454
1032.908	-759
1032.974	-1023
1033.039	-1763
1033.104	-1149
1033.169	-956
1033.234	-1458
1033.299	-730
1033.364	-1196
1033.429	-1414
1033.494	-595
1033.559	-1931
1033.624	-1360
1033.688	-1257
1033.753	-969
1033.818	-425
1033.883	-1200
1033.948	-910
1034.013	-1852
1034.077	-765
1034.142	-198
1034.207	-808
1034.271	-311
1034.336	214
1034.400	-969
1034.465	-906
1034.530	-873
1034.594	-688
1034.658	-1240
1034.723	-2414
1034.787	-735
1034.852	-1293
1034.916	-1476
1034.981	-1288
1035.045	-1439
1035.109	-1579
1035.173	-783
1035.238	-1070
1035.302	-1604
1035.366	-524
1035.430	-1412
1035.495	-1276
1035.559	-1049
1035.623	-1133
1035.687	-1511
1035.751	-663
1035.815	-1344
1035.879	-1360
1035.943	-992
1036.007	-1552
1036.071	-1137
1036.135	-730
1036.198	-1310
1036.262	-1046
1036.326	-1123
1036.390	-1234
1036.454	-1101
1036.517	-1196
1036.581	-1124
1036.645	-572
1036.709	-306
1036.772	-390
1036.836	-999
1036.900	-1197
1036.963	-968
1037.026	-1814
1037.090	-1344
1037.154	-583
1037.217	-750
1037.280	-666
1037.344	-1430
1037.407	-1213
1037.471	-806
1037.534	-1273
1037.597	-891
1037.661	-1452
1037.724	-1106
1037.787	-1115
1037.850	-190
1037.913	-1324
1037.977	-1081
1038.040	-636
1038.103	-799
1038.166	-1189
1038.229	-1326
1038.292	-1188
1038.355	-711
1038.418	-1332
1038.481	-1436
1038.544	-1172
1038.607	-765
1038.670	-1365
1038.732	-956
1038.795	-1044
1038.858	-1265
1038.921	-1946
1038.984	-523
1039.046	-1051
1039.109	-2074
1039.172	-1241
1039.234	-933
1039.297	-1937
1039.360	-1645
1039.422	-1497
1039.485	-1768
1039.547	-1291
1039.610	-1241
1039.672	-698
1039.734	-1373
1039.797	-1583
1039.859	-1395
1039.922	-1076
1039.984	-1730
1040.046	-1502
1040.109	-1739
1040.171	-1146
1040.233	-821
1040.295	-1307
1040.358	-1566
1040.420	-1641
1040.482	-1465
1040.544	-817
1040.606	-1557
1040.668	-1458
1040.730	-1501
1040.792	-1261
1040.854	-550
1040.916	-1429
1040.978	-2021
1041.040	-669
1041.102	-1765
1041.164	-1153
1041.225	-2436
1041.287	-842
1041.349	-1580
1041.411	-982
1041.472	-1146
1041.534	-1289
1041.596	-1232
1041.657	-1029
1041.719	-1483
1041.781	-1279
1041.842	-1071
1041.904	-1356
1041.965	-43
1042.027	-1354
1042.088	-1691
1042.150	-979
1042.211	-459
1042.272	-1079
1042.334	-1345
1042.395	-640
1042.456	-1279
1042.518	-1543
1042.579	-920
1042.640	-1444
1042.701	-1226
1042.763	-949
1042.824	-1149
1042.885	-1616
1042.946	-799
1043.007	-1016
1043.068	-1185
1043.129	-1626
1043.190	-1425
1043.251	-1640
1043.312	-1141
1043.373	-668
1043.434	-1978
1043.495	-1379
1043.556	-1278
1043.616	-733
1043.677	-1611
1043.738	-1032
1043.799	-1503
1043.859	-1205
1043.920	-559
1043.981	-984
1044.041	-1436
1044.102	-1562
1044.162	-1230
1044.223	-893
1044.284	-1411
1044.344	-1138
1044.405	-1604
1044.465	-764
1044.525	-892
1044.586	-710
1044.646	-1162
1044.707	-580
1044.767	-463
1044.827	-1997
1044.887	-1429
1044.948	-642
1045.008	-1845
1045.068	-853
1045.128	-1173
1045.188	-825
1045.249	-324
1045.309	-1058
1045.369	-1202
1045.429	-1722
1045.489	-513
1045.549	-1064
1045.609	-480
1045.669	-1367
1045.729	-986
1045.789	-1330
1045.848	-787
1045.908	-933
1045.968	67
1046.028	-503
1046.088	-1002
1046.147	-1196
1046.207	-1050
1046.267	-688
1046.326	-679
1046.386	-1417
1046.446	-1000
1046.505	-375
1046.565	-508
1046.624	112
1046.684	144
1046.743	121
1046.803	170
1046.862	117
1046.922	0
